"view_history","rt","trial_type","trial_index","time_elapsed","internal_node_id","subject","stimulus_type","trial_stimulus","key_press","minimum_viewing_duration","trial_looking_time","block_deviant","block_background","stimulus","wall_pref","location","location_percent","block_number","block_type","stimulus_displayed","position_displayed","stim_type_selected","responses","question_order","stimulus_left","stimulus_right"
"[{""page_index"":0,""viewing_time"":1076.4699999708682}]","1076.8300000345334","instructions","0","1078","0.0-0.0","SS1613098760891","","","","","","","","","","","","","","","","","","","",""
"[{""page_index"":0,""viewing_time"":1331.4399999799207},{""page_index"":1,""viewing_time"":4786.054999916814}]","6117.7199999801815","instructions","1","9199","0.0-1.0","SS1613098760891","instructions","","","","","","","","","","","","","","","","","","",""
"","4873.660000041127","sequential-stimulus-presentation","2","14889","0.0-2.0","SS1613098760891","","","40","800","5673.660000041127","null","null","","","","","","","","","","","","",""
"","1527.9399999417365","sequential-stimulus-presentation","3","17224","0.0-3.0","SS1613098760891","","","40","800","2327.9399999417365","null","null","","","","","","","","","","","","",""
"[{""page_index"":0,""viewing_time"":4220.595000078902}]","4220.790000050329","instructions","4","21446","0.0-4.0","SS1613098760891","instructions","","","","","","","","","","","","","","","","","","",""
"","13415.659999940544","html-keyboard-response","5","34864","0.0-5.0","SS1613098760891","instructions","","50","","","","","<video width ='960' height = '540' autoplay muted><source src='images/stimuli/wall_pref.mp4' type='video/mp4'></video>","2","middle","45%","","","","","","","","",""
"","2659.804999944754","sequential-stimulus-presentation","6","38327","0.0-6.0","SS1613098760891","pref_reveal","","40","800","3459.804999944754","null","null","","","","","","","","","","","","",""
"[{""page_index"":0,""viewing_time"":8296.01999989245},{""page_index"":1,""viewing_time"":8149.28500005044},{""page_index"":2,""viewing_time"":1776.1200000531971},{""page_index"":3,""viewing_time"":1465.7299999380484}]","19687.419999972917","instructions","7","58016","0.0-7.0","SS1613098760891","instructions","","","","","","","","","","","","","","","","","","",""
"","null","html-keyboard-response","8","58998","0.0-8.0-0.0","SS1613098760891","","","null","","","","","<p><img src= images/blank.png width =""200"" height = ""200"" style = ""float:right""></p><p><img src=images/blank.png width =""800"" height = ""200""></p>","","","","","","","","","","","",""
"","8364.99500006903","sequential-stimulus-presentation","9","68167","0.0-8.0-1.0","SS1613098760891","trial","","40","800","9164.99500006903","images/stimuli/spore_stims/complex_17_A_c.gif","images/stimuli/spore_stims/complex_09_B_d.gif","","","","","0","complex_dissimilar","images/stimuli/spore_stims/complex_09_B_d.gif","left","","","","",""
"","null","html-keyboard-response","10","69095","0.0-8.0-0.1","SS1613098760891","","","null","","","","","<p><img src= images/blank.png width =""200"" height = ""200"" style = ""float:right""></p><p><img src=images/blank.png width =""800"" height = ""200""></p>","","","","","","","","","","","",""
"","1834.2699999921024","sequential-stimulus-presentation","11","71736","0.0-8.0-1.1","SS1613098760891","trial","","40","800","2634.2699999921024","images/stimuli/spore_stims/complex_17_A_c.gif","images/stimuli/spore_stims/complex_09_B_d.gif","","","","","0","complex_dissimilar","images/stimuli/spore_stims/complex_09_B_d.gif","left","","","","",""
"","null","html-keyboard-response","12","72933","0.0-8.0-0.2","SS1613098760891","","","null","","","","","<p><img src= images/blank.png width =""200"" height = ""200"" style = ""float:right""></p><p><img src=images/blank.png width =""800"" height = ""200""></p>","","","","","","","","","","","",""
"","1333.0099999438971","sequential-stimulus-presentation","13","75071","0.0-8.0-1.2","SS1613098760891","trial","","40","800","2133.009999943897","images/stimuli/spore_stims/complex_17_A_c.gif","images/stimuli/spore_stims/complex_09_B_d.gif","","","","","0","complex_dissimilar","images/stimuli/spore_stims/complex_17_A_c.gif","middle","","","","",""
"","null","html-keyboard-response","14","76166","0.0-8.0-0.3","SS1613098760891","","","null","","","","","<p><img src= images/blank.png width =""200"" height = ""200"" style = ""float:right""></p><p><img src=images/blank.png width =""800"" height = ""200""></p>","","","","","","","","","","","",""
"","677.8749999357387","sequential-stimulus-presentation","15","77655","0.0-8.0-1.3","SS1613098760891","trial","","40","800","1477.8749999357387","images/stimuli/spore_stims/complex_17_A_c.gif","images/stimuli/spore_stims/complex_09_B_d.gif","","","","","0","complex_dissimilar","images/stimuli/spore_stims/complex_09_B_d.gif","left","","","","",""
"","null","html-keyboard-response","16","78823","0.0-8.0-0.4","SS1613098760891","","","null","","","","","<p><img src= images/blank.png width =""200"" height = ""200"" style = ""float:right""></p><p><img src=images/blank.png width =""800"" height = ""200""></p>","","","","","","","","","","","",""
"","643.7100000912324","sequential-stimulus-presentation","17","80272","0.0-8.0-1.4","SS1613098760891","trial","","40","800","1443.7100000912324","images/stimuli/spore_stims/complex_17_A_c.gif","images/stimuli/spore_stims/complex_09_B_d.gif","","","","","0","complex_dissimilar","images/stimuli/spore_stims/complex_09_B_d.gif","left","","","","",""
"","null","html-keyboard-response","18","81452","0.0-8.0-0.5","SS1613098760891","","","null","","","","","<p><img src= images/blank.png width =""200"" height = ""200"" style = ""float:right""></p><p><img src=images/blank.png width =""800"" height = ""200""></p>","","","","","","","","","","","",""
"","789.1850000014529","sequential-stimulus-presentation","19","83055","0.0-8.0-1.5","SS1613098760891","trial","","40","800","1589.1850000014529","images/stimuli/spore_stims/complex_17_A_c.gif","images/stimuli/spore_stims/complex_09_B_d.gif","","","","","0","complex_dissimilar","images/stimuli/spore_stims/complex_09_B_d.gif","left","","","","",""
"","null","html-keyboard-response","20","84243","0.0-8.0-0.6","SS1613098760891","","","null","","","","","<p><img src= images/blank.png width =""200"" height = ""200"" style = ""float:right""></p><p><img src=images/blank.png width =""800"" height = ""200""></p>","","","","","","","","","","","",""
"","885.9300001058728","sequential-stimulus-presentation","21","85935","0.0-8.0-1.6","SS1613098760891","trial","","40","800","1685.9300001058728","images/stimuli/spore_stims/complex_17_A_c.gif","images/stimuli/spore_stims/complex_09_B_d.gif","","","","","0","complex_dissimilar","images/stimuli/spore_stims/complex_09_B_d.gif","left","","","","",""
"","null","html-keyboard-response","22","86788","0.0-8.0-0.7","SS1613098760891","","","null","","","","","<p><img src= images/blank.png width =""200"" height = ""200"" style = ""float:right""></p><p><img src=images/blank.png width =""800"" height = ""200""></p>","","","","","","","","","","","",""
"","1759.6899999771267","sequential-stimulus-presentation","23","89359","0.0-8.0-1.7","SS1613098760891","trial","","40","800","2559.6899999771267","images/stimuli/spore_stims/complex_17_A_c.gif","images/stimuli/spore_stims/complex_09_B_d.gif","","","","","0","complex_dissimilar","images/stimuli/spore_stims/complex_09_B_d.gif","left","","","","",""
"","3385.429999907501","html-keyboard-response","24","92759","0.0-9.0","SS1613098760891","pref_question","","49","","","","","<video width ='960' height = '540' style='padding-top:8%' autoplay muted><source src='images/stimuli/wall_pref.mp4' type='video/mp4'></video>","1","left","25%","0","","","","","","","",""
"","1336.5700000431389","sequential-stimulus-presentation","25","94903","0.0-10.0","SS1613098760891","pref_reveal","","40","800","2136.570000043139","null","null","","","","","0","","","","background","","","",""
"","null","html-keyboard-response","26","95934","0.0-11.0-0.0","SS1613098760891","","","null","","","","","<p><img src= images/blank.png width =""200"" height = ""200"" style = ""float:right""></p><p><img src=images/blank.png width =""800"" height = ""200""></p>","","","","","","","","","","","",""
"","2724.9299999093637","sequential-stimulus-presentation","27","99464","0.0-11.0-1.0","SS1613098760891","trial","","40","800","3524.9299999093637","images/stimuli/spore_stims/complex_16_B_b.gif","images/stimuli/spore_stims/complex_16_A_b.gif","","","","","1","complex_similar","images/stimuli/spore_stims/complex_16_A_b.gif","left","","","","",""
"","null","html-keyboard-response","28","100596","0.0-11.0-0.1","SS1613098760891","","","null","","","","","<p><img src= images/blank.png width =""200"" height = ""200"" style = ""float:right""></p><p><img src=images/blank.png width =""800"" height = ""200""></p>","","","","","","","","","","","",""
"","751.1749999830499","sequential-stimulus-presentation","29","102152","0.0-11.0-1.1","SS1613098760891","trial","","40","800","1551.17499998305","images/stimuli/spore_stims/complex_16_B_b.gif","images/stimuli/spore_stims/complex_16_A_b.gif","","","","","1","complex_similar","images/stimuli/spore_stims/complex_16_A_b.gif","left","","","","",""
"","null","html-keyboard-response","30","103323","0.0-11.0-0.2","SS1613098760891","","","null","","","","","<p><img src= images/blank.png width =""200"" height = ""200"" style = ""float:right""></p><p><img src=images/blank.png width =""800"" height = ""200""></p>","","","","","","","","","","","",""
"","1978.6950000561774","sequential-stimulus-presentation","31","106119","0.0-11.0-1.2","SS1613098760891","trial","","40","800","2778.6950000561774","images/stimuli/spore_stims/complex_16_B_b.gif","images/stimuli/spore_stims/complex_16_A_b.gif","","","","","1","complex_similar","images/stimuli/spore_stims/complex_16_A_b.gif","left","","","","",""
"","null","html-keyboard-response","32","107091","0.0-11.0-0.3","SS1613098760891","","","null","","","","","<p><img src= images/blank.png width =""200"" height = ""200"" style = ""float:right""></p><p><img src=images/blank.png width =""800"" height = ""200""></p>","","","","","","","","","","","",""
"","1969.0699999919161","sequential-stimulus-presentation","33","109863","0.0-11.0-1.3","SS1613098760891","trial","","40","800","2769.069999991916","images/stimuli/spore_stims/complex_16_B_b.gif","images/stimuli/spore_stims/complex_16_A_b.gif","","","","","1","complex_similar","images/stimuli/spore_stims/complex_16_A_b.gif","left","","","","",""
"","null","html-keyboard-response","34","110841","0.0-11.0-0.4","SS1613098760891","","","null","","","","","<p><img src= images/blank.png width =""200"" height = ""200"" style = ""float:right""></p><p><img src=images/blank.png width =""800"" height = ""200""></p>","","","","","","","","","","","",""
"","968.6800000490621","sequential-stimulus-presentation","35","112615","0.0-11.0-1.4","SS1613098760891","trial","","40","800","1768.680000049062","images/stimuli/spore_stims/complex_16_B_b.gif","images/stimuli/spore_stims/complex_16_A_b.gif","","","","","1","complex_similar","images/stimuli/spore_stims/complex_16_A_b.gif","left","","","","",""
"","null","html-keyboard-response","36","113657","0.0-11.0-0.5","SS1613098760891","","","null","","","","","<p><img src= images/blank.png width =""200"" height = ""200"" style = ""float:right""></p><p><img src=images/blank.png width =""800"" height = ""200""></p>","","","","","","","","","","","",""
"","1874.8149999883026","sequential-stimulus-presentation","37","116336","0.0-11.0-1.5","SS1613098760891","trial","","40","800","2674.8149999883026","images/stimuli/spore_stims/complex_16_B_b.gif","images/stimuli/spore_stims/complex_16_A_b.gif","","","","","1","complex_similar","images/stimuli/spore_stims/complex_16_A_b.gif","left","","","","",""
"","null","html-keyboard-response","38","117282","0.0-11.0-0.6","SS1613098760891","","","null","","","","","<p><img src= images/blank.png width =""200"" height = ""200"" style = ""float:right""></p><p><img src=images/blank.png width =""800"" height = ""200""></p>","","","","","","","","","","","",""
"","924.4000000180677","sequential-stimulus-presentation","39","119024","0.0-11.0-1.6","SS1613098760891","trial","","40","800","1724.4000000180677","images/stimuli/spore_stims/complex_16_B_b.gif","images/stimuli/spore_stims/complex_16_A_b.gif","","","","","1","complex_similar","images/stimuli/spore_stims/complex_16_A_b.gif","left","","","","",""
"","null","html-keyboard-response","40","120033","0.0-11.0-0.7","SS1613098760891","","","null","","","","","<p><img src= images/blank.png width =""200"" height = ""200"" style = ""float:right""></p><p><img src=images/blank.png width =""800"" height = ""200""></p>","","","","","","","","","","","",""
"","674.5750000700355","sequential-stimulus-presentation","41","121512","0.0-11.0-1.7","SS1613098760891","trial","","40","800","1474.5750000700355","images/stimuli/spore_stims/complex_16_B_b.gif","images/stimuli/spore_stims/complex_16_A_b.gif","","","","","1","complex_similar","images/stimuli/spore_stims/complex_16_B_b.gif","right","","","","",""
"","1533.6000000825152","html-keyboard-response","42","123048","0.0-12.0","SS1613098760891","pref_question","","51","","","","","<video width ='960' height = '540' style='padding-top:8%' autoplay muted><source src='images/stimuli/wall_pref.mp4' type='video/mp4'></video>","3","right","66%","1","","","","","","","",""
"","2543.6700000427663","sequential-stimulus-presentation","43","126400","0.0-13.0","SS1613098760891","pref_reveal","","40","800","3343.6700000427663","null","null","","","","","1","","","","deviant","","","",""
"","null","html-keyboard-response","44","127483","0.0-14.0-0.0","SS1613098760891","","","null","","","","","<p><img src= images/blank.png width =""200"" height = ""200"" style = ""float:right""></p><p><img src=images/blank.png width =""800"" height = ""200""></p>","","","","","","","","","","","",""
"","2679.950000019744","sequential-stimulus-presentation","45","130968","0.0-14.0-1.0","SS1613098760891","trial","","40","800","3479.950000019744","images/stimuli/spore_stims/simple_15_B_a.gif","images/stimuli/spore_stims/simple_13_A_d.gif","","","","","2","simple_dissimilar","images/stimuli/spore_stims/simple_13_A_d.gif","middle","","","","",""
"","null","html-keyboard-response","46","132035","0.0-14.0-0.1","SS1613098760891","","","null","","","","","<p><img src= images/blank.png width =""200"" height = ""200"" style = ""float:right""></p><p><img src=images/blank.png width =""800"" height = ""200""></p>","","","","","","","","","","","",""
"","1328.2050000270829","sequential-stimulus-presentation","47","134168","0.0-14.0-1.1","SS1613098760891","trial","","40","800","2128.205000027083","images/stimuli/spore_stims/simple_15_B_a.gif","images/stimuli/spore_stims/simple_13_A_d.gif","","","","","2","simple_dissimilar","images/stimuli/spore_stims/simple_13_A_d.gif","middle","","","","",""
"","null","html-keyboard-response","48","135338","0.0-14.0-0.2","SS1613098760891","","","null","","","","","<p><img src= images/blank.png width =""200"" height = ""200"" style = ""float:right""></p><p><img src=images/blank.png width =""800"" height = ""200""></p>","","","","","","","","","","","",""
"","623.7899999832734","sequential-stimulus-presentation","49","136768","0.0-14.0-1.2","SS1613098760891","trial","","40","800","1423.7899999832734","images/stimuli/spore_stims/simple_15_B_a.gif","images/stimuli/spore_stims/simple_13_A_d.gif","","","","","2","simple_dissimilar","images/stimuli/spore_stims/simple_13_A_d.gif","middle","","","","",""
"","null","html-keyboard-response","50","137734","0.0-14.0-0.3","SS1613098760891","","","null","","","","","<p><img src= images/blank.png width =""200"" height = ""200"" style = ""float:right""></p><p><img src=images/blank.png width =""800"" height = ""200""></p>","","","","","","","","","","","",""
"","724.8700000345707","sequential-stimulus-presentation","51","139264","0.0-14.0-1.3","SS1613098760891","trial","","40","800","1524.8700000345707","images/stimuli/spore_stims/simple_15_B_a.gif","images/stimuli/spore_stims/simple_13_A_d.gif","","","","","2","simple_dissimilar","images/stimuli/spore_stims/simple_13_A_d.gif","middle","","","","",""
"","null","html-keyboard-response","52","140381","0.0-14.0-0.4","SS1613098760891","","","null","","","","","<p><img src= images/blank.png width =""200"" height = ""200"" style = ""float:right""></p><p><img src=images/blank.png width =""800"" height = ""200""></p>","","","","","","","","","","","",""
"","631.5249999752268","sequential-stimulus-presentation","53","141816","0.0-14.0-1.4","SS1613098760891","trial","","40","800","1431.5249999752268","images/stimuli/spore_stims/simple_15_B_a.gif","images/stimuli/spore_stims/simple_13_A_d.gif","","","","","2","simple_dissimilar","images/stimuli/spore_stims/simple_13_A_d.gif","middle","","","","",""
"","null","html-keyboard-response","54","142687","0.0-14.0-0.5","SS1613098760891","","","null","","","","","<p><img src= images/blank.png width =""200"" height = ""200"" style = ""float:right""></p><p><img src=images/blank.png width =""800"" height = ""200""></p>","","","","","","","","","","","",""
"","749.4850000366569","sequential-stimulus-presentation","55","144240","0.0-14.0-1.5","SS1613098760891","trial","","40","800","1549.4850000366569","images/stimuli/spore_stims/simple_15_B_a.gif","images/stimuli/spore_stims/simple_13_A_d.gif","","","","","2","simple_dissimilar","images/stimuli/spore_stims/simple_13_A_d.gif","middle","","","","",""
"","null","html-keyboard-response","56","145143","0.0-14.0-0.6","SS1613098760891","","","null","","","","","<p><img src= images/blank.png width =""200"" height = ""200"" style = ""float:right""></p><p><img src=images/blank.png width =""800"" height = ""200""></p>","","","","","","","","","","","",""
"","1660.840000025928","sequential-stimulus-presentation","57","147608","0.0-14.0-1.6","SS1613098760891","trial","","40","800","2460.840000025928","images/stimuli/spore_stims/simple_15_B_a.gif","images/stimuli/spore_stims/simple_13_A_d.gif","","","","","2","simple_dissimilar","images/stimuli/spore_stims/simple_15_B_a.gif","left","","","","",""
"","null","html-keyboard-response","58","148899","0.0-14.0-0.7","SS1613098760891","","","null","","","","","<p><img src= images/blank.png width =""200"" height = ""200"" style = ""float:right""></p><p><img src=images/blank.png width =""800"" height = ""200""></p>","","","","","","","","","","","",""
"","419.05000002589077","sequential-stimulus-presentation","59","150128","0.0-14.0-1.7","SS1613098760891","trial","","40","800","1219.0500000258908","images/stimuli/spore_stims/simple_15_B_a.gif","images/stimuli/spore_stims/simple_13_A_d.gif","","","","","2","simple_dissimilar","images/stimuli/spore_stims/simple_13_A_d.gif","middle","","","","",""
"","1244.9799999594688","html-keyboard-response","60","151376","0.0-15.0","SS1613098760891","pref_question","","50","","","","","<video width ='960' height = '540' style='padding-top:8%' autoplay muted><source src='images/stimuli/wall_pref.mp4' type='video/mp4'></video>","2","middle","45%","2","","","","","","","",""
"","596.7999999411404","sequential-stimulus-presentation","61","152778","0.0-16.0","SS1613098760891","pref_reveal","","40","800","1396.7999999411404","null","null","","","","","2","","","","background","","","",""
"","null","html-keyboard-response","62","153918","0.0-17.0-0.0","SS1613098760891","","","null","","","","","<p><img src= images/blank.png width =""200"" height = ""200"" style = ""float:right""></p><p><img src=images/blank.png width =""800"" height = ""200""></p>","","","","","","","","","","","",""
"","692.7099999738857","sequential-stimulus-presentation","63","155417","0.0-17.0-1.0","SS1613098760891","trial","","40","800","1492.7099999738857","images/stimuli/spore_stims/simple_18_B_a.gif","images/stimuli/spore_stims/simple_18_A_a.gif","","","","","3","simple_similar","images/stimuli/spore_stims/simple_18_A_a.gif","middle","","","","",""
"","null","html-keyboard-response","64","156431","0.0-17.0-0.1","SS1613098760891","","","null","","","","","<p><img src= images/blank.png width =""200"" height = ""200"" style = ""float:right""></p><p><img src=images/blank.png width =""800"" height = ""200""></p>","","","","","","","","","","","",""
"","2201.829999918118","sequential-stimulus-presentation","65","159448","0.0-17.0-1.1","SS1613098760891","trial","","40","800","3001.829999918118","images/stimuli/spore_stims/simple_18_B_a.gif","images/stimuli/spore_stims/simple_18_A_a.gif","","","","","3","simple_similar","images/stimuli/spore_stims/simple_18_A_a.gif","middle","","","","",""
"","null","html-keyboard-response","66","160463","0.0-17.0-0.2","SS1613098760891","","","null","","","","","<p><img src= images/blank.png width =""200"" height = ""200"" style = ""float:right""></p><p><img src=images/blank.png width =""800"" height = ""200""></p>","","","","","","","","","","","",""
"","995.6999999703839","sequential-stimulus-presentation","67","162264","0.0-17.0-1.2","SS1613098760891","trial","","40","800","1795.699999970384","images/stimuli/spore_stims/simple_18_B_a.gif","images/stimuli/spore_stims/simple_18_A_a.gif","","","","","3","simple_similar","images/stimuli/spore_stims/simple_18_A_a.gif","middle","","","","",""
"","null","html-keyboard-response","68","163283","0.0-17.0-0.3","SS1613098760891","","","null","","","","","<p><img src= images/blank.png width =""200"" height = ""200"" style = ""float:right""></p><p><img src=images/blank.png width =""800"" height = ""200""></p>","","","","","","","","","","","",""
"","784.8050000611693","sequential-stimulus-presentation","69","164872","0.0-17.0-1.3","SS1613098760891","trial","","40","800","1584.8050000611693","images/stimuli/spore_stims/simple_18_B_a.gif","images/stimuli/spore_stims/simple_18_A_a.gif","","","","","3","simple_similar","images/stimuli/spore_stims/simple_18_A_a.gif","middle","","","","",""
"","null","html-keyboard-response","70","165825","0.0-17.0-0.4","SS1613098760891","","","null","","","","","<p><img src= images/blank.png width =""200"" height = ""200"" style = ""float:right""></p><p><img src=images/blank.png width =""800"" height = ""200""></p>","","","","","","","","","","","",""
"","743.3849999215454","sequential-stimulus-presentation","71","167376","0.0-17.0-1.4","SS1613098760891","trial","","40","800","1543.3849999215454","images/stimuli/spore_stims/simple_18_B_a.gif","images/stimuli/spore_stims/simple_18_A_a.gif","","","","","3","simple_similar","images/stimuli/spore_stims/simple_18_B_a.gif","left","","","","",""
"","null","html-keyboard-response","72","168673","0.0-17.0-0.5","SS1613098760891","","","null","","","","","<p><img src= images/blank.png width =""200"" height = ""200"" style = ""float:right""></p><p><img src=images/blank.png width =""800"" height = ""200""></p>","","","","","","","","","","","",""
"","1616.029999917373","sequential-stimulus-presentation","73","171105","0.0-17.0-1.5","SS1613098760891","trial","","40","800","2416.029999917373","images/stimuli/spore_stims/simple_18_B_a.gif","images/stimuli/spore_stims/simple_18_A_a.gif","","","","","3","simple_similar","images/stimuli/spore_stims/simple_18_A_a.gif","middle","","","","",""
"","null","html-keyboard-response","74","171996","0.0-17.0-0.6","SS1613098760891","","","null","","","","","<p><img src= images/blank.png width =""200"" height = ""200"" style = ""float:right""></p><p><img src=images/blank.png width =""800"" height = ""200""></p>","","","","","","","","","","","",""
"","880.1500000990927","sequential-stimulus-presentation","75","173680","0.0-17.0-1.6","SS1613098760891","trial","","40","800","1680.1500000990927","images/stimuli/spore_stims/simple_18_B_a.gif","images/stimuli/spore_stims/simple_18_A_a.gif","","","","","3","simple_similar","images/stimuli/spore_stims/simple_18_A_a.gif","middle","","","","",""
"","null","html-keyboard-response","76","174862","0.0-17.0-0.7","SS1613098760891","","","null","","","","","<p><img src= images/blank.png width =""200"" height = ""200"" style = ""float:right""></p><p><img src=images/blank.png width =""800"" height = ""200""></p>","","","","","","","","","","","",""
"","638.704999932088","sequential-stimulus-presentation","77","176305","0.0-17.0-1.7","SS1613098760891","trial","","40","800","1438.704999932088","images/stimuli/spore_stims/simple_18_B_a.gif","images/stimuli/spore_stims/simple_18_A_a.gif","","","","","3","simple_similar","images/stimuli/spore_stims/simple_18_A_a.gif","middle","","","","",""
"","962.7199999522418","html-keyboard-response","78","177280","0.0-18.0","SS1613098760891","pref_question","","50","","","","","<video width ='960' height = '540' style='padding-top:8%' autoplay muted><source src='images/stimuli/wall_pref.mp4' type='video/mp4'></video>","2","middle","45%","3","","","","","","","",""
"","843.5199999948964","sequential-stimulus-presentation","79","178928","0.0-19.0","SS1613098760891","pref_reveal","","40","800","1643.5199999948964","null","null","","","","","3","","","","background","","","",""
"","null","html-keyboard-response","80","179739","0.0-20.0-0.0","SS1613098760891","","","null","","","","","<p><img src= images/blank.png width =""200"" height = ""200"" style = ""float:right""></p><p><img src=images/blank.png width =""800"" height = ""200""></p>","","","","","","","","","","","",""
"","568.3450000360608","sequential-stimulus-presentation","81","181112","0.0-20.0-1.0","SS1613098760891","trial","","40","800","1368.3450000360608","images/stimuli/spore_stims/simple_05_B_d.gif","images/stimuli/spore_stims/simple_12_B_c.gif","","","","","4","simple_dissimilar","images/stimuli/spore_stims/simple_12_B_c.gif","middle","","","","",""
"","null","html-keyboard-response","82","181949","0.0-20.0-0.1","SS1613098760891","","","null","","","","","<p><img src= images/blank.png width =""200"" height = ""200"" style = ""float:right""></p><p><img src=images/blank.png width =""800"" height = ""200""></p>","","","","","","","","","","","",""
"","742.0949999941513","sequential-stimulus-presentation","83","183496","0.0-20.0-1.1","SS1613098760891","trial","","40","800","1542.0949999941513","images/stimuli/spore_stims/simple_05_B_d.gif","images/stimuli/spore_stims/simple_12_B_c.gif","","","","","4","simple_dissimilar","images/stimuli/spore_stims/simple_12_B_c.gif","middle","","","","",""
"","null","html-keyboard-response","84","184449","0.0-20.0-0.2","SS1613098760891","","","null","","","","","<p><img src= images/blank.png width =""200"" height = ""200"" style = ""float:right""></p><p><img src=images/blank.png width =""800"" height = ""200""></p>","","","","","","","","","","","",""
"","715.6299999915063","sequential-stimulus-presentation","85","185968","0.0-20.0-1.2","SS1613098760891","trial","","40","800","1515.6299999915063","images/stimuli/spore_stims/simple_05_B_d.gif","images/stimuli/spore_stims/simple_12_B_c.gif","","","","","4","simple_dissimilar","images/stimuli/spore_stims/simple_12_B_c.gif","middle","","","","",""
"","null","html-keyboard-response","86","186855","0.0-20.0-0.3","SS1613098760891","","","null","","","","","<p><img src= images/blank.png width =""200"" height = ""200"" style = ""float:right""></p><p><img src=images/blank.png width =""800"" height = ""200""></p>","","","","","","","","","","","",""
"","3699.7199999168515","sequential-stimulus-presentation","87","191360","0.0-20.0-1.3","SS1613098760891","trial","","40","800","4499.7199999168515","images/stimuli/spore_stims/simple_05_B_d.gif","images/stimuli/spore_stims/simple_12_B_c.gif","","","","","4","simple_dissimilar","images/stimuli/spore_stims/simple_05_B_d.gif","right","","","","",""
"","null","html-keyboard-response","88","192207","0.0-20.0-0.4","SS1613098760891","","","null","","","","","<p><img src= images/blank.png width =""200"" height = ""200"" style = ""float:right""></p><p><img src=images/blank.png width =""800"" height = ""200""></p>","","","","","","","","","","","",""
"","780.365000013262","sequential-stimulus-presentation","89","193792","0.0-20.0-1.4","SS1613098760891","trial","","40","800","1580.365000013262","images/stimuli/spore_stims/simple_05_B_d.gif","images/stimuli/spore_stims/simple_12_B_c.gif","","","","","4","simple_dissimilar","images/stimuli/spore_stims/simple_12_B_c.gif","middle","","","","",""
"","null","html-keyboard-response","90","194780","0.0-20.0-0.5","SS1613098760891","","","null","","","","","<p><img src= images/blank.png width =""200"" height = ""200"" style = ""float:right""></p><p><img src=images/blank.png width =""800"" height = ""200""></p>","","","","","","","","","","","",""
"","863.4150000289083","sequential-stimulus-presentation","91","196448","0.0-20.0-1.5","SS1613098760891","trial","","40","800","1663.4150000289083","images/stimuli/spore_stims/simple_05_B_d.gif","images/stimuli/spore_stims/simple_12_B_c.gif","","","","","4","simple_dissimilar","images/stimuli/spore_stims/simple_12_B_c.gif","middle","","","","",""
"","null","html-keyboard-response","92","197311","0.0-20.0-0.6","SS1613098760891","","","null","","","","","<p><img src= images/blank.png width =""200"" height = ""200"" style = ""float:right""></p><p><img src=images/blank.png width =""800"" height = ""200""></p>","","","","","","","","","","","",""
"","667.7749999798834","sequential-stimulus-presentation","93","198783","0.0-20.0-1.6","SS1613098760891","trial","","40","800","1467.7749999798834","images/stimuli/spore_stims/simple_05_B_d.gif","images/stimuli/spore_stims/simple_12_B_c.gif","","","","","4","simple_dissimilar","images/stimuli/spore_stims/simple_12_B_c.gif","middle","","","","",""
"","null","html-keyboard-response","94","199908","0.0-20.0-0.7","SS1613098760891","","","null","","","","","<p><img src= images/blank.png width =""200"" height = ""200"" style = ""float:right""></p><p><img src=images/blank.png width =""800"" height = ""200""></p>","","","","","","","","","","","",""
"","2176.340000005439","sequential-stimulus-presentation","95","202889","0.0-20.0-1.7","SS1613098760891","trial","","40","800","2976.340000005439","images/stimuli/spore_stims/simple_05_B_d.gif","images/stimuli/spore_stims/simple_12_B_c.gif","","","","","4","simple_dissimilar","images/stimuli/spore_stims/simple_12_B_c.gif","middle","","","","",""
"","1083.8500000536442","html-keyboard-response","96","203976","0.0-21.0","SS1613098760891","pref_question","","50","","","","","<video width ='960' height = '540' style='padding-top:8%' autoplay muted><source src='images/stimuli/wall_pref.mp4' type='video/mp4'></video>","2","middle","45%","4","","","","","","","",""
"","814.9650000268593","sequential-stimulus-presentation","97","205608","0.0-22.0","SS1613098760891","pref_reveal","","40","800","1614.9650000268593","null","null","","","","","4","","","","background","","","",""
"","null","html-keyboard-response","98","206873","0.0-23.0-0.0","SS1613098760891","","","null","","","","","<p><img src= images/blank.png width =""200"" height = ""200"" style = ""float:right""></p><p><img src=images/blank.png width =""800"" height = ""200""></p>","","","","","","","","","","","",""
"","568.3549999957904","sequential-stimulus-presentation","99","208256","0.0-23.0-1.0","SS1613098760891","trial","","40","800","1368.3549999957904","images/stimuli/spore_stims/complex_12_A_b.gif","images/stimuli/spore_stims/complex_12_B_b.gif","","","","","5","complex_similar","images/stimuli/spore_stims/complex_12_B_b.gif","middle","","","","",""
"","null","html-keyboard-response","100","209196","0.0-23.0-0.1","SS1613098760891","","","null","","","","","<p><img src= images/blank.png width =""200"" height = ""200"" style = ""float:right""></p><p><img src=images/blank.png width =""800"" height = ""200""></p>","","","","","","","","","","","",""
"","454.94500000495464","sequential-stimulus-presentation","101","210456","0.0-23.0-1.1","SS1613098760891","trial","","40","800","1254.9450000049546","images/stimuli/spore_stims/complex_12_A_b.gif","images/stimuli/spore_stims/complex_12_B_b.gif","","","","","5","complex_similar","images/stimuli/spore_stims/complex_12_B_b.gif","middle","","","","",""
"","null","html-keyboard-response","102","211744","0.0-23.0-0.2","SS1613098760891","","","null","","","","","<p><img src= images/blank.png width =""200"" height = ""200"" style = ""float:right""></p><p><img src=images/blank.png width =""800"" height = ""200""></p>","","","","","","","","","","","",""
"","396.39999996870756","sequential-stimulus-presentation","103","212945","0.0-23.0-1.2","SS1613098760891","trial","","40","800","1196.3999999687076","images/stimuli/spore_stims/complex_12_A_b.gif","images/stimuli/spore_stims/complex_12_B_b.gif","","","","","5","complex_similar","images/stimuli/spore_stims/complex_12_B_b.gif","middle","","","","",""
"","null","html-keyboard-response","104","213780","0.0-23.0-0.3","SS1613098760891","","","null","","","","","<p><img src= images/blank.png width =""200"" height = ""200"" style = ""float:right""></p><p><img src=images/blank.png width =""800"" height = ""200""></p>","","","","","","","","","","","",""
"","735.6500000460073","sequential-stimulus-presentation","105","215320","0.0-23.0-1.3","SS1613098760891","trial","","40","800","1535.6500000460073","images/stimuli/spore_stims/complex_12_A_b.gif","images/stimuli/spore_stims/complex_12_B_b.gif","","","","","5","complex_similar","images/stimuli/spore_stims/complex_12_B_b.gif","middle","","","","",""
"","null","html-keyboard-response","106","216241","0.0-23.0-0.4","SS1613098760891","","","null","","","","","<p><img src= images/blank.png width =""200"" height = ""200"" style = ""float:right""></p><p><img src=images/blank.png width =""800"" height = ""200""></p>","","","","","","","","","","","",""
"","682.5299999909475","sequential-stimulus-presentation","107","217728","0.0-23.0-1.4","SS1613098760891","trial","","40","800","1482.5299999909475","images/stimuli/spore_stims/complex_12_A_b.gif","images/stimuli/spore_stims/complex_12_B_b.gif","","","","","5","complex_similar","images/stimuli/spore_stims/complex_12_A_b.gif","right","","","","",""
"","null","html-keyboard-response","108","218895","0.0-23.0-0.5","SS1613098760891","","","null","","","","","<p><img src= images/blank.png width =""200"" height = ""200"" style = ""float:right""></p><p><img src=images/blank.png width =""800"" height = ""200""></p>","","","","","","","","","","","",""
"","706.9249999476597","sequential-stimulus-presentation","109","220408","0.0-23.0-1.5","SS1613098760891","trial","","40","800","1506.9249999476597","images/stimuli/spore_stims/complex_12_A_b.gif","images/stimuli/spore_stims/complex_12_B_b.gif","","","","","5","complex_similar","images/stimuli/spore_stims/complex_12_B_b.gif","middle","","","","",""
"","null","html-keyboard-response","110","221657","0.0-23.0-0.6","SS1613098760891","","","null","","","","","<p><img src= images/blank.png width =""200"" height = ""200"" style = ""float:right""></p><p><img src=images/blank.png width =""800"" height = ""200""></p>","","","","","","","","","","","",""
"","826.839999994263","sequential-stimulus-presentation","111","223289","0.0-23.0-1.6","SS1613098760891","trial","","40","800","1626.839999994263","images/stimuli/spore_stims/complex_12_A_b.gif","images/stimuli/spore_stims/complex_12_B_b.gif","","","","","5","complex_similar","images/stimuli/spore_stims/complex_12_B_b.gif","middle","","","","",""
"","null","html-keyboard-response","112","224530","0.0-23.0-0.7","SS1613098760891","","","null","","","","","<p><img src= images/blank.png width =""200"" height = ""200"" style = ""float:right""></p><p><img src=images/blank.png width =""800"" height = ""200""></p>","","","","","","","","","","","",""
"","480.67000007722527","sequential-stimulus-presentation","113","225816","0.0-23.0-1.7","SS1613098760891","trial","","40","800","1280.6700000772253","images/stimuli/spore_stims/complex_12_A_b.gif","images/stimuli/spore_stims/complex_12_B_b.gif","","","","","5","complex_similar","images/stimuli/spore_stims/complex_12_B_b.gif","middle","","","","",""
"","812.5500000314787","html-keyboard-response","114","226632","0.0-24.0","SS1613098760891","pref_question","","50","","","","","<video width ='960' height = '540' style='padding-top:8%' autoplay muted><source src='images/stimuli/wall_pref.mp4' type='video/mp4'></video>","2","middle","45%","5","","","","","","","",""
"","827.5750000029802","sequential-stimulus-presentation","115","228265","0.0-25.0","SS1613098760891","pref_reveal","","40","800","1627.5750000029802","null","null","","","","","5","","","","background","","","",""
"","null","html-keyboard-response","116","229210","0.0-26.0-0.0","SS1613098760891","","","null","","","","","<p><img src= images/blank.png width =""200"" height = ""200"" style = ""float:right""></p><p><img src=images/blank.png width =""800"" height = ""200""></p>","","","","","","","","","","","",""
"","1272.3349999869242","sequential-stimulus-presentation","117","231288","0.0-26.0-1.0","SS1613098760891","trial","","40","800","2072.3349999869242","images/stimuli/spore_stims/complex_20_A_c.gif","images/stimuli/spore_stims/complex_04_B_a.gif","","","","","6","complex_dissimilar","images/stimuli/spore_stims/complex_04_B_a.gif","right","","","","",""
"","null","html-keyboard-response","118","232294","0.0-26.0-0.1","SS1613098760891","","","null","","","","","<p><img src= images/blank.png width =""200"" height = ""200"" style = ""float:right""></p><p><img src=images/blank.png width =""800"" height = ""200""></p>","","","","","","","","","","","",""
"","515.2050000615418","sequential-stimulus-presentation","119","233616","0.0-26.0-1.1","SS1613098760891","trial","","40","800","1315.2050000615418","images/stimuli/spore_stims/complex_20_A_c.gif","images/stimuli/spore_stims/complex_04_B_a.gif","","","","","6","complex_dissimilar","images/stimuli/spore_stims/complex_04_B_a.gif","right","","","","",""
"","null","html-keyboard-response","120","234739","0.0-26.0-0.2","SS1613098760891","","","null","","","","","<p><img src= images/blank.png width =""200"" height = ""200"" style = ""float:right""></p><p><img src=images/blank.png width =""800"" height = ""200""></p>","","","","","","","","","","","",""
"","648.0800000717863","sequential-stimulus-presentation","121","236192","0.0-26.0-1.2","SS1613098760891","trial","","40","800","1448.0800000717863","images/stimuli/spore_stims/complex_20_A_c.gif","images/stimuli/spore_stims/complex_04_B_a.gif","","","","","6","complex_dissimilar","images/stimuli/spore_stims/complex_20_A_c.gif","middle","","","","",""
"","null","html-keyboard-response","122","237465","0.0-26.0-0.3","SS1613098760891","","","null","","","","","<p><img src= images/blank.png width =""200"" height = ""200"" style = ""float:right""></p><p><img src=images/blank.png width =""800"" height = ""200""></p>","","","","","","","","","","","",""
"","826.3199999928474","sequential-stimulus-presentation","123","239096","0.0-26.0-1.3","SS1613098760891","trial","","40","800","1626.3199999928474","images/stimuli/spore_stims/complex_20_A_c.gif","images/stimuli/spore_stims/complex_04_B_a.gif","","","","","6","complex_dissimilar","images/stimuli/spore_stims/complex_04_B_a.gif","right","","","","",""
"","null","html-keyboard-response","124","239902","0.0-26.0-0.4","SS1613098760891","","","null","","","","","<p><img src= images/blank.png width =""200"" height = ""200"" style = ""float:right""></p><p><img src=images/blank.png width =""800"" height = ""200""></p>","","","","","","","","","","","",""
"","907.9449999844655","sequential-stimulus-presentation","125","241615","0.0-26.0-1.4","SS1613098760891","trial","","40","800","1707.9449999844655","images/stimuli/spore_stims/complex_20_A_c.gif","images/stimuli/spore_stims/complex_04_B_a.gif","","","","","6","complex_dissimilar","images/stimuli/spore_stims/complex_04_B_a.gif","right","","","","",""
"","null","html-keyboard-response","126","242536","0.0-26.0-0.5","SS1613098760891","","","null","","","","","<p><img src= images/blank.png width =""200"" height = ""200"" style = ""float:right""></p><p><img src=images/blank.png width =""800"" height = ""200""></p>","","","","","","","","","","","",""
"","738.0649999249727","sequential-stimulus-presentation","127","244089","0.0-26.0-1.5","SS1613098760891","trial","","40","800","1538.0649999249727","images/stimuli/spore_stims/complex_20_A_c.gif","images/stimuli/spore_stims/complex_04_B_a.gif","","","","","6","complex_dissimilar","images/stimuli/spore_stims/complex_04_B_a.gif","right","","","","",""
"","null","html-keyboard-response","128","245230","0.0-26.0-0.6","SS1613098760891","","","null","","","","","<p><img src= images/blank.png width =""200"" height = ""200"" style = ""float:right""></p><p><img src=images/blank.png width =""800"" height = ""200""></p>","","","","","","","","","","","",""
"","702.4249999085441","sequential-stimulus-presentation","129","246744","0.0-26.0-1.6","SS1613098760891","trial","","40","800","1502.4249999085441","images/stimuli/spore_stims/complex_20_A_c.gif","images/stimuli/spore_stims/complex_04_B_a.gif","","","","","6","complex_dissimilar","images/stimuli/spore_stims/complex_04_B_a.gif","right","","","","",""
"","null","html-keyboard-response","130","247914","0.0-26.0-0.7","SS1613098760891","","","null","","","","","<p><img src= images/blank.png width =""200"" height = ""200"" style = ""float:right""></p><p><img src=images/blank.png width =""800"" height = ""200""></p>","","","","","","","","","","","",""
"","582.410000031814","sequential-stimulus-presentation","131","249312","0.0-26.0-1.7","SS1613098760891","trial","","40","800","1382.410000031814","images/stimuli/spore_stims/complex_20_A_c.gif","images/stimuli/spore_stims/complex_04_B_a.gif","","","","","6","complex_dissimilar","images/stimuli/spore_stims/complex_04_B_a.gif","right","","","","",""
"","948.3699999982491","html-keyboard-response","132","250264","0.0-27.0","SS1613098760891","pref_question","","51","","","","","<video width ='960' height = '540' style='padding-top:8%' autoplay muted><source src='images/stimuli/wall_pref.mp4' type='video/mp4'></video>","3","right","66%","6","","","","","","","",""
"","686.504999990575","sequential-stimulus-presentation","133","251768","0.0-28.0","SS1613098760891","pref_reveal","","40","800","1486.504999990575","null","null","","","","","6","","","","background","","","",""
"","null","html-keyboard-response","134","252918","0.0-29.0-0.0","SS1613098760891","","","null","","","","","<p><img src= images/blank.png width =""200"" height = ""200"" style = ""float:right""></p><p><img src=images/blank.png width =""800"" height = ""200""></p>","","","","","","","","","","","",""
"","2404.9550000345334","sequential-stimulus-presentation","135","256129","0.0-29.0-1.0","SS1613098760891","trial","","40","800","3204.9550000345334","images/stimuli/spore_stims/simple_16_B_c.gif","images/stimuli/spore_stims/simple_16_A_c.gif","","","","","7","simple_similar","images/stimuli/spore_stims/simple_16_A_c.gif","left","","","","",""
"","null","html-keyboard-response","136","257176","0.0-29.0-0.1","SS1613098760891","","","null","","","","","<p><img src= images/blank.png width =""200"" height = ""200"" style = ""float:right""></p><p><img src=images/blank.png width =""800"" height = ""200""></p>","","","","","","","","","","","",""
"","777.1250000223517","sequential-stimulus-presentation","137","258760","0.0-29.0-1.1","SS1613098760891","trial","","40","800","1577.1250000223517","images/stimuli/spore_stims/simple_16_B_c.gif","images/stimuli/spore_stims/simple_16_A_c.gif","","","","","7","simple_similar","images/stimuli/spore_stims/simple_16_A_c.gif","left","","","","",""
"","null","html-keyboard-response","138","259900","0.0-29.0-0.2","SS1613098760891","","","null","","","","","<p><img src= images/blank.png width =""200"" height = ""200"" style = ""float:right""></p><p><img src=images/blank.png width =""800"" height = ""200""></p>","","","","","","","","","","","",""
"","2344.260000041686","sequential-stimulus-presentation","139","263048","0.0-29.0-1.2","SS1613098760891","trial","","40","800","3144.260000041686","images/stimuli/spore_stims/simple_16_B_c.gif","images/stimuli/spore_stims/simple_16_A_c.gif","","","","","7","simple_similar","images/stimuli/spore_stims/simple_16_A_c.gif","left","","","","",""
"","null","html-keyboard-response","140","263947","0.0-29.0-0.3","SS1613098760891","","","null","","","","","<p><img src= images/blank.png width =""200"" height = ""200"" style = ""float:right""></p><p><img src=images/blank.png width =""800"" height = ""200""></p>","","","","","","","","","","","",""
"","3203.0749999685213","sequential-stimulus-presentation","141","267960","0.0-29.0-1.3","SS1613098760891","trial","","40","800","4003.0749999685213","images/stimuli/spore_stims/simple_16_B_c.gif","images/stimuli/spore_stims/simple_16_A_c.gif","","","","","7","simple_similar","images/stimuli/spore_stims/simple_16_A_c.gif","left","","","","",""
"","null","html-keyboard-response","142","269007","0.0-29.0-0.4","SS1613098760891","","","null","","","","","<p><img src= images/blank.png width =""200"" height = ""200"" style = ""float:right""></p><p><img src=images/blank.png width =""800"" height = ""200""></p>","","","","","","","","","","","",""
"","1763.9450000133365","sequential-stimulus-presentation","143","271576","0.0-29.0-1.4","SS1613098760891","trial","","40","800","2563.9450000133365","images/stimuli/spore_stims/simple_16_B_c.gif","images/stimuli/spore_stims/simple_16_A_c.gif","","","","","7","simple_similar","images/stimuli/spore_stims/simple_16_A_c.gif","left","","","","",""
"","null","html-keyboard-response","144","272851","0.0-29.0-0.5","SS1613098760891","","","null","","","","","<p><img src= images/blank.png width =""200"" height = ""200"" style = ""float:right""></p><p><img src=images/blank.png width =""800"" height = ""200""></p>","","","","","","","","","","","",""
"","1128.0300000216812","sequential-stimulus-presentation","145","274784","0.0-29.0-1.5","SS1613098760891","trial","","40","800","1928.0300000216812","images/stimuli/spore_stims/simple_16_B_c.gif","images/stimuli/spore_stims/simple_16_A_c.gif","","","","","7","simple_similar","images/stimuli/spore_stims/simple_16_A_c.gif","left","","","","",""
"","null","html-keyboard-response","146","275903","0.0-29.0-0.6","SS1613098760891","","","null","","","","","<p><img src= images/blank.png width =""200"" height = ""200"" style = ""float:right""></p><p><img src=images/blank.png width =""800"" height = ""200""></p>","","","","","","","","","","","",""
"","1187.3549999436364","sequential-stimulus-presentation","147","277897","0.0-29.0-1.6","SS1613098760891","trial","","40","800","1987.3549999436364","images/stimuli/spore_stims/simple_16_B_c.gif","images/stimuli/spore_stims/simple_16_A_c.gif","","","","","7","simple_similar","images/stimuli/spore_stims/simple_16_A_c.gif","left","","","","",""
"","null","html-keyboard-response","148","278996","0.0-29.0-0.7","SS1613098760891","","","null","","","","","<p><img src= images/blank.png width =""200"" height = ""200"" style = ""float:right""></p><p><img src=images/blank.png width =""800"" height = ""200""></p>","","","","","","","","","","","",""
"","2837.679999996908","sequential-stimulus-presentation","149","282640","0.0-29.0-1.7","SS1613098760891","trial","","40","800","3637.679999996908","images/stimuli/spore_stims/simple_16_B_c.gif","images/stimuli/spore_stims/simple_16_A_c.gif","","","","","7","simple_similar","images/stimuli/spore_stims/simple_16_B_c.gif","middle","","","","",""
"","739.0799999702722","html-keyboard-response","150","283384","0.0-30.0","SS1613098760891","pref_question","","49","","","","","<video width ='960' height = '540' style='padding-top:8%' autoplay muted><source src='images/stimuli/wall_pref.mp4' type='video/mp4'></video>","1","left","25%","7","","","","","","","",""
"","3747.704999987036","sequential-stimulus-presentation","151","287936","0.0-31.0","SS1613098760891","pref_reveal","","40","800","4547.704999987036","null","null","","","","","7","","","","background","","","",""
"","null","html-keyboard-response","152","289208","0.0-32.0-0.0","SS1613098760891","","","null","","","","","<p><img src= images/blank.png width =""200"" height = ""200"" style = ""float:right""></p><p><img src=images/blank.png width =""800"" height = ""200""></p>","","","","","","","","","","","",""
"","2178.91499993857","sequential-stimulus-presentation","153","292208","0.0-32.0-1.0","SS1613098760891","trial","","40","800","2978.91499993857","images/stimuli/spore_stims/complex_18_A_b.gif","images/stimuli/spore_stims/complex_18_B_b.gif","","","","","8","complex_similar","images/stimuli/spore_stims/complex_18_B_b.gif","left","","","","",""
"","null","html-keyboard-response","154","293076","0.0-32.0-0.1","SS1613098760891","","","null","","","","","<p><img src= images/blank.png width =""200"" height = ""200"" style = ""float:right""></p><p><img src=images/blank.png width =""800"" height = ""200""></p>","","","","","","","","","","","",""
"","2258.380000013858","sequential-stimulus-presentation","155","296152","0.0-32.0-1.1","SS1613098760891","trial","","40","800","3058.380000013858","images/stimuli/spore_stims/complex_18_A_b.gif","images/stimuli/spore_stims/complex_18_B_b.gif","","","","","8","complex_similar","images/stimuli/spore_stims/complex_18_B_b.gif","left","","","","",""
"","null","html-keyboard-response","156","297353","0.0-32.0-0.2","SS1613098760891","","","null","","","","","<p><img src= images/blank.png width =""200"" height = ""200"" style = ""float:right""></p><p><img src=images/blank.png width =""800"" height = ""200""></p>","","","","","","","","","","","",""
"","792.7800000179559","sequential-stimulus-presentation","157","298952","0.0-32.0-1.2","SS1613098760891","trial","","40","800","1592.780000017956","images/stimuli/spore_stims/complex_18_A_b.gif","images/stimuli/spore_stims/complex_18_B_b.gif","","","","","8","complex_similar","images/stimuli/spore_stims/complex_18_A_b.gif","right","","","","",""
"","null","html-keyboard-response","158","300242","0.0-32.0-0.3","SS1613098760891","","","null","","","","","<p><img src= images/blank.png width =""200"" height = ""200"" style = ""float:right""></p><p><img src=images/blank.png width =""800"" height = ""200""></p>","","","","","","","","","","","",""
"","701.3799999840558","sequential-stimulus-presentation","159","301751","0.0-32.0-1.3","SS1613098760891","trial","","40","800","1501.3799999840558","images/stimuli/spore_stims/complex_18_A_b.gif","images/stimuli/spore_stims/complex_18_B_b.gif","","","","","8","complex_similar","images/stimuli/spore_stims/complex_18_B_b.gif","left","","","","",""
"","null","html-keyboard-response","160","302589","0.0-32.0-0.4","SS1613098760891","","","null","","","","","<p><img src= images/blank.png width =""200"" height = ""200"" style = ""float:right""></p><p><img src=images/blank.png width =""800"" height = ""200""></p>","","","","","","","","","","","",""
"","725.70499998983","sequential-stimulus-presentation","161","304120","0.0-32.0-1.4","SS1613098760891","trial","","40","800","1525.70499998983","images/stimuli/spore_stims/complex_18_A_b.gif","images/stimuli/spore_stims/complex_18_B_b.gif","","","","","8","complex_similar","images/stimuli/spore_stims/complex_18_B_b.gif","left","","","","",""
"","null","html-keyboard-response","162","305218","0.0-32.0-0.5","SS1613098760891","","","null","","","","","<p><img src= images/blank.png width =""200"" height = ""200"" style = ""float:right""></p><p><img src=images/blank.png width =""800"" height = ""200""></p>","","","","","","","","","","","",""
"","484.7000000299886","sequential-stimulus-presentation","163","306520","0.0-32.0-1.5","SS1613098760891","trial","","40","800","1284.7000000299886","images/stimuli/spore_stims/complex_18_A_b.gif","images/stimuli/spore_stims/complex_18_B_b.gif","","","","","8","complex_similar","images/stimuli/spore_stims/complex_18_B_b.gif","left","","","","",""
"","null","html-keyboard-response","164","307763","0.0-32.0-0.6","SS1613098760891","","","null","","","","","<p><img src= images/blank.png width =""200"" height = ""200"" style = ""float:right""></p><p><img src=images/blank.png width =""800"" height = ""200""></p>","","","","","","","","","","","",""
"","715.7949999673292","sequential-stimulus-presentation","165","309288","0.0-32.0-1.6","SS1613098760891","trial","","40","800","1515.7949999673292","images/stimuli/spore_stims/complex_18_A_b.gif","images/stimuli/spore_stims/complex_18_B_b.gif","","","","","8","complex_similar","images/stimuli/spore_stims/complex_18_B_b.gif","left","","","","",""
"","null","html-keyboard-response","166","310580","0.0-32.0-0.7","SS1613098760891","","","null","","","","","<p><img src= images/blank.png width =""200"" height = ""200"" style = ""float:right""></p><p><img src=images/blank.png width =""800"" height = ""200""></p>","","","","","","","","","","","",""
"","885.9400000656024","sequential-stimulus-presentation","167","312272","0.0-32.0-1.7","SS1613098760891","trial","","40","800","1685.9400000656024","images/stimuli/spore_stims/complex_18_A_b.gif","images/stimuli/spore_stims/complex_18_B_b.gif","","","","","8","complex_similar","images/stimuli/spore_stims/complex_18_B_b.gif","left","","","","",""
"","853.0349999200553","html-keyboard-response","168","313129","0.0-33.0","SS1613098760891","pref_question","","50","","","","","<video width ='960' height = '540' style='padding-top:8%' autoplay muted><source src='images/stimuli/wall_pref.mp4' type='video/mp4'></video>","2","middle","45%","8","","","","","","","",""
"","661.019999999553","sequential-stimulus-presentation","169","314596","0.0-34.0","SS1613098760891","pref_reveal","","40","800","1461.019999999553","null","null","","","","","8","","","","novel","","","",""
"","null","html-keyboard-response","170","315509","0.0-35.0-0.0","SS1613098760891","","","null","","","","","<p><img src= images/blank.png width =""200"" height = ""200"" style = ""float:right""></p><p><img src=images/blank.png width =""800"" height = ""200""></p>","","","","","","","","","","","",""
"","731.7099999636412","sequential-stimulus-presentation","171","317056","0.0-35.0-1.0","SS1613098760891","trial","","40","800","1531.7099999636412","images/stimuli/spore_stims/complex_06_B_c.gif","images/stimuli/spore_stims/complex_20_B_a.gif","","","","","9","complex_dissimilar","images/stimuli/spore_stims/complex_20_B_a.gif","middle","","","","",""
"","null","html-keyboard-response","172","318070","0.0-35.0-0.1","SS1613098760891","","","null","","","","","<p><img src= images/blank.png width =""200"" height = ""200"" style = ""float:right""></p><p><img src=images/blank.png width =""800"" height = ""200""></p>","","","","","","","","","","","",""
"","541.8399999616668","sequential-stimulus-presentation","173","319416","0.0-35.0-1.1","SS1613098760891","trial","","40","800","1341.8399999616668","images/stimuli/spore_stims/complex_06_B_c.gif","images/stimuli/spore_stims/complex_20_B_a.gif","","","","","9","complex_dissimilar","images/stimuli/spore_stims/complex_20_B_a.gif","middle","","","","",""
"","null","html-keyboard-response","174","320276","0.0-35.0-0.2","SS1613098760891","","","null","","","","","<p><img src= images/blank.png width =""200"" height = ""200"" style = ""float:right""></p><p><img src=images/blank.png width =""800"" height = ""200""></p>","","","","","","","","","","","",""
"","849.2700000060722","sequential-stimulus-presentation","175","321944","0.0-35.0-1.2","SS1613098760891","trial","","40","800","1649.2700000060722","images/stimuli/spore_stims/complex_06_B_c.gif","images/stimuli/spore_stims/complex_20_B_a.gif","","","","","9","complex_dissimilar","images/stimuli/spore_stims/complex_20_B_a.gif","middle","","","","",""
"","null","html-keyboard-response","176","323218","0.0-35.0-0.3","SS1613098760891","","","null","","","","","<p><img src= images/blank.png width =""200"" height = ""200"" style = ""float:right""></p><p><img src=images/blank.png width =""800"" height = ""200""></p>","","","","","","","","","","","",""
"","1748.7549999495968","sequential-stimulus-presentation","177","325784","0.0-35.0-1.3","SS1613098760891","trial","","40","800","2548.754999949597","images/stimuli/spore_stims/complex_06_B_c.gif","images/stimuli/spore_stims/complex_20_B_a.gif","","","","","9","complex_dissimilar","images/stimuli/spore_stims/complex_06_B_c.gif","right","","","","",""
"","null","html-keyboard-response","178","327022","0.0-35.0-0.4","SS1613098760891","","","null","","","","","<p><img src= images/blank.png width =""200"" height = ""200"" style = ""float:right""></p><p><img src=images/blank.png width =""800"" height = ""200""></p>","","","","","","","","","","","",""
"","1810.7699999818578","sequential-stimulus-presentation","179","329640","0.0-35.0-1.4","SS1613098760891","trial","","40","800","2610.769999981858","images/stimuli/spore_stims/complex_06_B_c.gif","images/stimuli/spore_stims/complex_20_B_a.gif","","","","","9","complex_dissimilar","images/stimuli/spore_stims/complex_20_B_a.gif","middle","","","","",""
"","null","html-keyboard-response","180","330456","0.0-35.0-0.5","SS1613098760891","","","null","","","","","<p><img src= images/blank.png width =""200"" height = ""200"" style = ""float:right""></p><p><img src=images/blank.png width =""800"" height = ""200""></p>","","","","","","","","","","","",""
"","616.5999999502674","sequential-stimulus-presentation","181","331880","0.0-35.0-1.5","SS1613098760891","trial","","40","800","1416.5999999502674","images/stimuli/spore_stims/complex_06_B_c.gif","images/stimuli/spore_stims/complex_20_B_a.gif","","","","","9","complex_dissimilar","images/stimuli/spore_stims/complex_20_B_a.gif","middle","","","","",""
"","null","html-keyboard-response","182","332792","0.0-35.0-0.6","SS1613098760891","","","null","","","","","<p><img src= images/blank.png width =""200"" height = ""200"" style = ""float:right""></p><p><img src=images/blank.png width =""800"" height = ""200""></p>","","","","","","","","","","","",""
"","411.39500006102026","sequential-stimulus-presentation","183","334008","0.0-35.0-1.6","SS1613098760891","trial","","40","800","1211.3950000610203","images/stimuli/spore_stims/complex_06_B_c.gif","images/stimuli/spore_stims/complex_20_B_a.gif","","","","","9","complex_dissimilar","images/stimuli/spore_stims/complex_20_B_a.gif","middle","","","","",""
"","null","html-keyboard-response","184","335200","0.0-35.0-0.7","SS1613098760891","","","null","","","","","<p><img src= images/blank.png width =""200"" height = ""200"" style = ""float:right""></p><p><img src=images/blank.png width =""800"" height = ""200""></p>","","","","","","","","","","","",""
"","698.4150001080707","sequential-stimulus-presentation","185","336704","0.0-35.0-1.7","SS1613098760891","trial","","40","800","1498.4150001080707","images/stimuli/spore_stims/complex_06_B_c.gif","images/stimuli/spore_stims/complex_20_B_a.gif","","","","","9","complex_dissimilar","images/stimuli/spore_stims/complex_20_B_a.gif","middle","","","","",""
"","894.6299999952316","html-keyboard-response","186","337616","0.0-36.0","SS1613098760891","pref_question","","51","","","","","<video width ='960' height = '540' style='padding-top:8%' autoplay muted><source src='images/stimuli/wall_pref.mp4' type='video/mp4'></video>","3","right","66%","9","","","","","","","",""
"","657.0650000358","sequential-stimulus-presentation","187","339080","0.0-37.0","SS1613098760891","pref_reveal","","40","800","1457.0650000358","null","null","","","","","9","","","","deviant","","","",""
"","null","html-keyboard-response","188","340280","0.0-38.0-0.0","SS1613098760891","","","null","","","","","<p><img src= images/blank.png width =""200"" height = ""200"" style = ""float:right""></p><p><img src=images/blank.png width =""800"" height = ""200""></p>","","","","","","","","","","","",""
"","1017.9400000488386","sequential-stimulus-presentation","189","342104","0.0-38.0-1.0","SS1613098760891","trial","","40","800","1817.9400000488386","images/stimuli/spore_stims/simple_08_A_a.gif","images/stimuli/spore_stims/simple_12_A_b.gif","","","","","10","simple_dissimilar","images/stimuli/spore_stims/simple_12_A_b.gif","middle","","","","",""
"","null","html-keyboard-response","190","343091","0.0-38.0-0.1","SS1613098760891","","","null","","","","","<p><img src= images/blank.png width =""200"" height = ""200"" style = ""float:right""></p><p><img src=images/blank.png width =""800"" height = ""200""></p>","","","","","","","","","","","",""
"","2150.1200000056997","sequential-stimulus-presentation","191","346061","0.0-38.0-1.1","SS1613098760891","trial","","40","800","2950.1200000056997","images/stimuli/spore_stims/simple_08_A_a.gif","images/stimuli/spore_stims/simple_12_A_b.gif","","","","","10","simple_dissimilar","images/stimuli/spore_stims/simple_12_A_b.gif","middle","","","","",""
"","null","html-keyboard-response","192","347356","0.0-38.0-0.2","SS1613098760891","","","null","","","","","<p><img src= images/blank.png width =""200"" height = ""200"" style = ""float:right""></p><p><img src=images/blank.png width =""800"" height = ""200""></p>","","","","","","","","","","","",""
"","1340.2350000105798","sequential-stimulus-presentation","193","349512","0.0-38.0-1.2","SS1613098760891","trial","","40","800","2140.23500001058","images/stimuli/spore_stims/simple_08_A_a.gif","images/stimuli/spore_stims/simple_12_A_b.gif","","","","","10","simple_dissimilar","images/stimuli/spore_stims/simple_12_A_b.gif","middle","","","","",""
"","null","html-keyboard-response","194","350703","0.0-38.0-0.3","SS1613098760891","","","null","","","","","<p><img src= images/blank.png width =""200"" height = ""200"" style = ""float:right""></p><p><img src=images/blank.png width =""800"" height = ""200""></p>","","","","","","","","","","","",""
"","459.36999993864447","sequential-stimulus-presentation","195","351968","0.0-38.0-1.3","SS1613098760891","trial","","40","800","1259.3699999386445","images/stimuli/spore_stims/simple_08_A_a.gif","images/stimuli/spore_stims/simple_12_A_b.gif","","","","","10","simple_dissimilar","images/stimuli/spore_stims/simple_12_A_b.gif","middle","","","","",""
"","null","html-keyboard-response","196","353220","0.0-38.0-0.4","SS1613098760891","","","null","","","","","<p><img src= images/blank.png width =""200"" height = ""200"" style = ""float:right""></p><p><img src=images/blank.png width =""800"" height = ""200""></p>","","","","","","","","","","","",""
"","535.440000006929","sequential-stimulus-presentation","197","354560","0.0-38.0-1.4","SS1613098760891","trial","","40","800","1335.440000006929","images/stimuli/spore_stims/simple_08_A_a.gif","images/stimuli/spore_stims/simple_12_A_b.gif","","","","","10","simple_dissimilar","images/stimuli/spore_stims/simple_12_A_b.gif","middle","","","","",""
"","null","html-keyboard-response","198","355618","0.0-38.0-0.5","SS1613098760891","","","null","","","","","<p><img src= images/blank.png width =""200"" height = ""200"" style = ""float:right""></p><p><img src=images/blank.png width =""800"" height = ""200""></p>","","","","","","","","","","","",""
"","1345.299999928102","sequential-stimulus-presentation","199","357768","0.0-38.0-1.5","SS1613098760891","trial","","40","800","2145.299999928102","images/stimuli/spore_stims/simple_08_A_a.gif","images/stimuli/spore_stims/simple_12_A_b.gif","","","","","10","simple_dissimilar","images/stimuli/spore_stims/simple_08_A_a.gif","right","","","","",""
"","null","html-keyboard-response","200","358967","0.0-38.0-0.6","SS1613098760891","","","null","","","","","<p><img src= images/blank.png width =""200"" height = ""200"" style = ""float:right""></p><p><img src=images/blank.png width =""800"" height = ""200""></p>","","","","","","","","","","","",""
"","415.24000000208616","sequential-stimulus-presentation","201","360200","0.0-38.0-1.6","SS1613098760891","trial","","40","800","1215.2400000020862","images/stimuli/spore_stims/simple_08_A_a.gif","images/stimuli/spore_stims/simple_12_A_b.gif","","","","","10","simple_dissimilar","images/stimuli/spore_stims/simple_12_A_b.gif","middle","","","","",""
"","null","html-keyboard-response","202","361139","0.0-38.0-0.7","SS1613098760891","","","null","","","","","<p><img src= images/blank.png width =""200"" height = ""200"" style = ""float:right""></p><p><img src=images/blank.png width =""800"" height = ""200""></p>","","","","","","","","","","","",""
"","2752.405000035651","sequential-stimulus-presentation","203","364696","0.0-38.0-1.7","SS1613098760891","trial","","40","800","3552.405000035651","images/stimuli/spore_stims/simple_08_A_a.gif","images/stimuli/spore_stims/simple_12_A_b.gif","","","","","10","simple_dissimilar","images/stimuli/spore_stims/simple_12_A_b.gif","middle","","","","",""
"","1668.364999932237","html-keyboard-response","204","366368","0.0-39.0","SS1613098760891","pref_question","","49","","","","","<video width ='960' height = '540' style='padding-top:8%' autoplay muted><source src='images/stimuli/wall_pref.mp4' type='video/mp4'></video>","1","left","25%","10","","","","","","","",""
"","693.8999999547377","sequential-stimulus-presentation","205","367880","0.0-40.0","SS1613098760891","pref_reveal","","40","800","1493.8999999547377","null","null","","","","","10","","","","novel","","","",""
"","null","html-keyboard-response","206","368733","0.0-41.0-0.0","SS1613098760891","","","null","","","","","<p><img src= images/blank.png width =""200"" height = ""200"" style = ""float:right""></p><p><img src=images/blank.png width =""800"" height = ""200""></p>","","","","","","","","","","","",""
"","987.7100000157952","sequential-stimulus-presentation","207","370528","0.0-41.0-1.0","SS1613098760891","trial","","40","800","1787.7100000157952","images/stimuli/spore_stims/simple_02_A_b.gif","images/stimuli/spore_stims/simple_02_B_b.gif","","","","","11","simple_similar","images/stimuli/spore_stims/simple_02_B_b.gif","left","","","","",""
"","null","html-keyboard-response","208","371827","0.0-41.0-0.1","SS1613098760891","","","null","","","","","<p><img src= images/blank.png width =""200"" height = ""200"" style = ""float:right""></p><p><img src=images/blank.png width =""800"" height = ""200""></p>","","","","","","","","","","","",""
"","886.7750000208616","sequential-stimulus-presentation","209","373520","0.0-41.0-1.1","SS1613098760891","trial","","40","800","1686.7750000208616","images/stimuli/spore_stims/simple_02_A_b.gif","images/stimuli/spore_stims/simple_02_B_b.gif","","","","","11","simple_similar","images/stimuli/spore_stims/simple_02_B_b.gif","left","","","","",""
"","null","html-keyboard-response","210","374659","0.0-41.0-0.2","SS1613098760891","","","null","","","","","<p><img src= images/blank.png width =""200"" height = ""200"" style = ""float:right""></p><p><img src=images/blank.png width =""800"" height = ""200""></p>","","","","","","","","","","","",""
"","1935.204999987036","sequential-stimulus-presentation","211","377400","0.0-41.0-1.2","SS1613098760891","trial","","40","800","2735.204999987036","images/stimuli/spore_stims/simple_02_A_b.gif","images/stimuli/spore_stims/simple_02_B_b.gif","","","","","11","simple_similar","images/stimuli/spore_stims/simple_02_B_b.gif","left","","","","",""
"","null","html-keyboard-response","212","378389","0.0-41.0-0.3","SS1613098760891","","","null","","","","","<p><img src= images/blank.png width =""200"" height = ""200"" style = ""float:right""></p><p><img src=images/blank.png width =""800"" height = ""200""></p>","","","","","","","","","","","",""
"","723.8000000361353","sequential-stimulus-presentation","213","379920","0.0-41.0-1.3","SS1613098760891","trial","","40","800","1523.8000000361353","images/stimuli/spore_stims/simple_02_A_b.gif","images/stimuli/spore_stims/simple_02_B_b.gif","","","","","11","simple_similar","images/stimuli/spore_stims/simple_02_A_b.gif","middle","","","","",""
"","null","html-keyboard-response","214","380938","0.0-41.0-0.4","SS1613098760891","","","null","","","","","<p><img src= images/blank.png width =""200"" height = ""200"" style = ""float:right""></p><p><img src=images/blank.png width =""800"" height = ""200""></p>","","","","","","","","","","","",""
"","608.4399999817833","sequential-stimulus-presentation","215","382352","0.0-41.0-1.4","SS1613098760891","trial","","40","800","1408.4399999817833","images/stimuli/spore_stims/simple_02_A_b.gif","images/stimuli/spore_stims/simple_02_B_b.gif","","","","","11","simple_similar","images/stimuli/spore_stims/simple_02_B_b.gif","left","","","","",""
"","null","html-keyboard-response","216","383206","0.0-41.0-0.5","SS1613098760891","","","null","","","","","<p><img src= images/blank.png width =""200"" height = ""200"" style = ""float:right""></p><p><img src=images/blank.png width =""800"" height = ""200""></p>","","","","","","","","","","","",""
"","725.3650000784546","sequential-stimulus-presentation","217","384744","0.0-41.0-1.5","SS1613098760891","trial","","40","800","1525.3650000784546","images/stimuli/spore_stims/simple_02_A_b.gif","images/stimuli/spore_stims/simple_02_B_b.gif","","","","","11","simple_similar","images/stimuli/spore_stims/simple_02_B_b.gif","left","","","","",""
"","null","html-keyboard-response","218","385902","0.0-41.0-0.6","SS1613098760891","","","null","","","","","<p><img src= images/blank.png width =""200"" height = ""200"" style = ""float:right""></p><p><img src=images/blank.png width =""800"" height = ""200""></p>","","","","","","","","","","","",""
"","585.5250000022352","sequential-stimulus-presentation","219","387296","0.0-41.0-1.6","SS1613098760891","trial","","40","800","1385.5250000022352","images/stimuli/spore_stims/simple_02_A_b.gif","images/stimuli/spore_stims/simple_02_B_b.gif","","","","","11","simple_similar","images/stimuli/spore_stims/simple_02_B_b.gif","left","","","","",""
"","null","html-keyboard-response","220","388338","0.0-41.0-0.7","SS1613098760891","","","null","","","","","<p><img src= images/blank.png width =""200"" height = ""200"" style = ""float:right""></p><p><img src=images/blank.png width =""800"" height = ""200""></p>","","","","","","","","","","","",""
"","544.9050000170246","sequential-stimulus-presentation","221","389688","0.0-41.0-1.7","SS1613098760891","trial","","40","800","1344.9050000170246","images/stimuli/spore_stims/simple_02_A_b.gif","images/stimuli/spore_stims/simple_02_B_b.gif","","","","","11","simple_similar","images/stimuli/spore_stims/simple_02_B_b.gif","left","","","","",""
"","650.0649999361485","html-keyboard-response","222","390343","0.0-42.0","SS1613098760891","pref_question","","50","","","","","<video width ='960' height = '540' style='padding-top:8%' autoplay muted><source src='images/stimuli/wall_pref.mp4' type='video/mp4'></video>","2","middle","45%","11","","","","","","","",""
"","567.7300000097603","sequential-stimulus-presentation","223","391720","0.0-43.0","SS1613098760891","pref_reveal","","40","800","1367.7300000097603","null","null","","","","","11","","","","deviant","","","",""
"","null","html-keyboard-response","224","392911","0.0-44.0-0.0","SS1613098760891","","","null","","","","","<p><img src= images/blank.png width =""200"" height = ""200"" style = ""float:right""></p><p><img src=images/blank.png width =""800"" height = ""200""></p>","","","","","","","","","","","",""
"","632.9899999545887","sequential-stimulus-presentation","225","394360","0.0-44.0-1.0","SS1613098760891","trial","","40","800","1432.9899999545887","images/stimuli/spore_stims/simple_20_B_d.gif","images/stimuli/spore_stims/simple_20_A_d.gif","","","","","12","simple_similar","images/stimuli/spore_stims/simple_20_A_d.gif","right","","","","",""
"","null","html-keyboard-response","226","395176","0.0-44.0-0.1","SS1613098760891","","","null","","","","","<p><img src= images/blank.png width =""200"" height = ""200"" style = ""float:right""></p><p><img src=images/blank.png width =""800"" height = ""200""></p>","","","","","","","","","","","",""
"","981.5249999519438","sequential-stimulus-presentation","227","396976","0.0-44.0-1.1","SS1613098760891","trial","","40","800","1781.5249999519438","images/stimuli/spore_stims/simple_20_B_d.gif","images/stimuli/spore_stims/simple_20_A_d.gif","","","","","12","simple_similar","images/stimuli/spore_stims/simple_20_A_d.gif","right","","","","",""
"","null","html-keyboard-response","228","398272","0.0-44.0-0.2","SS1613098760891","","","null","","","","","<p><img src= images/blank.png width =""200"" height = ""200"" style = ""float:right""></p><p><img src=images/blank.png width =""800"" height = ""200""></p>","","","","","","","","","","","",""
"","1208.7599999504164","sequential-stimulus-presentation","229","400288","0.0-44.0-1.2","SS1613098760891","trial","","40","800","2008.7599999504164","images/stimuli/spore_stims/simple_20_B_d.gif","images/stimuli/spore_stims/simple_20_A_d.gif","","","","","12","simple_similar","images/stimuli/spore_stims/simple_20_B_d.gif","middle","","","","",""
"","null","html-keyboard-response","230","401176","0.0-44.0-0.3","SS1613098760891","","","null","","","","","<p><img src= images/blank.png width =""200"" height = ""200"" style = ""float:right""></p><p><img src=images/blank.png width =""800"" height = ""200""></p>","","","","","","","","","","","",""
"","1639.7499999729916","sequential-stimulus-presentation","231","403632","0.0-44.0-1.3","SS1613098760891","trial","","40","800","2439.7499999729916","images/stimuli/spore_stims/simple_20_B_d.gif","images/stimuli/spore_stims/simple_20_A_d.gif","","","","","12","simple_similar","images/stimuli/spore_stims/simple_20_A_d.gif","right","","","","",""
"","null","html-keyboard-response","232","404469","0.0-44.0-0.4","SS1613098760891","","","null","","","","","<p><img src= images/blank.png width =""200"" height = ""200"" style = ""float:right""></p><p><img src=images/blank.png width =""800"" height = ""200""></p>","","","","","","","","","","","",""
"","578.5949999699369","sequential-stimulus-presentation","233","405856","0.0-44.0-1.4","SS1613098760891","trial","","40","800","1378.594999969937","images/stimuli/spore_stims/simple_20_B_d.gif","images/stimuli/spore_stims/simple_20_A_d.gif","","","","","12","simple_similar","images/stimuli/spore_stims/simple_20_A_d.gif","right","","","","",""
"","null","html-keyboard-response","234","407081","0.0-44.0-0.5","SS1613098760891","","","null","","","","","<p><img src= images/blank.png width =""200"" height = ""200"" style = ""float:right""></p><p><img src=images/blank.png width =""800"" height = ""200""></p>","","","","","","","","","","","",""
"","647.1850000089034","sequential-stimulus-presentation","235","408543","0.0-44.0-1.5","SS1613098760891","trial","","40","800","1447.1850000089034","images/stimuli/spore_stims/simple_20_B_d.gif","images/stimuli/spore_stims/simple_20_A_d.gif","","","","","12","simple_similar","images/stimuli/spore_stims/simple_20_A_d.gif","right","","","","",""
"","null","html-keyboard-response","236","409370","0.0-44.0-0.6","SS1613098760891","","","null","","","","","<p><img src= images/blank.png width =""200"" height = ""200"" style = ""float:right""></p><p><img src=images/blank.png width =""800"" height = ""200""></p>","","","","","","","","","","","",""
"","631.9750000257045","sequential-stimulus-presentation","237","410808","0.0-44.0-1.6","SS1613098760891","trial","","40","800","1431.9750000257045","images/stimuli/spore_stims/simple_20_B_d.gif","images/stimuli/spore_stims/simple_20_A_d.gif","","","","","12","simple_similar","images/stimuli/spore_stims/simple_20_A_d.gif","right","","","","",""
"","null","html-keyboard-response","238","412086","0.0-44.0-0.7","SS1613098760891","","","null","","","","","<p><img src= images/blank.png width =""200"" height = ""200"" style = ""float:right""></p><p><img src=images/blank.png width =""800"" height = ""200""></p>","","","","","","","","","","","",""
"","772.7799999993294","sequential-stimulus-presentation","239","413664","0.0-44.0-1.7","SS1613098760891","trial","","40","800","1572.7799999993294","images/stimuli/spore_stims/simple_20_B_d.gif","images/stimuli/spore_stims/simple_20_A_d.gif","","","","","12","simple_similar","images/stimuli/spore_stims/simple_20_A_d.gif","right","","","","",""
"","1859.3999999575317","html-keyboard-response","240","415528","0.0-45.0","SS1613098760891","pref_question","","49","","","","","<video width ='960' height = '540' style='padding-top:8%' autoplay muted><source src='images/stimuli/wall_pref.mp4' type='video/mp4'></video>","1","left","25%","12","","","","","","","",""
"","525.6750000407919","sequential-stimulus-presentation","241","416873","0.0-46.0","SS1613098760891","pref_reveal","","40","800","1325.675000040792","null","null","","","","","12","","","","novel","","","",""
"","null","html-keyboard-response","242","417958","0.0-47.0-0.0","SS1613098760891","","","null","","","","","<p><img src= images/blank.png width =""200"" height = ""200"" style = ""float:right""></p><p><img src=images/blank.png width =""800"" height = ""200""></p>","","","","","","","","","","","",""
"","940.2100000297651","sequential-stimulus-presentation","243","419704","0.0-47.0-1.0","SS1613098760891","trial","","40","800","1740.210000029765","images/stimuli/spore_stims/simple_17_B_a.gif","images/stimuli/spore_stims/simple_17_A_a.gif","","","","","13","simple_similar","images/stimuli/spore_stims/simple_17_A_a.gif","left","","","","",""
"","null","html-keyboard-response","244","420620","0.0-47.0-0.1","SS1613098760891","","","null","","","","","<p><img src= images/blank.png width =""200"" height = ""200"" style = ""float:right""></p><p><img src=images/blank.png width =""800"" height = ""200""></p>","","","","","","","","","","","",""
"","1606.5850000595674","sequential-stimulus-presentation","245","423032","0.0-47.0-1.1","SS1613098760891","trial","","40","800","2406.5850000595674","images/stimuli/spore_stims/simple_17_B_a.gif","images/stimuli/spore_stims/simple_17_A_a.gif","","","","","13","simple_similar","images/stimuli/spore_stims/simple_17_A_a.gif","left","","","","",""
"","null","html-keyboard-response","246","423843","0.0-47.0-0.2","SS1613098760891","","","null","","","","","<p><img src= images/blank.png width =""200"" height = ""200"" style = ""float:right""></p><p><img src=images/blank.png width =""800"" height = ""200""></p>","","","","","","","","","","","",""
"","653.1500000273809","sequential-stimulus-presentation","247","425304","0.0-47.0-1.2","SS1613098760891","trial","","40","800","1453.1500000273809","images/stimuli/spore_stims/simple_17_B_a.gif","images/stimuli/spore_stims/simple_17_A_a.gif","","","","","13","simple_similar","images/stimuli/spore_stims/simple_17_A_a.gif","left","","","","",""
"","null","html-keyboard-response","248","426157","0.0-47.0-0.3","SS1613098760891","","","null","","","","","<p><img src= images/blank.png width =""200"" height = ""200"" style = ""float:right""></p><p><img src=images/blank.png width =""800"" height = ""200""></p>","","","","","","","","","","","",""
"","531.0100000351667","sequential-stimulus-presentation","249","427496","0.0-47.0-1.3","SS1613098760891","trial","","40","800","1331.0100000351667","images/stimuli/spore_stims/simple_17_B_a.gif","images/stimuli/spore_stims/simple_17_A_a.gif","","","","","13","simple_similar","images/stimuli/spore_stims/simple_17_B_a.gif","middle","","","","",""
"","null","html-keyboard-response","250","428539","0.0-47.0-0.4","SS1613098760891","","","null","","","","","<p><img src= images/blank.png width =""200"" height = ""200"" style = ""float:right""></p><p><img src=images/blank.png width =""800"" height = ""200""></p>","","","","","","","","","","","",""
"","883.9099999750033","sequential-stimulus-presentation","251","430239","0.0-47.0-1.4","SS1613098760891","trial","","40","800","1683.9099999750033","images/stimuli/spore_stims/simple_17_B_a.gif","images/stimuli/spore_stims/simple_17_A_a.gif","","","","","13","simple_similar","images/stimuli/spore_stims/simple_17_A_a.gif","left","","","","",""
"","null","html-keyboard-response","252","431285","0.0-47.0-0.5","SS1613098760891","","","null","","","","","<p><img src= images/blank.png width =""200"" height = ""200"" style = ""float:right""></p><p><img src=images/blank.png width =""800"" height = ""200""></p>","","","","","","","","","","","",""
"","662.3499999986961","sequential-stimulus-presentation","253","432768","0.0-47.0-1.5","SS1613098760891","trial","","40","800","1462.3499999986961","images/stimuli/spore_stims/simple_17_B_a.gif","images/stimuli/spore_stims/simple_17_A_a.gif","","","","","13","simple_similar","images/stimuli/spore_stims/simple_17_A_a.gif","left","","","","",""
"","null","html-keyboard-response","254","433938","0.0-47.0-0.6","SS1613098760891","","","null","","","","","<p><img src= images/blank.png width =""200"" height = ""200"" style = ""float:right""></p><p><img src=images/blank.png width =""800"" height = ""200""></p>","","","","","","","","","","","",""
"","990.8249999862164","sequential-stimulus-presentation","255","435735","0.0-47.0-1.6","SS1613098760891","trial","","40","800","1790.8249999862164","images/stimuli/spore_stims/simple_17_B_a.gif","images/stimuli/spore_stims/simple_17_A_a.gif","","","","","13","simple_similar","images/stimuli/spore_stims/simple_17_A_a.gif","left","","","","",""
"","null","html-keyboard-response","256","436819","0.0-47.0-0.7","SS1613098760891","","","null","","","","","<p><img src= images/blank.png width =""200"" height = ""200"" style = ""float:right""></p><p><img src=images/blank.png width =""800"" height = ""200""></p>","","","","","","","","","","","",""
"","542.0800000429153","sequential-stimulus-presentation","257","438168","0.0-47.0-1.7","SS1613098760891","trial","","40","800","1342.0800000429153","images/stimuli/spore_stims/simple_17_B_a.gif","images/stimuli/spore_stims/simple_17_A_a.gif","","","","","13","simple_similar","images/stimuli/spore_stims/simple_17_A_a.gif","left","","","","",""
"","1027.0449999952689","html-keyboard-response","258","439199","0.0-48.0","SS1613098760891","pref_question","","50","","","","","<video width ='960' height = '540' style='padding-top:8%' autoplay muted><source src='images/stimuli/wall_pref.mp4' type='video/mp4'></video>","2","middle","45%","13","","","","","","","",""
"","120.50499999895692","sequential-stimulus-presentation","259","440127","0.0-49.0","SS1613098760891","pref_reveal","","40","800","920.5049999989569","null","null","","","","","13","","","","deviant","","","",""
"","null","html-keyboard-response","260","441248","0.0-50.0-0.0","SS1613098760891","","","null","","","","","<p><img src= images/blank.png width =""200"" height = ""200"" style = ""float:right""></p><p><img src=images/blank.png width =""800"" height = ""200""></p>","","","","","","","","","","","",""
"","976.5950000146404","sequential-stimulus-presentation","261","443031","0.0-50.0-1.0","SS1613098760891","trial","","40","800","1776.5950000146404","images/stimuli/spore_stims/complex_10_A_a.gif","images/stimuli/spore_stims/complex_06_A_a.gif","","","","","14","complex_dissimilar","images/stimuli/spore_stims/complex_06_A_a.gif","right","","","","",""
"","null","html-keyboard-response","262","443941","0.0-50.0-0.1","SS1613098760891","","","null","","","","","<p><img src= images/blank.png width =""200"" height = ""200"" style = ""float:right""></p><p><img src=images/blank.png width =""800"" height = ""200""></p>","","","","","","","","","","","",""
"","1291.5700000012293","sequential-stimulus-presentation","263","446039","0.0-50.0-1.1","SS1613098760891","trial","","40","800","2091.5700000012293","images/stimuli/spore_stims/complex_10_A_a.gif","images/stimuli/spore_stims/complex_06_A_a.gif","","","","","14","complex_dissimilar","images/stimuli/spore_stims/complex_06_A_a.gif","right","","","","",""
"","null","html-keyboard-response","264","446947","0.0-50.0-0.2","SS1613098760891","","","null","","","","","<p><img src= images/blank.png width =""200"" height = ""200"" style = ""float:right""></p><p><img src=images/blank.png width =""800"" height = ""200""></p>","","","","","","","","","","","",""
"","892.8800000576302","sequential-stimulus-presentation","265","448647","0.0-50.0-1.2","SS1613098760891","trial","","40","800","1692.8800000576302","images/stimuli/spore_stims/complex_10_A_a.gif","images/stimuli/spore_stims/complex_06_A_a.gif","","","","","14","complex_dissimilar","images/stimuli/spore_stims/complex_06_A_a.gif","right","","","","",""
"","null","html-keyboard-response","266","449603","0.0-50.0-0.3","SS1613098760891","","","null","","","","","<p><img src= images/blank.png width =""200"" height = ""200"" style = ""float:right""></p><p><img src=images/blank.png width =""800"" height = ""200""></p>","","","","","","","","","","","",""
"","981.3699999358505","sequential-stimulus-presentation","267","451392","0.0-50.0-1.3","SS1613098760891","trial","","40","800","1781.3699999358505","images/stimuli/spore_stims/complex_10_A_a.gif","images/stimuli/spore_stims/complex_06_A_a.gif","","","","","14","complex_dissimilar","images/stimuli/spore_stims/complex_06_A_a.gif","right","","","","",""
"","null","html-keyboard-response","268","452321","0.0-50.0-0.4","SS1613098760891","","","null","","","","","<p><img src= images/blank.png width =""200"" height = ""200"" style = ""float:right""></p><p><img src=images/blank.png width =""800"" height = ""200""></p>","","","","","","","","","","","",""
"","790.2650000760332","sequential-stimulus-presentation","269","453919","0.0-50.0-1.4","SS1613098760891","trial","","40","800","1590.2650000760332","images/stimuli/spore_stims/complex_10_A_a.gif","images/stimuli/spore_stims/complex_06_A_a.gif","","","","","14","complex_dissimilar","images/stimuli/spore_stims/complex_06_A_a.gif","right","","","","",""
"","null","html-keyboard-response","270","454782","0.0-50.0-0.5","SS1613098760891","","","null","","","","","<p><img src= images/blank.png width =""200"" height = ""200"" style = ""float:right""></p><p><img src=images/blank.png width =""800"" height = ""200""></p>","","","","","","","","","","","",""
"","665.6900000525638","sequential-stimulus-presentation","271","456256","0.0-50.0-1.5","SS1613098760891","trial","","40","800","1465.6900000525638","images/stimuli/spore_stims/complex_10_A_a.gif","images/stimuli/spore_stims/complex_06_A_a.gif","","","","","14","complex_dissimilar","images/stimuli/spore_stims/complex_06_A_a.gif","right","","","","",""
"","null","html-keyboard-response","272","457159","0.0-50.0-0.6","SS1613098760891","","","null","","","","","<p><img src= images/blank.png width =""200"" height = ""200"" style = ""float:right""></p><p><img src=images/blank.png width =""800"" height = ""200""></p>","","","","","","","","","","","",""
"","787.2000000206754","sequential-stimulus-presentation","273","458751","0.0-50.0-1.6","SS1613098760891","trial","","40","800","1587.2000000206754","images/stimuli/spore_stims/complex_10_A_a.gif","images/stimuli/spore_stims/complex_06_A_a.gif","","","","","14","complex_dissimilar","images/stimuli/spore_stims/complex_10_A_a.gif","middle","","","","",""
"","null","html-keyboard-response","274","459974","0.0-50.0-0.7","SS1613098760891","","","null","","","","","<p><img src= images/blank.png width =""200"" height = ""200"" style = ""float:right""></p><p><img src=images/blank.png width =""800"" height = ""200""></p>","","","","","","","","","","","",""
"","1034.3250000150874","sequential-stimulus-presentation","275","461815","0.0-50.0-1.7","SS1613098760891","trial","","40","800","1834.3250000150874","images/stimuli/spore_stims/complex_10_A_a.gif","images/stimuli/spore_stims/complex_06_A_a.gif","","","","","14","complex_dissimilar","images/stimuli/spore_stims/complex_06_A_a.gif","right","","","","",""
"","1515.1850000256673","html-keyboard-response","276","463335","0.0-51.0","SS1613098760891","pref_question","","51","","","","","<video width ='960' height = '540' style='padding-top:8%' autoplay muted><source src='images/stimuli/wall_pref.mp4' type='video/mp4'></video>","3","right","66%","14","","","","","","","",""
"","878.7599999923259","sequential-stimulus-presentation","277","465032","0.0-52.0","SS1613098760891","pref_reveal","","40","800","1678.759999992326","null","null","","","","","14","","","","background","","","",""
"","null","html-keyboard-response","278","466124","0.0-53.0-0.0","SS1613098760891","","","null","","","","","<p><img src= images/blank.png width =""200"" height = ""200"" style = ""float:right""></p><p><img src=images/blank.png width =""800"" height = ""200""></p>","","","","","","","","","","","",""
"","611.9900000048801","sequential-stimulus-presentation","279","467543","0.0-53.0-1.0","SS1613098760891","trial","","40","800","1411.9900000048801","images/stimuli/spore_stims/complex_07_A_c.gif","images/stimuli/spore_stims/complex_15_B_d.gif","","","","","15","complex_dissimilar","images/stimuli/spore_stims/complex_15_B_d.gif","left","","","","",""
"","null","html-keyboard-response","280","468714","0.0-53.0-0.1","SS1613098760891","","","null","","","","","<p><img src= images/blank.png width =""200"" height = ""200"" style = ""float:right""></p><p><img src=images/blank.png width =""800"" height = ""200""></p>","","","","","","","","","","","",""
"","828.5049999831244","sequential-stimulus-presentation","281","470352","0.0-53.0-1.1","SS1613098760891","trial","","40","800","1628.5049999831244","images/stimuli/spore_stims/complex_07_A_c.gif","images/stimuli/spore_stims/complex_15_B_d.gif","","","","","15","complex_dissimilar","images/stimuli/spore_stims/complex_15_B_d.gif","left","","","","",""
"","null","html-keyboard-response","282","471282","0.0-53.0-0.2","SS1613098760891","","","null","","","","","<p><img src= images/blank.png width =""200"" height = ""200"" style = ""float:right""></p><p><img src=images/blank.png width =""800"" height = ""200""></p>","","","","","","","","","","","",""
"","737.0799999916926","sequential-stimulus-presentation","283","472831","0.0-53.0-1.2","SS1613098760891","trial","","40","800","1537.0799999916926","images/stimuli/spore_stims/complex_07_A_c.gif","images/stimuli/spore_stims/complex_15_B_d.gif","","","","","15","complex_dissimilar","images/stimuli/spore_stims/complex_15_B_d.gif","left","","","","",""
"","null","html-keyboard-response","284","473866","0.0-53.0-0.3","SS1613098760891","","","null","","","","","<p><img src= images/blank.png width =""200"" height = ""200"" style = ""float:right""></p><p><img src=images/blank.png width =""800"" height = ""200""></p>","","","","","","","","","","","",""
"","510.3349999990314","sequential-stimulus-presentation","285","475183","0.0-53.0-1.3","SS1613098760891","trial","","40","800","1310.3349999990314","images/stimuli/spore_stims/complex_07_A_c.gif","images/stimuli/spore_stims/complex_15_B_d.gif","","","","","15","complex_dissimilar","images/stimuli/spore_stims/complex_15_B_d.gif","left","","","","",""
"","null","html-keyboard-response","286","476062","0.0-53.0-0.4","SS1613098760891","","","null","","","","","<p><img src= images/blank.png width =""200"" height = ""200"" style = ""float:right""></p><p><img src=images/blank.png width =""800"" height = ""200""></p>","","","","","","","","","","","",""
"","1465.764999971725","sequential-stimulus-presentation","287","478344","0.0-53.0-1.4","SS1613098760891","trial","","40","800","2265.764999971725","images/stimuli/spore_stims/complex_07_A_c.gif","images/stimuli/spore_stims/complex_15_B_d.gif","","","","","15","complex_dissimilar","images/stimuli/spore_stims/complex_15_B_d.gif","left","","","","",""
"","null","html-keyboard-response","288","479547","0.0-53.0-0.5","SS1613098760891","","","null","","","","","<p><img src= images/blank.png width =""200"" height = ""200"" style = ""float:right""></p><p><img src=images/blank.png width =""800"" height = ""200""></p>","","","","","","","","","","","",""
"","1669.8049999540672","sequential-stimulus-presentation","289","482023","0.0-53.0-1.5","SS1613098760891","trial","","40","800","2469.804999954067","images/stimuli/spore_stims/complex_07_A_c.gif","images/stimuli/spore_stims/complex_15_B_d.gif","","","","","15","complex_dissimilar","images/stimuli/spore_stims/complex_15_B_d.gif","left","","","","",""
"","null","html-keyboard-response","290","482883","0.0-53.0-0.6","SS1613098760891","","","null","","","","","<p><img src= images/blank.png width =""200"" height = ""200"" style = ""float:right""></p><p><img src=images/blank.png width =""800"" height = ""200""></p>","","","","","","","","","","","",""
"","748.9699999568984","sequential-stimulus-presentation","291","484439","0.0-53.0-1.6","SS1613098760891","trial","","40","800","1548.9699999568984","images/stimuli/spore_stims/complex_07_A_c.gif","images/stimuli/spore_stims/complex_15_B_d.gif","","","","","15","complex_dissimilar","images/stimuli/spore_stims/complex_07_A_c.gif","middle","","","","",""
"","null","html-keyboard-response","292","485450","0.0-53.0-0.7","SS1613098760891","","","null","","","","","<p><img src= images/blank.png width =""200"" height = ""200"" style = ""float:right""></p><p><img src=images/blank.png width =""800"" height = ""200""></p>","","","","","","","","","","","",""
"","774.305000086315","sequential-stimulus-presentation","293","487040","0.0-53.0-1.7","SS1613098760891","trial","","40","800","1574.305000086315","images/stimuli/spore_stims/complex_07_A_c.gif","images/stimuli/spore_stims/complex_15_B_d.gif","","","","","15","complex_dissimilar","images/stimuli/spore_stims/complex_15_B_d.gif","left","","","","",""
"","1251.010000007227","html-keyboard-response","294","488296","0.0-54.0","SS1613098760891","pref_question","","51","","","","","<video width ='960' height = '540' style='padding-top:8%' autoplay muted><source src='images/stimuli/wall_pref.mp4' type='video/mp4'></video>","3","right","66%","15","","","","","","","",""
"","2197.3950000246987","sequential-stimulus-presentation","295","491311","0.0-55.0","SS1613098760891","pref_reveal","","40","800","2997.3950000246987","null","null","","","","","15","","","","novel","","","",""
"","null","html-keyboard-response","296","492605","0.0-56.0-0.0","SS1613098760891","","","null","","","","","<p><img src= images/blank.png width =""200"" height = ""200"" style = ""float:right""></p><p><img src=images/blank.png width =""800"" height = ""200""></p>","","","","","","","","","","","",""
"","674.5649999938905","sequential-stimulus-presentation","297","494087","0.0-56.0-1.0","SS1613098760891","trial","","40","800","1474.5649999938905","images/stimuli/spore_stims/simple_09_B_b.gif","images/stimuli/spore_stims/simple_01_B_c.gif","","","","","16","simple_dissimilar","images/stimuli/spore_stims/simple_01_B_c.gif","right","","","","",""
"","null","html-keyboard-response","298","495038","0.0-56.0-0.1","SS1613098760891","","","null","","","","","<p><img src= images/blank.png width =""200"" height = ""200"" style = ""float:right""></p><p><img src=images/blank.png width =""800"" height = ""200""></p>","","","","","","","","","","","",""
"","963.965000002645","sequential-stimulus-presentation","299","496815","0.0-56.0-1.1","SS1613098760891","trial","","40","800","1763.965000002645","images/stimuli/spore_stims/simple_09_B_b.gif","images/stimuli/spore_stims/simple_01_B_c.gif","","","","","16","simple_dissimilar","images/stimuli/spore_stims/simple_01_B_c.gif","right","","","","",""
"","null","html-keyboard-response","300","498101","0.0-56.0-0.2","SS1613098760891","","","null","","","","","<p><img src= images/blank.png width =""200"" height = ""200"" style = ""float:right""></p><p><img src=images/blank.png width =""800"" height = ""200""></p>","","","","","","","","","","","",""
"","975.4850000608712","sequential-stimulus-presentation","301","499887","0.0-56.0-1.2","SS1613098760891","trial","","40","800","1775.4850000608712","images/stimuli/spore_stims/simple_09_B_b.gif","images/stimuli/spore_stims/simple_01_B_c.gif","","","","","16","simple_dissimilar","images/stimuli/spore_stims/simple_01_B_c.gif","right","","","","",""
"","null","html-keyboard-response","302","501075","0.0-56.0-0.3","SS1613098760891","","","null","","","","","<p><img src= images/blank.png width =""200"" height = ""200"" style = ""float:right""></p><p><img src=images/blank.png width =""800"" height = ""200""></p>","","","","","","","","","","","",""
"","605.769999907352","sequential-stimulus-presentation","303","502488","0.0-56.0-1.3","SS1613098760891","trial","","40","800","1405.769999907352","images/stimuli/spore_stims/simple_09_B_b.gif","images/stimuli/spore_stims/simple_01_B_c.gif","","","","","16","simple_dissimilar","images/stimuli/spore_stims/simple_01_B_c.gif","right","","","","",""
"","null","html-keyboard-response","304","503506","0.0-56.0-0.4","SS1613098760891","","","null","","","","","<p><img src= images/blank.png width =""200"" height = ""200"" style = ""float:right""></p><p><img src=images/blank.png width =""800"" height = ""200""></p>","","","","","","","","","","","",""
"","509.9049999844283","sequential-stimulus-presentation","305","504823","0.0-56.0-1.4","SS1613098760891","trial","","40","800","1309.9049999844283","images/stimuli/spore_stims/simple_09_B_b.gif","images/stimuli/spore_stims/simple_01_B_c.gif","","","","","16","simple_dissimilar","images/stimuli/spore_stims/simple_01_B_c.gif","right","","","","",""
"","null","html-keyboard-response","306","505794","0.0-56.0-0.5","SS1613098760891","","","null","","","","","<p><img src= images/blank.png width =""200"" height = ""200"" style = ""float:right""></p><p><img src=images/blank.png width =""800"" height = ""200""></p>","","","","","","","","","","","",""
"","646.3299999013543","sequential-stimulus-presentation","307","507248","0.0-56.0-1.5","SS1613098760891","trial","","40","800","1446.3299999013543","images/stimuli/spore_stims/simple_09_B_b.gif","images/stimuli/spore_stims/simple_01_B_c.gif","","","","","16","simple_dissimilar","images/stimuli/spore_stims/simple_01_B_c.gif","right","","","","",""
"","null","html-keyboard-response","308","508267","0.0-56.0-0.6","SS1613098760891","","","null","","","","","<p><img src= images/blank.png width =""200"" height = ""200"" style = ""float:right""></p><p><img src=images/blank.png width =""800"" height = ""200""></p>","","","","","","","","","","","",""
"","862.3399999924004","sequential-stimulus-presentation","309","509936","0.0-56.0-1.6","SS1613098760891","trial","","40","800","1662.3399999924004","images/stimuli/spore_stims/simple_09_B_b.gif","images/stimuli/spore_stims/simple_01_B_c.gif","","","","","16","simple_dissimilar","images/stimuli/spore_stims/simple_09_B_b.gif","left","","","","",""
"","null","html-keyboard-response","310","510869","0.0-56.0-0.7","SS1613098760891","","","null","","","","","<p><img src= images/blank.png width =""200"" height = ""200"" style = ""float:right""></p><p><img src=images/blank.png width =""800"" height = ""200""></p>","","","","","","","","","","","",""
"","409.54500006046146","sequential-stimulus-presentation","311","512088","0.0-56.0-1.7","SS1613098760891","trial","","40","800","1209.5450000604615","images/stimuli/spore_stims/simple_09_B_b.gif","images/stimuli/spore_stims/simple_01_B_c.gif","","","","","16","simple_dissimilar","images/stimuli/spore_stims/simple_01_B_c.gif","right","","","","",""
"","970.6849999492988","html-keyboard-response","312","513064","0.0-57.0","SS1613098760891","pref_question","","50","","","","","<video width ='960' height = '540' style='padding-top:8%' autoplay muted><source src='images/stimuli/wall_pref.mp4' type='video/mp4'></video>","2","middle","45%","16","","","","","","","",""
