"view_history","rt","trial_type","trial_index","time_elapsed","internal_node_id","subject","stimulus_type","trial_stimulus","key_press","minimum_viewing_duration","trial_looking_time","block_deviant","block_background","stimulus","wall_pref","location","location_percent","block_number","block_type","stimulus_displayed","position_displayed","stim_type_selected","responses","question_order","stimulus_left","stimulus_right"
"[{""page_index"":0,""viewing_time"":4984.009999781847}]","4986.929999664426","instructions","0","5023","0.0-0.0","SS1613099079304","","","","","","","","","","","","","","","","","","","",""
"[{""page_index"":0,""viewing_time"":66400.63000004739},{""page_index"":1,""viewing_time"":13017.225000075996}]","79419.89500029013","instructions","1","86451","0.0-1.0","SS1613099079304","instructions","","","","","","","","","","","","","","","","","","",""
"","11789.445000234991","sequential-stimulus-presentation","2","99066","0.0-2.0","SS1613099079304","","","40","800","12589.445000234991","null","null","","","","","","","","","","","","",""
"","6884.210000280291","sequential-stimulus-presentation","3","106766","0.0-3.0","SS1613099079304","","","40","800","7684.210000280291","null","null","","","","","","","","","","","","",""
"[{""page_index"":0,""viewing_time"":23895.66500019282}]","23897.679999936372","instructions","4","130668","0.0-4.0","SS1613099079304","instructions","","","","","","","","","","","","","","","","","","",""
"","5176.804999820888","html-keyboard-response","5","135859","0.0-5.0","SS1613099079304","instructions","","49","","","","","<video width ='960' height = '540' autoplay muted><source src='images/stimuli/wall_pref.mp4' type='video/mp4'></video>","1","left","25%","","","","","","","","",""
"","15224.789999891073","sequential-stimulus-presentation","6","151903","0.0-6.0","SS1613099079304","pref_reveal","","40","800","16024.789999891073","null","null","","","","","","","","","","","","",""
"[{""page_index"":0,""viewing_time"":16915.344999637455},{""page_index"":1,""viewing_time"":2518.6100001446903},{""page_index"":2,""viewing_time"":1544.0099998377264},{""page_index"":3,""viewing_time"":952.265000436455}]","21931.314999703318","instructions","7","173838","0.0-7.0","SS1613099079304","instructions","","","","","","","","","","","","","","","","","","",""
"","null","html-keyboard-response","8","174659","0.0-8.0-0.0","SS1613099079304","","","null","","","","","<p><img src= images/blank.png width =""200"" height = ""200"" style = ""float:right""></p><p><img src=images/blank.png width =""800"" height = ""200""></p>","","","","","","","","","","","",""
"","1758.289999794215","sequential-stimulus-presentation","9","177244","0.0-8.0-1.0","SS1613099079304","trial","","40","800","2558.289999794215","images/stimuli/spore_stims/simple_09_A_a.gif","images/stimuli/spore_stims/simple_09_B_a.gif","","","","","0","simple_similar","images/stimuli/spore_stims/simple_09_B_a.gif","left","","","","",""
"","null","html-keyboard-response","10","178491","0.0-8.0-0.1","SS1613099079304","","","null","","","","","<p><img src= images/blank.png width =""200"" height = ""200"" style = ""float:right""></p><p><img src=images/blank.png width =""800"" height = ""200""></p>","","","","","","","","","","","",""
"","3544.654999859631","sequential-stimulus-presentation","11","182856","0.0-8.0-1.1","SS1613099079304","trial","","40","800","4344.654999859631","images/stimuli/spore_stims/simple_09_A_a.gif","images/stimuli/spore_stims/simple_09_B_a.gif","","","","","0","simple_similar","images/stimuli/spore_stims/simple_09_B_a.gif","left","","","","",""
"","null","html-keyboard-response","12","184051","0.0-8.0-0.2","SS1613099079304","","","null","","","","","<p><img src= images/blank.png width =""200"" height = ""200"" style = ""float:right""></p><p><img src=images/blank.png width =""800"" height = ""200""></p>","","","","","","","","","","","",""
"","2757.4599999934435","sequential-stimulus-presentation","13","187637","0.0-8.0-1.2","SS1613099079304","trial","","40","800","3557.4599999934435","images/stimuli/spore_stims/simple_09_A_a.gif","images/stimuli/spore_stims/simple_09_B_a.gif","","","","","0","simple_similar","images/stimuli/spore_stims/simple_09_B_a.gif","left","","","","",""
"","null","html-keyboard-response","14","188870","0.0-8.0-0.3","SS1613099079304","","","null","","","","","<p><img src= images/blank.png width =""200"" height = ""200"" style = ""float:right""></p><p><img src=images/blank.png width =""800"" height = ""200""></p>","","","","","","","","","","","",""
"","3633.4600001573563","sequential-stimulus-presentation","15","193325","0.0-8.0-1.3","SS1613099079304","trial","","40","800","4433.460000157356","images/stimuli/spore_stims/simple_09_A_a.gif","images/stimuli/spore_stims/simple_09_B_a.gif","","","","","0","simple_similar","images/stimuli/spore_stims/simple_09_B_a.gif","left","","","","",""
"","null","html-keyboard-response","16","194543","0.0-8.0-0.4","SS1613099079304","","","null","","","","","<p><img src= images/blank.png width =""200"" height = ""200"" style = ""float:right""></p><p><img src=images/blank.png width =""800"" height = ""200""></p>","","","","","","","","","","","",""
"","3012.975000310689","sequential-stimulus-presentation","17","198372","0.0-8.0-1.4","SS1613099079304","trial","","40","800","3812.975000310689","images/stimuli/spore_stims/simple_09_A_a.gif","images/stimuli/spore_stims/simple_09_B_a.gif","","","","","0","simple_similar","images/stimuli/spore_stims/simple_09_B_a.gif","left","","","","",""
"","null","html-keyboard-response","18","199281","0.0-8.0-0.5","SS1613099079304","","","null","","","","","<p><img src= images/blank.png width =""200"" height = ""200"" style = ""float:right""></p><p><img src=images/blank.png width =""800"" height = ""200""></p>","","","","","","","","","","","",""
"","232.80000034719706","sequential-stimulus-presentation","19","200338","0.0-8.0-1.5","SS1613099079304","trial","","40","800","1032.800000347197","images/stimuli/spore_stims/simple_09_A_a.gif","images/stimuli/spore_stims/simple_09_B_a.gif","","","","","0","simple_similar","images/stimuli/spore_stims/simple_09_B_a.gif","left","","","","",""
"","null","html-keyboard-response","20","201558","0.0-8.0-0.6","SS1613099079304","","","null","","","","","<p><img src= images/blank.png width =""200"" height = ""200"" style = ""float:right""></p><p><img src=images/blank.png width =""800"" height = ""200""></p>","","","","","","","","","","","",""
"","520.9699999541044","sequential-stimulus-presentation","21","202897","0.0-8.0-1.6","SS1613099079304","trial","","40","800","1320.9699999541044","images/stimuli/spore_stims/simple_09_A_a.gif","images/stimuli/spore_stims/simple_09_B_a.gif","","","","","0","simple_similar","images/stimuli/spore_stims/simple_09_B_a.gif","left","","","","",""
"","null","html-keyboard-response","22","203834","0.0-8.0-0.7","SS1613099079304","","","null","","","","","<p><img src= images/blank.png width =""200"" height = ""200"" style = ""float:right""></p><p><img src=images/blank.png width =""800"" height = ""200""></p>","","","","","","","","","","","",""
"","2742.4599998630583","sequential-stimulus-presentation","23","207393","0.0-8.0-1.7","SS1613099079304","trial","","40","800","3542.4599998630583","images/stimuli/spore_stims/simple_09_A_a.gif","images/stimuli/spore_stims/simple_09_B_a.gif","","","","","0","simple_similar","images/stimuli/spore_stims/simple_09_A_a.gif","middle","","","","",""
"","1356.1249999329448","html-keyboard-response","24","208765","0.0-9.0","SS1613099079304","pref_question","","50","","","","","<video width ='960' height = '540' style='padding-top:8%' autoplay muted><source src='images/stimuli/wall_pref.mp4' type='video/mp4'></video>","2","middle","45%","0","","","","","","","",""
"","2019.2149998620152","sequential-stimulus-presentation","25","211611","0.0-10.0","SS1613099079304","pref_reveal","","40","800","2819.2149998620152","null","null","","","","","0","","","","deviant","","","",""
"","null","html-keyboard-response","26","212647","0.0-11.0-0.0","SS1613099079304","","","null","","","","","<p><img src= images/blank.png width =""200"" height = ""200"" style = ""float:right""></p><p><img src=images/blank.png width =""800"" height = ""200""></p>","","","","","","","","","","","",""
"","1918.0399999022484","sequential-stimulus-presentation","27","215449","0.0-11.0-1.0","SS1613099079304","trial","","40","800","2718.0399999022484","images/stimuli/spore_stims/simple_15_B_a.gif","images/stimuli/spore_stims/simple_02_B_d.gif","","","","","1","simple_dissimilar","images/stimuli/spore_stims/simple_02_B_d.gif","right","","","","",""
"","null","html-keyboard-response","28","216608","0.0-11.0-0.1","SS1613099079304","","","null","","","","","<p><img src= images/blank.png width =""200"" height = ""200"" style = ""float:right""></p><p><img src=images/blank.png width =""800"" height = ""200""></p>","","","","","","","","","","","",""
"","1154.2799999006093","sequential-stimulus-presentation","29","218584","0.0-11.0-1.1","SS1613099079304","trial","","40","800","1954.2799999006093","images/stimuli/spore_stims/simple_15_B_a.gif","images/stimuli/spore_stims/simple_02_B_d.gif","","","","","1","simple_dissimilar","images/stimuli/spore_stims/simple_02_B_d.gif","right","","","","",""
"","null","html-keyboard-response","30","219836","0.0-11.0-0.2","SS1613099079304","","","null","","","","","<p><img src= images/blank.png width =""200"" height = ""200"" style = ""float:right""></p><p><img src=images/blank.png width =""800"" height = ""200""></p>","","","","","","","","","","","",""
"","1654.7500002197921","sequential-stimulus-presentation","31","222311","0.0-11.0-1.2","SS1613099079304","trial","","40","800","2454.750000219792","images/stimuli/spore_stims/simple_15_B_a.gif","images/stimuli/spore_stims/simple_02_B_d.gif","","","","","1","simple_dissimilar","images/stimuli/spore_stims/simple_02_B_d.gif","right","","","","",""
"","null","html-keyboard-response","32","223295","0.0-11.0-0.3","SS1613099079304","","","null","","","","","<p><img src= images/blank.png width =""200"" height = ""200"" style = ""float:right""></p><p><img src=images/blank.png width =""800"" height = ""200""></p>","","","","","","","","","","","",""
"","1136.8950000032783","sequential-stimulus-presentation","33","225261","0.0-11.0-1.3","SS1613099079304","trial","","40","800","1936.8950000032783","images/stimuli/spore_stims/simple_15_B_a.gif","images/stimuli/spore_stims/simple_02_B_d.gif","","","","","1","simple_dissimilar","images/stimuli/spore_stims/simple_02_B_d.gif","right","","","","",""
"","null","html-keyboard-response","34","226343","0.0-11.0-0.4","SS1613099079304","","","null","","","","","<p><img src= images/blank.png width =""200"" height = ""200"" style = ""float:right""></p><p><img src=images/blank.png width =""800"" height = ""200""></p>","","","","","","","","","","","",""
"","1061.6000001318753","sequential-stimulus-presentation","35","228231","0.0-11.0-1.4","SS1613099079304","trial","","40","800","1861.6000001318753","images/stimuli/spore_stims/simple_15_B_a.gif","images/stimuli/spore_stims/simple_02_B_d.gif","","","","","1","simple_dissimilar","images/stimuli/spore_stims/simple_02_B_d.gif","right","","","","",""
"","null","html-keyboard-response","36","229382","0.0-11.0-0.5","SS1613099079304","","","null","","","","","<p><img src= images/blank.png width =""200"" height = ""200"" style = ""float:right""></p><p><img src=images/blank.png width =""800"" height = ""200""></p>","","","","","","","","","","","",""
"","897.2249999642372","sequential-stimulus-presentation","37","231099","0.0-11.0-1.5","SS1613099079304","trial","","40","800","1697.2249999642372","images/stimuli/spore_stims/simple_15_B_a.gif","images/stimuli/spore_stims/simple_02_B_d.gif","","","","","1","simple_dissimilar","images/stimuli/spore_stims/simple_02_B_d.gif","right","","","","",""
"","null","html-keyboard-response","38","232062","0.0-11.0-0.6","SS1613099079304","","","null","","","","","<p><img src= images/blank.png width =""200"" height = ""200"" style = ""float:right""></p><p><img src=images/blank.png width =""800"" height = ""200""></p>","","","","","","","","","","","",""
"","807.289999909699","sequential-stimulus-presentation","39","233689","0.0-11.0-1.6","SS1613099079304","trial","","40","800","1607.289999909699","images/stimuli/spore_stims/simple_15_B_a.gif","images/stimuli/spore_stims/simple_02_B_d.gif","","","","","1","simple_dissimilar","images/stimuli/spore_stims/simple_02_B_d.gif","right","","","","",""
"","null","html-keyboard-response","40","234825","0.0-11.0-0.7","SS1613099079304","","","null","","","","","<p><img src= images/blank.png width =""200"" height = ""200"" style = ""float:right""></p><p><img src=images/blank.png width =""800"" height = ""200""></p>","","","","","","","","","","","",""
"","767.4949998036027","sequential-stimulus-presentation","41","236413","0.0-11.0-1.7","SS1613099079304","trial","","40","800","1567.4949998036027","images/stimuli/spore_stims/simple_15_B_a.gif","images/stimuli/spore_stims/simple_02_B_d.gif","","","","","1","simple_dissimilar","images/stimuli/spore_stims/simple_15_B_a.gif","middle","","","","",""
"","4439.000000245869","html-keyboard-response","42","240866","0.0-12.0","SS1613099079304","pref_question","","50","","","","","<video width ='960' height = '540' style='padding-top:8%' autoplay muted><source src='images/stimuli/wall_pref.mp4' type='video/mp4'></video>","2","middle","45%","1","","","","","","","",""
"","1941.1050002090633","sequential-stimulus-presentation","43","243624","0.0-13.0","SS1613099079304","pref_reveal","","40","800","2741.1050002090633","null","null","","","","","1","","","","deviant","","","",""
"","null","html-keyboard-response","44","244743","0.0-14.0-0.0","SS1613099079304","","","null","","","","","<p><img src= images/blank.png width =""200"" height = ""200"" style = ""float:right""></p><p><img src=images/blank.png width =""800"" height = ""200""></p>","","","","","","","","","","","",""
"","1217.0250001363456","sequential-stimulus-presentation","45","246937","0.0-14.0-1.0","SS1613099079304","trial","","40","800","2017.0250001363456","images/stimuli/spore_stims/simple_06_A_a.gif","images/stimuli/spore_stims/simple_12_B_c.gif","","","","","2","simple_dissimilar","images/stimuli/spore_stims/simple_12_B_c.gif","middle","","","","",""
"","null","html-keyboard-response","46","248139","0.0-14.0-0.1","SS1613099079304","","","null","","","","","<p><img src= images/blank.png width =""200"" height = ""200"" style = ""float:right""></p><p><img src=images/blank.png width =""800"" height = ""200""></p>","","","","","","","","","","","",""
"","982.4149999767542","sequential-stimulus-presentation","47","249933","0.0-14.0-1.1","SS1613099079304","trial","","40","800","1782.4149999767542","images/stimuli/spore_stims/simple_06_A_a.gif","images/stimuli/spore_stims/simple_12_B_c.gif","","","","","2","simple_dissimilar","images/stimuli/spore_stims/simple_12_B_c.gif","middle","","","","",""
"","null","html-keyboard-response","48","250757","0.0-14.0-0.2","SS1613099079304","","","null","","","","","<p><img src= images/blank.png width =""200"" height = ""200"" style = ""float:right""></p><p><img src=images/blank.png width =""800"" height = ""200""></p>","","","","","","","","","","","",""
"","1106.8950002081692","sequential-stimulus-presentation","49","252697","0.0-14.0-1.2","SS1613099079304","trial","","40","800","1906.8950002081692","images/stimuli/spore_stims/simple_06_A_a.gif","images/stimuli/spore_stims/simple_12_B_c.gif","","","","","2","simple_dissimilar","images/stimuli/spore_stims/simple_12_B_c.gif","middle","","","","",""
"","null","html-keyboard-response","50","253747","0.0-14.0-0.3","SS1613099079304","","","null","","","","","<p><img src= images/blank.png width =""200"" height = ""200"" style = ""float:right""></p><p><img src=images/blank.png width =""800"" height = ""200""></p>","","","","","","","","","","","",""
"","3482.6750000938773","sequential-stimulus-presentation","51","258080","0.0-14.0-1.3","SS1613099079304","trial","","40","800","4282.675000093877","images/stimuli/spore_stims/simple_06_A_a.gif","images/stimuli/spore_stims/simple_12_B_c.gif","","","","","2","simple_dissimilar","images/stimuli/spore_stims/simple_06_A_a.gif","left","","","","",""
"","null","html-keyboard-response","52","259352","0.0-14.0-0.4","SS1613099079304","","","null","","","","","<p><img src= images/blank.png width =""200"" height = ""200"" style = ""float:right""></p><p><img src=images/blank.png width =""800"" height = ""200""></p>","","","","","","","","","","","",""
"","867.9849999025464","sequential-stimulus-presentation","53","261038","0.0-14.0-1.4","SS1613099079304","trial","","40","800","1667.9849999025464","images/stimuli/spore_stims/simple_06_A_a.gif","images/stimuli/spore_stims/simple_12_B_c.gif","","","","","2","simple_dissimilar","images/stimuli/spore_stims/simple_12_B_c.gif","middle","","","","",""
"","null","html-keyboard-response","54","262023","0.0-14.0-0.5","SS1613099079304","","","null","","","","","<p><img src= images/blank.png width =""200"" height = ""200"" style = ""float:right""></p><p><img src=images/blank.png width =""800"" height = ""200""></p>","","","","","","","","","","","",""
"","683.2699999213219","sequential-stimulus-presentation","55","263531","0.0-14.0-1.5","SS1613099079304","trial","","40","800","1483.2699999213219","images/stimuli/spore_stims/simple_06_A_a.gif","images/stimuli/spore_stims/simple_12_B_c.gif","","","","","2","simple_dissimilar","images/stimuli/spore_stims/simple_12_B_c.gif","middle","","","","",""
"","null","html-keyboard-response","56","264582","0.0-14.0-0.6","SS1613099079304","","","null","","","","","<p><img src= images/blank.png width =""200"" height = ""200"" style = ""float:right""></p><p><img src=images/blank.png width =""800"" height = ""200""></p>","","","","","","","","","","","",""
"","716.8950000777841","sequential-stimulus-presentation","57","266117","0.0-14.0-1.6","SS1613099079304","trial","","40","800","1516.895000077784","images/stimuli/spore_stims/simple_06_A_a.gif","images/stimuli/spore_stims/simple_12_B_c.gif","","","","","2","simple_dissimilar","images/stimuli/spore_stims/simple_12_B_c.gif","middle","","","","",""
"","null","html-keyboard-response","58","267359","0.0-14.0-0.7","SS1613099079304","","","null","","","","","<p><img src= images/blank.png width =""200"" height = ""200"" style = ""float:right""></p><p><img src=images/blank.png width =""800"" height = ""200""></p>","","","","","","","","","","","",""
"","852.1199999377131","sequential-stimulus-presentation","59","269090","0.0-14.0-1.7","SS1613099079304","trial","","40","800","1652.1199999377131","images/stimuli/spore_stims/simple_06_A_a.gif","images/stimuli/spore_stims/simple_12_B_c.gif","","","","","2","simple_dissimilar","images/stimuli/spore_stims/simple_12_B_c.gif","middle","","","","",""
"","2228.6700000986457","html-keyboard-response","60","271331","0.0-15.0","SS1613099079304","pref_question","","51","","","","","<video width ='960' height = '540' style='padding-top:8%' autoplay muted><source src='images/stimuli/wall_pref.mp4' type='video/mp4'></video>","3","right","66%","2","","","","","","","",""
"","2157.425000332296","sequential-stimulus-presentation","61","274309","0.0-16.0","SS1613099079304","pref_reveal","","40","800","2957.425000332296","null","null","","","","","2","","","","novel","","","",""
"","null","html-keyboard-response","62","275495","0.0-17.0-0.0","SS1613099079304","","","null","","","","","<p><img src= images/blank.png width =""200"" height = ""200"" style = ""float:right""></p><p><img src=images/blank.png width =""800"" height = ""200""></p>","","","","","","","","","","","",""
"","625.1149997115135","sequential-stimulus-presentation","63","277007","0.0-17.0-1.0","SS1613099079304","trial","","40","800","1425.1149997115135","images/stimuli/spore_stims/simple_16_A_b.gif","images/stimuli/spore_stims/simple_16_B_b.gif","","","","","3","simple_similar","images/stimuli/spore_stims/simple_16_B_b.gif","middle","","","","",""
"","null","html-keyboard-response","64","278023","0.0-17.0-0.1","SS1613099079304","","","null","","","","","<p><img src= images/blank.png width =""200"" height = ""200"" style = ""float:right""></p><p><img src=images/blank.png width =""800"" height = ""200""></p>","","","","","","","","","","","",""
"","81.95000002160668","sequential-stimulus-presentation","65","278933","0.0-17.0-1.1","SS1613099079304","trial","","40","800","881.9500000216067","images/stimuli/spore_stims/simple_16_A_b.gif","images/stimuli/spore_stims/simple_16_B_b.gif","","","","","3","simple_similar","images/stimuli/spore_stims/simple_16_B_b.gif","middle","","","","",""
"","null","html-keyboard-response","66","280109","0.0-17.0-0.2","SS1613099079304","","","null","","","","","<p><img src= images/blank.png width =""200"" height = ""200"" style = ""float:right""></p><p><img src=images/blank.png width =""800"" height = ""200""></p>","","","","","","","","","","","",""
"","513.5900001041591","sequential-stimulus-presentation","67","281547","0.0-17.0-1.2","SS1613099079304","trial","","40","800","1313.5900001041591","images/stimuli/spore_stims/simple_16_A_b.gif","images/stimuli/spore_stims/simple_16_B_b.gif","","","","","3","simple_similar","images/stimuli/spore_stims/simple_16_B_b.gif","middle","","","","",""
"","null","html-keyboard-response","68","282611","0.0-17.0-0.3","SS1613099079304","","","null","","","","","<p><img src= images/blank.png width =""200"" height = ""200"" style = ""float:right""></p><p><img src=images/blank.png width =""800"" height = ""200""></p>","","","","","","","","","","","",""
"","1367.389999795705","sequential-stimulus-presentation","69","284805","0.0-17.0-1.3","SS1613099079304","trial","","40","800","2167.389999795705","images/stimuli/spore_stims/simple_16_A_b.gif","images/stimuli/spore_stims/simple_16_B_b.gif","","","","","3","simple_similar","images/stimuli/spore_stims/simple_16_B_b.gif","middle","","","","",""
"","null","html-keyboard-response","70","286042","0.0-17.0-0.4","SS1613099079304","","","null","","","","","<p><img src= images/blank.png width =""200"" height = ""200"" style = ""float:right""></p><p><img src=images/blank.png width =""800"" height = ""200""></p>","","","","","","","","","","","",""
"","618.1100001558661","sequential-stimulus-presentation","71","287477","0.0-17.0-1.4","SS1613099079304","trial","","40","800","1418.1100001558661","images/stimuli/spore_stims/simple_16_A_b.gif","images/stimuli/spore_stims/simple_16_B_b.gif","","","","","3","simple_similar","images/stimuli/spore_stims/simple_16_B_b.gif","middle","","","","",""
"","null","html-keyboard-response","72","288597","0.0-17.0-0.5","SS1613099079304","","","null","","","","","<p><img src= images/blank.png width =""200"" height = ""200"" style = ""float:right""></p><p><img src=images/blank.png width =""800"" height = ""200""></p>","","","","","","","","","","","",""
"","2507.4050002731383","sequential-stimulus-presentation","73","291981","0.0-17.0-1.5","SS1613099079304","trial","","40","800","3307.4050002731383","images/stimuli/spore_stims/simple_16_A_b.gif","images/stimuli/spore_stims/simple_16_B_b.gif","","","","","3","simple_similar","images/stimuli/spore_stims/simple_16_B_b.gif","middle","","","","",""
"","null","html-keyboard-response","74","292896","0.0-17.0-0.6","SS1613099079304","","","null","","","","","<p><img src= images/blank.png width =""200"" height = ""200"" style = ""float:right""></p><p><img src=images/blank.png width =""800"" height = ""200""></p>","","","","","","","","","","","",""
"","649.0850001573563","sequential-stimulus-presentation","75","294363","0.0-17.0-1.6","SS1613099079304","trial","","40","800","1449.0850001573563","images/stimuli/spore_stims/simple_16_A_b.gif","images/stimuli/spore_stims/simple_16_B_b.gif","","","","","3","simple_similar","images/stimuli/spore_stims/simple_16_B_b.gif","middle","","","","",""
"","null","html-keyboard-response","76","295202","0.0-17.0-0.7","SS1613099079304","","","null","","","","","<p><img src= images/blank.png width =""200"" height = ""200"" style = ""float:right""></p><p><img src=images/blank.png width =""800"" height = ""200""></p>","","","","","","","","","","","",""
"","810.7549999840558","sequential-stimulus-presentation","77","296830","0.0-17.0-1.7","SS1613099079304","trial","","40","800","1610.7549999840558","images/stimuli/spore_stims/simple_16_A_b.gif","images/stimuli/spore_stims/simple_16_B_b.gif","","","","","3","simple_similar","images/stimuli/spore_stims/simple_16_A_b.gif","right","","","","",""
"","1684.9450003355742","html-keyboard-response","78","298527","0.0-18.0","SS1613099079304","pref_question","","49","","","","","<video width ='960' height = '540' style='padding-top:8%' autoplay muted><source src='images/stimuli/wall_pref.mp4' type='video/mp4'></video>","1","left","25%","3","","","","","","","",""
"","1016.0350003279746","sequential-stimulus-presentation","79","300377","0.0-19.0","SS1613099079304","pref_reveal","","40","800","1816.0350003279746","null","null","","","","","3","","","","novel","","","",""
"","null","html-keyboard-response","80","301472","0.0-20.0-0.0","SS1613099079304","","","null","","","","","<p><img src= images/blank.png width =""200"" height = ""200"" style = ""float:right""></p><p><img src=images/blank.png width =""800"" height = ""200""></p>","","","","","","","","","","","",""
"","814.5649996586144","sequential-stimulus-presentation","81","303113","0.0-20.0-1.0","SS1613099079304","trial","","40","800","1614.5649996586144","images/stimuli/spore_stims/complex_11_A_a.gif","images/stimuli/spore_stims/complex_11_B_a.gif","","","","","4","complex_similar","images/stimuli/spore_stims/complex_11_B_a.gif","left","","","","",""
"","null","html-keyboard-response","82","304261","0.0-20.0-0.1","SS1613099079304","","","null","","","","","<p><img src= images/blank.png width =""200"" height = ""200"" style = ""float:right""></p><p><img src=images/blank.png width =""800"" height = ""200""></p>","","","","","","","","","","","",""
"","150.64499992877245","sequential-stimulus-presentation","83","305242","0.0-20.0-1.1","SS1613099079304","trial","","40","800","950.6449999287724","images/stimuli/spore_stims/complex_11_A_a.gif","images/stimuli/spore_stims/complex_11_B_a.gif","","","","","4","complex_similar","images/stimuli/spore_stims/complex_11_B_a.gif","left","","","","",""
"","null","html-keyboard-response","84","306190","0.0-20.0-0.2","SS1613099079304","","","null","","","","","<p><img src= images/blank.png width =""200"" height = ""200"" style = ""float:right""></p><p><img src=images/blank.png width =""800"" height = ""200""></p>","","","","","","","","","","","",""
"","561.82000041008","sequential-stimulus-presentation","85","307566","0.0-20.0-1.2","SS1613099079304","trial","","40","800","1361.82000041008","images/stimuli/spore_stims/complex_11_A_a.gif","images/stimuli/spore_stims/complex_11_B_a.gif","","","","","4","complex_similar","images/stimuli/spore_stims/complex_11_B_a.gif","left","","","","",""
"","null","html-keyboard-response","86","308869","0.0-20.0-0.3","SS1613099079304","","","null","","","","","<p><img src= images/blank.png width =""200"" height = ""200"" style = ""float:right""></p><p><img src=images/blank.png width =""800"" height = ""200""></p>","","","","","","","","","","","",""
"","357.57500026375055","sequential-stimulus-presentation","87","310047","0.0-20.0-1.3","SS1613099079304","trial","","40","800","1157.5750002637506","images/stimuli/spore_stims/complex_11_A_a.gif","images/stimuli/spore_stims/complex_11_B_a.gif","","","","","4","complex_similar","images/stimuli/spore_stims/complex_11_B_a.gif","left","","","","",""
"","null","html-keyboard-response","88","311159","0.0-20.0-0.4","SS1613099079304","","","null","","","","","<p><img src= images/blank.png width =""200"" height = ""200"" style = ""float:right""></p><p><img src=images/blank.png width =""800"" height = ""200""></p>","","","","","","","","","","","",""
"","229.9249996431172","sequential-stimulus-presentation","89","312217","0.0-20.0-1.4","SS1613099079304","trial","","40","800","1029.9249996431172","images/stimuli/spore_stims/complex_11_A_a.gif","images/stimuli/spore_stims/complex_11_B_a.gif","","","","","4","complex_similar","images/stimuli/spore_stims/complex_11_B_a.gif","left","","","","",""
"","null","html-keyboard-response","90","313222","0.0-20.0-0.5","SS1613099079304","","","null","","","","","<p><img src= images/blank.png width =""200"" height = ""200"" style = ""float:right""></p><p><img src=images/blank.png width =""800"" height = ""200""></p>","","","","","","","","","","","",""
"","965.7900002785027","sequential-stimulus-presentation","91","315076","0.0-20.0-1.5","SS1613099079304","trial","","40","800","1765.7900002785027","images/stimuli/spore_stims/complex_11_A_a.gif","images/stimuli/spore_stims/complex_11_B_a.gif","","","","","4","complex_similar","images/stimuli/spore_stims/complex_11_B_a.gif","left","","","","",""
"","null","html-keyboard-response","92","316176","0.0-20.0-0.6","SS1613099079304","","","null","","","","","<p><img src= images/blank.png width =""200"" height = ""200"" style = ""float:right""></p><p><img src=images/blank.png width =""800"" height = ""200""></p>","","","","","","","","","","","",""
"","521.8199999071658","sequential-stimulus-presentation","93","317537","0.0-20.0-1.6","SS1613099079304","trial","","40","800","1321.8199999071658","images/stimuli/spore_stims/complex_11_A_a.gif","images/stimuli/spore_stims/complex_11_B_a.gif","","","","","4","complex_similar","images/stimuli/spore_stims/complex_11_A_a.gif","right","","","","",""
"","null","html-keyboard-response","94","318442","0.0-20.0-0.7","SS1613099079304","","","null","","","","","<p><img src= images/blank.png width =""200"" height = ""200"" style = ""float:right""></p><p><img src=images/blank.png width =""800"" height = ""200""></p>","","","","","","","","","","","",""
"","344.68499990180135","sequential-stimulus-presentation","95","319624","0.0-20.0-1.7","SS1613099079304","trial","","40","800","1144.6849999018013","images/stimuli/spore_stims/complex_11_A_a.gif","images/stimuli/spore_stims/complex_11_B_a.gif","","","","","4","complex_similar","images/stimuli/spore_stims/complex_11_B_a.gif","left","","","","",""
"","2395.7949997857213","html-keyboard-response","96","322035","0.0-21.0","SS1613099079304","pref_question","","50","","","","","<video width ='960' height = '540' style='padding-top:8%' autoplay muted><source src='images/stimuli/wall_pref.mp4' type='video/mp4'></video>","2","middle","45%","4","","","","","","","",""
"","696.3850003667176","sequential-stimulus-presentation","97","323553","0.0-22.0","SS1613099079304","pref_reveal","","40","800","1496.3850003667176","null","null","","","","","4","","","","novel","","","",""
"","null","html-keyboard-response","98","324593","0.0-23.0-0.0","SS1613099079304","","","null","","","","","<p><img src= images/blank.png width =""200"" height = ""200"" style = ""float:right""></p><p><img src=images/blank.png width =""800"" height = ""200""></p>","","","","","","","","","","","",""
"","616.7150000110269","sequential-stimulus-presentation","99","326031","0.0-23.0-1.0","SS1613099079304","trial","","40","800","1416.7150000110269","images/stimuli/spore_stims/complex_04_B_a.gif","images/stimuli/spore_stims/complex_16_A_c.gif","","","","","5","complex_dissimilar","images/stimuli/spore_stims/complex_16_A_c.gif","right","","","","",""
"","null","html-keyboard-response","100","327243","0.0-23.0-0.1","SS1613099079304","","","null","","","","","<p><img src= images/blank.png width =""200"" height = ""200"" style = ""float:right""></p><p><img src=images/blank.png width =""800"" height = ""200""></p>","","","","","","","","","","","",""
"","470.2350003644824","sequential-stimulus-presentation","101","328675","0.0-23.0-1.1","SS1613099079304","trial","","40","800","1270.2350003644824","images/stimuli/spore_stims/complex_04_B_a.gif","images/stimuli/spore_stims/complex_16_A_c.gif","","","","","5","complex_dissimilar","images/stimuli/spore_stims/complex_16_A_c.gif","right","","","","",""
"","null","html-keyboard-response","102","329707","0.0-23.0-0.2","SS1613099079304","","","null","","","","","<p><img src= images/blank.png width =""200"" height = ""200"" style = ""float:right""></p><p><img src=images/blank.png width =""800"" height = ""200""></p>","","","","","","","","","","","",""
"","22.619999945163727","sequential-stimulus-presentation","103","330548","0.0-23.0-1.2","SS1613099079304","trial","","40","800","822.6199999451637","images/stimuli/spore_stims/complex_04_B_a.gif","images/stimuli/spore_stims/complex_16_A_c.gif","","","","","5","complex_dissimilar","images/stimuli/spore_stims/complex_16_A_c.gif","right","","","","",""
"","null","html-keyboard-response","104","331820","0.0-23.0-0.3","SS1613099079304","","","null","","","","","<p><img src= images/blank.png width =""200"" height = ""200"" style = ""float:right""></p><p><img src=images/blank.png width =""800"" height = ""200""></p>","","","","","","","","","","","",""
"","615.1350000873208","sequential-stimulus-presentation","105","333248","0.0-23.0-1.3","SS1613099079304","trial","","40","800","1415.1350000873208","images/stimuli/spore_stims/complex_04_B_a.gif","images/stimuli/spore_stims/complex_16_A_c.gif","","","","","5","complex_dissimilar","images/stimuli/spore_stims/complex_16_A_c.gif","right","","","","",""
"","null","html-keyboard-response","106","334503","0.0-23.0-0.4","SS1613099079304","","","null","","","","","<p><img src= images/blank.png width =""200"" height = ""200"" style = ""float:right""></p><p><img src=images/blank.png width =""800"" height = ""200""></p>","","","","","","","","","","","",""
"","506.1550000682473","sequential-stimulus-presentation","107","335836","0.0-23.0-1.4","SS1613099079304","trial","","40","800","1306.1550000682473","images/stimuli/spore_stims/complex_04_B_a.gif","images/stimuli/spore_stims/complex_16_A_c.gif","","","","","5","complex_dissimilar","images/stimuli/spore_stims/complex_16_A_c.gif","right","","","","",""
"","null","html-keyboard-response","108","336888","0.0-23.0-0.5","SS1613099079304","","","null","","","","","<p><img src= images/blank.png width =""200"" height = ""200"" style = ""float:right""></p><p><img src=images/blank.png width =""800"" height = ""200""></p>","","","","","","","","","","","",""
"","596.6900000348687","sequential-stimulus-presentation","109","338327","0.0-23.0-1.5","SS1613099079304","trial","","40","800","1396.6900000348687","images/stimuli/spore_stims/complex_04_B_a.gif","images/stimuli/spore_stims/complex_16_A_c.gif","","","","","5","complex_dissimilar","images/stimuli/spore_stims/complex_16_A_c.gif","right","","","","",""
"","null","html-keyboard-response","110","339617","0.0-23.0-0.6","SS1613099079304","","","null","","","","","<p><img src= images/blank.png width =""200"" height = ""200"" style = ""float:right""></p><p><img src=images/blank.png width =""800"" height = ""200""></p>","","","","","","","","","","","",""
"","376.2550000101328","sequential-stimulus-presentation","111","340819","0.0-23.0-1.6","SS1613099079304","trial","","40","800","1176.2550000101328","images/stimuli/spore_stims/complex_04_B_a.gif","images/stimuli/spore_stims/complex_16_A_c.gif","","","","","5","complex_dissimilar","images/stimuli/spore_stims/complex_04_B_a.gif","left","","","","",""
"","null","html-keyboard-response","112","342007","0.0-23.0-0.7","SS1613099079304","","","null","","","","","<p><img src= images/blank.png width =""200"" height = ""200"" style = ""float:right""></p><p><img src=images/blank.png width =""800"" height = ""200""></p>","","","","","","","","","","","",""
"","1243.4950000606477","sequential-stimulus-presentation","113","344118","0.0-23.0-1.7","SS1613099079304","trial","","40","800","2043.4950000606477","images/stimuli/spore_stims/complex_04_B_a.gif","images/stimuli/spore_stims/complex_16_A_c.gif","","","","","5","complex_dissimilar","images/stimuli/spore_stims/complex_16_A_c.gif","right","","","","",""
"","2159.0999998152256","html-keyboard-response","114","346290","0.0-24.0","SS1613099079304","pref_question","","51","","","","","<video width ='960' height = '540' style='padding-top:8%' autoplay muted><source src='images/stimuli/wall_pref.mp4' type='video/mp4'></video>","3","right","66%","5","","","","","","","",""
"","631.9650001823902","sequential-stimulus-presentation","115","347747","0.0-25.0","SS1613099079304","pref_reveal","","40","800","1431.9650001823902","null","null","","","","","5","","","","background","","","",""
"","null","html-keyboard-response","116","349025","0.0-26.0-0.0","SS1613099079304","","","null","","","","","<p><img src= images/blank.png width =""200"" height = ""200"" style = ""float:right""></p><p><img src=images/blank.png width =""800"" height = ""200""></p>","","","","","","","","","","","",""
"","495.89999997988343","sequential-stimulus-presentation","117","350346","0.0-26.0-1.0","SS1613099079304","trial","","40","800","1295.8999999798834","images/stimuli/spore_stims/simple_17_B_a.gif","images/stimuli/spore_stims/simple_17_A_a.gif","","","","","6","simple_similar","images/stimuli/spore_stims/simple_17_A_a.gif","right","","","","",""
"","null","html-keyboard-response","118","351476","0.0-26.0-0.1","SS1613099079304","","","null","","","","","<p><img src= images/blank.png width =""200"" height = ""200"" style = ""float:right""></p><p><img src=images/blank.png width =""800"" height = ""200""></p>","","","","","","","","","","","",""
"","489.9900001473725","sequential-stimulus-presentation","119","352790","0.0-26.0-1.1","SS1613099079304","trial","","40","800","1289.9900001473725","images/stimuli/spore_stims/simple_17_B_a.gif","images/stimuli/spore_stims/simple_17_A_a.gif","","","","","6","simple_similar","images/stimuli/spore_stims/simple_17_A_a.gif","right","","","","",""
"","null","html-keyboard-response","120","354015","0.0-26.0-0.2","SS1613099079304","","","null","","","","","<p><img src= images/blank.png width =""200"" height = ""200"" style = ""float:right""></p><p><img src=images/blank.png width =""800"" height = ""200""></p>","","","","","","","","","","","",""
"","567.9450002498925","sequential-stimulus-presentation","121","355437","0.0-26.0-1.2","SS1613099079304","trial","","40","800","1367.9450002498925","images/stimuli/spore_stims/simple_17_B_a.gif","images/stimuli/spore_stims/simple_17_A_a.gif","","","","","6","simple_similar","images/stimuli/spore_stims/simple_17_A_a.gif","right","","","","",""
"","null","html-keyboard-response","122","356558","0.0-26.0-0.3","SS1613099079304","","","null","","","","","<p><img src= images/blank.png width =""200"" height = ""200"" style = ""float:right""></p><p><img src=images/blank.png width =""800"" height = ""200""></p>","","","","","","","","","","","",""
"","1059.4950001686811","sequential-stimulus-presentation","123","358450","0.0-26.0-1.3","SS1613099079304","trial","","40","800","1859.4950001686811","images/stimuli/spore_stims/simple_17_B_a.gif","images/stimuli/spore_stims/simple_17_A_a.gif","","","","","6","simple_similar","images/stimuli/spore_stims/simple_17_A_a.gif","right","","","","",""
"","null","html-keyboard-response","124","359271","0.0-26.0-0.4","SS1613099079304","","","null","","","","","<p><img src= images/blank.png width =""200"" height = ""200"" style = ""float:right""></p><p><img src=images/blank.png width =""800"" height = ""200""></p>","","","","","","","","","","","",""
"","872.8950000368059","sequential-stimulus-presentation","125","360976","0.0-26.0-1.4","SS1613099079304","trial","","40","800","1672.8950000368059","images/stimuli/spore_stims/simple_17_B_a.gif","images/stimuli/spore_stims/simple_17_A_a.gif","","","","","6","simple_similar","images/stimuli/spore_stims/simple_17_B_a.gif","left","","","","",""
"","null","html-keyboard-response","126","361902","0.0-26.0-0.5","SS1613099079304","","","null","","","","","<p><img src= images/blank.png width =""200"" height = ""200"" style = ""float:right""></p><p><img src=images/blank.png width =""800"" height = ""200""></p>","","","","","","","","","","","",""
"","2562.4349997378886","sequential-stimulus-presentation","127","365281","0.0-26.0-1.5","SS1613099079304","trial","","40","800","3362.4349997378886","images/stimuli/spore_stims/simple_17_B_a.gif","images/stimuli/spore_stims/simple_17_A_a.gif","","","","","6","simple_similar","images/stimuli/spore_stims/simple_17_A_a.gif","right","","","","",""
"","null","html-keyboard-response","128","366126","0.0-26.0-0.6","SS1613099079304","","","null","","","","","<p><img src= images/blank.png width =""200"" height = ""200"" style = ""float:right""></p><p><img src=images/blank.png width =""800"" height = ""200""></p>","","","","","","","","","","","",""
"","1516.065000090748","sequential-stimulus-presentation","129","368632","0.0-26.0-1.6","SS1613099079304","trial","","40","800","2316.065000090748","images/stimuli/spore_stims/simple_17_B_a.gif","images/stimuli/spore_stims/simple_17_A_a.gif","","","","","6","simple_similar","images/stimuli/spore_stims/simple_17_A_a.gif","right","","","","",""
"","null","html-keyboard-response","130","369899","0.0-26.0-0.7","SS1613099079304","","","null","","","","","<p><img src= images/blank.png width =""200"" height = ""200"" style = ""float:right""></p><p><img src=images/blank.png width =""800"" height = ""200""></p>","","","","","","","","","","","",""
"","990.2900001034141","sequential-stimulus-presentation","131","371718","0.0-26.0-1.7","SS1613099079304","trial","","40","800","1790.290000103414","images/stimuli/spore_stims/simple_17_B_a.gif","images/stimuli/spore_stims/simple_17_A_a.gif","","","","","6","simple_similar","images/stimuli/spore_stims/simple_17_A_a.gif","right","","","","",""
"","1953.395000193268","html-keyboard-response","132","373683","0.0-27.0","SS1613099079304","pref_question","","50","","","","","<video width ='960' height = '540' style='padding-top:8%' autoplay muted><source src='images/stimuli/wall_pref.mp4' type='video/mp4'></video>","2","middle","45%","6","","","","","","","",""
"","1273.940000217408","sequential-stimulus-presentation","133","375781","0.0-28.0","SS1613099079304","pref_reveal","","40","800","2073.940000217408","null","null","","","","","6","","","","novel","","","",""
"","null","html-keyboard-response","134","377014","0.0-29.0-0.0","SS1613099079304","","","null","","","","","<p><img src= images/blank.png width =""200"" height = ""200"" style = ""float:right""></p><p><img src=images/blank.png width =""800"" height = ""200""></p>","","","","","","","","","","","",""
"","665.7000002451241","sequential-stimulus-presentation","135","378505","0.0-29.0-1.0","SS1613099079304","trial","","40","800","1465.700000245124","images/stimuli/spore_stims/simple_18_A_c.gif","images/stimuli/spore_stims/simple_13_B_c.gif","","","","","7","simple_dissimilar","images/stimuli/spore_stims/simple_13_B_c.gif","right","","","","",""
"","null","html-keyboard-response","136","379743","0.0-29.0-0.1","SS1613099079304","","","null","","","","","<p><img src= images/blank.png width =""200"" height = ""200"" style = ""float:right""></p><p><img src=images/blank.png width =""800"" height = ""200""></p>","","","","","","","","","","","",""
"","534.5749999396503","sequential-stimulus-presentation","137","381113","0.0-29.0-1.1","SS1613099079304","trial","","40","800","1334.5749999396503","images/stimuli/spore_stims/simple_18_A_c.gif","images/stimuli/spore_stims/simple_13_B_c.gif","","","","","7","simple_dissimilar","images/stimuli/spore_stims/simple_13_B_c.gif","right","","","","",""
"","null","html-keyboard-response","138","382328","0.0-29.0-0.2","SS1613099079304","","","null","","","","","<p><img src= images/blank.png width =""200"" height = ""200"" style = ""float:right""></p><p><img src=images/blank.png width =""800"" height = ""200""></p>","","","","","","","","","","","",""
"","875.0950000248849","sequential-stimulus-presentation","139","384043","0.0-29.0-1.2","SS1613099079304","trial","","40","800","1675.095000024885","images/stimuli/spore_stims/simple_18_A_c.gif","images/stimuli/spore_stims/simple_13_B_c.gif","","","","","7","simple_dissimilar","images/stimuli/spore_stims/simple_13_B_c.gif","right","","","","",""
"","null","html-keyboard-response","140","385013","0.0-29.0-0.3","SS1613099079304","","","null","","","","","<p><img src= images/blank.png width =""200"" height = ""200"" style = ""float:right""></p><p><img src=images/blank.png width =""800"" height = ""200""></p>","","","","","","","","","","","",""
"","739.2099997960031","sequential-stimulus-presentation","141","386573","0.0-29.0-1.3","SS1613099079304","trial","","40","800","1539.209999796003","images/stimuli/spore_stims/simple_18_A_c.gif","images/stimuli/spore_stims/simple_13_B_c.gif","","","","","7","simple_dissimilar","images/stimuli/spore_stims/simple_13_B_c.gif","right","","","","",""
"","null","html-keyboard-response","142","387455","0.0-29.0-0.4","SS1613099079304","","","null","","","","","<p><img src= images/blank.png width =""200"" height = ""200"" style = ""float:right""></p><p><img src=images/blank.png width =""800"" height = ""200""></p>","","","","","","","","","","","",""
"","665.0650002993643","sequential-stimulus-presentation","143","388948","0.0-29.0-1.4","SS1613099079304","trial","","40","800","1465.0650002993643","images/stimuli/spore_stims/simple_18_A_c.gif","images/stimuli/spore_stims/simple_13_B_c.gif","","","","","7","simple_dissimilar","images/stimuli/spore_stims/simple_13_B_c.gif","right","","","","",""
"","null","html-keyboard-response","144","389957","0.0-29.0-0.5","SS1613099079304","","","null","","","","","<p><img src= images/blank.png width =""200"" height = ""200"" style = ""float:right""></p><p><img src=images/blank.png width =""800"" height = ""200""></p>","","","","","","","","","","","",""
"","830.9500003233552","sequential-stimulus-presentation","145","391610","0.0-29.0-1.5","SS1613099079304","trial","","40","800","1630.9500003233552","images/stimuli/spore_stims/simple_18_A_c.gif","images/stimuli/spore_stims/simple_13_B_c.gif","","","","","7","simple_dissimilar","images/stimuli/spore_stims/simple_18_A_c.gif","middle","","","","",""
"","null","html-keyboard-response","146","392690","0.0-29.0-0.6","SS1613099079304","","","null","","","","","<p><img src= images/blank.png width =""200"" height = ""200"" style = ""float:right""></p><p><img src=images/blank.png width =""800"" height = ""200""></p>","","","","","","","","","","","",""
"","768.0799998342991","sequential-stimulus-presentation","147","394291","0.0-29.0-1.6","SS1613099079304","trial","","40","800","1568.079999834299","images/stimuli/spore_stims/simple_18_A_c.gif","images/stimuli/spore_stims/simple_13_B_c.gif","","","","","7","simple_dissimilar","images/stimuli/spore_stims/simple_13_B_c.gif","right","","","","",""
"","null","html-keyboard-response","148","395513","0.0-29.0-0.7","SS1613099079304","","","null","","","","","<p><img src= images/blank.png width =""200"" height = ""200"" style = ""float:right""></p><p><img src=images/blank.png width =""800"" height = ""200""></p>","","","","","","","","","","","",""
"","633.2399998791516","sequential-stimulus-presentation","149","396982","0.0-29.0-1.7","SS1613099079304","trial","","40","800","1433.2399998791516","images/stimuli/spore_stims/simple_18_A_c.gif","images/stimuli/spore_stims/simple_13_B_c.gif","","","","","7","simple_dissimilar","images/stimuli/spore_stims/simple_13_B_c.gif","right","","","","",""
"","2265.5150000937283","html-keyboard-response","150","399268","0.0-30.0","SS1613099079304","pref_question","","49","","","","","<video width ='960' height = '540' style='padding-top:8%' autoplay muted><source src='images/stimuli/wall_pref.mp4' type='video/mp4'></video>","1","left","25%","7","","","","","","","",""
"","1114.595000166446","sequential-stimulus-presentation","151","401231","0.0-31.0","SS1613099079304","pref_reveal","","40","800","1914.595000166446","null","null","","","","","7","","","","novel","","","",""
"","null","html-keyboard-response","152","402430","0.0-32.0-0.0","SS1613099079304","","","null","","","","","<p><img src= images/blank.png width =""200"" height = ""200"" style = ""float:right""></p><p><img src=images/blank.png width =""800"" height = ""200""></p>","","","","","","","","","","","",""
"","758.4999999962747","sequential-stimulus-presentation","153","404007","0.0-32.0-1.0","SS1613099079304","trial","","40","800","1558.4999999962747","images/stimuli/spore_stims/complex_10_B_b.gif","images/stimuli/spore_stims/complex_10_A_b.gif","","","","","8","complex_similar","images/stimuli/spore_stims/complex_10_A_b.gif","right","","","","",""
"","null","html-keyboard-response","154","405070","0.0-32.0-0.1","SS1613099079304","","","null","","","","","<p><img src= images/blank.png width =""200"" height = ""200"" style = ""float:right""></p><p><img src=images/blank.png width =""800"" height = ""200""></p>","","","","","","","","","","","",""
"","736.0350000672042","sequential-stimulus-presentation","155","406638","0.0-32.0-1.1","SS1613099079304","trial","","40","800","1536.0350000672042","images/stimuli/spore_stims/complex_10_B_b.gif","images/stimuli/spore_stims/complex_10_A_b.gif","","","","","8","complex_similar","images/stimuli/spore_stims/complex_10_A_b.gif","right","","","","",""
"","null","html-keyboard-response","156","407895","0.0-32.0-0.2","SS1613099079304","","","null","","","","","<p><img src= images/blank.png width =""200"" height = ""200"" style = ""float:right""></p><p><img src=images/blank.png width =""800"" height = ""200""></p>","","","","","","","","","","","",""
"","624.735000077635","sequential-stimulus-presentation","157","409376","0.0-32.0-1.2","SS1613099079304","trial","","40","800","1424.735000077635","images/stimuli/spore_stims/complex_10_B_b.gif","images/stimuli/spore_stims/complex_10_A_b.gif","","","","","8","complex_similar","images/stimuli/spore_stims/complex_10_A_b.gif","right","","","","",""
"","null","html-keyboard-response","158","410320","0.0-32.0-0.3","SS1613099079304","","","null","","","","","<p><img src= images/blank.png width =""200"" height = ""200"" style = ""float:right""></p><p><img src=images/blank.png width =""800"" height = ""200""></p>","","","","","","","","","","","",""
"","713.6549996212125","sequential-stimulus-presentation","159","411867","0.0-32.0-1.3","SS1613099079304","trial","","40","800","1513.6549996212125","images/stimuli/spore_stims/complex_10_B_b.gif","images/stimuli/spore_stims/complex_10_A_b.gif","","","","","8","complex_similar","images/stimuli/spore_stims/complex_10_A_b.gif","right","","","","",""
"","null","html-keyboard-response","160","412809","0.0-32.0-0.4","SS1613099079304","","","null","","","","","<p><img src= images/blank.png width =""200"" height = ""200"" style = ""float:right""></p><p><img src=images/blank.png width =""800"" height = ""200""></p>","","","","","","","","","","","",""
"","546.1150002665818","sequential-stimulus-presentation","161","414184","0.0-32.0-1.4","SS1613099079304","trial","","40","800","1346.1150002665818","images/stimuli/spore_stims/complex_10_B_b.gif","images/stimuli/spore_stims/complex_10_A_b.gif","","","","","8","complex_similar","images/stimuli/spore_stims/complex_10_A_b.gif","right","","","","",""
"","null","html-keyboard-response","162","415053","0.0-32.0-0.5","SS1613099079304","","","null","","","","","<p><img src= images/blank.png width =""200"" height = ""200"" style = ""float:right""></p><p><img src=images/blank.png width =""800"" height = ""200""></p>","","","","","","","","","","","",""
"","707.1299999952316","sequential-stimulus-presentation","163","416587","0.0-32.0-1.5","SS1613099079304","trial","","40","800","1507.1299999952316","images/stimuli/spore_stims/complex_10_B_b.gif","images/stimuli/spore_stims/complex_10_A_b.gif","","","","","8","complex_similar","images/stimuli/spore_stims/complex_10_B_b.gif","left","","","","",""
"","null","html-keyboard-response","164","417797","0.0-32.0-0.6","SS1613099079304","","","null","","","","","<p><img src= images/blank.png width =""200"" height = ""200"" style = ""float:right""></p><p><img src=images/blank.png width =""800"" height = ""200""></p>","","","","","","","","","","","",""
"","598.5349998809397","sequential-stimulus-presentation","165","419226","0.0-32.0-1.6","SS1613099079304","trial","","40","800","1398.5349998809397","images/stimuli/spore_stims/complex_10_B_b.gif","images/stimuli/spore_stims/complex_10_A_b.gif","","","","","8","complex_similar","images/stimuli/spore_stims/complex_10_A_b.gif","right","","","","",""
"","null","html-keyboard-response","166","420470","0.0-32.0-0.7","SS1613099079304","","","null","","","","","<p><img src= images/blank.png width =""200"" height = ""200"" style = ""float:right""></p><p><img src=images/blank.png width =""800"" height = ""200""></p>","","","","","","","","","","","",""
"","798.2700001448393","sequential-stimulus-presentation","167","422094","0.0-32.0-1.7","SS1613099079304","trial","","40","800","1598.2700001448393","images/stimuli/spore_stims/complex_10_B_b.gif","images/stimuli/spore_stims/complex_10_A_b.gif","","","","","8","complex_similar","images/stimuli/spore_stims/complex_10_A_b.gif","right","","","","",""
"","6189.819999970496","html-keyboard-response","168","428297","0.0-33.0","SS1613099079304","pref_question","","51","","","","","<video width ='960' height = '540' style='padding-top:8%' autoplay muted><source src='images/stimuli/wall_pref.mp4' type='video/mp4'></video>","3","right","66%","8","","","","","","","",""
"","412.35499968752265","sequential-stimulus-presentation","169","429532","0.0-34.0","SS1613099079304","pref_reveal","","40","800","1212.3549996875226","null","null","","","","","8","","","","background","","","",""
"","null","html-keyboard-response","170","430451","0.0-35.0-0.0","SS1613099079304","","","null","","","","","<p><img src= images/blank.png width =""200"" height = ""200"" style = ""float:right""></p><p><img src=images/blank.png width =""800"" height = ""200""></p>","","","","","","","","","","","",""
"","1157.1800000965595","sequential-stimulus-presentation","171","432431","0.0-35.0-1.0","SS1613099079304","trial","","40","800","1957.1800000965595","images/stimuli/spore_stims/complex_15_B_a.gif","images/stimuli/spore_stims/complex_02_A_d.gif","","","","","9","complex_dissimilar","images/stimuli/spore_stims/complex_02_A_d.gif","middle","","","","",""
"","null","html-keyboard-response","172","433678","0.0-35.0-0.1","SS1613099079304","","","null","","","","","<p><img src= images/blank.png width =""200"" height = ""200"" style = ""float:right""></p><p><img src=images/blank.png width =""800"" height = ""200""></p>","","","","","","","","","","","",""
"","60.579999815672636","sequential-stimulus-presentation","173","434564","0.0-35.0-1.1","SS1613099079304","trial","","40","800","860.5799998156726","images/stimuli/spore_stims/complex_15_B_a.gif","images/stimuli/spore_stims/complex_02_A_d.gif","","","","","9","complex_dissimilar","images/stimuli/spore_stims/complex_02_A_d.gif","middle","","","","",""
"","null","html-keyboard-response","174","435728","0.0-35.0-0.2","SS1613099079304","","","null","","","","","<p><img src= images/blank.png width =""200"" height = ""200"" style = ""float:right""></p><p><img src=images/blank.png width =""800"" height = ""200""></p>","","","","","","","","","","","",""
"","527.1999998949468","sequential-stimulus-presentation","175","437101","0.0-35.0-1.2","SS1613099079304","trial","","40","800","1327.1999998949468","images/stimuli/spore_stims/complex_15_B_a.gif","images/stimuli/spore_stims/complex_02_A_d.gif","","","","","9","complex_dissimilar","images/stimuli/spore_stims/complex_02_A_d.gif","middle","","","","",""
"","null","html-keyboard-response","176","438165","0.0-35.0-0.3","SS1613099079304","","","null","","","","","<p><img src= images/blank.png width =""200"" height = ""200"" style = ""float:right""></p><p><img src=images/blank.png width =""800"" height = ""200""></p>","","","","","","","","","","","",""
"","467.93000027537346","sequential-stimulus-presentation","177","439654","0.0-35.0-1.3","SS1613099079304","trial","","40","800","1267.9300002753735","images/stimuli/spore_stims/complex_15_B_a.gif","images/stimuli/spore_stims/complex_02_A_d.gif","","","","","9","complex_dissimilar","images/stimuli/spore_stims/complex_02_A_d.gif","middle","","","","",""
"","null","html-keyboard-response","178","440658","0.0-35.0-0.4","SS1613099079304","","","null","","","","","<p><img src= images/blank.png width =""200"" height = ""200"" style = ""float:right""></p><p><img src=images/blank.png width =""800"" height = ""200""></p>","","","","","","","","","","","",""
"","570.8300000987947","sequential-stimulus-presentation","179","442060","0.0-35.0-1.4","SS1613099079304","trial","","40","800","1370.8300000987947","images/stimuli/spore_stims/complex_15_B_a.gif","images/stimuli/spore_stims/complex_02_A_d.gif","","","","","9","complex_dissimilar","images/stimuli/spore_stims/complex_15_B_a.gif","right","","","","",""
"","null","html-keyboard-response","180","443223","0.0-35.0-0.5","SS1613099079304","","","null","","","","","<p><img src= images/blank.png width =""200"" height = ""200"" style = ""float:right""></p><p><img src=images/blank.png width =""800"" height = ""200""></p>","","","","","","","","","","","",""
"","1279.1649997234344","sequential-stimulus-presentation","181","445336","0.0-35.0-1.5","SS1613099079304","trial","","40","800","2079.1649997234344","images/stimuli/spore_stims/complex_15_B_a.gif","images/stimuli/spore_stims/complex_02_A_d.gif","","","","","9","complex_dissimilar","images/stimuli/spore_stims/complex_02_A_d.gif","middle","","","","",""
"","null","html-keyboard-response","182","446339","0.0-35.0-0.6","SS1613099079304","","","null","","","","","<p><img src= images/blank.png width =""200"" height = ""200"" style = ""float:right""></p><p><img src=images/blank.png width =""800"" height = ""200""></p>","","","","","","","","","","","",""
"","1298.5300002619624","sequential-stimulus-presentation","183","448465","0.0-35.0-1.6","SS1613099079304","trial","","40","800","2098.5300002619624","images/stimuli/spore_stims/complex_15_B_a.gif","images/stimuli/spore_stims/complex_02_A_d.gif","","","","","9","complex_dissimilar","images/stimuli/spore_stims/complex_02_A_d.gif","middle","","","","",""
"","null","html-keyboard-response","184","449652","0.0-35.0-0.7","SS1613099079304","","","null","","","","","<p><img src= images/blank.png width =""200"" height = ""200"" style = ""float:right""></p><p><img src=images/blank.png width =""800"" height = ""200""></p>","","","","","","","","","","","",""
"","1314.874999690801","sequential-stimulus-presentation","185","451818","0.0-35.0-1.7","SS1613099079304","trial","","40","800","2114.874999690801","images/stimuli/spore_stims/complex_15_B_a.gif","images/stimuli/spore_stims/complex_02_A_d.gif","","","","","9","complex_dissimilar","images/stimuli/spore_stims/complex_02_A_d.gif","middle","","","","",""
"","2878.7049995735288","html-keyboard-response","186","454715","0.0-36.0","SS1613099079304","pref_question","","50","","","","","<video width ='960' height = '540' style='padding-top:8%' autoplay muted><source src='images/stimuli/wall_pref.mp4' type='video/mp4'></video>","2","middle","45%","9","","","","","","","",""
"","613.0399997346103","sequential-stimulus-presentation","187","456156","0.0-37.0","SS1613099079304","pref_reveal","","40","800","1413.0399997346103","null","null","","","","","9","","","","background","","","",""
"","null","html-keyboard-response","188","457387","0.0-38.0-0.0","SS1613099079304","","","null","","","","","<p><img src= images/blank.png width =""200"" height = ""200"" style = ""float:right""></p><p><img src=images/blank.png width =""800"" height = ""200""></p>","","","","","","","","","","","",""
"","403.38000003248453","sequential-stimulus-presentation","189","458618","0.0-38.0-1.0","SS1613099079304","trial","","40","800","1203.3800000324845","images/stimuli/spore_stims/simple_19_B_c.gif","images/stimuli/spore_stims/simple_19_A_c.gif","","","","","10","simple_similar","images/stimuli/spore_stims/simple_19_A_c.gif","middle","","","","",""
"","null","html-keyboard-response","190","459472","0.0-38.0-0.1","SS1613099079304","","","null","","","","","<p><img src= images/blank.png width =""200"" height = ""200"" style = ""float:right""></p><p><img src=images/blank.png width =""800"" height = ""200""></p>","","","","","","","","","","","",""
"","852.7400000020862","sequential-stimulus-presentation","191","461252","0.0-38.0-1.1","SS1613099079304","trial","","40","800","1652.7400000020862","images/stimuli/spore_stims/simple_19_B_c.gif","images/stimuli/spore_stims/simple_19_A_c.gif","","","","","10","simple_similar","images/stimuli/spore_stims/simple_19_A_c.gif","middle","","","","",""
"","null","html-keyboard-response","192","462405","0.0-38.0-0.2","SS1613099079304","","","null","","","","","<p><img src= images/blank.png width =""200"" height = ""200"" style = ""float:right""></p><p><img src=images/blank.png width =""800"" height = ""200""></p>","","","","","","","","","","","",""
"","717.9350000806153","sequential-stimulus-presentation","193","463946","0.0-38.0-1.2","SS1613099079304","trial","","40","800","1517.9350000806153","images/stimuli/spore_stims/simple_19_B_c.gif","images/stimuli/spore_stims/simple_19_A_c.gif","","","","","10","simple_similar","images/stimuli/spore_stims/simple_19_A_c.gif","middle","","","","",""
"","null","html-keyboard-response","194","464944","0.0-38.0-0.3","SS1613099079304","","","null","","","","","<p><img src= images/blank.png width =""200"" height = ""200"" style = ""float:right""></p><p><img src=images/blank.png width =""800"" height = ""200""></p>","","","","","","","","","","","",""
"","600.9800001047552","sequential-stimulus-presentation","195","466368","0.0-38.0-1.3","SS1613099079304","trial","","40","800","1400.9800001047552","images/stimuli/spore_stims/simple_19_B_c.gif","images/stimuli/spore_stims/simple_19_A_c.gif","","","","","10","simple_similar","images/stimuli/spore_stims/simple_19_A_c.gif","middle","","","","",""
"","null","html-keyboard-response","196","467417","0.0-38.0-0.4","SS1613099079304","","","null","","","","","<p><img src= images/blank.png width =""200"" height = ""200"" style = ""float:right""></p><p><img src=images/blank.png width =""800"" height = ""200""></p>","","","","","","","","","","","",""
"","956.9999999366701","sequential-stimulus-presentation","197","469204","0.0-38.0-1.4","SS1613099079304","trial","","40","800","1756.99999993667","images/stimuli/spore_stims/simple_19_B_c.gif","images/stimuli/spore_stims/simple_19_A_c.gif","","","","","10","simple_similar","images/stimuli/spore_stims/simple_19_A_c.gif","middle","","","","",""
"","null","html-keyboard-response","198","470099","0.0-38.0-0.5","SS1613099079304","","","null","","","","","<p><img src= images/blank.png width =""200"" height = ""200"" style = ""float:right""></p><p><img src=images/blank.png width =""800"" height = ""200""></p>","","","","","","","","","","","",""
"","2695.4999999143183","sequential-stimulus-presentation","199","473674","0.0-38.0-1.5","SS1613099079304","trial","","40","800","3495.4999999143183","images/stimuli/spore_stims/simple_19_B_c.gif","images/stimuli/spore_stims/simple_19_A_c.gif","","","","","10","simple_similar","images/stimuli/spore_stims/simple_19_B_c.gif","right","","","","",""
"","null","html-keyboard-response","200","474915","0.0-38.0-0.6","SS1613099079304","","","null","","","","","<p><img src= images/blank.png width =""200"" height = ""200"" style = ""float:right""></p><p><img src=images/blank.png width =""800"" height = ""200""></p>","","","","","","","","","","","",""
"","545.2449996955693","sequential-stimulus-presentation","201","476304","0.0-38.0-1.6","SS1613099079304","trial","","40","800","1345.2449996955693","images/stimuli/spore_stims/simple_19_B_c.gif","images/stimuli/spore_stims/simple_19_A_c.gif","","","","","10","simple_similar","images/stimuli/spore_stims/simple_19_A_c.gif","middle","","","","",""
"","null","html-keyboard-response","202","477179","0.0-38.0-0.7","SS1613099079304","","","null","","","","","<p><img src= images/blank.png width =""200"" height = ""200"" style = ""float:right""></p><p><img src=images/blank.png width =""800"" height = ""200""></p>","","","","","","","","","","","",""
"","623.8199998624623","sequential-stimulus-presentation","203","478615","0.0-38.0-1.7","SS1613099079304","trial","","40","800","1423.8199998624623","images/stimuli/spore_stims/simple_19_B_c.gif","images/stimuli/spore_stims/simple_19_A_c.gif","","","","","10","simple_similar","images/stimuli/spore_stims/simple_19_A_c.gif","middle","","","","",""
"","4052.7399997226894","html-keyboard-response","204","482691","0.0-39.0","SS1613099079304","pref_question","","50","","","","","<video width ='960' height = '540' style='padding-top:8%' autoplay muted><source src='images/stimuli/wall_pref.mp4' type='video/mp4'></video>","2","middle","45%","10","","","","","","","",""
"","684.5399998128414","sequential-stimulus-presentation","205","484199","0.0-40.0","SS1613099079304","pref_reveal","","40","800","1484.5399998128414","null","null","","","","","10","","","","background","","","",""
"","null","html-keyboard-response","206","485061","0.0-41.0-0.0","SS1613099079304","","","null","","","","","<p><img src= images/blank.png width =""200"" height = ""200"" style = ""float:right""></p><p><img src=images/blank.png width =""800"" height = ""200""></p>","","","","","","","","","","","",""
"","802.9299997724593","sequential-stimulus-presentation","207","486694","0.0-41.0-1.0","SS1613099079304","trial","","40","800","1602.9299997724593","images/stimuli/spore_stims/simple_08_A_c.gif","images/stimuli/spore_stims/simple_09_A_c.gif","","","","","11","simple_dissimilar","images/stimuli/spore_stims/simple_09_A_c.gif","middle","","","","",""
"","null","html-keyboard-response","208","487971","0.0-41.0-0.1","SS1613099079304","","","null","","","","","<p><img src= images/blank.png width =""200"" height = ""200"" style = ""float:right""></p><p><img src=images/blank.png width =""800"" height = ""200""></p>","","","","","","","","","","","",""
"","727.8950000181794","sequential-stimulus-presentation","209","489523","0.0-41.0-1.1","SS1613099079304","trial","","40","800","1527.8950000181794","images/stimuli/spore_stims/simple_08_A_c.gif","images/stimuli/spore_stims/simple_09_A_c.gif","","","","","11","simple_dissimilar","images/stimuli/spore_stims/simple_09_A_c.gif","middle","","","","",""
"","null","html-keyboard-response","210","490579","0.0-41.0-0.2","SS1613099079304","","","null","","","","","<p><img src= images/blank.png width =""200"" height = ""200"" style = ""float:right""></p><p><img src=images/blank.png width =""800"" height = ""200""></p>","","","","","","","","","","","",""
"","321.5050003491342","sequential-stimulus-presentation","211","491724","0.0-41.0-1.2","SS1613099079304","trial","","40","800","1121.5050003491342","images/stimuli/spore_stims/simple_08_A_c.gif","images/stimuli/spore_stims/simple_09_A_c.gif","","","","","11","simple_dissimilar","images/stimuli/spore_stims/simple_09_A_c.gif","middle","","","","",""
"","null","html-keyboard-response","212","492939","0.0-41.0-0.3","SS1613099079304","","","null","","","","","<p><img src= images/blank.png width =""200"" height = ""200"" style = ""float:right""></p><p><img src=images/blank.png width =""800"" height = ""200""></p>","","","","","","","","","","","",""
"","1048.2600000686944","sequential-stimulus-presentation","213","494855","0.0-41.0-1.3","SS1613099079304","trial","","40","800","1848.2600000686944","images/stimuli/spore_stims/simple_08_A_c.gif","images/stimuli/spore_stims/simple_09_A_c.gif","","","","","11","simple_dissimilar","images/stimuli/spore_stims/simple_09_A_c.gif","middle","","","","",""
"","null","html-keyboard-response","214","495704","0.0-41.0-0.4","SS1613099079304","","","null","","","","","<p><img src= images/blank.png width =""200"" height = ""200"" style = ""float:right""></p><p><img src=images/blank.png width =""800"" height = ""200""></p>","","","","","","","","","","","",""
"","686.7900001816452","sequential-stimulus-presentation","215","497218","0.0-41.0-1.4","SS1613099079304","trial","","40","800","1486.7900001816452","images/stimuli/spore_stims/simple_08_A_c.gif","images/stimuli/spore_stims/simple_09_A_c.gif","","","","","11","simple_dissimilar","images/stimuli/spore_stims/simple_08_A_c.gif","left","","","","",""
"","null","html-keyboard-response","216","498530","0.0-41.0-0.5","SS1613099079304","","","null","","","","","<p><img src= images/blank.png width =""200"" height = ""200"" style = ""float:right""></p><p><img src=images/blank.png width =""800"" height = ""200""></p>","","","","","","","","","","","",""
"","572.2000002861023","sequential-stimulus-presentation","217","499935","0.0-41.0-1.5","SS1613099079304","trial","","40","800","1372.2000002861023","images/stimuli/spore_stims/simple_08_A_c.gif","images/stimuli/spore_stims/simple_09_A_c.gif","","","","","11","simple_dissimilar","images/stimuli/spore_stims/simple_09_A_c.gif","middle","","","","",""
"","null","html-keyboard-response","218","501072","0.0-41.0-0.6","SS1613099079304","","","null","","","","","<p><img src= images/blank.png width =""200"" height = ""200"" style = ""float:right""></p><p><img src=images/blank.png width =""800"" height = ""200""></p>","","","","","","","","","","","",""
"","888.4550002403557","sequential-stimulus-presentation","219","502792","0.0-41.0-1.6","SS1613099079304","trial","","40","800","1688.4550002403557","images/stimuli/spore_stims/simple_08_A_c.gif","images/stimuli/spore_stims/simple_09_A_c.gif","","","","","11","simple_dissimilar","images/stimuli/spore_stims/simple_09_A_c.gif","middle","","","","",""
"","null","html-keyboard-response","220","504063","0.0-41.0-0.7","SS1613099079304","","","null","","","","","<p><img src= images/blank.png width =""200"" height = ""200"" style = ""float:right""></p><p><img src=images/blank.png width =""800"" height = ""200""></p>","","","","","","","","","","","",""
"","398.75000016763806","sequential-stimulus-presentation","221","505394","0.0-41.0-1.7","SS1613099079304","trial","","40","800","1198.750000167638","images/stimuli/spore_stims/simple_08_A_c.gif","images/stimuli/spore_stims/simple_09_A_c.gif","","","","","11","simple_dissimilar","images/stimuli/spore_stims/simple_09_A_c.gif","middle","","","","",""
"","2325.559999793768","html-keyboard-response","222","507739","0.0-42.0","SS1613099079304","pref_question","","51","","","","","<video width ='960' height = '540' style='padding-top:8%' autoplay muted><source src='images/stimuli/wall_pref.mp4' type='video/mp4'></video>","3","right","66%","11","","","","","","","",""
"","1000.4749996587634","sequential-stimulus-presentation","223","509551","0.0-43.0","SS1613099079304","pref_reveal","","40","800","1800.4749996587634","null","null","","","","","11","","","","novel","","","",""
"","null","html-keyboard-response","224","510455","0.0-44.0-0.0","SS1613099079304","","","null","","","","","<p><img src= images/blank.png width =""200"" height = ""200"" style = ""float:right""></p><p><img src=images/blank.png width =""800"" height = ""200""></p>","","","","","","","","","","","",""
"","327.50000013038516","sequential-stimulus-presentation","225","511622","0.0-44.0-1.0","SS1613099079304","trial","","40","800","1127.5000001303852","images/stimuli/spore_stims/complex_13_A_a.gif","images/stimuli/spore_stims/complex_13_B_a.gif","","","","","12","complex_similar","images/stimuli/spore_stims/complex_13_B_a.gif","right","","","","",""
"","null","html-keyboard-response","226","512438","0.0-44.0-0.1","SS1613099079304","","","null","","","","","<p><img src= images/blank.png width =""200"" height = ""200"" style = ""float:right""></p><p><img src=images/blank.png width =""800"" height = ""200""></p>","","","","","","","","","","","",""
"","213.3800000883639","sequential-stimulus-presentation","227","513469","0.0-44.0-1.1","SS1613099079304","trial","","40","800","1013.3800000883639","images/stimuli/spore_stims/complex_13_A_a.gif","images/stimuli/spore_stims/complex_13_B_a.gif","","","","","12","complex_similar","images/stimuli/spore_stims/complex_13_B_a.gif","right","","","","",""
"","null","html-keyboard-response","228","514348","0.0-44.0-0.2","SS1613099079304","","","null","","","","","<p><img src= images/blank.png width =""200"" height = ""200"" style = ""float:right""></p><p><img src=images/blank.png width =""800"" height = ""200""></p>","","","","","","","","","","","",""
"","1079.4150000438094","sequential-stimulus-presentation","229","516324","0.0-44.0-1.2","SS1613099079304","trial","","40","800","1879.4150000438094","images/stimuli/spore_stims/complex_13_A_a.gif","images/stimuli/spore_stims/complex_13_B_a.gif","","","","","12","complex_similar","images/stimuli/spore_stims/complex_13_A_a.gif","middle","","","","",""
"","null","html-keyboard-response","230","517221","0.0-44.0-0.3","SS1613099079304","","","null","","","","","<p><img src= images/blank.png width =""200"" height = ""200"" style = ""float:right""></p><p><img src=images/blank.png width =""800"" height = ""200""></p>","","","","","","","","","","","",""
"","347.4599998444319","sequential-stimulus-presentation","231","518402","0.0-44.0-1.3","SS1613099079304","trial","","40","800","1147.4599998444319","images/stimuli/spore_stims/complex_13_A_a.gif","images/stimuli/spore_stims/complex_13_B_a.gif","","","","","12","complex_similar","images/stimuli/spore_stims/complex_13_B_a.gif","right","","","","",""
"","null","html-keyboard-response","232","519596","0.0-44.0-0.4","SS1613099079304","","","null","","","","","<p><img src= images/blank.png width =""200"" height = ""200"" style = ""float:right""></p><p><img src=images/blank.png width =""800"" height = ""200""></p>","","","","","","","","","","","",""
"","277.364999987185","sequential-stimulus-presentation","233","520705","0.0-44.0-1.4","SS1613099079304","trial","","40","800","1077.364999987185","images/stimuli/spore_stims/complex_13_A_a.gif","images/stimuli/spore_stims/complex_13_B_a.gif","","","","","12","complex_similar","images/stimuli/spore_stims/complex_13_B_a.gif","right","","","","",""
"","null","html-keyboard-response","234","521798","0.0-44.0-0.5","SS1613099079304","","","null","","","","","<p><img src= images/blank.png width =""200"" height = ""200"" style = ""float:right""></p><p><img src=images/blank.png width =""800"" height = ""200""></p>","","","","","","","","","","","",""
"","549.970000050962","sequential-stimulus-presentation","235","523180","0.0-44.0-1.5","SS1613099079304","trial","","40","800","1349.970000050962","images/stimuli/spore_stims/complex_13_A_a.gif","images/stimuli/spore_stims/complex_13_B_a.gif","","","","","12","complex_similar","images/stimuli/spore_stims/complex_13_B_a.gif","right","","","","",""
"","null","html-keyboard-response","236","524057","0.0-44.0-0.6","SS1613099079304","","","null","","","","","<p><img src= images/blank.png width =""200"" height = ""200"" style = ""float:right""></p><p><img src=images/blank.png width =""800"" height = ""200""></p>","","","","","","","","","","","",""
"","693.9149997197092","sequential-stimulus-presentation","237","525587","0.0-44.0-1.6","SS1613099079304","trial","","40","800","1493.9149997197092","images/stimuli/spore_stims/complex_13_A_a.gif","images/stimuli/spore_stims/complex_13_B_a.gif","","","","","12","complex_similar","images/stimuli/spore_stims/complex_13_B_a.gif","right","","","","",""
"","null","html-keyboard-response","238","526723","0.0-44.0-0.7","SS1613099079304","","","null","","","","","<p><img src= images/blank.png width =""200"" height = ""200"" style = ""float:right""></p><p><img src=images/blank.png width =""800"" height = ""200""></p>","","","","","","","","","","","",""
"","1007.7949999831617","sequential-stimulus-presentation","239","528664","0.0-44.0-1.7","SS1613099079304","trial","","40","800","1807.7949999831617","images/stimuli/spore_stims/complex_13_A_a.gif","images/stimuli/spore_stims/complex_13_B_a.gif","","","","","12","complex_similar","images/stimuli/spore_stims/complex_13_B_a.gif","right","","","","",""
"","2137.9500003531575","html-keyboard-response","240","530818","0.0-45.0","SS1613099079304","pref_question","","50","","","","","<video width ='960' height = '540' style='padding-top:8%' autoplay muted><source src='images/stimuli/wall_pref.mp4' type='video/mp4'></video>","2","middle","45%","12","","","","","","","",""
"","747.424999717623","sequential-stimulus-presentation","241","532387","0.0-46.0","SS1613099079304","pref_reveal","","40","800","1547.424999717623","null","null","","","","","12","","","","deviant","","","",""
"","null","html-keyboard-response","242","533533","0.0-47.0-0.0","SS1613099079304","","","null","","","","","<p><img src= images/blank.png width =""200"" height = ""200"" style = ""float:right""></p><p><img src=images/blank.png width =""800"" height = ""200""></p>","","","","","","","","","","","",""
"","463.16499961540103","sequential-stimulus-presentation","243","534835","0.0-47.0-1.0","SS1613099079304","trial","","40","800","1263.164999615401","images/stimuli/spore_stims/complex_20_A_d.gif","images/stimuli/spore_stims/complex_19_A_c.gif","","","","","13","complex_dissimilar","images/stimuli/spore_stims/complex_19_A_c.gif","right","","","","",""
"","null","html-keyboard-response","244","536097","0.0-47.0-0.1","SS1613099079304","","","null","","","","","<p><img src= images/blank.png width =""200"" height = ""200"" style = ""float:right""></p><p><img src=images/blank.png width =""800"" height = ""200""></p>","","","","","","","","","","","",""
"","33.84999977424741","sequential-stimulus-presentation","245","536960","0.0-47.0-1.1","SS1613099079304","trial","","40","800","833.8499997742474","images/stimuli/spore_stims/complex_20_A_d.gif","images/stimuli/spore_stims/complex_19_A_c.gif","","","","","13","complex_dissimilar","images/stimuli/spore_stims/complex_19_A_c.gif","right","","","","",""
"","null","html-keyboard-response","246","537917","0.0-47.0-0.2","SS1613099079304","","","null","","","","","<p><img src= images/blank.png width =""200"" height = ""200"" style = ""float:right""></p><p><img src=images/blank.png width =""800"" height = ""200""></p>","","","","","","","","","","","",""
"","552.7349999174476","sequential-stimulus-presentation","247","539287","0.0-47.0-1.2","SS1613099079304","trial","","40","800","1352.7349999174476","images/stimuli/spore_stims/complex_20_A_d.gif","images/stimuli/spore_stims/complex_19_A_c.gif","","","","","13","complex_dissimilar","images/stimuli/spore_stims/complex_19_A_c.gif","right","","","","",""
"","null","html-keyboard-response","248","540326","0.0-47.0-0.3","SS1613099079304","","","null","","","","","<p><img src= images/blank.png width =""200"" height = ""200"" style = ""float:right""></p><p><img src=images/blank.png width =""800"" height = ""200""></p>","","","","","","","","","","","",""
"","982.5550001114607","sequential-stimulus-presentation","249","542141","0.0-47.0-1.3","SS1613099079304","trial","","40","800","1782.5550001114607","images/stimuli/spore_stims/complex_20_A_d.gif","images/stimuli/spore_stims/complex_19_A_c.gif","","","","","13","complex_dissimilar","images/stimuli/spore_stims/complex_19_A_c.gif","right","","","","",""
"","null","html-keyboard-response","250","542963","0.0-47.0-0.4","SS1613099079304","","","null","","","","","<p><img src= images/blank.png width =""200"" height = ""200"" style = ""float:right""></p><p><img src=images/blank.png width =""800"" height = ""200""></p>","","","","","","","","","","","",""
"","345.4599999822676","sequential-stimulus-presentation","251","544134","0.0-47.0-1.4","SS1613099079304","trial","","40","800","1145.4599999822676","images/stimuli/spore_stims/complex_20_A_d.gif","images/stimuli/spore_stims/complex_19_A_c.gif","","","","","13","complex_dissimilar","images/stimuli/spore_stims/complex_19_A_c.gif","right","","","","",""
"","null","html-keyboard-response","252","545236","0.0-47.0-0.5","SS1613099079304","","","null","","","","","<p><img src= images/blank.png width =""200"" height = ""200"" style = ""float:right""></p><p><img src=images/blank.png width =""800"" height = ""200""></p>","","","","","","","","","","","",""
"","521.720000077039","sequential-stimulus-presentation","253","546616","0.0-47.0-1.5","SS1613099079304","trial","","40","800","1321.720000077039","images/stimuli/spore_stims/complex_20_A_d.gif","images/stimuli/spore_stims/complex_19_A_c.gif","","","","","13","complex_dissimilar","images/stimuli/spore_stims/complex_20_A_d.gif","middle","","","","",""
"","null","html-keyboard-response","254","547737","0.0-47.0-0.6","SS1613099079304","","","null","","","","","<p><img src= images/blank.png width =""200"" height = ""200"" style = ""float:right""></p><p><img src=images/blank.png width =""800"" height = ""200""></p>","","","","","","","","","","","",""
"","760.8449999243021","sequential-stimulus-presentation","255","549359","0.0-47.0-1.6","SS1613099079304","trial","","40","800","1560.844999924302","images/stimuli/spore_stims/complex_20_A_d.gif","images/stimuli/spore_stims/complex_19_A_c.gif","","","","","13","complex_dissimilar","images/stimuli/spore_stims/complex_19_A_c.gif","right","","","","",""
"","null","html-keyboard-response","256","550256","0.0-47.0-0.7","SS1613099079304","","","null","","","","","<p><img src= images/blank.png width =""200"" height = ""200"" style = ""float:right""></p><p><img src=images/blank.png width =""800"" height = ""200""></p>","","","","","","","","","","","",""
"","598.0099998414516","sequential-stimulus-presentation","257","551706","0.0-47.0-1.7","SS1613099079304","trial","","40","800","1398.0099998414516","images/stimuli/spore_stims/complex_20_A_d.gif","images/stimuli/spore_stims/complex_19_A_c.gif","","","","","13","complex_dissimilar","images/stimuli/spore_stims/complex_19_A_c.gif","right","","","","",""
"","2711.325000040233","html-keyboard-response","258","554437","0.0-48.0","SS1613099079304","pref_question","","51","","","","","<video width ='960' height = '540' style='padding-top:8%' autoplay muted><source src='images/stimuli/wall_pref.mp4' type='video/mp4'></video>","3","right","66%","13","","","","","","","",""
"","966.9750002212822","sequential-stimulus-presentation","259","556228","0.0-49.0","SS1613099079304","pref_reveal","","40","800","1766.9750002212822","null","null","","","","","13","","","","background","","","",""
"","null","html-keyboard-response","260","557389","0.0-50.0-0.0","SS1613099079304","","","null","","","","","<p><img src= images/blank.png width =""200"" height = ""200"" style = ""float:right""></p><p><img src=images/blank.png width =""800"" height = ""200""></p>","","","","","","","","","","","",""
"","635.2749997749925","sequential-stimulus-presentation","261","558860","0.0-50.0-1.0","SS1613099079304","trial","","40","800","1435.2749997749925","images/stimuli/spore_stims/complex_18_B_c.gif","images/stimuli/spore_stims/complex_14_B_c.gif","","","","","14","complex_dissimilar","images/stimuli/spore_stims/complex_14_B_c.gif","middle","","","","",""
"","null","html-keyboard-response","262","559764","0.0-50.0-0.1","SS1613099079304","","","null","","","","","<p><img src= images/blank.png width =""200"" height = ""200"" style = ""float:right""></p><p><img src=images/blank.png width =""800"" height = ""200""></p>","","","","","","","","","","","",""
"","616.3650001399219","sequential-stimulus-presentation","263","561210","0.0-50.0-1.1","SS1613099079304","trial","","40","800","1416.365000139922","images/stimuli/spore_stims/complex_18_B_c.gif","images/stimuli/spore_stims/complex_14_B_c.gif","","","","","14","complex_dissimilar","images/stimuli/spore_stims/complex_14_B_c.gif","middle","","","","",""
"","null","html-keyboard-response","264","562382","0.0-50.0-0.2","SS1613099079304","","","null","","","","","<p><img src= images/blank.png width =""200"" height = ""200"" style = ""float:right""></p><p><img src=images/blank.png width =""800"" height = ""200""></p>","","","","","","","","","","","",""
"","637.4599998816848","sequential-stimulus-presentation","265","563863","0.0-50.0-1.2","SS1613099079304","trial","","40","800","1437.4599998816848","images/stimuli/spore_stims/complex_18_B_c.gif","images/stimuli/spore_stims/complex_14_B_c.gif","","","","","14","complex_dissimilar","images/stimuli/spore_stims/complex_14_B_c.gif","middle","","","","",""
"","null","html-keyboard-response","266","565107","0.0-50.0-0.3","SS1613099079304","","","null","","","","","<p><img src= images/blank.png width =""200"" height = ""200"" style = ""float:right""></p><p><img src=images/blank.png width =""800"" height = ""200""></p>","","","","","","","","","","","",""
"","205.59499971568584","sequential-stimulus-presentation","267","566138","0.0-50.0-1.3","SS1613099079304","trial","","40","800","1005.5949997156858","images/stimuli/spore_stims/complex_18_B_c.gif","images/stimuli/spore_stims/complex_14_B_c.gif","","","","","14","complex_dissimilar","images/stimuli/spore_stims/complex_14_B_c.gif","middle","","","","",""
"","null","html-keyboard-response","268","567275","0.0-50.0-0.4","SS1613099079304","","","null","","","","","<p><img src= images/blank.png width =""200"" height = ""200"" style = ""float:right""></p><p><img src=images/blank.png width =""800"" height = ""200""></p>","","","","","","","","","","","",""
"","388.87999998405576","sequential-stimulus-presentation","269","568493","0.0-50.0-1.4","SS1613099079304","trial","","40","800","1188.8799999840558","images/stimuli/spore_stims/complex_18_B_c.gif","images/stimuli/spore_stims/complex_14_B_c.gif","","","","","14","complex_dissimilar","images/stimuli/spore_stims/complex_14_B_c.gif","middle","","","","",""
"","null","html-keyboard-response","270","569637","0.0-50.0-0.5","SS1613099079304","","","null","","","","","<p><img src= images/blank.png width =""200"" height = ""200"" style = ""float:right""></p><p><img src=images/blank.png width =""800"" height = ""200""></p>","","","","","","","","","","","",""
"","848.000000230968","sequential-stimulus-presentation","271","571374","0.0-50.0-1.5","SS1613099079304","trial","","40","800","1648.000000230968","images/stimuli/spore_stims/complex_18_B_c.gif","images/stimuli/spore_stims/complex_14_B_c.gif","","","","","14","complex_dissimilar","images/stimuli/spore_stims/complex_14_B_c.gif","middle","","","","",""
"","null","html-keyboard-response","272","572271","0.0-50.0-0.6","SS1613099079304","","","null","","","","","<p><img src= images/blank.png width =""200"" height = ""200"" style = ""float:right""></p><p><img src=images/blank.png width =""800"" height = ""200""></p>","","","","","","","","","","","",""
"","651.9050002098083","sequential-stimulus-presentation","273","573758","0.0-50.0-1.6","SS1613099079304","trial","","40","800","1451.9050002098083","images/stimuli/spore_stims/complex_18_B_c.gif","images/stimuli/spore_stims/complex_14_B_c.gif","","","","","14","complex_dissimilar","images/stimuli/spore_stims/complex_14_B_c.gif","middle","","","","",""
"","null","html-keyboard-response","274","574679","0.0-50.0-0.7","SS1613099079304","","","null","","","","","<p><img src= images/blank.png width =""200"" height = ""200"" style = ""float:right""></p><p><img src=images/blank.png width =""800"" height = ""200""></p>","","","","","","","","","","","",""
"","577.1250003017485","sequential-stimulus-presentation","275","576105","0.0-50.0-1.7","SS1613099079304","trial","","40","800","1377.1250003017485","images/stimuli/spore_stims/complex_18_B_c.gif","images/stimuli/spore_stims/complex_14_B_c.gif","","","","","14","complex_dissimilar","images/stimuli/spore_stims/complex_18_B_c.gif","right","","","","",""
"","6045.954999979585","html-keyboard-response","276","582173","0.0-51.0","SS1613099079304","pref_question","","51","","","","","<video width ='960' height = '540' style='padding-top:8%' autoplay muted><source src='images/stimuli/wall_pref.mp4' type='video/mp4'></video>","3","right","66%","14","","","","","","","",""
"","399.100000038743","sequential-stimulus-presentation","277","583403","0.0-52.0","SS1613099079304","pref_reveal","","40","800","1199.100000038743","null","null","","","","","14","","","","deviant","","","",""
"","null","html-keyboard-response","278","584567","0.0-53.0-0.0","SS1613099079304","","","null","","","","","<p><img src= images/blank.png width =""200"" height = ""200"" style = ""float:right""></p><p><img src=images/blank.png width =""800"" height = ""200""></p>","","","","","","","","","","","",""
"","977.1650000475347","sequential-stimulus-presentation","279","586520","0.0-53.0-1.0","SS1613099079304","trial","","40","800","1777.1650000475347","images/stimuli/spore_stims/complex_17_B_c.gif","images/stimuli/spore_stims/complex_17_A_c.gif","","","","","15","complex_similar","images/stimuli/spore_stims/complex_17_A_c.gif","left","","","","",""
"","null","html-keyboard-response","280","587483","0.0-53.0-0.1","SS1613099079304","","","null","","","","","<p><img src= images/blank.png width =""200"" height = ""200"" style = ""float:right""></p><p><img src=images/blank.png width =""800"" height = ""200""></p>","","","","","","","","","","","",""
"","402.32500014826655","sequential-stimulus-presentation","281","588709","0.0-53.0-1.1","SS1613099079304","trial","","40","800","1202.3250001482666","images/stimuli/spore_stims/complex_17_B_c.gif","images/stimuli/spore_stims/complex_17_A_c.gif","","","","","15","complex_similar","images/stimuli/spore_stims/complex_17_A_c.gif","left","","","","",""
"","null","html-keyboard-response","282","589825","0.0-53.0-0.2","SS1613099079304","","","null","","","","","<p><img src= images/blank.png width =""200"" height = ""200"" style = ""float:right""></p><p><img src=images/blank.png width =""800"" height = ""200""></p>","","","","","","","","","","","",""
"","282.6150003820658","sequential-stimulus-presentation","283","590947","0.0-53.0-1.2","SS1613099079304","trial","","40","800","1082.6150003820658","images/stimuli/spore_stims/complex_17_B_c.gif","images/stimuli/spore_stims/complex_17_A_c.gif","","","","","15","complex_similar","images/stimuli/spore_stims/complex_17_A_c.gif","left","","","","",""
"","null","html-keyboard-response","284","591781","0.0-53.0-0.3","SS1613099079304","","","null","","","","","<p><img src= images/blank.png width =""200"" height = ""200"" style = ""float:right""></p><p><img src=images/blank.png width =""800"" height = ""200""></p>","","","","","","","","","","","",""
"","788.7749997898936","sequential-stimulus-presentation","285","593399","0.0-53.0-1.3","SS1613099079304","trial","","40","800","1588.7749997898936","images/stimuli/spore_stims/complex_17_B_c.gif","images/stimuli/spore_stims/complex_17_A_c.gif","","","","","15","complex_similar","images/stimuli/spore_stims/complex_17_A_c.gif","left","","","","",""
"","null","html-keyboard-response","286","594583","0.0-53.0-0.4","SS1613099079304","","","null","","","","","<p><img src= images/blank.png width =""200"" height = ""200"" style = ""float:right""></p><p><img src=images/blank.png width =""800"" height = ""200""></p>","","","","","","","","","","","",""
"","665.5000001192093","sequential-stimulus-presentation","287","596088","0.0-53.0-1.4","SS1613099079304","trial","","40","800","1465.5000001192093","images/stimuli/spore_stims/complex_17_B_c.gif","images/stimuli/spore_stims/complex_17_A_c.gif","","","","","15","complex_similar","images/stimuli/spore_stims/complex_17_A_c.gif","left","","","","",""
"","null","html-keyboard-response","288","596965","0.0-53.0-0.5","SS1613099079304","","","null","","","","","<p><img src= images/blank.png width =""200"" height = ""200"" style = ""float:right""></p><p><img src=images/blank.png width =""800"" height = ""200""></p>","","","","","","","","","","","",""
"","728.6750003695488","sequential-stimulus-presentation","289","598519","0.0-53.0-1.5","SS1613099079304","trial","","40","800","1528.6750003695488","images/stimuli/spore_stims/complex_17_B_c.gif","images/stimuli/spore_stims/complex_17_A_c.gif","","","","","15","complex_similar","images/stimuli/spore_stims/complex_17_A_c.gif","left","","","","",""
"","null","html-keyboard-response","290","599728","0.0-53.0-0.6","SS1613099079304","","","null","","","","","<p><img src= images/blank.png width =""200"" height = ""200"" style = ""float:right""></p><p><img src=images/blank.png width =""800"" height = ""200""></p>","","","","","","","","","","","",""
"","617.3550002276897","sequential-stimulus-presentation","291","601185","0.0-53.0-1.6","SS1613099079304","trial","","40","800","1417.3550002276897","images/stimuli/spore_stims/complex_17_B_c.gif","images/stimuli/spore_stims/complex_17_A_c.gif","","","","","15","complex_similar","images/stimuli/spore_stims/complex_17_B_c.gif","middle","","","","",""
"","null","html-keyboard-response","292","602152","0.0-53.0-0.7","SS1613099079304","","","null","","","","","<p><img src= images/blank.png width =""200"" height = ""200"" style = ""float:right""></p><p><img src=images/blank.png width =""800"" height = ""200""></p>","","","","","","","","","","","",""
"","955.4349998943508","sequential-stimulus-presentation","293","604106","0.0-53.0-1.7","SS1613099079304","trial","","40","800","1755.4349998943508","images/stimuli/spore_stims/complex_17_B_c.gif","images/stimuli/spore_stims/complex_17_A_c.gif","","","","","15","complex_similar","images/stimuli/spore_stims/complex_17_A_c.gif","left","","","","",""
"","12402.759999968112","html-keyboard-response","294","616523","0.0-54.0","SS1613099079304","pref_question","","50","","","","","<video width ='960' height = '540' style='padding-top:8%' autoplay muted><source src='images/stimuli/wall_pref.mp4' type='video/mp4'></video>","2","middle","45%","15","","","","","","","",""
"","685.6049997732043","sequential-stimulus-presentation","295","618035","0.0-55.0","SS1613099079304","pref_reveal","","40","800","1485.6049997732043","null","null","","","","","15","","","","deviant","","","",""
"","null","html-keyboard-response","296","619279","0.0-56.0-0.0","SS1613099079304","","","null","","","","","<p><img src= images/blank.png width =""200"" height = ""200"" style = ""float:right""></p><p><img src=images/blank.png width =""800"" height = ""200""></p>","","","","","","","","","","","",""
"","771.1300002411008","sequential-stimulus-presentation","297","620897","0.0-56.0-1.0","SS1613099079304","trial","","40","800","1571.1300002411008","images/stimuli/spore_stims/complex_15_A_b.gif","images/stimuli/spore_stims/complex_18_A_c.gif","","","","","16","complex_dissimilar","images/stimuli/spore_stims/complex_18_A_c.gif","right","","","","",""
"","null","html-keyboard-response","298","621783","0.0-56.0-0.1","SS1613099079304","","","null","","","","","<p><img src= images/blank.png width =""200"" height = ""200"" style = ""float:right""></p><p><img src=images/blank.png width =""800"" height = ""200""></p>","","","","","","","","","","","",""
"","756.010000128299","sequential-stimulus-presentation","299","623378","0.0-56.0-1.1","SS1613099079304","trial","","40","800","1556.010000128299","images/stimuli/spore_stims/complex_15_A_b.gif","images/stimuli/spore_stims/complex_18_A_c.gif","","","","","16","complex_dissimilar","images/stimuli/spore_stims/complex_18_A_c.gif","right","","","","",""
"","null","html-keyboard-response","300","624283","0.0-56.0-0.2","SS1613099079304","","","null","","","","","<p><img src= images/blank.png width =""200"" height = ""200"" style = ""float:right""></p><p><img src=images/blank.png width =""800"" height = ""200""></p>","","","","","","","","","","","",""
"","644.594999961555","sequential-stimulus-presentation","301","625806","0.0-56.0-1.2","SS1613099079304","trial","","40","800","1444.594999961555","images/stimuli/spore_stims/complex_15_A_b.gif","images/stimuli/spore_stims/complex_18_A_c.gif","","","","","16","complex_dissimilar","images/stimuli/spore_stims/complex_18_A_c.gif","right","","","","",""
"","null","html-keyboard-response","302","626849","0.0-56.0-0.3","SS1613099079304","","","null","","","","","<p><img src= images/blank.png width =""200"" height = ""200"" style = ""float:right""></p><p><img src=images/blank.png width =""800"" height = ""200""></p>","","","","","","","","","","","",""
"","718.4800002723932","sequential-stimulus-presentation","303","628397","0.0-56.0-1.3","SS1613099079304","trial","","40","800","1518.4800002723932","images/stimuli/spore_stims/complex_15_A_b.gif","images/stimuli/spore_stims/complex_18_A_c.gif","","","","","16","complex_dissimilar","images/stimuli/spore_stims/complex_18_A_c.gif","right","","","","",""
"","null","html-keyboard-response","304","629264","0.0-56.0-0.4","SS1613099079304","","","null","","","","","<p><img src= images/blank.png width =""200"" height = ""200"" style = ""float:right""></p><p><img src=images/blank.png width =""800"" height = ""200""></p>","","","","","","","","","","","",""
"","894.9000001884997","sequential-stimulus-presentation","305","630984","0.0-56.0-1.4","SS1613099079304","trial","","40","800","1694.9000001884997","images/stimuli/spore_stims/complex_15_A_b.gif","images/stimuli/spore_stims/complex_18_A_c.gif","","","","","16","complex_dissimilar","images/stimuli/spore_stims/complex_18_A_c.gif","right","","","","",""
"","null","html-keyboard-response","306","631947","0.0-56.0-0.5","SS1613099079304","","","null","","","","","<p><img src= images/blank.png width =""200"" height = ""200"" style = ""float:right""></p><p><img src=images/blank.png width =""800"" height = ""200""></p>","","","","","","","","","","","",""
"","707.8299997374415","sequential-stimulus-presentation","307","633489","0.0-56.0-1.5","SS1613099079304","trial","","40","800","1507.8299997374415","images/stimuli/spore_stims/complex_15_A_b.gif","images/stimuli/spore_stims/complex_18_A_c.gif","","","","","16","complex_dissimilar","images/stimuli/spore_stims/complex_18_A_c.gif","right","","","","",""
"","null","html-keyboard-response","308","634462","0.0-56.0-0.6","SS1613099079304","","","null","","","","","<p><img src= images/blank.png width =""200"" height = ""200"" style = ""float:right""></p><p><img src=images/blank.png width =""800"" height = ""200""></p>","","","","","","","","","","","",""
"","669.5300000719726","sequential-stimulus-presentation","309","635972","0.0-56.0-1.6","SS1613099079304","trial","","40","800","1469.5300000719726","images/stimuli/spore_stims/complex_15_A_b.gif","images/stimuli/spore_stims/complex_18_A_c.gif","","","","","16","complex_dissimilar","images/stimuli/spore_stims/complex_18_A_c.gif","right","","","","",""
"","null","html-keyboard-response","310","636952","0.0-56.0-0.7","SS1613099079304","","","null","","","","","<p><img src= images/blank.png width =""200"" height = ""200"" style = ""float:right""></p><p><img src=images/blank.png width =""800"" height = ""200""></p>","","","","","","","","","","","",""
"","1019.1300003789365","sequential-stimulus-presentation","311","638796","0.0-56.0-1.7","SS1613099079304","trial","","40","800","1819.1300003789365","images/stimuli/spore_stims/complex_15_A_b.gif","images/stimuli/spore_stims/complex_18_A_c.gif","","","","","16","complex_dissimilar","images/stimuli/spore_stims/complex_15_A_b.gif","middle","","","","",""
