"view_history","rt","trial_type","trial_index","time_elapsed","internal_node_id","subject","stimulus_type","trial_stimulus","key_press","minimum_viewing_duration","trial_looking_time","block_deviant","block_background","stimulus","wall_pref","location","location_percent","block_number","block_type","stimulus_displayed","position_displayed","stim_type_selected","responses","question_order","stimulus_left","stimulus_right"
"[{""page_index"":0,""viewing_time"":3404.724999971222}]","3405.9849999612197","instructions","0","3409","0.0-0.0","SS1613098679268","","","","","","","","","","","","","","","","","","","",""
"[{""page_index"":0,""viewing_time"":12769.804999988992},{""page_index"":1,""viewing_time"":15935.664999997243}]","28705.80500003416","instructions","1","34119","0.0-1.0","SS1613098679268","instructions","","","","","","","","","","","","","","","","","","",""
"","132221.10500000417","sequential-stimulus-presentation","2","167150","0.0-2.0","SS1613098679268","","","40","800","133021.10500000417","null","null","","","","","","","","","","","","",""
"","6008.180000004359","sequential-stimulus-presentation","3","173967","0.0-3.0","SS1613098679268","","","40","800","6808.180000004359","null","null","","","","","","","","","","","","",""
"[{""page_index"":0,""viewing_time"":4566.339999961201}]","4566.729999962263","instructions","4","178536","0.0-4.0","SS1613098679268","instructions","","","","","","","","","","","","","","","","","","",""
"","15863.349999999627","html-keyboard-response","5","194404","0.0-5.0","SS1613098679268","instructions","","50","","","","","<video width ='960' height = '540' autoplay muted><source src='images/stimuli/wall_pref.mp4' type='video/mp4'></video>","2","middle","45%","","","","","","","","",""
"","2830.595000006724","sequential-stimulus-presentation","6","198046","0.0-6.0","SS1613098679268","pref_reveal","","40","800","3630.595000006724","null","null","","","","","","","","","","","","",""
"[{""page_index"":0,""viewing_time"":8030.335000017658},{""page_index"":1,""viewing_time"":4981.089999957476},{""page_index"":2,""viewing_time"":3153.7700000335462},{""page_index"":3,""viewing_time"":1756.3799999770708}]","17921.979999984615","instructions","7","215970","0.0-7.0","SS1613098679268","instructions","","","","","","","","","","","","","","","","","","",""
"","null","html-keyboard-response","8","216832","0.0-8.0-0.0","SS1613098679268","","","null","","","","","<p><img src= images/blank.png width =""200"" height = ""200"" style = ""float:right""></p><p><img src=images/blank.png width =""800"" height = ""200""></p>","","","","","","","","","","","",""
"","3046.029999968596","sequential-stimulus-presentation","9","220689","0.0-8.0-1.0","SS1613098679268","trial","","40","800","3846.029999968596","images/stimuli/spore_stims/simple_11_B_c.gif","images/stimuli/spore_stims/simple_11_A_c.gif","","","","","0","simple_similar","images/stimuli/spore_stims/simple_11_A_c.gif","right","","","","",""
"","null","html-keyboard-response","10","221656","0.0-8.0-0.1","SS1613098679268","","","null","","","","","<p><img src= images/blank.png width =""200"" height = ""200"" style = ""float:right""></p><p><img src=images/blank.png width =""800"" height = ""200""></p>","","","","","","","","","","","",""
"","3596.514999982901","sequential-stimulus-presentation","11","226060","0.0-8.0-1.1","SS1613098679268","trial","","40","800","4396.514999982901","images/stimuli/spore_stims/simple_11_B_c.gif","images/stimuli/spore_stims/simple_11_A_c.gif","","","","","0","simple_similar","images/stimuli/spore_stims/simple_11_A_c.gif","right","","","","",""
"","null","html-keyboard-response","12","227206","0.0-8.0-0.2","SS1613098679268","","","null","","","","","<p><img src= images/blank.png width =""200"" height = ""200"" style = ""float:right""></p><p><img src=images/blank.png width =""800"" height = ""200""></p>","","","","","","","","","","","",""
"","2675.9799999999814","sequential-stimulus-presentation","13","230692","0.0-8.0-1.2","SS1613098679268","trial","","40","800","3475.9799999999814","images/stimuli/spore_stims/simple_11_B_c.gif","images/stimuli/spore_stims/simple_11_A_c.gif","","","","","0","simple_similar","images/stimuli/spore_stims/simple_11_B_c.gif","left","","","","",""
"","null","html-keyboard-response","14","231871","0.0-8.0-0.3","SS1613098679268","","","null","","","","","<p><img src= images/blank.png width =""200"" height = ""200"" style = ""float:right""></p><p><img src=images/blank.png width =""800"" height = ""200""></p>","","","","","","","","","","","",""
"","872.8199999895878","sequential-stimulus-presentation","15","233553","0.0-8.0-1.3","SS1613098679268","trial","","40","800","1672.8199999895878","images/stimuli/spore_stims/simple_11_B_c.gif","images/stimuli/spore_stims/simple_11_A_c.gif","","","","","0","simple_similar","images/stimuli/spore_stims/simple_11_A_c.gif","right","","","","",""
"","null","html-keyboard-response","16","234713","0.0-8.0-0.4","SS1613098679268","","","null","","","","","<p><img src= images/blank.png width =""200"" height = ""200"" style = ""float:right""></p><p><img src=images/blank.png width =""800"" height = ""200""></p>","","","","","","","","","","","",""
"","319.8299999930896","sequential-stimulus-presentation","17","235843","0.0-8.0-1.4","SS1613098679268","trial","","40","800","1119.8299999930896","images/stimuli/spore_stims/simple_11_B_c.gif","images/stimuli/spore_stims/simple_11_A_c.gif","","","","","0","simple_similar","images/stimuli/spore_stims/simple_11_A_c.gif","right","","","","",""
"","null","html-keyboard-response","18","236837","0.0-8.0-0.5","SS1613098679268","","","null","","","","","<p><img src= images/blank.png width =""200"" height = ""200"" style = ""float:right""></p><p><img src=images/blank.png width =""800"" height = ""200""></p>","","","","","","","","","","","",""
"","389.519999967888","sequential-stimulus-presentation","19","238059","0.0-8.0-1.5","SS1613098679268","trial","","40","800","1189.519999967888","images/stimuli/spore_stims/simple_11_B_c.gif","images/stimuli/spore_stims/simple_11_A_c.gif","","","","","0","simple_similar","images/stimuli/spore_stims/simple_11_A_c.gif","right","","","","",""
"","null","html-keyboard-response","20","239304","0.0-8.0-0.6","SS1613098679268","","","null","","","","","<p><img src= images/blank.png width =""200"" height = ""200"" style = ""float:right""></p><p><img src=images/blank.png width =""800"" height = ""200""></p>","","","","","","","","","","","",""
"","284.50000000884756","sequential-stimulus-presentation","21","240396","0.0-8.0-1.6","SS1613098679268","trial","","40","800","1084.5000000088476","images/stimuli/spore_stims/simple_11_B_c.gif","images/stimuli/spore_stims/simple_11_A_c.gif","","","","","0","simple_similar","images/stimuli/spore_stims/simple_11_A_c.gif","right","","","","",""
"","null","html-keyboard-response","22","241484","0.0-8.0-0.7","SS1613098679268","","","null","","","","","<p><img src= images/blank.png width =""200"" height = ""200"" style = ""float:right""></p><p><img src=images/blank.png width =""800"" height = ""200""></p>","","","","","","","","","","","",""
"","735.9549999819137","sequential-stimulus-presentation","23","243028","0.0-8.0-1.7","SS1613098679268","trial","","40","800","1535.9549999819137","images/stimuli/spore_stims/simple_11_B_c.gif","images/stimuli/spore_stims/simple_11_A_c.gif","","","","","0","simple_similar","images/stimuli/spore_stims/simple_11_A_c.gif","right","","","","",""
"","3247.330000041984","html-keyboard-response","24","246287","0.0-9.0","SS1613098679268","pref_question","","50","","","","","<video width ='960' height = '540' style='padding-top:8%' autoplay muted><source src='images/stimuli/wall_pref.mp4' type='video/mp4'></video>","2","middle","45%","0","","","","","","","",""
"","2249.1399999707937","sequential-stimulus-presentation","25","249348","0.0-10.0","SS1613098679268","pref_reveal","","40","800","3049.1399999707937","null","null","","","","","0","","","","novel","","","",""
"","null","html-keyboard-response","26","250341","0.0-11.0-0.0","SS1613098679268","","","null","","","","","<p><img src= images/blank.png width =""200"" height = ""200"" style = ""float:right""></p><p><img src=images/blank.png width =""800"" height = ""200""></p>","","","","","","","","","","","",""
"","917.4899999634363","sequential-stimulus-presentation","27","252069","0.0-11.0-1.0","SS1613098679268","trial","","40","800","1717.4899999634363","images/stimuli/spore_stims/complex_12_A_b.gif","images/stimuli/spore_stims/complex_12_B_b.gif","","","","","1","complex_similar","images/stimuli/spore_stims/complex_12_B_b.gif","middle","","","","",""
"","null","html-keyboard-response","28","253005","0.0-11.0-0.1","SS1613098679268","","","null","","","","","<p><img src= images/blank.png width =""200"" height = ""200"" style = ""float:right""></p><p><img src=images/blank.png width =""800"" height = ""200""></p>","","","","","","","","","","","",""
"","559.5099999918602","sequential-stimulus-presentation","29","254373","0.0-11.0-1.1","SS1613098679268","trial","","40","800","1359.5099999918602","images/stimuli/spore_stims/complex_12_A_b.gif","images/stimuli/spore_stims/complex_12_B_b.gif","","","","","1","complex_similar","images/stimuli/spore_stims/complex_12_B_b.gif","middle","","","","",""
"","null","html-keyboard-response","30","255638","0.0-11.0-0.2","SS1613098679268","","","null","","","","","<p><img src= images/blank.png width =""200"" height = ""200"" style = ""float:right""></p><p><img src=images/blank.png width =""800"" height = ""200""></p>","","","","","","","","","","","",""
"","116.07499996898696","sequential-stimulus-presentation","31","256563","0.0-11.0-1.2","SS1613098679268","trial","","40","800","916.074999968987","images/stimuli/spore_stims/complex_12_A_b.gif","images/stimuli/spore_stims/complex_12_B_b.gif","","","","","1","complex_similar","images/stimuli/spore_stims/complex_12_B_b.gif","middle","","","","",""
"","null","html-keyboard-response","32","257614","0.0-11.0-0.3","SS1613098679268","","","null","","","","","<p><img src= images/blank.png width =""200"" height = ""200"" style = ""float:right""></p><p><img src=images/blank.png width =""800"" height = ""200""></p>","","","","","","","","","","","",""
"","638.0250000511296","sequential-stimulus-presentation","33","259066","0.0-11.0-1.3","SS1613098679268","trial","","40","800","1438.0250000511296","images/stimuli/spore_stims/complex_12_A_b.gif","images/stimuli/spore_stims/complex_12_B_b.gif","","","","","1","complex_similar","images/stimuli/spore_stims/complex_12_B_b.gif","middle","","","","",""
"","null","html-keyboard-response","34","260256","0.0-11.0-0.4","SS1613098679268","","","null","","","","","<p><img src= images/blank.png width =""200"" height = ""200"" style = ""float:right""></p><p><img src=images/blank.png width =""800"" height = ""200""></p>","","","","","","","","","","","",""
"","231.81500000646338","sequential-stimulus-presentation","35","261322","0.0-11.0-1.4","SS1613098679268","trial","","40","800","1031.8150000064634","images/stimuli/spore_stims/complex_12_A_b.gif","images/stimuli/spore_stims/complex_12_B_b.gif","","","","","1","complex_similar","images/stimuli/spore_stims/complex_12_B_b.gif","middle","","","","",""
"","null","html-keyboard-response","36","262513","0.0-11.0-0.5","SS1613098679268","","","null","","","","","<p><img src= images/blank.png width =""200"" height = ""200"" style = ""float:right""></p><p><img src=images/blank.png width =""800"" height = ""200""></p>","","","","","","","","","","","",""
"","383.6250000167638","sequential-stimulus-presentation","37","263705","0.0-11.0-1.5","SS1613098679268","trial","","40","800","1183.6250000167638","images/stimuli/spore_stims/complex_12_A_b.gif","images/stimuli/spore_stims/complex_12_B_b.gif","","","","","1","complex_similar","images/stimuli/spore_stims/complex_12_B_b.gif","middle","","","","",""
"","null","html-keyboard-response","38","264688","0.0-11.0-0.6","SS1613098679268","","","null","","","","","<p><img src= images/blank.png width =""200"" height = ""200"" style = ""float:right""></p><p><img src=images/blank.png width =""800"" height = ""200""></p>","","","","","","","","","","","",""
"","2923.944999987725","sequential-stimulus-presentation","39","268420","0.0-11.0-1.6","SS1613098679268","trial","","40","800","3723.944999987725","images/stimuli/spore_stims/complex_12_A_b.gif","images/stimuli/spore_stims/complex_12_B_b.gif","","","","","1","complex_similar","images/stimuli/spore_stims/complex_12_B_b.gif","middle","","","","",""
"","null","html-keyboard-response","40","269335","0.0-11.0-0.7","SS1613098679268","","","null","","","","","<p><img src= images/blank.png width =""200"" height = ""200"" style = ""float:right""></p><p><img src=images/blank.png width =""800"" height = ""200""></p>","","","","","","","","","","","",""
"","707.0999999996275","sequential-stimulus-presentation","41","270854","0.0-11.0-1.7","SS1613098679268","trial","","40","800","1507.0999999996275","images/stimuli/spore_stims/complex_12_A_b.gif","images/stimuli/spore_stims/complex_12_B_b.gif","","","","","1","complex_similar","images/stimuli/spore_stims/complex_12_A_b.gif","left","","","","",""
"","2197.2650000243448","html-keyboard-response","42","273060","0.0-12.0","SS1613098679268","pref_question","","49","","","","","<video width ='960' height = '540' style='padding-top:8%' autoplay muted><source src='images/stimuli/wall_pref.mp4' type='video/mp4'></video>","1","left","25%","1","","","","","","","",""
"","1012.3399999574758","sequential-stimulus-presentation","43","274882","0.0-13.0","SS1613098679268","pref_reveal","","40","800","1812.3399999574758","null","null","","","","","1","","","","deviant","","","",""
"","null","html-keyboard-response","44","276066","0.0-14.0-0.0","SS1613098679268","","","null","","","","","<p><img src= images/blank.png width =""200"" height = ""200"" style = ""float:right""></p><p><img src=images/blank.png width =""800"" height = ""200""></p>","","","","","","","","","","","",""
"","664.1949999611825","sequential-stimulus-presentation","45","277541","0.0-14.0-1.0","SS1613098679268","trial","","40","800","1464.1949999611825","images/stimuli/spore_stims/complex_19_B_d.gif","images/stimuli/spore_stims/complex_20_A_d.gif","","","","","2","complex_dissimilar","images/stimuli/spore_stims/complex_20_A_d.gif","left","","","","",""
"","null","html-keyboard-response","46","278672","0.0-14.0-0.1","SS1613098679268","","","null","","","","","<p><img src= images/blank.png width =""200"" height = ""200"" style = ""float:right""></p><p><img src=images/blank.png width =""800"" height = ""200""></p>","","","","","","","","","","","",""
"","163.95499999634922","sequential-stimulus-presentation","47","279645","0.0-14.0-1.1","SS1613098679268","trial","","40","800","963.9549999963492","images/stimuli/spore_stims/complex_19_B_d.gif","images/stimuli/spore_stims/complex_20_A_d.gif","","","","","2","complex_dissimilar","images/stimuli/spore_stims/complex_20_A_d.gif","left","","","","",""
"","null","html-keyboard-response","48","280907","0.0-14.0-0.2","SS1613098679268","","","null","","","","","<p><img src= images/blank.png width =""200"" height = ""200"" style = ""float:right""></p><p><img src=images/blank.png width =""800"" height = ""200""></p>","","","","","","","","","","","",""
"","249.8749999795109","sequential-stimulus-presentation","49","281966","0.0-14.0-1.2","SS1613098679268","trial","","40","800","1049.874999979511","images/stimuli/spore_stims/complex_19_B_d.gif","images/stimuli/spore_stims/complex_20_A_d.gif","","","","","2","complex_dissimilar","images/stimuli/spore_stims/complex_20_A_d.gif","left","","","","",""
"","null","html-keyboard-response","50","283254","0.0-14.0-0.3","SS1613098679268","","","null","","","","","<p><img src= images/blank.png width =""200"" height = ""200"" style = ""float:right""></p><p><img src=images/blank.png width =""800"" height = ""200""></p>","","","","","","","","","","","",""
"","662.9049999755807","sequential-stimulus-presentation","51","284725","0.0-14.0-1.3","SS1613098679268","trial","","40","800","1462.9049999755807","images/stimuli/spore_stims/complex_19_B_d.gif","images/stimuli/spore_stims/complex_20_A_d.gif","","","","","2","complex_dissimilar","images/stimuli/spore_stims/complex_20_A_d.gif","left","","","","",""
"","null","html-keyboard-response","52","285605","0.0-14.0-0.4","SS1613098679268","","","null","","","","","<p><img src= images/blank.png width =""200"" height = ""200"" style = ""float:right""></p><p><img src=images/blank.png width =""800"" height = ""200""></p>","","","","","","","","","","","",""
"","391.59999997355044","sequential-stimulus-presentation","53","286805","0.0-14.0-1.4","SS1613098679268","trial","","40","800","1191.5999999735504","images/stimuli/spore_stims/complex_19_B_d.gif","images/stimuli/spore_stims/complex_20_A_d.gif","","","","","2","complex_dissimilar","images/stimuli/spore_stims/complex_19_B_d.gif","middle","","","","",""
"","null","html-keyboard-response","54","288061","0.0-14.0-0.5","SS1613098679268","","","null","","","","","<p><img src= images/blank.png width =""200"" height = ""200"" style = ""float:right""></p><p><img src=images/blank.png width =""800"" height = ""200""></p>","","","","","","","","","","","",""
"","318.00500000827014","sequential-stimulus-presentation","55","289189","0.0-14.0-1.5","SS1613098679268","trial","","40","800","1118.0050000082701","images/stimuli/spore_stims/complex_19_B_d.gif","images/stimuli/spore_stims/complex_20_A_d.gif","","","","","2","complex_dissimilar","images/stimuli/spore_stims/complex_20_A_d.gif","left","","","","",""
"","null","html-keyboard-response","56","290475","0.0-14.0-0.6","SS1613098679268","","","null","","","","","<p><img src= images/blank.png width =""200"" height = ""200"" style = ""float:right""></p><p><img src=images/blank.png width =""800"" height = ""200""></p>","","","","","","","","","","","",""
"","441.47499999962747","sequential-stimulus-presentation","57","291726","0.0-14.0-1.6","SS1613098679268","trial","","40","800","1241.4749999996275","images/stimuli/spore_stims/complex_19_B_d.gif","images/stimuli/spore_stims/complex_20_A_d.gif","","","","","2","complex_dissimilar","images/stimuli/spore_stims/complex_20_A_d.gif","left","","","","",""
"","null","html-keyboard-response","58","292883","0.0-14.0-0.7","SS1613098679268","","","null","","","","","<p><img src= images/blank.png width =""200"" height = ""200"" style = ""float:right""></p><p><img src=images/blank.png width =""800"" height = ""200""></p>","","","","","","","","","","","",""
"","144.73500003805384","sequential-stimulus-presentation","59","293839","0.0-14.0-1.7","SS1613098679268","trial","","40","800","944.7350000380538","images/stimuli/spore_stims/complex_19_B_d.gif","images/stimuli/spore_stims/complex_20_A_d.gif","","","","","2","complex_dissimilar","images/stimuli/spore_stims/complex_20_A_d.gif","left","","","","",""
"","1865.8900000154972","html-keyboard-response","60","295739","0.0-15.0","SS1613098679268","pref_question","","50","","","","","<video width ='960' height = '540' style='padding-top:8%' autoplay muted><source src='images/stimuli/wall_pref.mp4' type='video/mp4'></video>","2","middle","45%","2","","","","","","","",""
"","773.6250000307336","sequential-stimulus-presentation","61","297324","0.0-16.0","SS1613098679268","pref_reveal","","40","800","1573.6250000307336","null","null","","","","","2","","","","deviant","","","",""
"","null","html-keyboard-response","62","298293","0.0-17.0-0.0","SS1613098679268","","","null","","","","","<p><img src= images/blank.png width =""200"" height = ""200"" style = ""float:right""></p><p><img src=images/blank.png width =""800"" height = ""200""></p>","","","","","","","","","","","",""
"","341.66999999433756","sequential-stimulus-presentation","63","299467","0.0-17.0-1.0","SS1613098679268","trial","","40","800","1141.6699999943376","images/stimuli/spore_stims/complex_09_A_a.gif","images/stimuli/spore_stims/complex_14_B_b.gif","","","","","3","complex_dissimilar","images/stimuli/spore_stims/complex_14_B_b.gif","right","","","","",""
"","null","html-keyboard-response","64","300758","0.0-17.0-0.1","SS1613098679268","","","null","","","","","<p><img src= images/blank.png width =""200"" height = ""200"" style = ""float:right""></p><p><img src=images/blank.png width =""800"" height = ""200""></p>","","","","","","","","","","","",""
"","170.6700000213459","sequential-stimulus-presentation","65","301740","0.0-17.0-1.1","SS1613098679268","trial","","40","800","970.6700000213459","images/stimuli/spore_stims/complex_09_A_a.gif","images/stimuli/spore_stims/complex_14_B_b.gif","","","","","3","complex_dissimilar","images/stimuli/spore_stims/complex_14_B_b.gif","right","","","","",""
"","null","html-keyboard-response","66","302711","0.0-17.0-0.2","SS1613098679268","","","null","","","","","<p><img src= images/blank.png width =""200"" height = ""200"" style = ""float:right""></p><p><img src=images/blank.png width =""800"" height = ""200""></p>","","","","","","","","","","","",""
"","15.474999963771552","sequential-stimulus-presentation","67","303536","0.0-17.0-1.2","SS1613098679268","trial","","40","800","815.4749999637716","images/stimuli/spore_stims/complex_09_A_a.gif","images/stimuli/spore_stims/complex_14_B_b.gif","","","","","3","complex_dissimilar","images/stimuli/spore_stims/complex_14_B_b.gif","right","","","","",""
"","null","html-keyboard-response","68","304799","0.0-17.0-0.3","SS1613098679268","","","null","","","","","<p><img src= images/blank.png width =""200"" height = ""200"" style = ""float:right""></p><p><img src=images/blank.png width =""800"" height = ""200""></p>","","","","","","","","","","","",""
"","205.07500000530854","sequential-stimulus-presentation","69","305815","0.0-17.0-1.3","SS1613098679268","trial","","40","800","1005.0750000053085","images/stimuli/spore_stims/complex_09_A_a.gif","images/stimuli/spore_stims/complex_14_B_b.gif","","","","","3","complex_dissimilar","images/stimuli/spore_stims/complex_14_B_b.gif","right","","","","",""
"","null","html-keyboard-response","70","306937","0.0-17.0-0.4","SS1613098679268","","","null","","","","","<p><img src= images/blank.png width =""200"" height = ""200"" style = ""float:right""></p><p><img src=images/blank.png width =""800"" height = ""200""></p>","","","","","","","","","","","",""
"","173.0049999896437","sequential-stimulus-presentation","71","307918","0.0-17.0-1.4","SS1613098679268","trial","","40","800","973.0049999896437","images/stimuli/spore_stims/complex_09_A_a.gif","images/stimuli/spore_stims/complex_14_B_b.gif","","","","","3","complex_dissimilar","images/stimuli/spore_stims/complex_14_B_b.gif","right","","","","",""
"","null","html-keyboard-response","72","309056","0.0-17.0-0.5","SS1613098679268","","","null","","","","","<p><img src= images/blank.png width =""200"" height = ""200"" style = ""float:right""></p><p><img src=images/blank.png width =""800"" height = ""200""></p>","","","","","","","","","","","",""
"","339.83499999158084","sequential-stimulus-presentation","73","310219","0.0-17.0-1.5","SS1613098679268","trial","","40","800","1139.8349999915808","images/stimuli/spore_stims/complex_09_A_a.gif","images/stimuli/spore_stims/complex_14_B_b.gif","","","","","3","complex_dissimilar","images/stimuli/spore_stims/complex_14_B_b.gif","right","","","","",""
"","null","html-keyboard-response","74","311062","0.0-17.0-0.6","SS1613098679268","","","null","","","","","<p><img src= images/blank.png width =""200"" height = ""200"" style = ""float:right""></p><p><img src=images/blank.png width =""800"" height = ""200""></p>","","","","","","","","","","","",""
"","51.21999996481463","sequential-stimulus-presentation","75","311922","0.0-17.0-1.6","SS1613098679268","trial","","40","800","851.2199999648146","images/stimuli/spore_stims/complex_09_A_a.gif","images/stimuli/spore_stims/complex_14_B_b.gif","","","","","3","complex_dissimilar","images/stimuli/spore_stims/complex_09_A_a.gif","left","","","","",""
"","null","html-keyboard-response","76","312956","0.0-17.0-0.7","SS1613098679268","","","null","","","","","<p><img src= images/blank.png width =""200"" height = ""200"" style = ""float:right""></p><p><img src=images/blank.png width =""800"" height = ""200""></p>","","","","","","","","","","","",""
"","593.7249999842606","sequential-stimulus-presentation","77","314359","0.0-17.0-1.7","SS1613098679268","trial","","40","800","1393.7249999842606","images/stimuli/spore_stims/complex_09_A_a.gif","images/stimuli/spore_stims/complex_14_B_b.gif","","","","","3","complex_dissimilar","images/stimuli/spore_stims/complex_14_B_b.gif","right","","","","",""
"","3101.4350000186823","html-keyboard-response","78","317471","0.0-18.0","SS1613098679268","pref_question","","51","","","","","<video width ='960' height = '540' style='padding-top:8%' autoplay muted><source src='images/stimuli/wall_pref.mp4' type='video/mp4'></video>","3","right","66%","3","","","","","","","",""
"","690.485000028275","sequential-stimulus-presentation","79","318973","0.0-19.0","SS1613098679268","pref_reveal","","40","800","1490.485000028275","null","null","","","","","3","","","","background","","","",""
"","null","html-keyboard-response","80","320099","0.0-20.0-0.0","SS1613098679268","","","null","","","","","<p><img src= images/blank.png width =""200"" height = ""200"" style = ""float:right""></p><p><img src=images/blank.png width =""800"" height = ""200""></p>","","","","","","","","","","","",""
"","3.1799999997019768","sequential-stimulus-presentation","81","320914","0.0-20.0-1.0","SS1613098679268","trial","","40","800","803.179999999702","images/stimuli/spore_stims/simple_02_B_a.gif","images/stimuli/spore_stims/simple_02_A_a.gif","","","","","4","simple_similar","images/stimuli/spore_stims/simple_02_A_a.gif","right","","","","",""
"","null","html-keyboard-response","82","321746","0.0-20.0-0.1","SS1613098679268","","","null","","","","","<p><img src= images/blank.png width =""200"" height = ""200"" style = ""float:right""></p><p><img src=images/blank.png width =""800"" height = ""200""></p>","","","","","","","","","","","",""
"","186.69000000227243","sequential-stimulus-presentation","83","322742","0.0-20.0-1.1","SS1613098679268","trial","","40","800","986.6900000022724","images/stimuli/spore_stims/simple_02_B_a.gif","images/stimuli/spore_stims/simple_02_A_a.gif","","","","","4","simple_similar","images/stimuli/spore_stims/simple_02_A_a.gif","right","","","","",""
"","null","html-keyboard-response","84","323756","0.0-20.0-0.2","SS1613098679268","","","null","","","","","<p><img src= images/blank.png width =""200"" height = ""200"" style = ""float:right""></p><p><img src=images/blank.png width =""800"" height = ""200""></p>","","","","","","","","","","","",""
"","34.01999996276572","sequential-stimulus-presentation","85","324602","0.0-20.0-1.2","SS1613098679268","trial","","40","800","834.0199999627657","images/stimuli/spore_stims/simple_02_B_a.gif","images/stimuli/spore_stims/simple_02_A_a.gif","","","","","4","simple_similar","images/stimuli/spore_stims/simple_02_A_a.gif","right","","","","",""
"","null","html-keyboard-response","86","325412","0.0-20.0-0.3","SS1613098679268","","","null","","","","","<p><img src= images/blank.png width =""200"" height = ""200"" style = ""float:right""></p><p><img src=images/blank.png width =""800"" height = ""200""></p>","","","","","","","","","","","",""
"","192.9600000148639","sequential-stimulus-presentation","87","326416","0.0-20.0-1.3","SS1613098679268","trial","","40","800","992.9600000148639","images/stimuli/spore_stims/simple_02_B_a.gif","images/stimuli/spore_stims/simple_02_A_a.gif","","","","","4","simple_similar","images/stimuli/spore_stims/simple_02_B_a.gif","left","","","","",""
"","null","html-keyboard-response","88","327240","0.0-20.0-0.4","SS1613098679268","","","null","","","","","<p><img src= images/blank.png width =""200"" height = ""200"" style = ""float:right""></p><p><img src=images/blank.png width =""800"" height = ""200""></p>","","","","","","","","","","","",""
"","92.03999995952472","sequential-stimulus-presentation","89","328142","0.0-20.0-1.4","SS1613098679268","trial","","40","800","892.0399999595247","images/stimuli/spore_stims/simple_02_B_a.gif","images/stimuli/spore_stims/simple_02_A_a.gif","","","","","4","simple_similar","images/stimuli/spore_stims/simple_02_A_a.gif","right","","","","",""
"","null","html-keyboard-response","90","328966","0.0-20.0-0.5","SS1613098679268","","","null","","","","","<p><img src= images/blank.png width =""200"" height = ""200"" style = ""float:right""></p><p><img src=images/blank.png width =""800"" height = ""200""></p>","","","","","","","","","","","",""
"","243.5850000474602","sequential-stimulus-presentation","91","330022","0.0-20.0-1.5","SS1613098679268","trial","","40","800","1043.5850000474602","images/stimuli/spore_stims/simple_02_B_a.gif","images/stimuli/spore_stims/simple_02_A_a.gif","","","","","4","simple_similar","images/stimuli/spore_stims/simple_02_A_a.gif","right","","","","",""
"","null","html-keyboard-response","92","331177","0.0-20.0-0.6","SS1613098679268","","","null","","","","","<p><img src= images/blank.png width =""200"" height = ""200"" style = ""float:right""></p><p><img src=images/blank.png width =""800"" height = ""200""></p>","","","","","","","","","","","",""
"","148.83999997982755","sequential-stimulus-presentation","93","332136","0.0-20.0-1.6","SS1613098679268","trial","","40","800","948.8399999798276","images/stimuli/spore_stims/simple_02_B_a.gif","images/stimuli/spore_stims/simple_02_A_a.gif","","","","","4","simple_similar","images/stimuli/spore_stims/simple_02_A_a.gif","right","","","","",""
"","null","html-keyboard-response","94","333251","0.0-20.0-0.7","SS1613098679268","","","null","","","","","<p><img src= images/blank.png width =""200"" height = ""200"" style = ""float:right""></p><p><img src=images/blank.png width =""800"" height = ""200""></p>","","","","","","","","","","","",""
"","77.05000002169982","sequential-stimulus-presentation","95","334134","0.0-20.0-1.7","SS1613098679268","trial","","40","800","877.0500000216998","images/stimuli/spore_stims/simple_02_B_a.gif","images/stimuli/spore_stims/simple_02_A_a.gif","","","","","4","simple_similar","images/stimuli/spore_stims/simple_02_A_a.gif","right","","","","",""
"","2636.5399999776855","html-keyboard-response","96","336779","0.0-21.0","SS1613098679268","pref_question","","50","","","","","<video width ='960' height = '540' style='padding-top:8%' autoplay muted><source src='images/stimuli/wall_pref.mp4' type='video/mp4'></video>","2","middle","45%","4","","","","","","","",""
"","592.9650000180118","sequential-stimulus-presentation","97","338183","0.0-22.0","SS1613098679268","pref_reveal","","40","800","1392.9650000180118","null","null","","","","","4","","","","novel","","","",""
"","null","html-keyboard-response","98","339089","0.0-23.0-0.0","SS1613098679268","","","null","","","","","<p><img src= images/blank.png width =""200"" height = ""200"" style = ""float:right""></p><p><img src=images/blank.png width =""800"" height = ""200""></p>","","","","","","","","","","","",""
"","215.54499998455867","sequential-stimulus-presentation","99","340114","0.0-23.0-1.0","SS1613098679268","trial","","40","800","1015.5449999845587","images/stimuli/spore_stims/complex_14_A_d.gif","images/stimuli/spore_stims/complex_06_B_a.gif","","","","","5","complex_dissimilar","images/stimuli/spore_stims/complex_06_B_a.gif","left","","","","",""
"","null","html-keyboard-response","100","341076","0.0-23.0-0.1","SS1613098679268","","","null","","","","","<p><img src= images/blank.png width =""200"" height = ""200"" style = ""float:right""></p><p><img src=images/blank.png width =""800"" height = ""200""></p>","","","","","","","","","","","",""
"","116.19000002974644","sequential-stimulus-presentation","101","342002","0.0-23.0-1.1","SS1613098679268","trial","","40","800","916.1900000297464","images/stimuli/spore_stims/complex_14_A_d.gif","images/stimuli/spore_stims/complex_06_B_a.gif","","","","","5","complex_dissimilar","images/stimuli/spore_stims/complex_06_B_a.gif","left","","","","",""
"","null","html-keyboard-response","102","342925","0.0-23.0-0.2","SS1613098679268","","","null","","","","","<p><img src= images/blank.png width =""200"" height = ""200"" style = ""float:right""></p><p><img src=images/blank.png width =""800"" height = ""200""></p>","","","","","","","","","","","",""
"","158.70500000892207","sequential-stimulus-presentation","103","343922","0.0-23.0-1.2","SS1613098679268","trial","","40","800","958.7050000089221","images/stimuli/spore_stims/complex_14_A_d.gif","images/stimuli/spore_stims/complex_06_B_a.gif","","","","","5","complex_dissimilar","images/stimuli/spore_stims/complex_06_B_a.gif","left","","","","",""
"","null","html-keyboard-response","104","345187","0.0-23.0-0.3","SS1613098679268","","","null","","","","","<p><img src= images/blank.png width =""200"" height = ""200"" style = ""float:right""></p><p><img src=images/blank.png width =""800"" height = ""200""></p>","","","","","","","","","","","",""
"","6.185000005643815","sequential-stimulus-presentation","105","346005","0.0-23.0-1.3","SS1613098679268","trial","","40","800","806.1850000056438","images/stimuli/spore_stims/complex_14_A_d.gif","images/stimuli/spore_stims/complex_06_B_a.gif","","","","","5","complex_dissimilar","images/stimuli/spore_stims/complex_06_B_a.gif","left","","","","",""
"","null","html-keyboard-response","106","347126","0.0-23.0-0.4","SS1613098679268","","","null","","","","","<p><img src= images/blank.png width =""200"" height = ""200"" style = ""float:right""></p><p><img src=images/blank.png width =""800"" height = ""200""></p>","","","","","","","","","","","",""
"","31.48999996483326","sequential-stimulus-presentation","107","347969","0.0-23.0-1.4","SS1613098679268","trial","","40","800","831.4899999648333","images/stimuli/spore_stims/complex_14_A_d.gif","images/stimuli/spore_stims/complex_06_B_a.gif","","","","","5","complex_dissimilar","images/stimuli/spore_stims/complex_06_B_a.gif","left","","","","",""
"","null","html-keyboard-response","108","349217","0.0-23.0-0.5","SS1613098679268","","","null","","","","","<p><img src= images/blank.png width =""200"" height = ""200"" style = ""float:right""></p><p><img src=images/blank.png width =""800"" height = ""200""></p>","","","","","","","","","","","",""
"","376.2049999786541","sequential-stimulus-presentation","109","350406","0.0-23.0-1.5","SS1613098679268","trial","","40","800","1176.204999978654","images/stimuli/spore_stims/complex_14_A_d.gif","images/stimuli/spore_stims/complex_06_B_a.gif","","","","","5","complex_dissimilar","images/stimuli/spore_stims/complex_06_B_a.gif","left","","","","",""
"","null","html-keyboard-response","110","351446","0.0-23.0-0.6","SS1613098679268","","","null","","","","","<p><img src= images/blank.png width =""200"" height = ""200"" style = ""float:right""></p><p><img src=images/blank.png width =""800"" height = ""200""></p>","","","","","","","","","","","",""
"","630.2400000276975","sequential-stimulus-presentation","111","352897","0.0-23.0-1.6","SS1613098679268","trial","","40","800","1430.2400000276975","images/stimuli/spore_stims/complex_14_A_d.gif","images/stimuli/spore_stims/complex_06_B_a.gif","","","","","5","complex_dissimilar","images/stimuli/spore_stims/complex_14_A_d.gif","right","","","","",""
"","null","html-keyboard-response","112","353755","0.0-23.0-0.7","SS1613098679268","","","null","","","","","<p><img src= images/blank.png width =""200"" height = ""200"" style = ""float:right""></p><p><img src=images/blank.png width =""800"" height = ""200""></p>","","","","","","","","","","","",""
"","443.6349999741651","sequential-stimulus-presentation","113","355011","0.0-23.0-1.7","SS1613098679268","trial","","40","800","1243.634999974165","images/stimuli/spore_stims/complex_14_A_d.gif","images/stimuli/spore_stims/complex_06_B_a.gif","","","","","5","complex_dissimilar","images/stimuli/spore_stims/complex_06_B_a.gif","left","","","","",""
"","1448.6749999923632","html-keyboard-response","114","356474","0.0-24.0","SS1613098679268","pref_question","","50","","","","","<video width ='960' height = '540' style='padding-top:8%' autoplay muted><source src='images/stimuli/wall_pref.mp4' type='video/mp4'></video>","2","middle","45%","5","","","","","","","",""
"","1008.5650000255555","sequential-stimulus-presentation","115","358295","0.0-25.0","SS1613098679268","pref_reveal","","40","800","1808.5650000255555","null","null","","","","","5","","","","novel","","","",""
"","null","html-keyboard-response","116","359216","0.0-26.0-0.0","SS1613098679268","","","null","","","","","<p><img src= images/blank.png width =""200"" height = ""200"" style = ""float:right""></p><p><img src=images/blank.png width =""800"" height = ""200""></p>","","","","","","","","","","","",""
"","366.3550000055693","sequential-stimulus-presentation","117","360395","0.0-26.0-1.0","SS1613098679268","trial","","40","800","1166.3550000055693","images/stimuli/spore_stims/simple_09_B_c.gif","images/stimuli/spore_stims/simple_04_B_c.gif","","","","","6","simple_dissimilar","images/stimuli/spore_stims/simple_04_B_c.gif","middle","","","","",""
"","null","html-keyboard-response","118","361618","0.0-26.0-0.1","SS1613098679268","","","null","","","","","<p><img src= images/blank.png width =""200"" height = ""200"" style = ""float:right""></p><p><img src=images/blank.png width =""800"" height = ""200""></p>","","","","","","","","","","","",""
"","388.81999999284744","sequential-stimulus-presentation","119","362849","0.0-26.0-1.1","SS1613098679268","trial","","40","800","1188.8199999928474","images/stimuli/spore_stims/simple_09_B_c.gif","images/stimuli/spore_stims/simple_04_B_c.gif","","","","","6","simple_dissimilar","images/stimuli/spore_stims/simple_04_B_c.gif","middle","","","","",""
"","null","html-keyboard-response","120","363878","0.0-26.0-0.2","SS1613098679268","","","null","","","","","<p><img src= images/blank.png width =""200"" height = ""200"" style = ""float:right""></p><p><img src=images/blank.png width =""800"" height = ""200""></p>","","","","","","","","","","","",""
"","2632.8300000168383","sequential-stimulus-presentation","121","367323","0.0-26.0-1.2","SS1613098679268","trial","","40","800","3432.8300000168383","images/stimuli/spore_stims/simple_09_B_c.gif","images/stimuli/spore_stims/simple_04_B_c.gif","","","","","6","simple_dissimilar","images/stimuli/spore_stims/simple_04_B_c.gif","middle","","","","",""
"","null","html-keyboard-response","122","368356","0.0-26.0-0.3","SS1613098679268","","","null","","","","","<p><img src= images/blank.png width =""200"" height = ""200"" style = ""float:right""></p><p><img src=images/blank.png width =""800"" height = ""200""></p>","","","","","","","","","","","",""
"","185.73000002652407","sequential-stimulus-presentation","123","369355","0.0-26.0-1.3","SS1613098679268","trial","","40","800","985.7300000265241","images/stimuli/spore_stims/simple_09_B_c.gif","images/stimuli/spore_stims/simple_04_B_c.gif","","","","","6","simple_dissimilar","images/stimuli/spore_stims/simple_09_B_c.gif","left","","","","",""
"","null","html-keyboard-response","124","370547","0.0-26.0-0.4","SS1613098679268","","","null","","","","","<p><img src= images/blank.png width =""200"" height = ""200"" style = ""float:right""></p><p><img src=images/blank.png width =""800"" height = ""200""></p>","","","","","","","","","","","",""
"","272.50999998068437","sequential-stimulus-presentation","125","371638","0.0-26.0-1.4","SS1613098679268","trial","","40","800","1072.5099999806844","images/stimuli/spore_stims/simple_09_B_c.gif","images/stimuli/spore_stims/simple_04_B_c.gif","","","","","6","simple_dissimilar","images/stimuli/spore_stims/simple_04_B_c.gif","middle","","","","",""
"","null","html-keyboard-response","126","372496","0.0-26.0-0.5","SS1613098679268","","","null","","","","","<p><img src= images/blank.png width =""200"" height = ""200"" style = ""float:right""></p><p><img src=images/blank.png width =""800"" height = ""200""></p>","","","","","","","","","","","",""
"","58.28499997733161","sequential-stimulus-presentation","127","373366","0.0-26.0-1.5","SS1613098679268","trial","","40","800","858.2849999773316","images/stimuli/spore_stims/simple_09_B_c.gif","images/stimuli/spore_stims/simple_04_B_c.gif","","","","","6","simple_dissimilar","images/stimuli/spore_stims/simple_04_B_c.gif","middle","","","","",""
"","null","html-keyboard-response","128","374195","0.0-26.0-0.6","SS1613098679268","","","null","","","","","<p><img src= images/blank.png width =""200"" height = ""200"" style = ""float:right""></p><p><img src=images/blank.png width =""800"" height = ""200""></p>","","","","","","","","","","","",""
"","364.304999995511","sequential-stimulus-presentation","129","375400","0.0-26.0-1.6","SS1613098679268","trial","","40","800","1164.304999995511","images/stimuli/spore_stims/simple_09_B_c.gif","images/stimuli/spore_stims/simple_04_B_c.gif","","","","","6","simple_dissimilar","images/stimuli/spore_stims/simple_04_B_c.gif","middle","","","","",""
"","null","html-keyboard-response","130","376513","0.0-26.0-0.7","SS1613098679268","","","null","","","","","<p><img src= images/blank.png width =""200"" height = ""200"" style = ""float:right""></p><p><img src=images/blank.png width =""800"" height = ""200""></p>","","","","","","","","","","","",""
"","253.92499996814877","sequential-stimulus-presentation","131","377581","0.0-26.0-1.7","SS1613098679268","trial","","40","800","1053.9249999681488","images/stimuli/spore_stims/simple_09_B_c.gif","images/stimuli/spore_stims/simple_04_B_c.gif","","","","","6","simple_dissimilar","images/stimuli/spore_stims/simple_04_B_c.gif","middle","","","","",""
"","2136.965000012424","html-keyboard-response","132","379728","0.0-27.0","SS1613098679268","pref_question","","51","","","","","<video width ='960' height = '540' style='padding-top:8%' autoplay muted><source src='images/stimuli/wall_pref.mp4' type='video/mp4'></video>","3","right","66%","6","","","","","","","",""
"","832.1749999886379","sequential-stimulus-presentation","133","381375","0.0-28.0","SS1613098679268","pref_reveal","","40","800","1632.1749999886379","null","null","","","","","6","","","","novel","","","",""
"","null","html-keyboard-response","134","382556","0.0-29.0-0.0","SS1613098679268","","","null","","","","","<p><img src= images/blank.png width =""200"" height = ""200"" style = ""float:right""></p><p><img src=images/blank.png width =""800"" height = ""200""></p>","","","","","","","","","","","",""
"","163.78499998245388","sequential-stimulus-presentation","135","383537","0.0-29.0-1.0","SS1613098679268","trial","","40","800","963.7849999824539","images/stimuli/spore_stims/simple_12_A_a.gif","images/stimuli/spore_stims/simple_14_A_c.gif","","","","","7","simple_dissimilar","images/stimuli/spore_stims/simple_14_A_c.gif","right","","","","",""
"","null","html-keyboard-response","136","384363","0.0-29.0-0.1","SS1613098679268","","","null","","","","","<p><img src= images/blank.png width =""200"" height = ""200"" style = ""float:right""></p><p><img src=images/blank.png width =""800"" height = ""200""></p>","","","","","","","","","","","",""
"","129.11999999778345","sequential-stimulus-presentation","137","385305","0.0-29.0-1.1","SS1613098679268","trial","","40","800","929.1199999977835","images/stimuli/spore_stims/simple_12_A_a.gif","images/stimuli/spore_stims/simple_14_A_c.gif","","","","","7","simple_dissimilar","images/stimuli/spore_stims/simple_14_A_c.gif","right","","","","",""
"","null","html-keyboard-response","138","386420","0.0-29.0-0.2","SS1613098679268","","","null","","","","","<p><img src= images/blank.png width =""200"" height = ""200"" style = ""float:right""></p><p><img src=images/blank.png width =""800"" height = ""200""></p>","","","","","","","","","","","",""
"","98.91000000061467","sequential-stimulus-presentation","139","387328","0.0-29.0-1.2","SS1613098679268","trial","","40","800","898.9100000006147","images/stimuli/spore_stims/simple_12_A_a.gif","images/stimuli/spore_stims/simple_14_A_c.gif","","","","","7","simple_dissimilar","images/stimuli/spore_stims/simple_14_A_c.gif","right","","","","",""
"","null","html-keyboard-response","140","388499","0.0-29.0-0.3","SS1613098679268","","","null","","","","","<p><img src= images/blank.png width =""200"" height = ""200"" style = ""float:right""></p><p><img src=images/blank.png width =""800"" height = ""200""></p>","","","","","","","","","","","",""
"","141.0899999900721","sequential-stimulus-presentation","141","389454","0.0-29.0-1.3","SS1613098679268","trial","","40","800","941.0899999900721","images/stimuli/spore_stims/simple_12_A_a.gif","images/stimuli/spore_stims/simple_14_A_c.gif","","","","","7","simple_dissimilar","images/stimuli/spore_stims/simple_14_A_c.gif","right","","","","",""
"","null","html-keyboard-response","142","390691","0.0-29.0-0.4","SS1613098679268","","","null","","","","","<p><img src= images/blank.png width =""200"" height = ""200"" style = ""float:right""></p><p><img src=images/blank.png width =""800"" height = ""200""></p>","","","","","","","","","","","",""
"","236.00999999325722","sequential-stimulus-presentation","143","391739","0.0-29.0-1.4","SS1613098679268","trial","","40","800","1036.0099999932572","images/stimuli/spore_stims/simple_12_A_a.gif","images/stimuli/spore_stims/simple_14_A_c.gif","","","","","7","simple_dissimilar","images/stimuli/spore_stims/simple_14_A_c.gif","right","","","","",""
"","null","html-keyboard-response","144","392897","0.0-29.0-0.5","SS1613098679268","","","null","","","","","<p><img src= images/blank.png width =""200"" height = ""200"" style = ""float:right""></p><p><img src=images/blank.png width =""800"" height = ""200""></p>","","","","","","","","","","","",""
"","227.31499996734783","sequential-stimulus-presentation","145","393938","0.0-29.0-1.5","SS1613098679268","trial","","40","800","1027.3149999673478","images/stimuli/spore_stims/simple_12_A_a.gif","images/stimuli/spore_stims/simple_14_A_c.gif","","","","","7","simple_dissimilar","images/stimuli/spore_stims/simple_12_A_a.gif","left","","","","",""
"","null","html-keyboard-response","146","394756","0.0-29.0-0.6","SS1613098679268","","","null","","","","","<p><img src= images/blank.png width =""200"" height = ""200"" style = ""float:right""></p><p><img src=images/blank.png width =""800"" height = ""200""></p>","","","","","","","","","","","",""
"","718.8200000091456","sequential-stimulus-presentation","147","396285","0.0-29.0-1.6","SS1613098679268","trial","","40","800","1518.8200000091456","images/stimuli/spore_stims/simple_12_A_a.gif","images/stimuli/spore_stims/simple_14_A_c.gif","","","","","7","simple_dissimilar","images/stimuli/spore_stims/simple_14_A_c.gif","right","","","","",""
"","null","html-keyboard-response","148","397205","0.0-29.0-0.7","SS1613098679268","","","null","","","","","<p><img src= images/blank.png width =""200"" height = ""200"" style = ""float:right""></p><p><img src=images/blank.png width =""800"" height = ""200""></p>","","","","","","","","","","","",""
"","201.44999999320135","sequential-stimulus-presentation","149","398221","0.0-29.0-1.7","SS1613098679268","trial","","40","800","1001.4499999932013","images/stimuli/spore_stims/simple_12_A_a.gif","images/stimuli/spore_stims/simple_14_A_c.gif","","","","","7","simple_dissimilar","images/stimuli/spore_stims/simple_14_A_c.gif","right","","","","",""
"","2815.019999979995","html-keyboard-response","150","401049","0.0-30.0","SS1613098679268","pref_question","","50","","","","","<video width ='960' height = '540' style='padding-top:8%' autoplay muted><source src='images/stimuli/wall_pref.mp4' type='video/mp4'></video>","2","middle","45%","7","","","","","","","",""
"","42.83500002929941","sequential-stimulus-presentation","151","401906","0.0-31.0","SS1613098679268","pref_reveal","","40","800","842.8350000292994","null","null","","","","","7","","","","novel","","","",""
"","null","html-keyboard-response","152","402822","0.0-32.0-0.0","SS1613098679268","","","null","","","","","<p><img src= images/blank.png width =""200"" height = ""200"" style = ""float:right""></p><p><img src=images/blank.png width =""800"" height = ""200""></p>","","","","","","","","","","","",""
"","86.08999999705702","sequential-stimulus-presentation","153","403720","0.0-32.0-1.0","SS1613098679268","trial","","40","800","886.089999997057","images/stimuli/spore_stims/complex_10_B_c.gif","images/stimuli/spore_stims/complex_10_A_c.gif","","","","","8","complex_similar","images/stimuli/spore_stims/complex_10_A_c.gif","left","","","","",""
"","null","html-keyboard-response","154","404619","0.0-32.0-0.1","SS1613098679268","","","null","","","","","<p><img src= images/blank.png width =""200"" height = ""200"" style = ""float:right""></p><p><img src=images/blank.png width =""800"" height = ""200""></p>","","","","","","","","","","","",""
"","142.38500001374632","sequential-stimulus-presentation","155","405578","0.0-32.0-1.1","SS1613098679268","trial","","40","800","942.3850000137463","images/stimuli/spore_stims/complex_10_B_c.gif","images/stimuli/spore_stims/complex_10_A_c.gif","","","","","8","complex_similar","images/stimuli/spore_stims/complex_10_A_c.gif","left","","","","",""
"","null","html-keyboard-response","156","406886","0.0-32.0-0.2","SS1613098679268","","","null","","","","","<p><img src= images/blank.png width =""200"" height = ""200"" style = ""float:right""></p><p><img src=images/blank.png width =""800"" height = ""200""></p>","","","","","","","","","","","",""
"","176.90000002039596","sequential-stimulus-presentation","157","407877","0.0-32.0-1.2","SS1613098679268","trial","","40","800","976.900000020396","images/stimuli/spore_stims/complex_10_B_c.gif","images/stimuli/spore_stims/complex_10_A_c.gif","","","","","8","complex_similar","images/stimuli/spore_stims/complex_10_A_c.gif","left","","","","",""
"","null","html-keyboard-response","158","409172","0.0-32.0-0.3","SS1613098679268","","","null","","","","","<p><img src= images/blank.png width =""200"" height = ""200"" style = ""float:right""></p><p><img src=images/blank.png width =""800"" height = ""200""></p>","","","","","","","","","","","",""
"","542.9450000519864","sequential-stimulus-presentation","159","410529","0.0-32.0-1.3","SS1613098679268","trial","","40","800","1342.9450000519864","images/stimuli/spore_stims/complex_10_B_c.gif","images/stimuli/spore_stims/complex_10_A_c.gif","","","","","8","complex_similar","images/stimuli/spore_stims/complex_10_A_c.gif","left","","","","",""
"","null","html-keyboard-response","160","411462","0.0-32.0-0.4","SS1613098679268","","","null","","","","","<p><img src= images/blank.png width =""200"" height = ""200"" style = ""float:right""></p><p><img src=images/blank.png width =""800"" height = ""200""></p>","","","","","","","","","","","",""
"","254.91499999770895","sequential-stimulus-presentation","161","412529","0.0-32.0-1.4","SS1613098679268","trial","","40","800","1054.914999997709","images/stimuli/spore_stims/complex_10_B_c.gif","images/stimuli/spore_stims/complex_10_A_c.gif","","","","","8","complex_similar","images/stimuli/spore_stims/complex_10_B_c.gif","middle","","","","",""
"","null","html-keyboard-response","162","413600","0.0-32.0-0.5","SS1613098679268","","","null","","","","","<p><img src= images/blank.png width =""200"" height = ""200"" style = ""float:right""></p><p><img src=images/blank.png width =""800"" height = ""200""></p>","","","","","","","","","","","",""
"","307.73499998031184","sequential-stimulus-presentation","163","414737","0.0-32.0-1.5","SS1613098679268","trial","","40","800","1107.7349999803118","images/stimuli/spore_stims/complex_10_B_c.gif","images/stimuli/spore_stims/complex_10_A_c.gif","","","","","8","complex_similar","images/stimuli/spore_stims/complex_10_A_c.gif","left","","","","",""
"","null","html-keyboard-response","164","415983","0.0-32.0-0.6","SS1613098679268","","","null","","","","","<p><img src= images/blank.png width =""200"" height = ""200"" style = ""float:right""></p><p><img src=images/blank.png width =""800"" height = ""200""></p>","","","","","","","","","","","",""
"","60.544999956618994","sequential-stimulus-presentation","165","416858","0.0-32.0-1.6","SS1613098679268","trial","","40","800","860.544999956619","images/stimuli/spore_stims/complex_10_B_c.gif","images/stimuli/spore_stims/complex_10_A_c.gif","","","","","8","complex_similar","images/stimuli/spore_stims/complex_10_A_c.gif","left","","","","",""
"","null","html-keyboard-response","166","417783","0.0-32.0-0.7","SS1613098679268","","","null","","","","","<p><img src= images/blank.png width =""200"" height = ""200"" style = ""float:right""></p><p><img src=images/blank.png width =""800"" height = ""200""></p>","","","","","","","","","","","",""
"","19.434999965596944","sequential-stimulus-presentation","167","418617","0.0-32.0-1.7","SS1613098679268","trial","","40","800","819.434999965597","images/stimuli/spore_stims/complex_10_B_c.gif","images/stimuli/spore_stims/complex_10_A_c.gif","","","","","8","complex_similar","images/stimuli/spore_stims/complex_10_A_c.gif","left","","","","",""
"","2327.1899999817833","html-keyboard-response","168","420955","0.0-33.0","SS1613098679268","pref_question","","49","","","","","<video width ='960' height = '540' style='padding-top:8%' autoplay muted><source src='images/stimuli/wall_pref.mp4' type='video/mp4'></video>","1","left","25%","8","","","","","","","",""
"","216.92500001518056","sequential-stimulus-presentation","169","421986","0.0-34.0","SS1613098679268","pref_reveal","","40","800","1016.9250000151806","null","null","","","","","8","","","","background","","","",""
"","null","html-keyboard-response","170","422896","0.0-35.0-0.0","SS1613098679268","","","null","","","","","<p><img src= images/blank.png width =""200"" height = ""200"" style = ""float:right""></p><p><img src=images/blank.png width =""800"" height = ""200""></p>","","","","","","","","","","","",""
"","46.39500001212582","sequential-stimulus-presentation","171","423756","0.0-35.0-1.0","SS1613098679268","trial","","40","800","846.3950000121258","images/stimuli/spore_stims/complex_16_A_a.gif","images/stimuli/spore_stims/complex_16_B_a.gif","","","","","9","complex_similar","images/stimuli/spore_stims/complex_16_B_a.gif","middle","","","","",""
"","null","html-keyboard-response","172","424870","0.0-35.0-0.1","SS1613098679268","","","null","","","","","<p><img src= images/blank.png width =""200"" height = ""200"" style = ""float:right""></p><p><img src=images/blank.png width =""800"" height = ""200""></p>","","","","","","","","","","","",""
"","30.599999998230487","sequential-stimulus-presentation","173","425709","0.0-35.0-1.1","SS1613098679268","trial","","40","800","830.5999999982305","images/stimuli/spore_stims/complex_16_A_a.gif","images/stimuli/spore_stims/complex_16_B_a.gif","","","","","9","complex_similar","images/stimuli/spore_stims/complex_16_B_a.gif","middle","","","","",""
"","null","html-keyboard-response","174","426772","0.0-35.0-0.2","SS1613098679268","","","null","","","","","<p><img src= images/blank.png width =""200"" height = ""200"" style = ""float:right""></p><p><img src=images/blank.png width =""800"" height = ""200""></p>","","","","","","","","","","","",""
"","305.88499997975305","sequential-stimulus-presentation","175","427892","0.0-35.0-1.2","SS1613098679268","trial","","40","800","1105.884999979753","images/stimuli/spore_stims/complex_16_A_a.gif","images/stimuli/spore_stims/complex_16_B_a.gif","","","","","9","complex_similar","images/stimuli/spore_stims/complex_16_B_a.gif","middle","","","","",""
"","null","html-keyboard-response","176","428864","0.0-35.0-0.3","SS1613098679268","","","null","","","","","<p><img src= images/blank.png width =""200"" height = ""200"" style = ""float:right""></p><p><img src=images/blank.png width =""800"" height = ""200""></p>","","","","","","","","","","","",""
"","297.22500004572794","sequential-stimulus-presentation","177","429974","0.0-35.0-1.3","SS1613098679268","trial","","40","800","1097.225000045728","images/stimuli/spore_stims/complex_16_A_a.gif","images/stimuli/spore_stims/complex_16_B_a.gif","","","","","9","complex_similar","images/stimuli/spore_stims/complex_16_B_a.gif","middle","","","","",""
"","null","html-keyboard-response","178","431071","0.0-35.0-0.4","SS1613098679268","","","null","","","","","<p><img src= images/blank.png width =""200"" height = ""200"" style = ""float:right""></p><p><img src=images/blank.png width =""800"" height = ""200""></p>","","","","","","","","","","","",""
"","108.04500000085682","sequential-stimulus-presentation","179","432019","0.0-35.0-1.4","SS1613098679268","trial","","40","800","908.0450000008568","images/stimuli/spore_stims/complex_16_A_a.gif","images/stimuli/spore_stims/complex_16_B_a.gif","","","","","9","complex_similar","images/stimuli/spore_stims/complex_16_B_a.gif","middle","","","","",""
"","null","html-keyboard-response","180","432948","0.0-35.0-0.5","SS1613098679268","","","null","","","","","<p><img src= images/blank.png width =""200"" height = ""200"" style = ""float:right""></p><p><img src=images/blank.png width =""800"" height = ""200""></p>","","","","","","","","","","","",""
"","98.69999997317791","sequential-stimulus-presentation","181","433861","0.0-35.0-1.5","SS1613098679268","trial","","40","800","898.6999999731779","images/stimuli/spore_stims/complex_16_A_a.gif","images/stimuli/spore_stims/complex_16_B_a.gif","","","","","9","complex_similar","images/stimuli/spore_stims/complex_16_B_a.gif","middle","","","","",""
"","null","html-keyboard-response","182","434736","0.0-35.0-0.6","SS1613098679268","","","null","","","","","<p><img src= images/blank.png width =""200"" height = ""200"" style = ""float:right""></p><p><img src=images/blank.png width =""800"" height = ""200""></p>","","","","","","","","","","","",""
"","1524.604999984149","sequential-stimulus-presentation","183","437076","0.0-35.0-1.6","SS1613098679268","trial","","40","800","2324.604999984149","images/stimuli/spore_stims/complex_16_A_a.gif","images/stimuli/spore_stims/complex_16_B_a.gif","","","","","9","complex_similar","images/stimuli/spore_stims/complex_16_B_a.gif","middle","","","","",""
"","null","html-keyboard-response","184","438352","0.0-35.0-0.7","SS1613098679268","","","null","","","","","<p><img src= images/blank.png width =""200"" height = ""200"" style = ""float:right""></p><p><img src=images/blank.png width =""800"" height = ""200""></p>","","","","","","","","","","","",""
"","25.650000025052577","sequential-stimulus-presentation","185","439227","0.0-35.0-1.7","SS1613098679268","trial","","40","800","825.6500000250526","images/stimuli/spore_stims/complex_16_A_a.gif","images/stimuli/spore_stims/complex_16_B_a.gif","","","","","9","complex_similar","images/stimuli/spore_stims/complex_16_A_a.gif","right","","","","",""
"","2159.395000024233","html-keyboard-response","186","441397","0.0-36.0","SS1613098679268","pref_question","","51","","","","","<video width ='960' height = '540' style='padding-top:8%' autoplay muted><source src='images/stimuli/wall_pref.mp4' type='video/mp4'></video>","3","right","66%","9","","","","","","","",""
"","64.49499999871477","sequential-stimulus-presentation","187","442278","0.0-37.0","SS1613098679268","pref_reveal","","40","800","864.4949999987148","null","null","","","","","9","","","","deviant","","","",""
"","null","html-keyboard-response","188","443527","0.0-38.0-0.0","SS1613098679268","","","null","","","","","<p><img src= images/blank.png width =""200"" height = ""200"" style = ""float:right""></p><p><img src=images/blank.png width =""800"" height = ""200""></p>","","","","","","","","","","","",""
"","222.33999997843057","sequential-stimulus-presentation","189","444564","0.0-38.0-1.0","SS1613098679268","trial","","40","800","1022.3399999784306","images/stimuli/spore_stims/simple_08_B_d.gif","images/stimuli/spore_stims/simple_01_B_d.gif","","","","","10","simple_dissimilar","images/stimuli/spore_stims/simple_01_B_d.gif","middle","","","","",""
"","null","html-keyboard-response","190","445715","0.0-38.0-0.1","SS1613098679268","","","null","","","","","<p><img src= images/blank.png width =""200"" height = ""200"" style = ""float:right""></p><p><img src=images/blank.png width =""800"" height = ""200""></p>","","","","","","","","","","","",""
"","217.58500003488734","sequential-stimulus-presentation","191","446748","0.0-38.0-1.1","SS1613098679268","trial","","40","800","1017.5850000348873","images/stimuli/spore_stims/simple_08_B_d.gif","images/stimuli/spore_stims/simple_01_B_d.gif","","","","","10","simple_dissimilar","images/stimuli/spore_stims/simple_01_B_d.gif","middle","","","","",""
"","null","html-keyboard-response","192","447880","0.0-38.0-0.2","SS1613098679268","","","null","","","","","<p><img src= images/blank.png width =""200"" height = ""200"" style = ""float:right""></p><p><img src=images/blank.png width =""800"" height = ""200""></p>","","","","","","","","","","","",""
"","140.83000004757196","sequential-stimulus-presentation","193","448836","0.0-38.0-1.2","SS1613098679268","trial","","40","800","940.830000047572","images/stimuli/spore_stims/simple_08_B_d.gif","images/stimuli/spore_stims/simple_01_B_d.gif","","","","","10","simple_dissimilar","images/stimuli/spore_stims/simple_01_B_d.gif","middle","","","","",""
"","null","html-keyboard-response","194","449837","0.0-38.0-0.3","SS1613098679268","","","null","","","","","<p><img src= images/blank.png width =""200"" height = ""200"" style = ""float:right""></p><p><img src=images/blank.png width =""800"" height = ""200""></p>","","","","","","","","","","","",""
"","343.6000000219792","sequential-stimulus-presentation","195","450998","0.0-38.0-1.3","SS1613098679268","trial","","40","800","1143.6000000219792","images/stimuli/spore_stims/simple_08_B_d.gif","images/stimuli/spore_stims/simple_01_B_d.gif","","","","","10","simple_dissimilar","images/stimuli/spore_stims/simple_01_B_d.gif","middle","","","","",""
"","null","html-keyboard-response","196","452140","0.0-38.0-0.4","SS1613098679268","","","null","","","","","<p><img src= images/blank.png width =""200"" height = ""200"" style = ""float:right""></p><p><img src=images/blank.png width =""800"" height = ""200""></p>","","","","","","","","","","","",""
"","3.535000025294721","sequential-stimulus-presentation","197","452958","0.0-38.0-1.4","SS1613098679268","trial","","40","800","803.5350000252947","images/stimuli/spore_stims/simple_08_B_d.gif","images/stimuli/spore_stims/simple_01_B_d.gif","","","","","10","simple_dissimilar","images/stimuli/spore_stims/simple_08_B_d.gif","left","","","","",""
"","null","html-keyboard-response","198","454196","0.0-38.0-0.5","SS1613098679268","","","null","","","","","<p><img src= images/blank.png width =""200"" height = ""200"" style = ""float:right""></p><p><img src=images/blank.png width =""800"" height = ""200""></p>","","","","","","","","","","","",""
"","362.31499997666106","sequential-stimulus-presentation","199","455374","0.0-38.0-1.5","SS1613098679268","trial","","40","800","1162.314999976661","images/stimuli/spore_stims/simple_08_B_d.gif","images/stimuli/spore_stims/simple_01_B_d.gif","","","","","10","simple_dissimilar","images/stimuli/spore_stims/simple_01_B_d.gif","middle","","","","",""
"","null","html-keyboard-response","200","456566","0.0-38.0-0.6","SS1613098679268","","","null","","","","","<p><img src= images/blank.png width =""200"" height = ""200"" style = ""float:right""></p><p><img src=images/blank.png width =""800"" height = ""200""></p>","","","","","","","","","","","",""
"","55.24499999592081","sequential-stimulus-presentation","201","457438","0.0-38.0-1.6","SS1613098679268","trial","","40","800","855.2449999959208","images/stimuli/spore_stims/simple_08_B_d.gif","images/stimuli/spore_stims/simple_01_B_d.gif","","","","","10","simple_dissimilar","images/stimuli/spore_stims/simple_01_B_d.gif","middle","","","","",""
"","null","html-keyboard-response","202","458317","0.0-38.0-0.7","SS1613098679268","","","null","","","","","<p><img src= images/blank.png width =""200"" height = ""200"" style = ""float:right""></p><p><img src=images/blank.png width =""800"" height = ""200""></p>","","","","","","","","","","","",""
"","235.12500000651926","sequential-stimulus-presentation","203","459366","0.0-38.0-1.7","SS1613098679268","trial","","40","800","1035.1250000065193","images/stimuli/spore_stims/simple_08_B_d.gif","images/stimuli/spore_stims/simple_01_B_d.gif","","","","","10","simple_dissimilar","images/stimuli/spore_stims/simple_01_B_d.gif","middle","","","","",""
"","1803.925000014715","html-keyboard-response","204","461184","0.0-39.0","SS1613098679268","pref_question","","49","","","","","<video width ='960' height = '540' style='padding-top:8%' autoplay muted><source src='images/stimuli/wall_pref.mp4' type='video/mp4'></video>","1","left","25%","10","","","","","","","",""
"","148.68500002194196","sequential-stimulus-presentation","205","462151","0.0-40.0","SS1613098679268","pref_reveal","","40","800","948.685000021942","null","null","","","","","10","","","","deviant","","","",""
"","null","html-keyboard-response","206","463283","0.0-41.0-0.0","SS1613098679268","","","null","","","","","<p><img src= images/blank.png width =""200"" height = ""200"" style = ""float:right""></p><p><img src=images/blank.png width =""800"" height = ""200""></p>","","","","","","","","","","","",""
"","206.4249999821186","sequential-stimulus-presentation","207","464305","0.0-41.0-1.0","SS1613098679268","trial","","40","800","1006.4249999821186","images/stimuli/spore_stims/complex_08_A_d.gif","images/stimuli/spore_stims/complex_08_B_d.gif","","","","","11","complex_similar","images/stimuli/spore_stims/complex_08_B_d.gif","left","","","","",""
"","null","html-keyboard-response","208","465193","0.0-41.0-0.1","SS1613098679268","","","null","","","","","<p><img src= images/blank.png width =""200"" height = ""200"" style = ""float:right""></p><p><img src=images/blank.png width =""800"" height = ""200""></p>","","","","","","","","","","","",""
"","74.58499999484047","sequential-stimulus-presentation","209","466076","0.0-41.0-1.1","SS1613098679268","trial","","40","800","874.5849999948405","images/stimuli/spore_stims/complex_08_A_d.gif","images/stimuli/spore_stims/complex_08_B_d.gif","","","","","11","complex_similar","images/stimuli/spore_stims/complex_08_B_d.gif","left","","","","",""
"","null","html-keyboard-response","210","467115","0.0-41.0-0.2","SS1613098679268","","","null","","","","","<p><img src= images/blank.png width =""200"" height = ""200"" style = ""float:right""></p><p><img src=images/blank.png width =""800"" height = ""200""></p>","","","","","","","","","","","",""
"","86.88000001711771","sequential-stimulus-presentation","211","468038","0.0-41.0-1.2","SS1613098679268","trial","","40","800","886.8800000171177","images/stimuli/spore_stims/complex_08_A_d.gif","images/stimuli/spore_stims/complex_08_B_d.gif","","","","","11","complex_similar","images/stimuli/spore_stims/complex_08_A_d.gif","middle","","","","",""
"","null","html-keyboard-response","212","469272","0.0-41.0-0.3","SS1613098679268","","","null","","","","","<p><img src= images/blank.png width =""200"" height = ""200"" style = ""float:right""></p><p><img src=images/blank.png width =""800"" height = ""200""></p>","","","","","","","","","","","",""
"","314.91000001551583","sequential-stimulus-presentation","213","470400","0.0-41.0-1.3","SS1613098679268","trial","","40","800","1114.9100000155158","images/stimuli/spore_stims/complex_08_A_d.gif","images/stimuli/spore_stims/complex_08_B_d.gif","","","","","11","complex_similar","images/stimuli/spore_stims/complex_08_B_d.gif","left","","","","",""
"","null","html-keyboard-response","214","471519","0.0-41.0-0.4","SS1613098679268","","","null","","","","","<p><img src= images/blank.png width =""200"" height = ""200"" style = ""float:right""></p><p><img src=images/blank.png width =""800"" height = ""200""></p>","","","","","","","","","","","",""
"","35.059999965596944","sequential-stimulus-presentation","215","472370","0.0-41.0-1.4","SS1613098679268","trial","","40","800","835.059999965597","images/stimuli/spore_stims/complex_08_A_d.gif","images/stimuli/spore_stims/complex_08_B_d.gif","","","","","11","complex_similar","images/stimuli/spore_stims/complex_08_B_d.gif","left","","","","",""
"","null","html-keyboard-response","216","473456","0.0-41.0-0.5","SS1613098679268","","","null","","","","","<p><img src= images/blank.png width =""200"" height = ""200"" style = ""float:right""></p><p><img src=images/blank.png width =""800"" height = ""200""></p>","","","","","","","","","","","",""
"","379.4999999809079","sequential-stimulus-presentation","217","474650","0.0-41.0-1.5","SS1613098679268","trial","","40","800","1179.499999980908","images/stimuli/spore_stims/complex_08_A_d.gif","images/stimuli/spore_stims/complex_08_B_d.gif","","","","","11","complex_similar","images/stimuli/spore_stims/complex_08_B_d.gif","left","","","","",""
"","null","html-keyboard-response","218","475581","0.0-41.0-0.6","SS1613098679268","","","null","","","","","<p><img src= images/blank.png width =""200"" height = ""200"" style = ""float:right""></p><p><img src=images/blank.png width =""800"" height = ""200""></p>","","","","","","","","","","","",""
"","151.96500002639368","sequential-stimulus-presentation","219","476547","0.0-41.0-1.6","SS1613098679268","trial","","40","800","951.9650000263937","images/stimuli/spore_stims/complex_08_A_d.gif","images/stimuli/spore_stims/complex_08_B_d.gif","","","","","11","complex_similar","images/stimuli/spore_stims/complex_08_B_d.gif","left","","","","",""
"","null","html-keyboard-response","220","477566","0.0-41.0-0.7","SS1613098679268","","","null","","","","","<p><img src= images/blank.png width =""200"" height = ""200"" style = ""float:right""></p><p><img src=images/blank.png width =""800"" height = ""200""></p>","","","","","","","","","","","",""
"","17.229999997653067","sequential-stimulus-presentation","221","478405","0.0-41.0-1.7","SS1613098679268","trial","","40","800","817.2299999976531","images/stimuli/spore_stims/complex_08_A_d.gif","images/stimuli/spore_stims/complex_08_B_d.gif","","","","","11","complex_similar","images/stimuli/spore_stims/complex_08_B_d.gif","left","","","","",""
"","1986.4200000301935","html-keyboard-response","222","480411","0.0-42.0","SS1613098679268","pref_question","","51","","","","","<video width ='960' height = '540' style='padding-top:8%' autoplay muted><source src='images/stimuli/wall_pref.mp4' type='video/mp4'></video>","3","right","66%","11","","","","","","","",""
"","844.7149999556132","sequential-stimulus-presentation","223","482072","0.0-43.0","SS1613098679268","pref_reveal","","40","800","1644.7149999556132","null","null","","","","","11","","","","novel","","","",""
"","null","html-keyboard-response","224","483182","0.0-44.0-0.0","SS1613098679268","","","null","","","","","<p><img src= images/blank.png width =""200"" height = ""200"" style = ""float:right""></p><p><img src=images/blank.png width =""800"" height = ""200""></p>","","","","","","","","","","","",""
"","94.2149999900721","sequential-stimulus-presentation","225","484095","0.0-44.0-1.0","SS1613098679268","trial","","40","800","894.2149999900721","images/stimuli/spore_stims/simple_15_B_a.gif","images/stimuli/spore_stims/simple_15_A_a.gif","","","","","12","simple_similar","images/stimuli/spore_stims/simple_15_A_a.gif","left","","","","",""
"","null","html-keyboard-response","226","485344","0.0-44.0-0.1","SS1613098679268","","","null","","","","","<p><img src= images/blank.png width =""200"" height = ""200"" style = ""float:right""></p><p><img src=images/blank.png width =""800"" height = ""200""></p>","","","","","","","","","","","",""
"","361.90000001806766","sequential-stimulus-presentation","227","486520","0.0-44.0-1.1","SS1613098679268","trial","","40","800","1161.9000000180677","images/stimuli/spore_stims/simple_15_B_a.gif","images/stimuli/spore_stims/simple_15_A_a.gif","","","","","12","simple_similar","images/stimuli/spore_stims/simple_15_A_a.gif","left","","","","",""
"","null","html-keyboard-response","228","487698","0.0-44.0-0.2","SS1613098679268","","","null","","","","","<p><img src= images/blank.png width =""200"" height = ""200"" style = ""float:right""></p><p><img src=images/blank.png width =""800"" height = ""200""></p>","","","","","","","","","","","",""
"","269.9750000028871","sequential-stimulus-presentation","229","488784","0.0-44.0-1.2","SS1613098679268","trial","","40","800","1069.975000002887","images/stimuli/spore_stims/simple_15_B_a.gif","images/stimuli/spore_stims/simple_15_A_a.gif","","","","","12","simple_similar","images/stimuli/spore_stims/simple_15_A_a.gif","left","","","","",""
"","null","html-keyboard-response","230","489938","0.0-44.0-0.3","SS1613098679268","","","null","","","","","<p><img src= images/blank.png width =""200"" height = ""200"" style = ""float:right""></p><p><img src=images/blank.png width =""800"" height = ""200""></p>","","","","","","","","","","","",""
"","396.58000000054017","sequential-stimulus-presentation","231","491151","0.0-44.0-1.3","SS1613098679268","trial","","40","800","1196.5800000005402","images/stimuli/spore_stims/simple_15_B_a.gif","images/stimuli/spore_stims/simple_15_A_a.gif","","","","","12","simple_similar","images/stimuli/spore_stims/simple_15_A_a.gif","left","","","","",""
"","null","html-keyboard-response","232","492180","0.0-44.0-0.4","SS1613098679268","","","null","","","","","<p><img src= images/blank.png width =""200"" height = ""200"" style = ""float:right""></p><p><img src=images/blank.png width =""800"" height = ""200""></p>","","","","","","","","","","","",""
"","177.0150000229478","sequential-stimulus-presentation","233","493174","0.0-44.0-1.4","SS1613098679268","trial","","40","800","977.0150000229478","images/stimuli/spore_stims/simple_15_B_a.gif","images/stimuli/spore_stims/simple_15_A_a.gif","","","","","12","simple_similar","images/stimuli/spore_stims/simple_15_A_a.gif","left","","","","",""
"","null","html-keyboard-response","234","494389","0.0-44.0-0.5","SS1613098679268","","","null","","","","","<p><img src= images/blank.png width =""200"" height = ""200"" style = ""float:right""></p><p><img src=images/blank.png width =""800"" height = ""200""></p>","","","","","","","","","","","",""
"","201.92500000121072","sequential-stimulus-presentation","235","495438","0.0-44.0-1.5","SS1613098679268","trial","","40","800","1001.9250000012107","images/stimuli/spore_stims/simple_15_B_a.gif","images/stimuli/spore_stims/simple_15_A_a.gif","","","","","12","simple_similar","images/stimuli/spore_stims/simple_15_A_a.gif","left","","","","",""
"","null","html-keyboard-response","236","496636","0.0-44.0-0.6","SS1613098679268","","","null","","","","","<p><img src= images/blank.png width =""200"" height = ""200"" style = ""float:right""></p><p><img src=images/blank.png width =""800"" height = ""200""></p>","","","","","","","","","","","",""
"","379.7400000039488","sequential-stimulus-presentation","237","497835","0.0-44.0-1.6","SS1613098679268","trial","","40","800","1179.7400000039488","images/stimuli/spore_stims/simple_15_B_a.gif","images/stimuli/spore_stims/simple_15_A_a.gif","","","","","12","simple_similar","images/stimuli/spore_stims/simple_15_B_a.gif","right","","","","",""
"","null","html-keyboard-response","238","499131","0.0-44.0-0.7","SS1613098679268","","","null","","","","","<p><img src= images/blank.png width =""200"" height = ""200"" style = ""float:right""></p><p><img src=images/blank.png width =""800"" height = ""200""></p>","","","","","","","","","","","",""
"","90.8350000390783","sequential-stimulus-presentation","239","500040","0.0-44.0-1.7","SS1613098679268","trial","","40","800","890.8350000390783","images/stimuli/spore_stims/simple_15_B_a.gif","images/stimuli/spore_stims/simple_15_A_a.gif","","","","","12","simple_similar","images/stimuli/spore_stims/simple_15_A_a.gif","left","","","","",""
"","3643.080000008922","html-keyboard-response","240","503698","0.0-45.0","SS1613098679268","pref_question","","51","","","","","<video width ='960' height = '540' style='padding-top:8%' autoplay muted><source src='images/stimuli/wall_pref.mp4' type='video/mp4'></video>","3","right","66%","12","","","","","","","",""
"","531.5450000343844","sequential-stimulus-presentation","241","505048","0.0-46.0","SS1613098679268","pref_reveal","","40","800","1331.5450000343844","null","null","","","","","12","","","","deviant","","","",""
"","null","html-keyboard-response","242","506029","0.0-47.0-0.0","SS1613098679268","","","null","","","","","<p><img src= images/blank.png width =""200"" height = ""200"" style = ""float:right""></p><p><img src=images/blank.png width =""800"" height = ""200""></p>","","","","","","","","","","","",""
"","56.62499996833503","sequential-stimulus-presentation","243","506903","0.0-47.0-1.0","SS1613098679268","trial","","40","800","856.624999968335","images/stimuli/spore_stims/simple_10_A_c.gif","images/stimuli/spore_stims/simple_20_B_b.gif","","","","","13","simple_dissimilar","images/stimuli/spore_stims/simple_20_B_b.gif","right","","","","",""
"","null","html-keyboard-response","244","508166","0.0-47.0-0.1","SS1613098679268","","","null","","","","","<p><img src= images/blank.png width =""200"" height = ""200"" style = ""float:right""></p><p><img src=images/blank.png width =""800"" height = ""200""></p>","","","","","","","","","","","",""
"","508.34000000031665","sequential-stimulus-presentation","245","509491","0.0-47.0-1.1","SS1613098679268","trial","","40","800","1308.3400000003166","images/stimuli/spore_stims/simple_10_A_c.gif","images/stimuli/spore_stims/simple_20_B_b.gif","","","","","13","simple_dissimilar","images/stimuli/spore_stims/simple_20_B_b.gif","right","","","","",""
"","null","html-keyboard-response","246","510655","0.0-47.0-0.2","SS1613098679268","","","null","","","","","<p><img src= images/blank.png width =""200"" height = ""200"" style = ""float:right""></p><p><img src=images/blank.png width =""800"" height = ""200""></p>","","","","","","","","","","","",""
"","355.06999999051914","sequential-stimulus-presentation","247","511820","0.0-47.0-1.2","SS1613098679268","trial","","40","800","1155.0699999905191","images/stimuli/spore_stims/simple_10_A_c.gif","images/stimuli/spore_stims/simple_20_B_b.gif","","","","","13","simple_dissimilar","images/stimuli/spore_stims/simple_20_B_b.gif","right","","","","",""
"","null","html-keyboard-response","248","512748","0.0-47.0-0.3","SS1613098679268","","","null","","","","","<p><img src= images/blank.png width =""200"" height = ""200"" style = ""float:right""></p><p><img src=images/blank.png width =""800"" height = ""200""></p>","","","","","","","","","","","",""
"","224.99000001698732","sequential-stimulus-presentation","249","513789","0.0-47.0-1.3","SS1613098679268","trial","","40","800","1024.9900000169873","images/stimuli/spore_stims/simple_10_A_c.gif","images/stimuli/spore_stims/simple_20_B_b.gif","","","","","13","simple_dissimilar","images/stimuli/spore_stims/simple_20_B_b.gif","right","","","","",""
"","null","html-keyboard-response","250","514650","0.0-47.0-0.4","SS1613098679268","","","null","","","","","<p><img src= images/blank.png width =""200"" height = ""200"" style = ""float:right""></p><p><img src=images/blank.png width =""800"" height = ""200""></p>","","","","","","","","","","","",""
"","164.53499998897314","sequential-stimulus-presentation","251","515630","0.0-47.0-1.4","SS1613098679268","trial","","40","800","964.5349999889731","images/stimuli/spore_stims/simple_10_A_c.gif","images/stimuli/spore_stims/simple_20_B_b.gif","","","","","13","simple_dissimilar","images/stimuli/spore_stims/simple_20_B_b.gif","right","","","","",""
"","null","html-keyboard-response","252","516470","0.0-47.0-0.5","SS1613098679268","","","null","","","","","<p><img src= images/blank.png width =""200"" height = ""200"" style = ""float:right""></p><p><img src=images/blank.png width =""800"" height = ""200""></p>","","","","","","","","","","","",""
"","155.48499999567866","sequential-stimulus-presentation","253","517443","0.0-47.0-1.5","SS1613098679268","trial","","40","800","955.4849999956787","images/stimuli/spore_stims/simple_10_A_c.gif","images/stimuli/spore_stims/simple_20_B_b.gif","","","","","13","simple_dissimilar","images/stimuli/spore_stims/simple_10_A_c.gif","middle","","","","",""
"","null","html-keyboard-response","254","518633","0.0-47.0-0.6","SS1613098679268","","","null","","","","","<p><img src= images/blank.png width =""200"" height = ""200"" style = ""float:right""></p><p><img src=images/blank.png width =""800"" height = ""200""></p>","","","","","","","","","","","",""
"","1172.9599999962375","sequential-stimulus-presentation","255","520623","0.0-47.0-1.6","SS1613098679268","trial","","40","800","1972.9599999962375","images/stimuli/spore_stims/simple_10_A_c.gif","images/stimuli/spore_stims/simple_20_B_b.gif","","","","","13","simple_dissimilar","images/stimuli/spore_stims/simple_20_B_b.gif","right","","","","",""
"","null","html-keyboard-response","256","521807","0.0-47.0-0.7","SS1613098679268","","","null","","","","","<p><img src= images/blank.png width =""200"" height = ""200"" style = ""float:right""></p><p><img src=images/blank.png width =""800"" height = ""200""></p>","","","","","","","","","","","",""
"","796.3949999539182","sequential-stimulus-presentation","257","523423","0.0-47.0-1.7","SS1613098679268","trial","","40","800","1596.3949999539182","images/stimuli/spore_stims/simple_10_A_c.gif","images/stimuli/spore_stims/simple_20_B_b.gif","","","","","13","simple_dissimilar","images/stimuli/spore_stims/simple_20_B_b.gif","right","","","","",""
"","2456.0500000370666","html-keyboard-response","258","525892","0.0-48.0","SS1613098679268","pref_question","","50","","","","","<video width ='960' height = '540' style='padding-top:8%' autoplay muted><source src='images/stimuli/wall_pref.mp4' type='video/mp4'></video>","2","middle","45%","13","","","","","","","",""
"","123.65500000305474","sequential-stimulus-presentation","259","526833","0.0-49.0","SS1613098679268","pref_reveal","","40","800","923.6550000030547","null","null","","","","","13","","","","deviant","","","",""
"","null","html-keyboard-response","260","527960","0.0-50.0-0.0","SS1613098679268","","","null","","","","","<p><img src= images/blank.png width =""200"" height = ""200"" style = ""float:right""></p><p><img src=images/blank.png width =""800"" height = ""200""></p>","","","","","","","","","","","",""
"","232.75500000454485","sequential-stimulus-presentation","261","529039","0.0-50.0-1.0","SS1613098679268","trial","","40","800","1032.7550000045449","images/stimuli/spore_stims/complex_04_B_c.gif","images/stimuli/spore_stims/complex_04_A_c.gif","","","","","14","complex_similar","images/stimuli/spore_stims/complex_04_A_c.gif","left","","","","",""
"","null","html-keyboard-response","262","529950","0.0-50.0-0.1","SS1613098679268","","","null","","","","","<p><img src= images/blank.png width =""200"" height = ""200"" style = ""float:right""></p><p><img src=images/blank.png width =""800"" height = ""200""></p>","","","","","","","","","","","",""
"","390.880000020843","sequential-stimulus-presentation","263","531159","0.0-50.0-1.1","SS1613098679268","trial","","40","800","1190.880000020843","images/stimuli/spore_stims/complex_04_B_c.gif","images/stimuli/spore_stims/complex_04_A_c.gif","","","","","14","complex_similar","images/stimuli/spore_stims/complex_04_A_c.gif","left","","","","",""
"","null","html-keyboard-response","264","532235","0.0-50.0-0.2","SS1613098679268","","","null","","","","","<p><img src= images/blank.png width =""200"" height = ""200"" style = ""float:right""></p><p><img src=images/blank.png width =""800"" height = ""200""></p>","","","","","","","","","","","",""
"","230.92999996151775","sequential-stimulus-presentation","265","533280","0.0-50.0-1.2","SS1613098679268","trial","","40","800","1030.9299999615178","images/stimuli/spore_stims/complex_04_B_c.gif","images/stimuli/spore_stims/complex_04_A_c.gif","","","","","14","complex_similar","images/stimuli/spore_stims/complex_04_A_c.gif","left","","","","",""
"","null","html-keyboard-response","266","534471","0.0-50.0-0.3","SS1613098679268","","","null","","","","","<p><img src= images/blank.png width =""200"" height = ""200"" style = ""float:right""></p><p><img src=images/blank.png width =""800"" height = ""200""></p>","","","","","","","","","","","",""
"","212.91000000201166","sequential-stimulus-presentation","267","535501","0.0-50.0-1.3","SS1613098679268","trial","","40","800","1012.9100000020117","images/stimuli/spore_stims/complex_04_B_c.gif","images/stimuli/spore_stims/complex_04_A_c.gif","","","","","14","complex_similar","images/stimuli/spore_stims/complex_04_A_c.gif","left","","","","",""
"","null","html-keyboard-response","268","536809","0.0-50.0-0.4","SS1613098679268","","","null","","","","","<p><img src= images/blank.png width =""200"" height = ""200"" style = ""float:right""></p><p><img src=images/blank.png width =""800"" height = ""200""></p>","","","","","","","","","","","",""
"","631.9250000524335","sequential-stimulus-presentation","269","538258","0.0-50.0-1.4","SS1613098679268","trial","","40","800","1431.9250000524335","images/stimuli/spore_stims/complex_04_B_c.gif","images/stimuli/spore_stims/complex_04_A_c.gif","","","","","14","complex_similar","images/stimuli/spore_stims/complex_04_A_c.gif","left","","","","",""
"","null","html-keyboard-response","270","539466","0.0-50.0-0.5","SS1613098679268","","","null","","","","","<p><img src= images/blank.png width =""200"" height = ""200"" style = ""float:right""></p><p><img src=images/blank.png width =""800"" height = ""200""></p>","","","","","","","","","","","",""
"","127.59000004734844","sequential-stimulus-presentation","271","540411","0.0-50.0-1.5","SS1613098679268","trial","","40","800","927.5900000473484","images/stimuli/spore_stims/complex_04_B_c.gif","images/stimuli/spore_stims/complex_04_A_c.gif","","","","","14","complex_similar","images/stimuli/spore_stims/complex_04_B_c.gif","middle","","","","",""
"","null","html-keyboard-response","272","541436","0.0-50.0-0.6","SS1613098679268","","","null","","","","","<p><img src= images/blank.png width =""200"" height = ""200"" style = ""float:right""></p><p><img src=images/blank.png width =""800"" height = ""200""></p>","","","","","","","","","","","",""
"","3398.5199999879114","sequential-stimulus-presentation","273","545683","0.0-50.0-1.6","SS1613098679268","trial","","40","800","4198.519999987911","images/stimuli/spore_stims/complex_04_B_c.gif","images/stimuli/spore_stims/complex_04_A_c.gif","","","","","14","complex_similar","images/stimuli/spore_stims/complex_04_A_c.gif","left","","","","",""
"","null","html-keyboard-response","274","546569","0.0-50.0-0.7","SS1613098679268","","","null","","","","","<p><img src= images/blank.png width =""200"" height = ""200"" style = ""float:right""></p><p><img src=images/blank.png width =""800"" height = ""200""></p>","","","","","","","","","","","",""
"","282.05500001786277","sequential-stimulus-presentation","275","547681","0.0-50.0-1.7","SS1613098679268","trial","","40","800","1082.0550000178628","images/stimuli/spore_stims/complex_04_B_c.gif","images/stimuli/spore_stims/complex_04_A_c.gif","","","","","14","complex_similar","images/stimuli/spore_stims/complex_04_A_c.gif","left","","","","",""
"","4192.459999991115","html-keyboard-response","276","551894","0.0-51.0","SS1613098679268","pref_question","","51","","","","","<video width ='960' height = '540' style='padding-top:8%' autoplay muted><source src='images/stimuli/wall_pref.mp4' type='video/mp4'></video>","3","right","66%","14","","","","","","","",""
"","10.864999960176647","sequential-stimulus-presentation","277","552726","0.0-52.0","SS1613098679268","pref_reveal","","40","800","810.8649999601766","null","null","","","","","14","","","","novel","","","",""
"","null","html-keyboard-response","278","553599","0.0-53.0-0.0","SS1613098679268","","","null","","","","","<p><img src= images/blank.png width =""200"" height = ""200"" style = ""float:right""></p><p><img src=images/blank.png width =""800"" height = ""200""></p>","","","","","","","","","","","",""
"","7.1199999656528234","sequential-stimulus-presentation","279","554424","0.0-53.0-1.0","SS1613098679268","trial","","40","800","807.1199999656528","images/stimuli/spore_stims/complex_06_A_b.gif","images/stimuli/spore_stims/complex_18_A_c.gif","","","","","15","complex_dissimilar","images/stimuli/spore_stims/complex_18_A_c.gif","middle","","","","",""
"","null","html-keyboard-response","280","555445","0.0-53.0-0.1","SS1613098679268","","","null","","","","","<p><img src= images/blank.png width =""200"" height = ""200"" style = ""float:right""></p><p><img src=images/blank.png width =""800"" height = ""200""></p>","","","","","","","","","","","",""
"","137.76499999221414","sequential-stimulus-presentation","281","556401","0.0-53.0-1.1","SS1613098679268","trial","","40","800","937.7649999922141","images/stimuli/spore_stims/complex_06_A_b.gif","images/stimuli/spore_stims/complex_18_A_c.gif","","","","","15","complex_dissimilar","images/stimuli/spore_stims/complex_18_A_c.gif","middle","","","","",""
"","null","html-keyboard-response","282","557485","0.0-53.0-0.2","SS1613098679268","","","null","","","","","<p><img src= images/blank.png width =""200"" height = ""200"" style = ""float:right""></p><p><img src=images/blank.png width =""800"" height = ""200""></p>","","","","","","","","","","","",""
"","150.94500000122935","sequential-stimulus-presentation","283","558455","0.0-53.0-1.2","SS1613098679268","trial","","40","800","950.9450000012293","images/stimuli/spore_stims/complex_06_A_b.gif","images/stimuli/spore_stims/complex_18_A_c.gif","","","","","15","complex_dissimilar","images/stimuli/spore_stims/complex_18_A_c.gif","middle","","","","",""
"","null","html-keyboard-response","284","559677","0.0-53.0-0.3","SS1613098679268","","","null","","","","","<p><img src= images/blank.png width =""200"" height = ""200"" style = ""float:right""></p><p><img src=images/blank.png width =""800"" height = ""200""></p>","","","","","","","","","","","",""
"","277.70000003511086","sequential-stimulus-presentation","285","560772","0.0-53.0-1.3","SS1613098679268","trial","","40","800","1077.7000000351109","images/stimuli/spore_stims/complex_06_A_b.gif","images/stimuli/spore_stims/complex_18_A_c.gif","","","","","15","complex_dissimilar","images/stimuli/spore_stims/complex_18_A_c.gif","middle","","","","",""
"","null","html-keyboard-response","286","561765","0.0-53.0-0.4","SS1613098679268","","","null","","","","","<p><img src= images/blank.png width =""200"" height = ""200"" style = ""float:right""></p><p><img src=images/blank.png width =""800"" height = ""200""></p>","","","","","","","","","","","",""
"","445.4700000351295","sequential-stimulus-presentation","287","563030","0.0-53.0-1.4","SS1613098679268","trial","","40","800","1245.4700000351295","images/stimuli/spore_stims/complex_06_A_b.gif","images/stimuli/spore_stims/complex_18_A_c.gif","","","","","15","complex_dissimilar","images/stimuli/spore_stims/complex_06_A_b.gif","left","","","","",""
"","null","html-keyboard-response","288","564311","0.0-53.0-0.5","SS1613098679268","","","null","","","","","<p><img src= images/blank.png width =""200"" height = ""200"" style = ""float:right""></p><p><img src=images/blank.png width =""800"" height = ""200""></p>","","","","","","","","","","","",""
"","194.56500001251698","sequential-stimulus-presentation","289","565324","0.0-53.0-1.5","SS1613098679268","trial","","40","800","994.565000012517","images/stimuli/spore_stims/complex_06_A_b.gif","images/stimuli/spore_stims/complex_18_A_c.gif","","","","","15","complex_dissimilar","images/stimuli/spore_stims/complex_18_A_c.gif","middle","","","","",""
"","null","html-keyboard-response","290","566352","0.0-53.0-0.6","SS1613098679268","","","null","","","","","<p><img src= images/blank.png width =""200"" height = ""200"" style = ""float:right""></p><p><img src=images/blank.png width =""800"" height = ""200""></p>","","","","","","","","","","","",""
"","235.8249999815598","sequential-stimulus-presentation","291","567408","0.0-53.0-1.6","SS1613098679268","trial","","40","800","1035.8249999815598","images/stimuli/spore_stims/complex_06_A_b.gif","images/stimuli/spore_stims/complex_18_A_c.gif","","","","","15","complex_dissimilar","images/stimuli/spore_stims/complex_18_A_c.gif","middle","","","","",""
"","null","html-keyboard-response","292","568685","0.0-53.0-0.7","SS1613098679268","","","null","","","","","<p><img src= images/blank.png width =""200"" height = ""200"" style = ""float:right""></p><p><img src=images/blank.png width =""800"" height = ""200""></p>","","","","","","","","","","","",""
"","426.2150000431575","sequential-stimulus-presentation","293","569929","0.0-53.0-1.7","SS1613098679268","trial","","40","800","1226.2150000431575","images/stimuli/spore_stims/complex_06_A_b.gif","images/stimuli/spore_stims/complex_18_A_c.gif","","","","","15","complex_dissimilar","images/stimuli/spore_stims/complex_18_A_c.gif","middle","","","","",""
"","5206.605000013951","html-keyboard-response","294","575153","0.0-54.0","SS1613098679268","pref_question","","51","","","","","<video width ='960' height = '540' style='padding-top:8%' autoplay muted><source src='images/stimuli/wall_pref.mp4' type='video/mp4'></video>","3","right","66%","15","","","","","","","",""
"","65.44500001473352","sequential-stimulus-presentation","295","576036","0.0-55.0","SS1613098679268","pref_reveal","","40","800","865.4450000147335","null","null","","","","","15","","","","novel","","","",""
"","null","html-keyboard-response","296","577053","0.0-56.0-0.0","SS1613098679268","","","null","","","","","<p><img src= images/blank.png width =""200"" height = ""200"" style = ""float:right""></p><p><img src=images/blank.png width =""800"" height = ""200""></p>","","","","","","","","","","","",""
"","218.66000001318753","sequential-stimulus-presentation","297","578096","0.0-56.0-1.0","SS1613098679268","trial","","40","800","1018.6600000131875","images/stimuli/spore_stims/simple_03_B_a.gif","images/stimuli/spore_stims/simple_07_A_b.gif","","","","","16","simple_dissimilar","images/stimuli/spore_stims/simple_07_A_b.gif","right","","","","",""
"","null","html-keyboard-response","298","578925","0.0-56.0-0.1","SS1613098679268","","","null","","","","","<p><img src= images/blank.png width =""200"" height = ""200"" style = ""float:right""></p><p><img src=images/blank.png width =""800"" height = ""200""></p>","","","","","","","","","","","",""
"","380.15000004088506","sequential-stimulus-presentation","299","580123","0.0-56.0-1.1","SS1613098679268","trial","","40","800","1180.150000040885","images/stimuli/spore_stims/simple_03_B_a.gif","images/stimuli/spore_stims/simple_07_A_b.gif","","","","","16","simple_dissimilar","images/stimuli/spore_stims/simple_07_A_b.gif","right","","","","",""
"","null","html-keyboard-response","300","581049","0.0-56.0-0.2","SS1613098679268","","","null","","","","","<p><img src= images/blank.png width =""200"" height = ""200"" style = ""float:right""></p><p><img src=images/blank.png width =""800"" height = ""200""></p>","","","","","","","","","","","",""
"","241.7649999842979","sequential-stimulus-presentation","301","582109","0.0-56.0-1.2","SS1613098679268","trial","","40","800","1041.764999984298","images/stimuli/spore_stims/simple_03_B_a.gif","images/stimuli/spore_stims/simple_07_A_b.gif","","","","","16","simple_dissimilar","images/stimuli/spore_stims/simple_07_A_b.gif","right","","","","",""
"","null","html-keyboard-response","302","582974","0.0-56.0-0.3","SS1613098679268","","","null","","","","","<p><img src= images/blank.png width =""200"" height = ""200"" style = ""float:right""></p><p><img src=images/blank.png width =""800"" height = ""200""></p>","","","","","","","","","","","",""
"","323.5199999762699","sequential-stimulus-presentation","303","584117","0.0-56.0-1.3","SS1613098679268","trial","","40","800","1123.51999997627","images/stimuli/spore_stims/simple_03_B_a.gif","images/stimuli/spore_stims/simple_07_A_b.gif","","","","","16","simple_dissimilar","images/stimuli/spore_stims/simple_03_B_a.gif","left","","","","",""
"","null","html-keyboard-response","304","585284","0.0-56.0-0.4","SS1613098679268","","","null","","","","","<p><img src= images/blank.png width =""200"" height = ""200"" style = ""float:right""></p><p><img src=images/blank.png width =""800"" height = ""200""></p>","","","","","","","","","","","",""
"","373.4900000272319","sequential-stimulus-presentation","305","586478","0.0-56.0-1.4","SS1613098679268","trial","","40","800","1173.4900000272319","images/stimuli/spore_stims/simple_03_B_a.gif","images/stimuli/spore_stims/simple_07_A_b.gif","","","","","16","simple_dissimilar","images/stimuli/spore_stims/simple_07_A_b.gif","right","","","","",""
"","null","html-keyboard-response","306","587418","0.0-56.0-0.5","SS1613098679268","","","null","","","","","<p><img src= images/blank.png width =""200"" height = ""200"" style = ""float:right""></p><p><img src=images/blank.png width =""800"" height = ""200""></p>","","","","","","","","","","","",""
"","105.97000003326684","sequential-stimulus-presentation","307","588342","0.0-56.0-1.5","SS1613098679268","trial","","40","800","905.9700000332668","images/stimuli/spore_stims/simple_03_B_a.gif","images/stimuli/spore_stims/simple_07_A_b.gif","","","","","16","simple_dissimilar","images/stimuli/spore_stims/simple_07_A_b.gif","right","","","","",""
"","null","html-keyboard-response","308","589317","0.0-56.0-0.6","SS1613098679268","","","null","","","","","<p><img src= images/blank.png width =""200"" height = ""200"" style = ""float:right""></p><p><img src=images/blank.png width =""800"" height = ""200""></p>","","","","","","","","","","","",""
"","305.36499997833744","sequential-stimulus-presentation","309","590439","0.0-56.0-1.6","SS1613098679268","trial","","40","800","1105.3649999783374","images/stimuli/spore_stims/simple_03_B_a.gif","images/stimuli/spore_stims/simple_07_A_b.gif","","","","","16","simple_dissimilar","images/stimuli/spore_stims/simple_07_A_b.gif","right","","","","",""
"","null","html-keyboard-response","310","591498","0.0-56.0-0.7","SS1613098679268","","","null","","","","","<p><img src= images/blank.png width =""200"" height = ""200"" style = ""float:right""></p><p><img src=images/blank.png width =""800"" height = ""200""></p>","","","","","","","","","","","",""
"","1325.7149999844842","sequential-stimulus-presentation","311","593647","0.0-56.0-1.7","SS1613098679268","trial","","40","800","2125.714999984484","images/stimuli/spore_stims/simple_03_B_a.gif","images/stimuli/spore_stims/simple_07_A_b.gif","","","","","16","simple_dissimilar","images/stimuli/spore_stims/simple_07_A_b.gif","right","","","","",""
"","3205.4099999950267","html-keyboard-response","312","596872","0.0-57.0","SS1613098679268","pref_question","","49","","","","","<video width ='960' height = '540' style='padding-top:8%' autoplay muted><source src='images/stimuli/wall_pref.mp4' type='video/mp4'></video>","1","left","25%","16","","","","","","","",""