"view_history","rt","trial_type","trial_index","time_elapsed","internal_node_id","subject","stimulus_type","trial_stimulus","key_press","minimum_viewing_duration","trial_looking_time","block_deviant","block_background","stimulus","wall_pref","location","location_percent","block_number","block_type","stimulus_displayed","position_displayed","stim_type_selected","responses","question_order","stimulus_left","stimulus_right"
"[{""page_index"":0,""viewing_time"":3550.694999998086}]","3553.045000000566","instructions","0","3556","0.0-0.0","SS1613082756638","","","","","","","","","","","","","","","","","","","",""
"[{""page_index"":0,""viewing_time"":7421.024999996007},{""page_index"":1,""viewing_time"":28546.940000000177}]","35968.71999999712","instructions","1","41534","0.0-1.0","SS1613082756638","instructions","","","","","","","","","","","","","","","","","","",""
"","9179.045000004407","sequential-stimulus-presentation","2","51528","0.0-2.0","SS1613082756638","","","40","800","9979.045000004407","null","null","","","","","","","","","","","","",""
"","2007.1349999998347","sequential-stimulus-presentation","3","54344","0.0-3.0","SS1613082756638","","","40","800","2807.1349999998347","null","null","","","","","","","","","","","","",""
"[{""page_index"":0,""viewing_time"":1440.4200000062701}]","1441.1400000026333","instructions","4","55787","0.0-4.0","SS1613082756638","instructions","","","","","","","","","","","","","","","","","","",""
"","7850.295000003825","html-keyboard-response","5","63648","0.0-5.0","SS1613082756638","instructions","","97","","","","","<video width ='960' height = '540' autoplay muted><source src='images/stimuli/wall_pref.mp4' type='video/mp4'></video>","1","left","25%","","","","","","","","",""
"","3638.984999997774","sequential-stimulus-presentation","6","68095","0.0-6.0","SS1613082756638","pref_reveal","","40","800","4438.984999997774","null","null","","","","","","","","","","","","",""
"[{""page_index"":0,""viewing_time"":6443.409999999858},{""page_index"":1,""viewing_time"":5487.84500000329},{""page_index"":2,""viewing_time"":3246.514999998908},{""page_index"":3,""viewing_time"":1348.7099999983911}]","16526.944999997795","instructions","7","84629","0.0-7.0","SS1613082756638","instructions","","","","","","","","","","","","","","","","","","",""
"","null","html-keyboard-response","8","85789","0.0-8.0-0.0","SS1613082756638","","","null","","","","","<p><img src= images/blank.png width =""200"" height = ""200"" style = ""float:right""></p><p><img src=images/blank.png width =""800"" height = ""200""></p>","","","","","","","","","","","",""
"","3900.6200000003446","sequential-stimulus-presentation","9","90503","0.0-8.0-1.0","SS1613082756638","trial","","40","800","4700.620000000345","images/stimuli/spore_stims/complex_12_A_b.gif","images/stimuli/spore_stims/complex_12_B_b.gif","","","","","0","complex_similar","images/stimuli/spore_stims/complex_12_B_b.gif","middle","","","","",""
"","null","html-keyboard-response","10","91453","0.0-8.0-0.1","SS1613082756638","","","null","","","","","<p><img src= images/blank.png width =""200"" height = ""200"" style = ""float:right""></p><p><img src=images/blank.png width =""800"" height = ""200""></p>","","","","","","","","","","","",""
"","1816.8299999961164","sequential-stimulus-presentation","11","94078","0.0-8.0-1.1","SS1613082756638","trial","","40","800","2616.8299999961164","images/stimuli/spore_stims/complex_12_A_b.gif","images/stimuli/spore_stims/complex_12_B_b.gif","","","","","0","complex_similar","images/stimuli/spore_stims/complex_12_B_b.gif","middle","","","","",""
"","null","html-keyboard-response","12","95114","0.0-8.0-0.2","SS1613082756638","","","null","","","","","<p><img src= images/blank.png width =""200"" height = ""200"" style = ""float:right""></p><p><img src=images/blank.png width =""800"" height = ""200""></p>","","","","","","","","","","","",""
"","4636.050000000978","sequential-stimulus-presentation","13","100603","0.0-8.0-1.2","SS1613082756638","trial","","40","800","5436.050000000978","images/stimuli/spore_stims/complex_12_A_b.gif","images/stimuli/spore_stims/complex_12_B_b.gif","","","","","0","complex_similar","images/stimuli/spore_stims/complex_12_B_b.gif","middle","","","","",""
"","null","html-keyboard-response","14","101568","0.0-8.0-0.3","SS1613082756638","","","null","","","","","<p><img src= images/blank.png width =""200"" height = ""200"" style = ""float:right""></p><p><img src=images/blank.png width =""800"" height = ""200""></p>","","","","","","","","","","","",""
"","1548.4050000013667","sequential-stimulus-presentation","15","103922","0.0-8.0-1.3","SS1613082756638","trial","","40","800","2348.4050000013667","images/stimuli/spore_stims/complex_12_A_b.gif","images/stimuli/spore_stims/complex_12_B_b.gif","","","","","0","complex_similar","images/stimuli/spore_stims/complex_12_A_b.gif","right","","","","",""
"","null","html-keyboard-response","16","104931","0.0-8.0-0.4","SS1613082756638","","","null","","","","","<p><img src= images/blank.png width =""200"" height = ""200"" style = ""float:right""></p><p><img src=images/blank.png width =""800"" height = ""200""></p>","","","","","","","","","","","",""
"","7055.099999997765","sequential-stimulus-presentation","17","112801","0.0-8.0-1.4","SS1613082756638","trial","","40","800","7855.099999997765","images/stimuli/spore_stims/complex_12_A_b.gif","images/stimuli/spore_stims/complex_12_B_b.gif","","","","","0","complex_similar","images/stimuli/spore_stims/complex_12_B_b.gif","middle","","","","",""
"","null","html-keyboard-response","18","113818","0.0-8.0-0.5","SS1613082756638","","","null","","","","","<p><img src= images/blank.png width =""200"" height = ""200"" style = ""float:right""></p><p><img src=images/blank.png width =""800"" height = ""200""></p>","","","","","","","","","","","",""
"","603.0499999978929","sequential-stimulus-presentation","19","115233","0.0-8.0-1.5","SS1613082756638","trial","","40","800","1403.0499999978929","images/stimuli/spore_stims/complex_12_A_b.gif","images/stimuli/spore_stims/complex_12_B_b.gif","","","","","0","complex_similar","images/stimuli/spore_stims/complex_12_B_b.gif","middle","","","","",""
"","null","html-keyboard-response","20","116244","0.0-8.0-0.6","SS1613082756638","","","null","","","","","<p><img src= images/blank.png width =""200"" height = ""200"" style = ""float:right""></p><p><img src=images/blank.png width =""800"" height = ""200""></p>","","","","","","","","","","","",""
"","21092.16000000015","sequential-stimulus-presentation","21","138154","0.0-8.0-1.6","SS1613082756638","trial","","40","800","21892.16000000015","images/stimuli/spore_stims/complex_12_A_b.gif","images/stimuli/spore_stims/complex_12_B_b.gif","","","","","0","complex_similar","images/stimuli/spore_stims/complex_12_B_b.gif","middle","","","","",""
"","null","html-keyboard-response","22","139347","0.0-8.0-0.7","SS1613082756638","","","null","","","","","<p><img src= images/blank.png width =""200"" height = ""200"" style = ""float:right""></p><p><img src=images/blank.png width =""800"" height = ""200""></p>","","","","","","","","","","","",""
"","1824.849999997241","sequential-stimulus-presentation","23","141982","0.0-8.0-1.7","SS1613082756638","trial","","40","800","2624.849999997241","images/stimuli/spore_stims/complex_12_A_b.gif","images/stimuli/spore_stims/complex_12_B_b.gif","","","","","0","complex_similar","images/stimuli/spore_stims/complex_12_B_b.gif","middle","","","","",""
"","3420.640000003914","html-keyboard-response","24","145408","0.0-9.0","SS1613082756638","pref_question","","99","","","","","<video width ='960' height = '540' style='padding-top:8%' autoplay muted><source src='images/stimuli/wall_pref.mp4' type='video/mp4'></video>","3","right","66%","0","","","","","","","",""
"","1171.6949999972712","sequential-stimulus-presentation","25","147390","0.0-10.0","SS1613082756638","pref_reveal","","40","800","1971.6949999972712","null","null","","","","","0","","","","deviant","","","",""
"","null","html-keyboard-response","26","148232","0.0-11.0-0.0","SS1613082756638","","","null","","","","","<p><img src= images/blank.png width =""200"" height = ""200"" style = ""float:right""></p><p><img src=images/blank.png width =""800"" height = ""200""></p>","","","","","","","","","","","",""
"","536.3900000011199","sequential-stimulus-presentation","27","149579","0.0-11.0-1.0","SS1613082756638","trial","","40","800","1336.39000000112","images/stimuli/spore_stims/simple_10_A_a.gif","images/stimuli/spore_stims/simple_10_B_a.gif","","","","","1","simple_similar","images/stimuli/spore_stims/simple_10_B_a.gif","middle","","","","",""
"","null","html-keyboard-response","28","150858","0.0-11.0-0.1","SS1613082756638","","","null","","","","","<p><img src= images/blank.png width =""200"" height = ""200"" style = ""float:right""></p><p><img src=images/blank.png width =""800"" height = ""200""></p>","","","","","","","","","","","",""
"","1250.3450000003795","sequential-stimulus-presentation","29","152916","0.0-11.0-1.1","SS1613082756638","trial","","40","800","2050.3450000003795","images/stimuli/spore_stims/simple_10_A_a.gif","images/stimuli/spore_stims/simple_10_B_a.gif","","","","","1","simple_similar","images/stimuli/spore_stims/simple_10_B_a.gif","middle","","","","",""
"","null","html-keyboard-response","30","153894","0.0-11.0-0.2","SS1613082756638","","","null","","","","","<p><img src= images/blank.png width =""200"" height = ""200"" style = ""float:right""></p><p><img src=images/blank.png width =""800"" height = ""200""></p>","","","","","","","","","","","",""
"","532.2749999977532","sequential-stimulus-presentation","31","155238","0.0-11.0-1.2","SS1613082756638","trial","","40","800","1332.2749999977532","images/stimuli/spore_stims/simple_10_A_a.gif","images/stimuli/spore_stims/simple_10_B_a.gif","","","","","1","simple_similar","images/stimuli/spore_stims/simple_10_B_a.gif","middle","","","","",""
"","null","html-keyboard-response","32","156251","0.0-11.0-0.3","SS1613082756638","","","null","","","","","<p><img src= images/blank.png width =""200"" height = ""200"" style = ""float:right""></p><p><img src=images/blank.png width =""800"" height = ""200""></p>","","","","","","","","","","","",""
"","409.34500000003027","sequential-stimulus-presentation","33","157468","0.0-11.0-1.3","SS1613082756638","trial","","40","800","1209.3450000000303","images/stimuli/spore_stims/simple_10_A_a.gif","images/stimuli/spore_stims/simple_10_B_a.gif","","","","","1","simple_similar","images/stimuli/spore_stims/simple_10_B_a.gif","middle","","","","",""
"","null","html-keyboard-response","34","158368","0.0-11.0-0.4","SS1613082756638","","","null","","","","","<p><img src= images/blank.png width =""200"" height = ""200"" style = ""float:right""></p><p><img src=images/blank.png width =""800"" height = ""200""></p>","","","","","","","","","","","",""
"","23.20499999768799","sequential-stimulus-presentation","35","159198","0.0-11.0-1.4","SS1613082756638","trial","","40","800","823.204999997688","images/stimuli/spore_stims/simple_10_A_a.gif","images/stimuli/spore_stims/simple_10_B_a.gif","","","","","1","simple_similar","images/stimuli/spore_stims/simple_10_B_a.gif","middle","","","","",""
"","null","html-keyboard-response","36","160151","0.0-11.0-0.5","SS1613082756638","","","null","","","","","<p><img src= images/blank.png width =""200"" height = ""200"" style = ""float:right""></p><p><img src=images/blank.png width =""800"" height = ""200""></p>","","","","","","","","","","","",""
"","526.8549999964307","sequential-stimulus-presentation","37","161492","0.0-11.0-1.5","SS1613082756638","trial","","40","800","1326.8549999964307","images/stimuli/spore_stims/simple_10_A_a.gif","images/stimuli/spore_stims/simple_10_B_a.gif","","","","","1","simple_similar","images/stimuli/spore_stims/simple_10_B_a.gif","middle","","","","",""
"","null","html-keyboard-response","38","162358","0.0-11.0-0.6","SS1613082756638","","","null","","","","","<p><img src= images/blank.png width =""200"" height = ""200"" style = ""float:right""></p><p><img src=images/blank.png width =""800"" height = ""200""></p>","","","","","","","","","","","",""
"","398.75000000029104","sequential-stimulus-presentation","39","163565","0.0-11.0-1.6","SS1613082756638","trial","","40","800","1198.750000000291","images/stimuli/spore_stims/simple_10_A_a.gif","images/stimuli/spore_stims/simple_10_B_a.gif","","","","","1","simple_similar","images/stimuli/spore_stims/simple_10_B_a.gif","middle","","","","",""
"","null","html-keyboard-response","40","164523","0.0-11.0-0.7","SS1613082756638","","","null","","","","","<p><img src= images/blank.png width =""200"" height = ""200"" style = ""float:right""></p><p><img src=images/blank.png width =""800"" height = ""200""></p>","","","","","","","","","","","",""
"","939.6699999997509","sequential-stimulus-presentation","41","166274","0.0-11.0-1.7","SS1613082756638","trial","","40","800","1739.6699999997509","images/stimuli/spore_stims/simple_10_A_a.gif","images/stimuli/spore_stims/simple_10_B_a.gif","","","","","1","simple_similar","images/stimuli/spore_stims/simple_10_A_a.gif","left","","","","",""
"","22476.86000000249","html-keyboard-response","42","188758","0.0-12.0","SS1613082756638","pref_question","","99","","","","","<video width ='960' height = '540' style='padding-top:8%' autoplay muted><source src='images/stimuli/wall_pref.mp4' type='video/mp4'></video>","3","right","66%","1","","","","","","","",""
"","1405.1700000054552","sequential-stimulus-presentation","43","190977","0.0-13.0","SS1613082756638","pref_reveal","","40","800","2205.170000005455","null","null","","","","","1","","","","novel","","","",""
"","null","html-keyboard-response","44","191990","0.0-14.0-0.0","SS1613082756638","","","null","","","","","<p><img src= images/blank.png width =""200"" height = ""200"" style = ""float:right""></p><p><img src=images/blank.png width =""800"" height = ""200""></p>","","","","","","","","","","","",""
"","887.4999999970896","sequential-stimulus-presentation","45","193689","0.0-14.0-1.0","SS1613082756638","trial","","40","800","1687.4999999970896","images/stimuli/spore_stims/complex_01_A_a.gif","images/stimuli/spore_stims/complex_08_A_c.gif","","","","","2","complex_dissimilar","images/stimuli/spore_stims/complex_08_A_c.gif","left","","","","",""
"","null","html-keyboard-response","46","194743","0.0-14.0-0.1","SS1613082756638","","","null","","","","","<p><img src= images/blank.png width =""200"" height = ""200"" style = ""float:right""></p><p><img src=images/blank.png width =""800"" height = ""200""></p>","","","","","","","","","","","",""
"","501.07500000012806","sequential-stimulus-presentation","47","196055","0.0-14.0-1.1","SS1613082756638","trial","","40","800","1301.075000000128","images/stimuli/spore_stims/complex_01_A_a.gif","images/stimuli/spore_stims/complex_08_A_c.gif","","","","","2","complex_dissimilar","images/stimuli/spore_stims/complex_08_A_c.gif","left","","","","",""
"","null","html-keyboard-response","48","197052","0.0-14.0-0.2","SS1613082756638","","","null","","","","","<p><img src= images/blank.png width =""200"" height = ""200"" style = ""float:right""></p><p><img src=images/blank.png width =""800"" height = ""200""></p>","","","","","","","","","","","",""
"","272.03000000008615","sequential-stimulus-presentation","49","198136","0.0-14.0-1.2","SS1613082756638","trial","","40","800","1072.0300000000861","images/stimuli/spore_stims/complex_01_A_a.gif","images/stimuli/spore_stims/complex_08_A_c.gif","","","","","2","complex_dissimilar","images/stimuli/spore_stims/complex_08_A_c.gif","left","","","","",""
"","null","html-keyboard-response","50","199401","0.0-14.0-0.3","SS1613082756638","","","null","","","","","<p><img src= images/blank.png width =""200"" height = ""200"" style = ""float:right""></p><p><img src=images/blank.png width =""800"" height = ""200""></p>","","","","","","","","","","","",""
"","74.35499999701278","sequential-stimulus-presentation","51","200287","0.0-14.0-1.3","SS1613082756638","trial","","40","800","874.3549999970128","images/stimuli/spore_stims/complex_01_A_a.gif","images/stimuli/spore_stims/complex_08_A_c.gif","","","","","2","complex_dissimilar","images/stimuli/spore_stims/complex_08_A_c.gif","left","","","","",""
"","null","html-keyboard-response","52","201537","0.0-14.0-0.4","SS1613082756638","","","null","","","","","<p><img src= images/blank.png width =""200"" height = ""200"" style = ""float:right""></p><p><img src=images/blank.png width =""800"" height = ""200""></p>","","","","","","","","","","","",""
"","756.6300000034971","sequential-stimulus-presentation","53","203102","0.0-14.0-1.4","SS1613082756638","trial","","40","800","1556.6300000034971","images/stimuli/spore_stims/complex_01_A_a.gif","images/stimuli/spore_stims/complex_08_A_c.gif","","","","","2","complex_dissimilar","images/stimuli/spore_stims/complex_01_A_a.gif","middle","","","","",""
"","null","html-keyboard-response","54","204345","0.0-14.0-0.5","SS1613082756638","","","null","","","","","<p><img src= images/blank.png width =""200"" height = ""200"" style = ""float:right""></p><p><img src=images/blank.png width =""800"" height = ""200""></p>","","","","","","","","","","","",""
"","613.2649999999558","sequential-stimulus-presentation","55","205777","0.0-14.0-1.5","SS1613082756638","trial","","40","800","1413.2649999999558","images/stimuli/spore_stims/complex_01_A_a.gif","images/stimuli/spore_stims/complex_08_A_c.gif","","","","","2","complex_dissimilar","images/stimuli/spore_stims/complex_08_A_c.gif","left","","","","",""
"","null","html-keyboard-response","56","206764","0.0-14.0-0.6","SS1613082756638","","","null","","","","","<p><img src= images/blank.png width =""200"" height = ""200"" style = ""float:right""></p><p><img src=images/blank.png width =""800"" height = ""200""></p>","","","","","","","","","","","",""
"","685.059999996156","sequential-stimulus-presentation","57","208262","0.0-14.0-1.6","SS1613082756638","trial","","40","800","1485.059999996156","images/stimuli/spore_stims/complex_01_A_a.gif","images/stimuli/spore_stims/complex_08_A_c.gif","","","","","2","complex_dissimilar","images/stimuli/spore_stims/complex_08_A_c.gif","left","","","","",""
"","null","html-keyboard-response","58","209188","0.0-14.0-0.7","SS1613082756638","","","null","","","","","<p><img src= images/blank.png width =""200"" height = ""200"" style = ""float:right""></p><p><img src=images/blank.png width =""800"" height = ""200""></p>","","","","","","","","","","","",""
"","623.2900000031805","sequential-stimulus-presentation","59","210653","0.0-14.0-1.7","SS1613082756638","trial","","40","800","1423.2900000031805","images/stimuli/spore_stims/complex_01_A_a.gif","images/stimuli/spore_stims/complex_08_A_c.gif","","","","","2","complex_dissimilar","images/stimuli/spore_stims/complex_08_A_c.gif","left","","","","",""
"","1556.720000000496","html-keyboard-response","60","212220","0.0-15.0","SS1613082756638","pref_question","","99","","","","","<video width ='960' height = '540' style='padding-top:8%' autoplay muted><source src='images/stimuli/wall_pref.mp4' type='video/mp4'></video>","3","right","66%","2","","","","","","","",""
"","2858.4849999970174","sequential-stimulus-presentation","61","215887","0.0-16.0","SS1613082756638","pref_reveal","","40","800","3658.4849999970174","null","null","","","","","2","","","","novel","","","",""
"","null","html-keyboard-response","62","216878","0.0-17.0-0.0","SS1613082756638","","","null","","","","","<p><img src= images/blank.png width =""200"" height = ""200"" style = ""float:right""></p><p><img src=images/blank.png width =""800"" height = ""200""></p>","","","","","","","","","","","",""
"","734.2099999950733","sequential-stimulus-presentation","63","218428","0.0-17.0-1.0","SS1613082756638","trial","","40","800","1534.2099999950733","images/stimuli/spore_stims/complex_19_B_c.gif","images/stimuli/spore_stims/complex_17_B_b.gif","","","","","3","complex_dissimilar","images/stimuli/spore_stims/complex_17_B_b.gif","right","","","","",""
"","null","html-keyboard-response","64","219713","0.0-17.0-0.1","SS1613082756638","","","null","","","","","<p><img src= images/blank.png width =""200"" height = ""200"" style = ""float:right""></p><p><img src=images/blank.png width =""800"" height = ""200""></p>","","","","","","","","","","","",""
"","439.8899999941932","sequential-stimulus-presentation","65","220964","0.0-17.0-1.1","SS1613082756638","trial","","40","800","1239.8899999941932","images/stimuli/spore_stims/complex_19_B_c.gif","images/stimuli/spore_stims/complex_17_B_b.gif","","","","","3","complex_dissimilar","images/stimuli/spore_stims/complex_17_B_b.gif","right","","","","",""
"","null","html-keyboard-response","66","222022","0.0-17.0-0.2","SS1613082756638","","","null","","","","","<p><img src= images/blank.png width =""200"" height = ""200"" style = ""float:right""></p><p><img src=images/blank.png width =""800"" height = ""200""></p>","","","","","","","","","","","",""
"","278.7800000005518","sequential-stimulus-presentation","67","223114","0.0-17.0-1.2","SS1613082756638","trial","","40","800","1078.7800000005518","images/stimuli/spore_stims/complex_19_B_c.gif","images/stimuli/spore_stims/complex_17_B_b.gif","","","","","3","complex_dissimilar","images/stimuli/spore_stims/complex_17_B_b.gif","right","","","","",""
"","null","html-keyboard-response","68","224256","0.0-17.0-0.3","SS1613082756638","","","null","","","","","<p><img src= images/blank.png width =""200"" height = ""200"" style = ""float:right""></p><p><img src=images/blank.png width =""800"" height = ""200""></p>","","","","","","","","","","","",""
"","1790.2699999976903","sequential-stimulus-presentation","69","226858","0.0-17.0-1.3","SS1613082756638","trial","","40","800","2590.2699999976903","images/stimuli/spore_stims/complex_19_B_c.gif","images/stimuli/spore_stims/complex_17_B_b.gif","","","","","3","complex_dissimilar","images/stimuli/spore_stims/complex_17_B_b.gif","right","","","","",""
"","null","html-keyboard-response","70","227840","0.0-17.0-0.4","SS1613082756638","","","null","","","","","<p><img src= images/blank.png width =""200"" height = ""200"" style = ""float:right""></p><p><img src=images/blank.png width =""800"" height = ""200""></p>","","","","","","","","","","","",""
"","100.86999999475665","sequential-stimulus-presentation","71","228753","0.0-17.0-1.4","SS1613082756638","trial","","40","800","900.8699999947567","images/stimuli/spore_stims/complex_19_B_c.gif","images/stimuli/spore_stims/complex_17_B_b.gif","","","","","3","complex_dissimilar","images/stimuli/spore_stims/complex_19_B_c.gif","left","","","","",""
"","null","html-keyboard-response","72","229850","0.0-17.0-0.5","SS1613082756638","","","null","","","","","<p><img src= images/blank.png width =""200"" height = ""200"" style = ""float:right""></p><p><img src=images/blank.png width =""800"" height = ""200""></p>","","","","","","","","","","","",""
"","569.5600000035483","sequential-stimulus-presentation","73","231233","0.0-17.0-1.5","SS1613082756638","trial","","40","800","1369.5600000035483","images/stimuli/spore_stims/complex_19_B_c.gif","images/stimuli/spore_stims/complex_17_B_b.gif","","","","","3","complex_dissimilar","images/stimuli/spore_stims/complex_17_B_b.gif","right","","","","",""
"","null","html-keyboard-response","74","232107","0.0-17.0-0.6","SS1613082756638","","","null","","","","","<p><img src= images/blank.png width =""200"" height = ""200"" style = ""float:right""></p><p><img src=images/blank.png width =""800"" height = ""200""></p>","","","","","","","","","","","",""
"","364.23500000091735","sequential-stimulus-presentation","75","233289","0.0-17.0-1.6","SS1613082756638","trial","","40","800","1164.2350000009174","images/stimuli/spore_stims/complex_19_B_c.gif","images/stimuli/spore_stims/complex_17_B_b.gif","","","","","3","complex_dissimilar","images/stimuli/spore_stims/complex_17_B_b.gif","right","","","","",""
"","null","html-keyboard-response","76","234513","0.0-17.0-0.7","SS1613082756638","","","null","","","","","<p><img src= images/blank.png width =""200"" height = ""200"" style = ""float:right""></p><p><img src=images/blank.png width =""800"" height = ""200""></p>","","","","","","","","","","","",""
"","249.7849999999744","sequential-stimulus-presentation","77","235576","0.0-17.0-1.7","SS1613082756638","trial","","40","800","1049.7849999999744","images/stimuli/spore_stims/complex_19_B_c.gif","images/stimuli/spore_stims/complex_17_B_b.gif","","","","","3","complex_dissimilar","images/stimuli/spore_stims/complex_17_B_b.gif","right","","","","",""
"","1680.4300000003423","html-keyboard-response","78","237299","0.0-18.0","SS1613082756638","pref_question","","98","","","","","<video width ='960' height = '540' style='padding-top:8%' autoplay muted><source src='images/stimuli/wall_pref.mp4' type='video/mp4'></video>","2","middle","45%","3","","","","","","","",""
"","2429.420000000391","sequential-stimulus-presentation","79","240543","0.0-19.0","SS1613082756638","pref_reveal","","40","800","3229.420000000391","null","null","","","","","3","","","","novel","","","",""
"","null","html-keyboard-response","80","241779","0.0-20.0-0.0","SS1613082756638","","","null","","","","","<p><img src= images/blank.png width =""200"" height = ""200"" style = ""float:right""></p><p><img src=images/blank.png width =""800"" height = ""200""></p>","","","","","","","","","","","",""
"","746.6749999948661","sequential-stimulus-presentation","81","243343","0.0-20.0-1.0","SS1613082756638","trial","","40","800","1546.674999994866","images/stimuli/spore_stims/simple_20_B_a.gif","images/stimuli/spore_stims/simple_20_A_a.gif","","","","","4","simple_similar","images/stimuli/spore_stims/simple_20_A_a.gif","left","","","","",""
"","null","html-keyboard-response","82","244357","0.0-20.0-0.1","SS1613082756638","","","null","","","","","<p><img src= images/blank.png width =""200"" height = ""200"" style = ""float:right""></p><p><img src=images/blank.png width =""800"" height = ""200""></p>","","","","","","","","","","","",""
"","551.3149999969755","sequential-stimulus-presentation","83","245726","0.0-20.0-1.1","SS1613082756638","trial","","40","800","1351.3149999969755","images/stimuli/spore_stims/simple_20_B_a.gif","images/stimuli/spore_stims/simple_20_A_a.gif","","","","","4","simple_similar","images/stimuli/spore_stims/simple_20_A_a.gif","left","","","","",""
"","null","html-keyboard-response","84","246833","0.0-20.0-0.2","SS1613082756638","","","null","","","","","<p><img src= images/blank.png width =""200"" height = ""200"" style = ""float:right""></p><p><img src=images/blank.png width =""800"" height = ""200""></p>","","","","","","","","","","","",""
"","1070.705000005546","sequential-stimulus-presentation","85","248713","0.0-20.0-1.2","SS1613082756638","trial","","40","800","1870.705000005546","images/stimuli/spore_stims/simple_20_B_a.gif","images/stimuli/spore_stims/simple_20_A_a.gif","","","","","4","simple_similar","images/stimuli/spore_stims/simple_20_A_a.gif","left","","","","",""
"","null","html-keyboard-response","86","249890","0.0-20.0-0.3","SS1613082756638","","","null","","","","","<p><img src= images/blank.png width =""200"" height = ""200"" style = ""float:right""></p><p><img src=images/blank.png width =""800"" height = ""200""></p>","","","","","","","","","","","",""
"","601.0450000030687","sequential-stimulus-presentation","87","251411","0.0-20.0-1.3","SS1613082756638","trial","","40","800","1401.0450000030687","images/stimuli/spore_stims/simple_20_B_a.gif","images/stimuli/spore_stims/simple_20_A_a.gif","","","","","4","simple_similar","images/stimuli/spore_stims/simple_20_A_a.gif","left","","","","",""
"","null","html-keyboard-response","88","252353","0.0-20.0-0.4","SS1613082756638","","","null","","","","","<p><img src= images/blank.png width =""200"" height = ""200"" style = ""float:right""></p><p><img src=images/blank.png width =""800"" height = ""200""></p>","","","","","","","","","","","",""
"","385.85500000044703","sequential-stimulus-presentation","89","253552","0.0-20.0-1.4","SS1613082756638","trial","","40","800","1185.855000000447","images/stimuli/spore_stims/simple_20_B_a.gif","images/stimuli/spore_stims/simple_20_A_a.gif","","","","","4","simple_similar","images/stimuli/spore_stims/simple_20_A_a.gif","left","","","","",""
"","null","html-keyboard-response","90","254550","0.0-20.0-0.5","SS1613082756638","","","null","","","","","<p><img src= images/blank.png width =""200"" height = ""200"" style = ""float:right""></p><p><img src=images/blank.png width =""800"" height = ""200""></p>","","","","","","","","","","","",""
"","98.75499999907333","sequential-stimulus-presentation","91","255463","0.0-20.0-1.5","SS1613082756638","trial","","40","800","898.7549999990733","images/stimuli/spore_stims/simple_20_B_a.gif","images/stimuli/spore_stims/simple_20_A_a.gif","","","","","4","simple_similar","images/stimuli/spore_stims/simple_20_B_a.gif","middle","","","","",""
"","null","html-keyboard-response","92","256637","0.0-20.0-0.6","SS1613082756638","","","null","","","","","<p><img src= images/blank.png width =""200"" height = ""200"" style = ""float:right""></p><p><img src=images/blank.png width =""800"" height = ""200""></p>","","","","","","","","","","","",""
"","147.7149999991525","sequential-stimulus-presentation","93","257592","0.0-20.0-1.6","SS1613082756638","trial","","40","800","947.7149999991525","images/stimuli/spore_stims/simple_20_B_a.gif","images/stimuli/spore_stims/simple_20_A_a.gif","","","","","4","simple_similar","images/stimuli/spore_stims/simple_20_A_a.gif","left","","","","",""
"","null","html-keyboard-response","94","258678","0.0-20.0-0.7","SS1613082756638","","","null","","","","","<p><img src= images/blank.png width =""200"" height = ""200"" style = ""float:right""></p><p><img src=images/blank.png width =""800"" height = ""200""></p>","","","","","","","","","","","",""
"","386.54500000120606","sequential-stimulus-presentation","95","259879","0.0-20.0-1.7","SS1613082756638","trial","","40","800","1186.545000001206","images/stimuli/spore_stims/simple_20_B_a.gif","images/stimuli/spore_stims/simple_20_A_a.gif","","","","","4","simple_similar","images/stimuli/spore_stims/simple_20_A_a.gif","left","","","","",""
"","1779.8550000006799","html-keyboard-response","96","261670","0.0-21.0","SS1613082756638","pref_question","","97","","","","","<video width ='960' height = '540' style='padding-top:8%' autoplay muted><source src='images/stimuli/wall_pref.mp4' type='video/mp4'></video>","1","left","25%","4","","","","","","","",""
"","3196.4399999997113","sequential-stimulus-presentation","97","265677","0.0-22.0","SS1613082756638","pref_reveal","","40","800","3996.4399999997113","null","null","","","","","4","","","","background","","","",""
"","null","html-keyboard-response","98","266745","0.0-23.0-0.0","SS1613082756638","","","null","","","","","<p><img src= images/blank.png width =""200"" height = ""200"" style = ""float:right""></p><p><img src=images/blank.png width =""800"" height = ""200""></p>","","","","","","","","","","","",""
"","805.2449999959208","sequential-stimulus-presentation","99","268361","0.0-23.0-1.0","SS1613082756638","trial","","40","800","1605.2449999959208","images/stimuli/spore_stims/complex_14_B_c.gif","images/stimuli/spore_stims/complex_14_A_c.gif","","","","","5","complex_similar","images/stimuli/spore_stims/complex_14_A_c.gif","middle","","","","",""
"","null","html-keyboard-response","100","269348","0.0-23.0-0.1","SS1613082756638","","","null","","","","","<p><img src= images/blank.png width =""200"" height = ""200"" style = ""float:right""></p><p><img src=images/blank.png width =""800"" height = ""200""></p>","","","","","","","","","","","",""
"","521.1850000050617","sequential-stimulus-presentation","101","270677","0.0-23.0-1.1","SS1613082756638","trial","","40","800","1321.1850000050617","images/stimuli/spore_stims/complex_14_B_c.gif","images/stimuli/spore_stims/complex_14_A_c.gif","","","","","5","complex_similar","images/stimuli/spore_stims/complex_14_A_c.gif","middle","","","","",""
"","null","html-keyboard-response","102","271533","0.0-23.0-0.2","SS1613082756638","","","null","","","","","<p><img src= images/blank.png width =""200"" height = ""200"" style = ""float:right""></p><p><img src=images/blank.png width =""800"" height = ""200""></p>","","","","","","","","","","","",""
"","481.5099999977974","sequential-stimulus-presentation","103","272852","0.0-23.0-1.2","SS1613082756638","trial","","40","800","1281.5099999977974","images/stimuli/spore_stims/complex_14_B_c.gif","images/stimuli/spore_stims/complex_14_A_c.gif","","","","","5","complex_similar","images/stimuli/spore_stims/complex_14_A_c.gif","middle","","","","",""
"","null","html-keyboard-response","104","273965","0.0-23.0-0.3","SS1613082756638","","","null","","","","","<p><img src= images/blank.png width =""200"" height = ""200"" style = ""float:right""></p><p><img src=images/blank.png width =""800"" height = ""200""></p>","","","","","","","","","","","",""
"","300.889999998617","sequential-stimulus-presentation","105","275084","0.0-23.0-1.3","SS1613082756638","trial","","40","800","1100.889999998617","images/stimuli/spore_stims/complex_14_B_c.gif","images/stimuli/spore_stims/complex_14_A_c.gif","","","","","5","complex_similar","images/stimuli/spore_stims/complex_14_A_c.gif","middle","","","","",""
"","null","html-keyboard-response","106","275999","0.0-23.0-0.4","SS1613082756638","","","null","","","","","<p><img src= images/blank.png width =""200"" height = ""200"" style = ""float:right""></p><p><img src=images/blank.png width =""800"" height = ""200""></p>","","","","","","","","","","","",""
"","848.6849999972037","sequential-stimulus-presentation","107","277661","0.0-23.0-1.4","SS1613082756638","trial","","40","800","1648.6849999972037","images/stimuli/spore_stims/complex_14_B_c.gif","images/stimuli/spore_stims/complex_14_A_c.gif","","","","","5","complex_similar","images/stimuli/spore_stims/complex_14_A_c.gif","middle","","","","",""
"","null","html-keyboard-response","108","278744","0.0-23.0-0.5","SS1613082756638","","","null","","","","","<p><img src= images/blank.png width =""200"" height = ""200"" style = ""float:right""></p><p><img src=images/blank.png width =""800"" height = ""200""></p>","","","","","","","","","","","",""
"","332.94999999634456","sequential-stimulus-presentation","109","279894","0.0-23.0-1.5","SS1613082756638","trial","","40","800","1132.9499999963446","images/stimuli/spore_stims/complex_14_B_c.gif","images/stimuli/spore_stims/complex_14_A_c.gif","","","","","5","complex_similar","images/stimuli/spore_stims/complex_14_A_c.gif","middle","","","","",""
"","null","html-keyboard-response","110","280831","0.0-23.0-0.6","SS1613082756638","","","null","","","","","<p><img src= images/blank.png width =""200"" height = ""200"" style = ""float:right""></p><p><img src=images/blank.png width =""800"" height = ""200""></p>","","","","","","","","","","","",""
"","382.19499999831896","sequential-stimulus-presentation","111","282051","0.0-23.0-1.6","SS1613082756638","trial","","40","800","1182.194999998319","images/stimuli/spore_stims/complex_14_B_c.gif","images/stimuli/spore_stims/complex_14_A_c.gif","","","","","5","complex_similar","images/stimuli/spore_stims/complex_14_B_c.gif","left","","","","",""
"","null","html-keyboard-response","112","283274","0.0-23.0-0.7","SS1613082756638","","","null","","","","","<p><img src= images/blank.png width =""200"" height = ""200"" style = ""float:right""></p><p><img src=images/blank.png width =""800"" height = ""200""></p>","","","","","","","","","","","",""
"","624.7450000009849","sequential-stimulus-presentation","113","284714","0.0-23.0-1.7","SS1613082756638","trial","","40","800","1424.7450000009849","images/stimuli/spore_stims/complex_14_B_c.gif","images/stimuli/spore_stims/complex_14_A_c.gif","","","","","5","complex_similar","images/stimuli/spore_stims/complex_14_A_c.gif","middle","","","","",""
"","2022.1950000050128","html-keyboard-response","114","286745","0.0-24.0","SS1613082756638","pref_question","","99","","","","","<video width ='960' height = '540' style='padding-top:8%' autoplay muted><source src='images/stimuli/wall_pref.mp4' type='video/mp4'></video>","3","right","66%","5","","","","","","","",""
"","2928.0349999971804","sequential-stimulus-presentation","115","290484","0.0-25.0","SS1613082756638","pref_reveal","","40","800","3728.0349999971804","null","null","","","","","5","","","","novel","","","",""
"","null","html-keyboard-response","116","291418","0.0-26.0-0.0","SS1613082756638","","","null","","","","","<p><img src= images/blank.png width =""200"" height = ""200"" style = ""float:right""></p><p><img src=images/blank.png width =""800"" height = ""200""></p>","","","","","","","","","","","",""
"","338.05500000016764","sequential-stimulus-presentation","117","292568","0.0-26.0-1.0","SS1613082756638","trial","","40","800","1138.0550000001676","images/stimuli/spore_stims/simple_15_B_d.gif","images/stimuli/spore_stims/simple_15_A_d.gif","","","","","6","simple_similar","images/stimuli/spore_stims/simple_15_A_d.gif","right","","","","",""
"","null","html-keyboard-response","118","293510","0.0-26.0-0.1","SS1613082756638","","","null","","","","","<p><img src= images/blank.png width =""200"" height = ""200"" style = ""float:right""></p><p><img src=images/blank.png width =""800"" height = ""200""></p>","","","","","","","","","","","",""
"","615.9399999960442","sequential-stimulus-presentation","119","294945","0.0-26.0-1.1","SS1613082756638","trial","","40","800","1415.9399999960442","images/stimuli/spore_stims/simple_15_B_d.gif","images/stimuli/spore_stims/simple_15_A_d.gif","","","","","6","simple_similar","images/stimuli/spore_stims/simple_15_A_d.gif","right","","","","",""
"","null","html-keyboard-response","120","296172","0.0-26.0-0.2","SS1613082756638","","","null","","","","","<p><img src= images/blank.png width =""200"" height = ""200"" style = ""float:right""></p><p><img src=images/blank.png width =""800"" height = ""200""></p>","","","","","","","","","","","",""
"","628.499999998894","sequential-stimulus-presentation","121","297616","0.0-26.0-1.2","SS1613082756638","trial","","40","800","1428.499999998894","images/stimuli/spore_stims/simple_15_B_d.gif","images/stimuli/spore_stims/simple_15_A_d.gif","","","","","6","simple_similar","images/stimuli/spore_stims/simple_15_A_d.gif","right","","","","",""
"","null","html-keyboard-response","122","298745","0.0-26.0-0.3","SS1613082756638","","","null","","","","","<p><img src= images/blank.png width =""200"" height = ""200"" style = ""float:right""></p><p><img src=images/blank.png width =""800"" height = ""200""></p>","","","","","","","","","","","",""
"","502.7750000008382","sequential-stimulus-presentation","123","300064","0.0-26.0-1.3","SS1613082756638","trial","","40","800","1302.7750000008382","images/stimuli/spore_stims/simple_15_B_d.gif","images/stimuli/spore_stims/simple_15_A_d.gif","","","","","6","simple_similar","images/stimuli/spore_stims/simple_15_A_d.gif","right","","","","",""
"","null","html-keyboard-response","124","301345","0.0-26.0-0.4","SS1613082756638","","","null","","","","","<p><img src= images/blank.png width =""200"" height = ""200"" style = ""float:right""></p><p><img src=images/blank.png width =""800"" height = ""200""></p>","","","","","","","","","","","",""
"","390.56999999593245","sequential-stimulus-presentation","125","302552","0.0-26.0-1.4","SS1613082756638","trial","","40","800","1190.5699999959324","images/stimuli/spore_stims/simple_15_B_d.gif","images/stimuli/spore_stims/simple_15_A_d.gif","","","","","6","simple_similar","images/stimuli/spore_stims/simple_15_B_d.gif","middle","","","","",""
"","null","html-keyboard-response","126","303472","0.0-26.0-0.5","SS1613082756638","","","null","","","","","<p><img src= images/blank.png width =""200"" height = ""200"" style = ""float:right""></p><p><img src=images/blank.png width =""800"" height = ""200""></p>","","","","","","","","","","","",""
"","570.9100000021863","sequential-stimulus-presentation","127","304863","0.0-26.0-1.5","SS1613082756638","trial","","40","800","1370.9100000021863","images/stimuli/spore_stims/simple_15_B_d.gif","images/stimuli/spore_stims/simple_15_A_d.gif","","","","","6","simple_similar","images/stimuli/spore_stims/simple_15_A_d.gif","right","","","","",""
"","null","html-keyboard-response","128","305778","0.0-26.0-0.6","SS1613082756638","","","null","","","","","<p><img src= images/blank.png width =""200"" height = ""200"" style = ""float:right""></p><p><img src=images/blank.png width =""800"" height = ""200""></p>","","","","","","","","","","","",""
"","424.70999999932246","sequential-stimulus-presentation","129","307015","0.0-26.0-1.6","SS1613082756638","trial","","40","800","1224.7099999993225","images/stimuli/spore_stims/simple_15_B_d.gif","images/stimuli/spore_stims/simple_15_A_d.gif","","","","","6","simple_similar","images/stimuli/spore_stims/simple_15_A_d.gif","right","","","","",""
"","null","html-keyboard-response","130","307917","0.0-26.0-0.7","SS1613082756638","","","null","","","","","<p><img src= images/blank.png width =""200"" height = ""200"" style = ""float:right""></p><p><img src=images/blank.png width =""800"" height = ""200""></p>","","","","","","","","","","","",""
"","494.2399999999907","sequential-stimulus-presentation","131","309240","0.0-26.0-1.7","SS1613082756638","trial","","40","800","1294.2399999999907","images/stimuli/spore_stims/simple_15_B_d.gif","images/stimuli/spore_stims/simple_15_A_d.gif","","","","","6","simple_similar","images/stimuli/spore_stims/simple_15_A_d.gif","right","","","","",""
"","1456.7949999982375","html-keyboard-response","132","310706","0.0-27.0","SS1613082756638","pref_question","","97","","","","","<video width ='960' height = '540' style='padding-top:8%' autoplay muted><source src='images/stimuli/wall_pref.mp4' type='video/mp4'></video>","1","left","25%","6","","","","","","","",""
"","1269.0550000043004","sequential-stimulus-presentation","133","312793","0.0-28.0","SS1613082756638","pref_reveal","","40","800","2069.0550000043004","null","null","","","","","6","","","","novel","","","",""
"","null","html-keyboard-response","134","313939","0.0-29.0-0.0","SS1613082756638","","","null","","","","","<p><img src= images/blank.png width =""200"" height = ""200"" style = ""float:right""></p><p><img src=images/blank.png width =""800"" height = ""200""></p>","","","","","","","","","","","",""
"","329.68999999866355","sequential-stimulus-presentation","135","315087","0.0-29.0-1.0","SS1613082756638","trial","","40","800","1129.6899999986636","images/stimuli/spore_stims/simple_12_A_c.gif","images/stimuli/spore_stims/simple_12_B_c.gif","","","","","7","simple_similar","images/stimuli/spore_stims/simple_12_B_c.gif","left","","","","",""
"","null","html-keyboard-response","136","315919","0.0-29.0-0.1","SS1613082756638","","","null","","","","","<p><img src= images/blank.png width =""200"" height = ""200"" style = ""float:right""></p><p><img src=images/blank.png width =""800"" height = ""200""></p>","","","","","","","","","","","",""
"","1060.21999999939","sequential-stimulus-presentation","137","317799","0.0-29.0-1.1","SS1613082756638","trial","","40","800","1860.21999999939","images/stimuli/spore_stims/simple_12_A_c.gif","images/stimuli/spore_stims/simple_12_B_c.gif","","","","","7","simple_similar","images/stimuli/spore_stims/simple_12_B_c.gif","left","","","","",""
"","null","html-keyboard-response","138","318649","0.0-29.0-0.2","SS1613082756638","","","null","","","","","<p><img src= images/blank.png width =""200"" height = ""200"" style = ""float:right""></p><p><img src=images/blank.png width =""800"" height = ""200""></p>","","","","","","","","","","","",""
"","820.2149999997346","sequential-stimulus-presentation","139","320278","0.0-29.0-1.2","SS1613082756638","trial","","40","800","1620.2149999997346","images/stimuli/spore_stims/simple_12_A_c.gif","images/stimuli/spore_stims/simple_12_B_c.gif","","","","","7","simple_similar","images/stimuli/spore_stims/simple_12_B_c.gif","left","","","","",""
"","null","html-keyboard-response","140","321462","0.0-29.0-0.3","SS1613082756638","","","null","","","","","<p><img src= images/blank.png width =""200"" height = ""200"" style = ""float:right""></p><p><img src=images/blank.png width =""800"" height = ""200""></p>","","","","","","","","","","","",""
"","1306.3700000056997","sequential-stimulus-presentation","141","323585","0.0-29.0-1.3","SS1613082756638","trial","","40","800","2106.3700000056997","images/stimuli/spore_stims/simple_12_A_c.gif","images/stimuli/spore_stims/simple_12_B_c.gif","","","","","7","simple_similar","images/stimuli/spore_stims/simple_12_B_c.gif","left","","","","",""
"","null","html-keyboard-response","142","324628","0.0-29.0-0.4","SS1613082756638","","","null","","","","","<p><img src= images/blank.png width =""200"" height = ""200"" style = ""float:right""></p><p><img src=images/blank.png width =""800"" height = ""200""></p>","","","","","","","","","","","",""
"","812.0649999982561","sequential-stimulus-presentation","143","326253","0.0-29.0-1.4","SS1613082756638","trial","","40","800","1612.064999998256","images/stimuli/spore_stims/simple_12_A_c.gif","images/stimuli/spore_stims/simple_12_B_c.gif","","","","","7","simple_similar","images/stimuli/spore_stims/simple_12_B_c.gif","left","","","","",""
"","null","html-keyboard-response","144","327085","0.0-29.0-0.5","SS1613082756638","","","null","","","","","<p><img src= images/blank.png width =""200"" height = ""200"" style = ""float:right""></p><p><img src=images/blank.png width =""800"" height = ""200""></p>","","","","","","","","","","","",""
"","491.56500000390224","sequential-stimulus-presentation","145","328389","0.0-29.0-1.5","SS1613082756638","trial","","40","800","1291.5650000039022","images/stimuli/spore_stims/simple_12_A_c.gif","images/stimuli/spore_stims/simple_12_B_c.gif","","","","","7","simple_similar","images/stimuli/spore_stims/simple_12_B_c.gif","left","","","","",""
"","null","html-keyboard-response","146","329606","0.0-29.0-0.6","SS1613082756638","","","null","","","","","<p><img src= images/blank.png width =""200"" height = ""200"" style = ""float:right""></p><p><img src=images/blank.png width =""800"" height = ""200""></p>","","","","","","","","","","","",""
"","397.7200000008452","sequential-stimulus-presentation","147","330822","0.0-29.0-1.6","SS1613082756638","trial","","40","800","1197.7200000008452","images/stimuli/spore_stims/simple_12_A_c.gif","images/stimuli/spore_stims/simple_12_B_c.gif","","","","","7","simple_similar","images/stimuli/spore_stims/simple_12_A_c.gif","middle","","","","",""
"","null","html-keyboard-response","148","331811","0.0-29.0-0.7","SS1613082756638","","","null","","","","","<p><img src= images/blank.png width =""200"" height = ""200"" style = ""float:right""></p><p><img src=images/blank.png width =""800"" height = ""200""></p>","","","","","","","","","","","",""
"","663.2750000062515","sequential-stimulus-presentation","149","333325","0.0-29.0-1.7","SS1613082756638","trial","","40","800","1463.2750000062515","images/stimuli/spore_stims/simple_12_A_c.gif","images/stimuli/spore_stims/simple_12_B_c.gif","","","","","7","simple_similar","images/stimuli/spore_stims/simple_12_B_c.gif","left","","","","",""
"","2544.6500000034575","html-keyboard-response","150","335887","0.0-30.0","SS1613082756638","pref_question","","51","","","","","<video width ='960' height = '540' style='padding-top:8%' autoplay muted><source src='images/stimuli/wall_pref.mp4' type='video/mp4'></video>","3","right","66%","7","","","","","","","",""
"","2614.5699999979115","sequential-stimulus-presentation","151","339323","0.0-31.0","SS1613082756638","pref_reveal","","40","800","3414.5699999979115","null","null","","","","","7","","","","novel","","","",""
"","null","html-keyboard-response","152","340420","0.0-32.0-0.0","SS1613082756638","","","null","","","","","<p><img src= images/blank.png width =""200"" height = ""200"" style = ""float:right""></p><p><img src=images/blank.png width =""800"" height = ""200""></p>","","","","","","","","","","","",""
"","312.9049999988638","sequential-stimulus-presentation","153","341556","0.0-32.0-1.0","SS1613082756638","trial","","40","800","1112.9049999988638","images/stimuli/spore_stims/simple_08_A_b.gif","images/stimuli/spore_stims/simple_11_B_c.gif","","","","","8","simple_dissimilar","images/stimuli/spore_stims/simple_11_B_c.gif","left","","","","",""
"","null","html-keyboard-response","154","342736","0.0-32.0-0.1","SS1613082756638","","","null","","","","","<p><img src= images/blank.png width =""200"" height = ""200"" style = ""float:right""></p><p><img src=images/blank.png width =""800"" height = ""200""></p>","","","","","","","","","","","",""
"","400.4750000021886","sequential-stimulus-presentation","155","343955","0.0-32.0-1.1","SS1613082756638","trial","","40","800","1200.4750000021886","images/stimuli/spore_stims/simple_08_A_b.gif","images/stimuli/spore_stims/simple_11_B_c.gif","","","","","8","simple_dissimilar","images/stimuli/spore_stims/simple_11_B_c.gif","left","","","","",""
"","null","html-keyboard-response","156","344814","0.0-32.0-0.2","SS1613082756638","","","null","","","","","<p><img src= images/blank.png width =""200"" height = ""200"" style = ""float:right""></p><p><img src=images/blank.png width =""800"" height = ""200""></p>","","","","","","","","","","","",""
"","301.39499999495456","sequential-stimulus-presentation","157","345931","0.0-32.0-1.2","SS1613082756638","trial","","40","800","1101.3949999949546","images/stimuli/spore_stims/simple_08_A_b.gif","images/stimuli/spore_stims/simple_11_B_c.gif","","","","","8","simple_dissimilar","images/stimuli/spore_stims/simple_11_B_c.gif","left","","","","",""
"","null","html-keyboard-response","158","346805","0.0-32.0-0.3","SS1613082756638","","","null","","","","","<p><img src= images/blank.png width =""200"" height = ""200"" style = ""float:right""></p><p><img src=images/blank.png width =""800"" height = ""200""></p>","","","","","","","","","","","",""
"","361.4700000034645","sequential-stimulus-presentation","159","347986","0.0-32.0-1.3","SS1613082756638","trial","","40","800","1161.4700000034645","images/stimuli/spore_stims/simple_08_A_b.gif","images/stimuli/spore_stims/simple_11_B_c.gif","","","","","8","simple_dissimilar","images/stimuli/spore_stims/simple_11_B_c.gif","left","","","","",""
"","null","html-keyboard-response","160","349292","0.0-32.0-0.4","SS1613082756638","","","null","","","","","<p><img src= images/blank.png width =""200"" height = ""200"" style = ""float:right""></p><p><img src=images/blank.png width =""800"" height = ""200""></p>","","","","","","","","","","","",""
"","540.4850000049919","sequential-stimulus-presentation","161","350650","0.0-32.0-1.4","SS1613082756638","trial","","40","800","1340.485000004992","images/stimuli/spore_stims/simple_08_A_b.gif","images/stimuli/spore_stims/simple_11_B_c.gif","","","","","8","simple_dissimilar","images/stimuli/spore_stims/simple_08_A_b.gif","middle","","","","",""
"","null","html-keyboard-response","162","351859","0.0-32.0-0.5","SS1613082756638","","","null","","","","","<p><img src= images/blank.png width =""200"" height = ""200"" style = ""float:right""></p><p><img src=images/blank.png width =""800"" height = ""200""></p>","","","","","","","","","","","",""
"","591.5700000041397","sequential-stimulus-presentation","163","353266","0.0-32.0-1.5","SS1613082756638","trial","","40","800","1391.5700000041397","images/stimuli/spore_stims/simple_08_A_b.gif","images/stimuli/spore_stims/simple_11_B_c.gif","","","","","8","simple_dissimilar","images/stimuli/spore_stims/simple_11_B_c.gif","left","","","","",""
"","null","html-keyboard-response","164","354265","0.0-32.0-0.6","SS1613082756638","","","null","","","","","<p><img src= images/blank.png width =""200"" height = ""200"" style = ""float:right""></p><p><img src=images/blank.png width =""800"" height = ""200""></p>","","","","","","","","","","","",""
"","371.44500000431435","sequential-stimulus-presentation","165","355456","0.0-32.0-1.6","SS1613082756638","trial","","40","800","1171.4450000043144","images/stimuli/spore_stims/simple_08_A_b.gif","images/stimuli/spore_stims/simple_11_B_c.gif","","","","","8","simple_dissimilar","images/stimuli/spore_stims/simple_11_B_c.gif","left","","","","",""
"","null","html-keyboard-response","166","356315","0.0-32.0-0.7","SS1613082756638","","","null","","","","","<p><img src= images/blank.png width =""200"" height = ""200"" style = ""float:right""></p><p><img src=images/blank.png width =""800"" height = ""200""></p>","","","","","","","","","","","",""
"","910.360000001674","sequential-stimulus-presentation","167","358035","0.0-32.0-1.7","SS1613082756638","trial","","40","800","1710.360000001674","images/stimuli/spore_stims/simple_08_A_b.gif","images/stimuli/spore_stims/simple_11_B_c.gif","","","","","8","simple_dissimilar","images/stimuli/spore_stims/simple_11_B_c.gif","left","","","","",""
"","1752.7550000013434","html-keyboard-response","168","359840","0.0-33.0","SS1613082756638","pref_question","","99","","","","","<video width ='960' height = '540' style='padding-top:8%' autoplay muted><source src='images/stimuli/wall_pref.mp4' type='video/mp4'></video>","3","right","66%","8","","","","","","","",""
"","1955.4599999974016","sequential-stimulus-presentation","169","362615","0.0-34.0","SS1613082756638","pref_reveal","","40","800","2755.4599999974016","null","null","","","","","8","","","","novel","","","",""
"","null","html-keyboard-response","170","363718","0.0-35.0-0.0","SS1613082756638","","","null","","","","","<p><img src= images/blank.png width =""200"" height = ""200"" style = ""float:right""></p><p><img src=images/blank.png width =""800"" height = ""200""></p>","","","","","","","","","","","",""
"","475.41500000079395","sequential-stimulus-presentation","171","365015","0.0-35.0-1.0","SS1613082756638","trial","","40","800","1275.415000000794","images/stimuli/spore_stims/complex_18_B_a.gif","images/stimuli/spore_stims/complex_18_A_a.gif","","","","","9","complex_similar","images/stimuli/spore_stims/complex_18_A_a.gif","right","","","","",""
"","null","html-keyboard-response","172","366177","0.0-35.0-0.1","SS1613082756638","","","null","","","","","<p><img src= images/blank.png width =""200"" height = ""200"" style = ""float:right""></p><p><img src=images/blank.png width =""800"" height = ""200""></p>","","","","","","","","","","","",""
"","424.84500000136904","sequential-stimulus-presentation","173","367423","0.0-35.0-1.1","SS1613082756638","trial","","40","800","1224.845000001369","images/stimuli/spore_stims/complex_18_B_a.gif","images/stimuli/spore_stims/complex_18_A_a.gif","","","","","9","complex_similar","images/stimuli/spore_stims/complex_18_A_a.gif","right","","","","",""
"","null","html-keyboard-response","174","368427","0.0-35.0-0.2","SS1613082756638","","","null","","","","","<p><img src= images/blank.png width =""200"" height = ""200"" style = ""float:right""></p><p><img src=images/blank.png width =""800"" height = ""200""></p>","","","","","","","","","","","",""
"","360.9250000008615","sequential-stimulus-presentation","175","369610","0.0-35.0-1.2","SS1613082756638","trial","","40","800","1160.9250000008615","images/stimuli/spore_stims/complex_18_B_a.gif","images/stimuli/spore_stims/complex_18_A_a.gif","","","","","9","complex_similar","images/stimuli/spore_stims/complex_18_A_a.gif","right","","","","",""
"","null","html-keyboard-response","176","370757","0.0-35.0-0.3","SS1613082756638","","","null","","","","","<p><img src= images/blank.png width =""200"" height = ""200"" style = ""float:right""></p><p><img src=images/blank.png width =""800"" height = ""200""></p>","","","","","","","","","","","",""
"","278.36000000388594","sequential-stimulus-presentation","177","371856","0.0-35.0-1.3","SS1613082756638","trial","","40","800","1078.360000003886","images/stimuli/spore_stims/complex_18_B_a.gif","images/stimuli/spore_stims/complex_18_A_a.gif","","","","","9","complex_similar","images/stimuli/spore_stims/complex_18_A_a.gif","right","","","","",""
"","null","html-keyboard-response","178","372806","0.0-35.0-0.4","SS1613082756638","","","null","","","","","<p><img src= images/blank.png width =""200"" height = ""200"" style = ""float:right""></p><p><img src=images/blank.png width =""800"" height = ""200""></p>","","","","","","","","","","","",""
"","389.19500000338303","sequential-stimulus-presentation","179","374016","0.0-35.0-1.4","SS1613082756638","trial","","40","800","1189.195000003383","images/stimuli/spore_stims/complex_18_B_a.gif","images/stimuli/spore_stims/complex_18_A_a.gif","","","","","9","complex_similar","images/stimuli/spore_stims/complex_18_A_a.gif","right","","","","",""
"","null","html-keyboard-response","180","375277","0.0-35.0-0.5","SS1613082756638","","","null","","","","","<p><img src= images/blank.png width =""200"" height = ""200"" style = ""float:right""></p><p><img src=images/blank.png width =""800"" height = ""200""></p>","","","","","","","","","","","",""
"","335.54999999614665","sequential-stimulus-presentation","181","376439","0.0-35.0-1.5","SS1613082756638","trial","","40","800","1135.5499999961467","images/stimuli/spore_stims/complex_18_B_a.gif","images/stimuli/spore_stims/complex_18_A_a.gif","","","","","9","complex_similar","images/stimuli/spore_stims/complex_18_A_a.gif","right","","","","",""
"","null","html-keyboard-response","182","377551","0.0-35.0-0.6","SS1613082756638","","","null","","","","","<p><img src= images/blank.png width =""200"" height = ""200"" style = ""float:right""></p><p><img src=images/blank.png width =""800"" height = ""200""></p>","","","","","","","","","","","",""
"","323.79499999660766","sequential-stimulus-presentation","183","378696","0.0-35.0-1.6","SS1613082756638","trial","","40","800","1123.7949999966077","images/stimuli/spore_stims/complex_18_B_a.gif","images/stimuli/spore_stims/complex_18_A_a.gif","","","","","9","complex_similar","images/stimuli/spore_stims/complex_18_B_a.gif","left","","","","",""
"","null","html-keyboard-response","184","379875","0.0-35.0-0.7","SS1613082756638","","","null","","","","","<p><img src= images/blank.png width =""200"" height = ""200"" style = ""float:right""></p><p><img src=images/blank.png width =""800"" height = ""200""></p>","","","","","","","","","","","",""
"","462.7050000053714","sequential-stimulus-presentation","185","381153","0.0-35.0-1.7","SS1613082756638","trial","","40","800","1262.7050000053714","images/stimuli/spore_stims/complex_18_B_a.gif","images/stimuli/spore_stims/complex_18_A_a.gif","","","","","9","complex_similar","images/stimuli/spore_stims/complex_18_A_a.gif","right","","","","",""
"","2001.5799999964656","html-keyboard-response","186","383175","0.0-36.0","SS1613082756638","pref_question","","97","","","","","<video width ='960' height = '540' style='padding-top:8%' autoplay muted><source src='images/stimuli/wall_pref.mp4' type='video/mp4'></video>","1","left","25%","9","","","","","","","",""
"","1464.4350000016857","sequential-stimulus-presentation","187","385462","0.0-37.0","SS1613082756638","pref_reveal","","40","800","2264.4350000016857","null","null","","","","","9","","","","deviant","","","",""
"","null","html-keyboard-response","188","386368","0.0-38.0-0.0","SS1613082756638","","","null","","","","","<p><img src= images/blank.png width =""200"" height = ""200"" style = ""float:right""></p><p><img src=images/blank.png width =""800"" height = ""200""></p>","","","","","","","","","","","",""
"","520.1349999988452","sequential-stimulus-presentation","189","387711","0.0-38.0-1.0","SS1613082756638","trial","","40","800","1320.1349999988452","images/stimuli/spore_stims/simple_09_A_a.gif","images/stimuli/spore_stims/simple_02_B_a.gif","","","","","10","simple_dissimilar","images/stimuli/spore_stims/simple_02_B_a.gif","middle","","","","",""
"","null","html-keyboard-response","190","388999","0.0-38.0-0.1","SS1613082756638","","","null","","","","","<p><img src= images/blank.png width =""200"" height = ""200"" style = ""float:right""></p><p><img src=images/blank.png width =""800"" height = ""200""></p>","","","","","","","","","","","",""
"","336.8350000018836","sequential-stimulus-presentation","191","390158","0.0-38.0-1.1","SS1613082756638","trial","","40","800","1136.8350000018836","images/stimuli/spore_stims/simple_09_A_a.gif","images/stimuli/spore_stims/simple_02_B_a.gif","","","","","10","simple_dissimilar","images/stimuli/spore_stims/simple_02_B_a.gif","middle","","","","",""
"","null","html-keyboard-response","192","391382","0.0-38.0-0.2","SS1613082756638","","","null","","","","","<p><img src= images/blank.png width =""200"" height = ""200"" style = ""float:right""></p><p><img src=images/blank.png width =""800"" height = ""200""></p>","","","","","","","","","","","",""
"","339.36000000539934","sequential-stimulus-presentation","193","392543","0.0-38.0-1.2","SS1613082756638","trial","","40","800","1139.3600000053993","images/stimuli/spore_stims/simple_09_A_a.gif","images/stimuli/spore_stims/simple_02_B_a.gif","","","","","10","simple_dissimilar","images/stimuli/spore_stims/simple_09_A_a.gif","right","","","","",""
"","null","html-keyboard-response","194","393518","0.0-38.0-0.3","SS1613082756638","","","null","","","","","<p><img src= images/blank.png width =""200"" height = ""200"" style = ""float:right""></p><p><img src=images/blank.png width =""800"" height = ""200""></p>","","","","","","","","","","","",""
"","378.5150000039721","sequential-stimulus-presentation","195","394708","0.0-38.0-1.3","SS1613082756638","trial","","40","800","1178.515000003972","images/stimuli/spore_stims/simple_09_A_a.gif","images/stimuli/spore_stims/simple_02_B_a.gif","","","","","10","simple_dissimilar","images/stimuli/spore_stims/simple_02_B_a.gif","middle","","","","",""
"","null","html-keyboard-response","196","395704","0.0-38.0-0.4","SS1613082756638","","","null","","","","","<p><img src= images/blank.png width =""200"" height = ""200"" style = ""float:right""></p><p><img src=images/blank.png width =""800"" height = ""200""></p>","","","","","","","","","","","",""
"","342.9600000017672","sequential-stimulus-presentation","197","396869","0.0-38.0-1.4","SS1613082756638","trial","","40","800","1142.9600000017672","images/stimuli/spore_stims/simple_09_A_a.gif","images/stimuli/spore_stims/simple_02_B_a.gif","","","","","10","simple_dissimilar","images/stimuli/spore_stims/simple_02_B_a.gif","middle","","","","",""
"","null","html-keyboard-response","198","397887","0.0-38.0-0.5","SS1613082756638","","","null","","","","","<p><img src= images/blank.png width =""200"" height = ""200"" style = ""float:right""></p><p><img src=images/blank.png width =""800"" height = ""200""></p>","","","","","","","","","","","",""
"","353.63499999948544","sequential-stimulus-presentation","199","399051","0.0-38.0-1.5","SS1613082756638","trial","","40","800","1153.6349999994854","images/stimuli/spore_stims/simple_09_A_a.gif","images/stimuli/spore_stims/simple_02_B_a.gif","","","","","10","simple_dissimilar","images/stimuli/spore_stims/simple_02_B_a.gif","middle","","","","",""
"","null","html-keyboard-response","200","399919","0.0-38.0-0.6","SS1613082756638","","","null","","","","","<p><img src= images/blank.png width =""200"" height = ""200"" style = ""float:right""></p><p><img src=images/blank.png width =""800"" height = ""200""></p>","","","","","","","","","","","",""
"","497.06999999762047","sequential-stimulus-presentation","201","401243","0.0-38.0-1.6","SS1613082756638","trial","","40","800","1297.0699999976205","images/stimuli/spore_stims/simple_09_A_a.gif","images/stimuli/spore_stims/simple_02_B_a.gif","","","","","10","simple_dissimilar","images/stimuli/spore_stims/simple_02_B_a.gif","middle","","","","",""
"","null","html-keyboard-response","202","402182","0.0-38.0-0.7","SS1613082756638","","","null","","","","","<p><img src= images/blank.png width =""200"" height = ""200"" style = ""float:right""></p><p><img src=images/blank.png width =""800"" height = ""200""></p>","","","","","","","","","","","",""
"","391.75499999691965","sequential-stimulus-presentation","203","403395","0.0-38.0-1.7","SS1613082756638","trial","","40","800","1191.7549999969197","images/stimuli/spore_stims/simple_09_A_a.gif","images/stimuli/spore_stims/simple_02_B_a.gif","","","","","10","simple_dissimilar","images/stimuli/spore_stims/simple_02_B_a.gif","middle","","","","",""
"","1308.1099999981234","html-keyboard-response","204","404715","0.0-39.0","SS1613082756638","pref_question","","97","","","","","<video width ='960' height = '540' style='padding-top:8%' autoplay muted><source src='images/stimuli/wall_pref.mp4' type='video/mp4'></video>","1","left","25%","10","","","","","","","",""
"","897.5750000026892","sequential-stimulus-presentation","205","406434","0.0-40.0","SS1613082756638","pref_reveal","","40","800","1697.5750000026892","null","null","","","","","10","","","","novel","","","",""
"","null","html-keyboard-response","206","407640","0.0-41.0-0.0","SS1613082756638","","","null","","","","","<p><img src= images/blank.png width =""200"" height = ""200"" style = ""float:right""></p><p><img src=images/blank.png width =""800"" height = ""200""></p>","","","","","","","","","","","",""
"","442.0350000000326","sequential-stimulus-presentation","207","408906","0.0-41.0-1.0","SS1613082756638","trial","","40","800","1242.0350000000326","images/stimuli/spore_stims/complex_09_B_d.gif","images/stimuli/spore_stims/complex_03_A_d.gif","","","","","11","complex_dissimilar","images/stimuli/spore_stims/complex_03_A_d.gif","right","","","","",""
"","null","html-keyboard-response","208","409814","0.0-41.0-0.1","SS1613082756638","","","null","","","","","<p><img src= images/blank.png width =""200"" height = ""200"" style = ""float:right""></p><p><img src=images/blank.png width =""800"" height = ""200""></p>","","","","","","","","","","","",""
"","516.1949999965145","sequential-stimulus-presentation","209","411153","0.0-41.0-1.1","SS1613082756638","trial","","40","800","1316.1949999965145","images/stimuli/spore_stims/complex_09_B_d.gif","images/stimuli/spore_stims/complex_03_A_d.gif","","","","","11","complex_dissimilar","images/stimuli/spore_stims/complex_03_A_d.gif","right","","","","",""
"","null","html-keyboard-response","210","412186","0.0-41.0-0.2","SS1613082756638","","","null","","","","","<p><img src= images/blank.png width =""200"" height = ""200"" style = ""float:right""></p><p><img src=images/blank.png width =""800"" height = ""200""></p>","","","","","","","","","","","",""
"","424.5749999972759","sequential-stimulus-presentation","211","413436","0.0-41.0-1.2","SS1613082756638","trial","","40","800","1224.5749999972759","images/stimuli/spore_stims/complex_09_B_d.gif","images/stimuli/spore_stims/complex_03_A_d.gif","","","","","11","complex_dissimilar","images/stimuli/spore_stims/complex_03_A_d.gif","right","","","","",""
"","null","html-keyboard-response","212","414516","0.0-41.0-0.3","SS1613082756638","","","null","","","","","<p><img src= images/blank.png width =""200"" height = ""200"" style = ""float:right""></p><p><img src=images/blank.png width =""800"" height = ""200""></p>","","","","","","","","","","","",""
"","359.2449999996461","sequential-stimulus-presentation","213","415737","0.0-41.0-1.3","SS1613082756638","trial","","40","800","1159.244999999646","images/stimuli/spore_stims/complex_09_B_d.gif","images/stimuli/spore_stims/complex_03_A_d.gif","","","","","11","complex_dissimilar","images/stimuli/spore_stims/complex_03_A_d.gif","right","","","","",""
"","null","html-keyboard-response","214","416990","0.0-41.0-0.4","SS1613082756638","","","null","","","","","<p><img src= images/blank.png width =""200"" height = ""200"" style = ""float:right""></p><p><img src=images/blank.png width =""800"" height = ""200""></p>","","","","","","","","","","","",""
"","236.0499999995227","sequential-stimulus-presentation","215","418048","0.0-41.0-1.4","SS1613082756638","trial","","40","800","1036.0499999995227","images/stimuli/spore_stims/complex_09_B_d.gif","images/stimuli/spore_stims/complex_03_A_d.gif","","","","","11","complex_dissimilar","images/stimuli/spore_stims/complex_03_A_d.gif","right","","","","",""
"","null","html-keyboard-response","216","419344","0.0-41.0-0.5","SS1613082756638","","","null","","","","","<p><img src= images/blank.png width =""200"" height = ""200"" style = ""float:right""></p><p><img src=images/blank.png width =""800"" height = ""200""></p>","","","","","","","","","","","",""
"","355.9049999967101","sequential-stimulus-presentation","217","420521","0.0-41.0-1.5","SS1613082756638","trial","","40","800","1155.90499999671","images/stimuli/spore_stims/complex_09_B_d.gif","images/stimuli/spore_stims/complex_03_A_d.gif","","","","","11","complex_dissimilar","images/stimuli/spore_stims/complex_03_A_d.gif","right","","","","",""
"","null","html-keyboard-response","218","421789","0.0-41.0-0.6","SS1613082756638","","","null","","","","","<p><img src= images/blank.png width =""200"" height = ""200"" style = ""float:right""></p><p><img src=images/blank.png width =""800"" height = ""200""></p>","","","","","","","","","","","",""
"","315.7850000061444","sequential-stimulus-presentation","219","422926","0.0-41.0-1.6","SS1613082756638","trial","","40","800","1115.7850000061444","images/stimuli/spore_stims/complex_09_B_d.gif","images/stimuli/spore_stims/complex_03_A_d.gif","","","","","11","complex_dissimilar","images/stimuli/spore_stims/complex_03_A_d.gif","right","","","","",""
"","null","html-keyboard-response","220","423867","0.0-41.0-0.7","SS1613082756638","","","null","","","","","<p><img src= images/blank.png width =""200"" height = ""200"" style = ""float:right""></p><p><img src=images/blank.png width =""800"" height = ""200""></p>","","","","","","","","","","","",""
"","382.3999999949592","sequential-stimulus-presentation","221","425073","0.0-41.0-1.7","SS1613082756638","trial","","40","800","1182.3999999949592","images/stimuli/spore_stims/complex_09_B_d.gif","images/stimuli/spore_stims/complex_03_A_d.gif","","","","","11","complex_dissimilar","images/stimuli/spore_stims/complex_09_B_d.gif","left","","","","",""
"","1432.4199999973644","html-keyboard-response","222","426527","0.0-42.0","SS1613082756638","pref_question","","97","","","","","<video width ='960' height = '540' style='padding-top:8%' autoplay muted><source src='images/stimuli/wall_pref.mp4' type='video/mp4'></video>","1","left","25%","11","","","","","","","",""
"","1319.1599999991013","sequential-stimulus-presentation","223","428670","0.0-43.0","SS1613082756638","pref_reveal","","40","800","2119.1599999991013","null","null","","","","","11","","","","deviant","","","",""
"","null","html-keyboard-response","224","429596","0.0-44.0-0.0","SS1613082756638","","","null","","","","","<p><img src= images/blank.png width =""200"" height = ""200"" style = ""float:right""></p><p><img src=images/blank.png width =""800"" height = ""200""></p>","","","","","","","","","","","",""
"","333.82999999594176","sequential-stimulus-presentation","225","430753","0.0-44.0-1.0","SS1613082756638","trial","","40","800","1133.8299999959418","images/stimuli/spore_stims/complex_10_A_d.gif","images/stimuli/spore_stims/complex_10_B_d.gif","","","","","12","complex_similar","images/stimuli/spore_stims/complex_10_B_d.gif","left","","","","",""
"","null","html-keyboard-response","226","431819","0.0-44.0-0.1","SS1613082756638","","","null","","","","","<p><img src= images/blank.png width =""200"" height = ""200"" style = ""float:right""></p><p><img src=images/blank.png width =""800"" height = ""200""></p>","","","","","","","","","","","",""
"","381.66000000637723","sequential-stimulus-presentation","227","433024","0.0-44.0-1.1","SS1613082756638","trial","","40","800","1181.6600000063772","images/stimuli/spore_stims/complex_10_A_d.gif","images/stimuli/spore_stims/complex_10_B_d.gif","","","","","12","complex_similar","images/stimuli/spore_stims/complex_10_B_d.gif","left","","","","",""
"","null","html-keyboard-response","228","434114","0.0-44.0-0.2","SS1613082756638","","","null","","","","","<p><img src= images/blank.png width =""200"" height = ""200"" style = ""float:right""></p><p><img src=images/blank.png width =""800"" height = ""200""></p>","","","","","","","","","","","",""
"","327.72499999555293","sequential-stimulus-presentation","229","435266","0.0-44.0-1.2","SS1613082756638","trial","","40","800","1127.724999995553","images/stimuli/spore_stims/complex_10_A_d.gif","images/stimuli/spore_stims/complex_10_B_d.gif","","","","","12","complex_similar","images/stimuli/spore_stims/complex_10_A_d.gif","right","","","","",""
"","null","html-keyboard-response","230","436476","0.0-44.0-0.3","SS1613082756638","","","null","","","","","<p><img src= images/blank.png width =""200"" height = ""200"" style = ""float:right""></p><p><img src=images/blank.png width =""800"" height = ""200""></p>","","","","","","","","","","","",""
"","242.94999999983702","sequential-stimulus-presentation","231","437543","0.0-44.0-1.3","SS1613082756638","trial","","40","800","1042.949999999837","images/stimuli/spore_stims/complex_10_A_d.gif","images/stimuli/spore_stims/complex_10_B_d.gif","","","","","12","complex_similar","images/stimuli/spore_stims/complex_10_B_d.gif","left","","","","",""
"","null","html-keyboard-response","232","438623","0.0-44.0-0.4","SS1613082756638","","","null","","","","","<p><img src= images/blank.png width =""200"" height = ""200"" style = ""float:right""></p><p><img src=images/blank.png width =""800"" height = ""200""></p>","","","","","","","","","","","",""
"","412.30499999801395","sequential-stimulus-presentation","233","439872","0.0-44.0-1.4","SS1613082756638","trial","","40","800","1212.304999998014","images/stimuli/spore_stims/complex_10_A_d.gif","images/stimuli/spore_stims/complex_10_B_d.gif","","","","","12","complex_similar","images/stimuli/spore_stims/complex_10_B_d.gif","left","","","","",""
"","null","html-keyboard-response","234","441059","0.0-44.0-0.5","SS1613082756638","","","null","","","","","<p><img src= images/blank.png width =""200"" height = ""200"" style = ""float:right""></p><p><img src=images/blank.png width =""800"" height = ""200""></p>","","","","","","","","","","","",""
"","211.14499999384861","sequential-stimulus-presentation","235","442094","0.0-44.0-1.5","SS1613082756638","trial","","40","800","1011.1449999938486","images/stimuli/spore_stims/complex_10_A_d.gif","images/stimuli/spore_stims/complex_10_B_d.gif","","","","","12","complex_similar","images/stimuli/spore_stims/complex_10_B_d.gif","left","","","","",""
"","null","html-keyboard-response","236","443131","0.0-44.0-0.6","SS1613082756638","","","null","","","","","<p><img src= images/blank.png width =""200"" height = ""200"" style = ""float:right""></p><p><img src=images/blank.png width =""800"" height = ""200""></p>","","","","","","","","","","","",""
"","323.60999999946216","sequential-stimulus-presentation","237","444278","0.0-44.0-1.6","SS1613082756638","trial","","40","800","1123.6099999994622","images/stimuli/spore_stims/complex_10_A_d.gif","images/stimuli/spore_stims/complex_10_B_d.gif","","","","","12","complex_similar","images/stimuli/spore_stims/complex_10_B_d.gif","left","","","","",""
"","null","html-keyboard-response","238","445121","0.0-44.0-0.7","SS1613082756638","","","null","","","","","<p><img src= images/blank.png width =""200"" height = ""200"" style = ""float:right""></p><p><img src=images/blank.png width =""800"" height = ""200""></p>","","","","","","","","","","","",""
"","456.66999999957625","sequential-stimulus-presentation","239","446401","0.0-44.0-1.7","SS1613082756638","trial","","40","800","1256.6699999995762","images/stimuli/spore_stims/complex_10_A_d.gif","images/stimuli/spore_stims/complex_10_B_d.gif","","","","","12","complex_similar","images/stimuli/spore_stims/complex_10_B_d.gif","left","","","","",""
"","1342.0049999986077","html-keyboard-response","240","447766","0.0-45.0","SS1613082756638","pref_question","","97","","","","","<video width ='960' height = '540' style='padding-top:8%' autoplay muted><source src='images/stimuli/wall_pref.mp4' type='video/mp4'></video>","1","left","25%","12","","","","","","","",""
"","1066.1550000004354","sequential-stimulus-presentation","241","449654","0.0-46.0","SS1613082756638","pref_reveal","","40","800","1866.1550000004354","null","null","","","","","12","","","","background","","","",""
"","null","html-keyboard-response","242","450742","0.0-47.0-0.0","SS1613082756638","","","null","","","","","<p><img src= images/blank.png width =""200"" height = ""200"" style = ""float:right""></p><p><img src=images/blank.png width =""800"" height = ""200""></p>","","","","","","","","","","","",""
"","806.9149999937508","sequential-stimulus-presentation","243","452381","0.0-47.0-1.0","SS1613082756638","trial","","40","800","1606.9149999937508","images/stimuli/spore_stims/simple_18_A_d.gif","images/stimuli/spore_stims/simple_05_B_c.gif","","","","","13","simple_dissimilar","images/stimuli/spore_stims/simple_05_B_c.gif","right","","","","",""
"","null","html-keyboard-response","244","453525","0.0-47.0-0.1","SS1613082756638","","","null","","","","","<p><img src= images/blank.png width =""200"" height = ""200"" style = ""float:right""></p><p><img src=images/blank.png width =""800"" height = ""200""></p>","","","","","","","","","","","",""
"","159.36499999952503","sequential-stimulus-presentation","245","454508","0.0-47.0-1.1","SS1613082756638","trial","","40","800","959.364999999525","images/stimuli/spore_stims/simple_18_A_d.gif","images/stimuli/spore_stims/simple_05_B_c.gif","","","","","13","simple_dissimilar","images/stimuli/spore_stims/simple_05_B_c.gif","right","","","","",""
"","null","html-keyboard-response","246","455372","0.0-47.0-0.2","SS1613082756638","","","null","","","","","<p><img src= images/blank.png width =""200"" height = ""200"" style = ""float:right""></p><p><img src=images/blank.png width =""800"" height = ""200""></p>","","","","","","","","","","","",""
"","1202.0449999981793","sequential-stimulus-presentation","247","457399","0.0-47.0-1.2","SS1613082756638","trial","","40","800","2002.0449999981793","images/stimuli/spore_stims/simple_18_A_d.gif","images/stimuli/spore_stims/simple_05_B_c.gif","","","","","13","simple_dissimilar","images/stimuli/spore_stims/simple_18_A_d.gif","middle","","","","",""
"","null","html-keyboard-response","248","458215","0.0-47.0-0.3","SS1613082756638","","","null","","","","","<p><img src= images/blank.png width =""200"" height = ""200"" style = ""float:right""></p><p><img src=images/blank.png width =""800"" height = ""200""></p>","","","","","","","","","","","",""
"","682.264999995823","sequential-stimulus-presentation","249","459724","0.0-47.0-1.3","SS1613082756638","trial","","40","800","1482.264999995823","images/stimuli/spore_stims/simple_18_A_d.gif","images/stimuli/spore_stims/simple_05_B_c.gif","","","","","13","simple_dissimilar","images/stimuli/spore_stims/simple_05_B_c.gif","right","","","","",""
"","null","html-keyboard-response","250","460945","0.0-47.0-0.4","SS1613082756638","","","null","","","","","<p><img src= images/blank.png width =""200"" height = ""200"" style = ""float:right""></p><p><img src=images/blank.png width =""800"" height = ""200""></p>","","","","","","","","","","","",""
"","1216.6550000038114","sequential-stimulus-presentation","251","462987","0.0-47.0-1.4","SS1613082756638","trial","","40","800","2016.6550000038114","images/stimuli/spore_stims/simple_18_A_d.gif","images/stimuli/spore_stims/simple_05_B_c.gif","","","","","13","simple_dissimilar","images/stimuli/spore_stims/simple_05_B_c.gif","right","","","","",""
"","null","html-keyboard-response","252","464158","0.0-47.0-0.5","SS1613082756638","","","null","","","","","<p><img src= images/blank.png width =""200"" height = ""200"" style = ""float:right""></p><p><img src=images/blank.png width =""800"" height = ""200""></p>","","","","","","","","","","","",""
"","1411.2249999961932","sequential-stimulus-presentation","253","466395","0.0-47.0-1.5","SS1613082756638","trial","","40","800","2211.224999996193","images/stimuli/spore_stims/simple_18_A_d.gif","images/stimuli/spore_stims/simple_05_B_c.gif","","","","","13","simple_dissimilar","images/stimuli/spore_stims/simple_05_B_c.gif","right","","","","",""
"","null","html-keyboard-response","254","467534","0.0-47.0-0.6","SS1613082756638","","","null","","","","","<p><img src= images/blank.png width =""200"" height = ""200"" style = ""float:right""></p><p><img src=images/blank.png width =""800"" height = ""200""></p>","","","","","","","","","","","",""
"","243.79499999486143","sequential-stimulus-presentation","255","468602","0.0-47.0-1.6","SS1613082756638","trial","","40","800","1043.7949999948614","images/stimuli/spore_stims/simple_18_A_d.gif","images/stimuli/spore_stims/simple_05_B_c.gif","","","","","13","simple_dissimilar","images/stimuli/spore_stims/simple_05_B_c.gif","right","","","","",""
"","null","html-keyboard-response","256","469667","0.0-47.0-0.7","SS1613082756638","","","null","","","","","<p><img src= images/blank.png width =""200"" height = ""200"" style = ""float:right""></p><p><img src=images/blank.png width =""800"" height = ""200""></p>","","","","","","","","","","","",""
"","159.30000000662403","sequential-stimulus-presentation","257","470642","0.0-47.0-1.7","SS1613082756638","trial","","40","800","959.300000006624","images/stimuli/spore_stims/simple_18_A_d.gif","images/stimuli/spore_stims/simple_05_B_c.gif","","","","","13","simple_dissimilar","images/stimuli/spore_stims/simple_05_B_c.gif","right","","","","",""
"","949.7400000036578","html-keyboard-response","258","471617","0.0-48.0","SS1613082756638","pref_question","","97","","","","","<video width ='960' height = '540' style='padding-top:8%' autoplay muted><source src='images/stimuli/wall_pref.mp4' type='video/mp4'></video>","1","left","25%","13","","","","","","","",""
"","545.9499999997206","sequential-stimulus-presentation","259","472977","0.0-49.0","SS1613082756638","pref_reveal","","40","800","1345.9499999997206","null","null","","","","","13","","","","novel","","","",""
"","null","html-keyboard-response","260","473956","0.0-50.0-0.0","SS1613082756638","","","null","","","","","<p><img src= images/blank.png width =""200"" height = ""200"" style = ""float:right""></p><p><img src=images/blank.png width =""800"" height = ""200""></p>","","","","","","","","","","","",""
"","47.80499999469612","sequential-stimulus-presentation","261","474824","0.0-50.0-1.0","SS1613082756638","trial","","40","800","847.8049999946961","images/stimuli/spore_stims/complex_11_B_a.gif","images/stimuli/spore_stims/complex_20_A_d.gif","","","","","14","complex_dissimilar","images/stimuli/spore_stims/complex_20_A_d.gif","right","","","","",""
"","null","html-keyboard-response","262","475816","0.0-50.0-0.1","SS1613082756638","","","null","","","","","<p><img src= images/blank.png width =""200"" height = ""200"" style = ""float:right""></p><p><img src=images/blank.png width =""800"" height = ""200""></p>","","","","","","","","","","","",""
"","320.914999996603","sequential-stimulus-presentation","263","476961","0.0-50.0-1.1","SS1613082756638","trial","","40","800","1120.914999996603","images/stimuli/spore_stims/complex_11_B_a.gif","images/stimuli/spore_stims/complex_20_A_d.gif","","","","","14","complex_dissimilar","images/stimuli/spore_stims/complex_20_A_d.gif","right","","","","",""
"","null","html-keyboard-response","264","477879","0.0-50.0-0.2","SS1613082756638","","","null","","","","","<p><img src= images/blank.png width =""200"" height = ""200"" style = ""float:right""></p><p><img src=images/blank.png width =""800"" height = ""200""></p>","","","","","","","","","","","",""
"","218.69000000151573","sequential-stimulus-presentation","265","478916","0.0-50.0-1.2","SS1613082756638","trial","","40","800","1018.6900000015157","images/stimuli/spore_stims/complex_11_B_a.gif","images/stimuli/spore_stims/complex_20_A_d.gif","","","","","14","complex_dissimilar","images/stimuli/spore_stims/complex_11_B_a.gif","left","","","","",""
"","null","html-keyboard-response","266","479749","0.0-50.0-0.3","SS1613082756638","","","null","","","","","<p><img src= images/blank.png width =""200"" height = ""200"" style = ""float:right""></p><p><img src=images/blank.png width =""800"" height = ""200""></p>","","","","","","","","","","","",""
"","339.3350000042119","sequential-stimulus-presentation","267","480912","0.0-50.0-1.3","SS1613082756638","trial","","40","800","1139.335000004212","images/stimuli/spore_stims/complex_11_B_a.gif","images/stimuli/spore_stims/complex_20_A_d.gif","","","","","14","complex_dissimilar","images/stimuli/spore_stims/complex_20_A_d.gif","right","","","","",""
"","null","html-keyboard-response","268","482172","0.0-50.0-0.4","SS1613082756638","","","null","","","","","<p><img src= images/blank.png width =""200"" height = ""200"" style = ""float:right""></p><p><img src=images/blank.png width =""800"" height = ""200""></p>","","","","","","","","","","","",""
"","613.2350000042934","sequential-stimulus-presentation","269","483638","0.0-50.0-1.4","SS1613082756638","trial","","40","800","1413.2350000042934","images/stimuli/spore_stims/complex_11_B_a.gif","images/stimuli/spore_stims/complex_20_A_d.gif","","","","","14","complex_dissimilar","images/stimuli/spore_stims/complex_20_A_d.gif","right","","","","",""
"","null","html-keyboard-response","270","484782","0.0-50.0-0.5","SS1613082756638","","","null","","","","","<p><img src= images/blank.png width =""200"" height = ""200"" style = ""float:right""></p><p><img src=images/blank.png width =""800"" height = ""200""></p>","","","","","","","","","","","",""
"","278.85999999858905","sequential-stimulus-presentation","271","485886","0.0-50.0-1.5","SS1613082756638","trial","","40","800","1078.859999998589","images/stimuli/spore_stims/complex_11_B_a.gif","images/stimuli/spore_stims/complex_20_A_d.gif","","","","","14","complex_dissimilar","images/stimuli/spore_stims/complex_20_A_d.gif","right","","","","",""
"","null","html-keyboard-response","272","486902","0.0-50.0-0.6","SS1613082756638","","","null","","","","","<p><img src= images/blank.png width =""200"" height = ""200"" style = ""float:right""></p><p><img src=images/blank.png width =""800"" height = ""200""></p>","","","","","","","","","","","",""
"","393.1450000018813","sequential-stimulus-presentation","273","488118","0.0-50.0-1.6","SS1613082756638","trial","","40","800","1193.1450000018813","images/stimuli/spore_stims/complex_11_B_a.gif","images/stimuli/spore_stims/complex_20_A_d.gif","","","","","14","complex_dissimilar","images/stimuli/spore_stims/complex_20_A_d.gif","right","","","","",""
"","null","html-keyboard-response","274","489277","0.0-50.0-0.7","SS1613082756638","","","null","","","","","<p><img src= images/blank.png width =""200"" height = ""200"" style = ""float:right""></p><p><img src=images/blank.png width =""800"" height = ""200""></p>","","","","","","","","","","","",""
"","258.68500000063796","sequential-stimulus-presentation","275","490363","0.0-50.0-1.7","SS1613082756638","trial","","40","800","1058.685000000638","images/stimuli/spore_stims/complex_11_B_a.gif","images/stimuli/spore_stims/complex_20_A_d.gif","","","","","14","complex_dissimilar","images/stimuli/spore_stims/complex_20_A_d.gif","right","","","","",""
"","937.1450000035111","html-keyboard-response","276","491321","0.0-51.0","SS1613082756638","pref_question","","97","","","","","<video width ='960' height = '540' style='padding-top:8%' autoplay muted><source src='images/stimuli/wall_pref.mp4' type='video/mp4'></video>","1","left","25%","14","","","","","","","",""
"","2266.109999996843","sequential-stimulus-presentation","277","494415","0.0-52.0","SS1613082756638","pref_reveal","","40","800","3066.109999996843","null","null","","","","","14","","","","deviant","","","",""
"","null","html-keyboard-response","278","495322","0.0-53.0-0.0","SS1613082756638","","","null","","","","","<p><img src= images/blank.png width =""200"" height = ""200"" style = ""float:right""></p><p><img src=images/blank.png width =""800"" height = ""200""></p>","","","","","","","","","","","",""
"","169.47000000067055","sequential-stimulus-presentation","279","496320","0.0-53.0-1.0","SS1613082756638","trial","","40","800","969.4700000006706","images/stimuli/spore_stims/simple_13_A_a.gif","images/stimuli/spore_stims/simple_06_A_d.gif","","","","","15","simple_dissimilar","images/stimuli/spore_stims/simple_06_A_d.gif","left","","","","",""
"","null","html-keyboard-response","280","497632","0.0-53.0-0.1","SS1613082756638","","","null","","","","","<p><img src= images/blank.png width =""200"" height = ""200"" style = ""float:right""></p><p><img src=images/blank.png width =""800"" height = ""200""></p>","","","","","","","","","","","",""
"","10.420000005979091","sequential-stimulus-presentation","281","498455","0.0-53.0-1.1","SS1613082756638","trial","","40","800","810.4200000059791","images/stimuli/spore_stims/simple_13_A_a.gif","images/stimuli/spore_stims/simple_06_A_d.gif","","","","","15","simple_dissimilar","images/stimuli/spore_stims/simple_06_A_d.gif","left","","","","",""
"","null","html-keyboard-response","282","499331","0.0-53.0-0.2","SS1613082756638","","","null","","","","","<p><img src= images/blank.png width =""200"" height = ""200"" style = ""float:right""></p><p><img src=images/blank.png width =""800"" height = ""200""></p>","","","","","","","","","","","",""
"","371.209999997518","sequential-stimulus-presentation","283","500538","0.0-53.0-1.2","SS1613082756638","trial","","40","800","1171.209999997518","images/stimuli/spore_stims/simple_13_A_a.gif","images/stimuli/spore_stims/simple_06_A_d.gif","","","","","15","simple_dissimilar","images/stimuli/spore_stims/simple_06_A_d.gif","left","","","","",""
"","null","html-keyboard-response","284","502213","0.0-53.0-0.3","SS1613082756638","","","null","","","","","<p><img src= images/blank.png width =""200"" height = ""200"" style = ""float:right""></p><p><img src=images/blank.png width =""800"" height = ""200""></p>","","","","","","","","","","","",""
"","402.9649999939138","sequential-stimulus-presentation","285","503440","0.0-53.0-1.3","SS1613082756638","trial","","40","800","1202.9649999939138","images/stimuli/spore_stims/simple_13_A_a.gif","images/stimuli/spore_stims/simple_06_A_d.gif","","","","","15","simple_dissimilar","images/stimuli/spore_stims/simple_06_A_d.gif","left","","","","",""
"","null","html-keyboard-response","286","504649","0.0-53.0-0.4","SS1613082756638","","","null","","","","","<p><img src= images/blank.png width =""200"" height = ""200"" style = ""float:right""></p><p><img src=images/blank.png width =""800"" height = ""200""></p>","","","","","","","","","","","",""
"","318.0999999968335","sequential-stimulus-presentation","287","505781","0.0-53.0-1.4","SS1613082756638","trial","","40","800","1118.0999999968335","images/stimuli/spore_stims/simple_13_A_a.gif","images/stimuli/spore_stims/simple_06_A_d.gif","","","","","15","simple_dissimilar","images/stimuli/spore_stims/simple_06_A_d.gif","left","","","","",""
"","null","html-keyboard-response","288","506649","0.0-53.0-0.5","SS1613082756638","","","null","","","","","<p><img src= images/blank.png width =""200"" height = ""200"" style = ""float:right""></p><p><img src=images/blank.png width =""800"" height = ""200""></p>","","","","","","","","","","","",""
"","463.1249999947613","sequential-stimulus-presentation","289","507926","0.0-53.0-1.5","SS1613082756638","trial","","40","800","1263.1249999947613","images/stimuli/spore_stims/simple_13_A_a.gif","images/stimuli/spore_stims/simple_06_A_d.gif","","","","","15","simple_dissimilar","images/stimuli/spore_stims/simple_06_A_d.gif","left","","","","",""
"","null","html-keyboard-response","290","509131","0.0-53.0-0.6","SS1613082756638","","","null","","","","","<p><img src= images/blank.png width =""200"" height = ""200"" style = ""float:right""></p><p><img src=images/blank.png width =""800"" height = ""200""></p>","","","","","","","","","","","",""
"","299.2249999952037","sequential-stimulus-presentation","291","510256","0.0-53.0-1.6","SS1613082756638","trial","","40","800","1099.2249999952037","images/stimuli/spore_stims/simple_13_A_a.gif","images/stimuli/spore_stims/simple_06_A_d.gif","","","","","15","simple_dissimilar","images/stimuli/spore_stims/simple_06_A_d.gif","left","","","","",""
"","null","html-keyboard-response","292","511488","0.0-53.0-0.7","SS1613082756638","","","null","","","","","<p><img src= images/blank.png width =""200"" height = ""200"" style = ""float:right""></p><p><img src=images/blank.png width =""800"" height = ""200""></p>","","","","","","","","","","","",""
"","370.5599999957485","sequential-stimulus-presentation","293","512684","0.0-53.0-1.7","SS1613082756638","trial","","40","800","1170.5599999957485","images/stimuli/spore_stims/simple_13_A_a.gif","images/stimuli/spore_stims/simple_06_A_d.gif","","","","","15","simple_dissimilar","images/stimuli/spore_stims/simple_13_A_a.gif","right","","","","",""
"","4172.384999998147","html-keyboard-response","294","516868","0.0-54.0","SS1613082756638","pref_question","","98","","","","","<video width ='960' height = '540' style='padding-top:8%' autoplay muted><source src='images/stimuli/wall_pref.mp4' type='video/mp4'></video>","2","middle","45%","15","","","","","","","",""
"","628.6899999976158","sequential-stimulus-presentation","295","518323","0.0-55.0","SS1613082756638","pref_reveal","","40","800","1428.6899999976158","null","null","","","","","15","","","","novel","","","",""
"","null","html-keyboard-response","296","519607","0.0-56.0-0.0","SS1613082756638","","","null","","","","","<p><img src= images/blank.png width =""200"" height = ""200"" style = ""float:right""></p><p><img src=images/blank.png width =""800"" height = ""200""></p>","","","","","","","","","","","",""
"","363.40000000200234","sequential-stimulus-presentation","297","520820","0.0-56.0-1.0","SS1613082756638","trial","","40","800","1163.4000000020023","images/stimuli/spore_stims/complex_20_A_a.gif","images/stimuli/spore_stims/complex_20_B_a.gif","","","","","16","complex_similar","images/stimuli/spore_stims/complex_20_B_a.gif","middle","","","","",""
"","null","html-keyboard-response","298","521690","0.0-56.0-0.1","SS1613082756638","","","null","","","","","<p><img src= images/blank.png width =""200"" height = ""200"" style = ""float:right""></p><p><img src=images/blank.png width =""800"" height = ""200""></p>","","","","","","","","","","","",""
"","394.7450000050012","sequential-stimulus-presentation","299","522906","0.0-56.0-1.1","SS1613082756638","trial","","40","800","1194.7450000050012","images/stimuli/spore_stims/complex_20_A_a.gif","images/stimuli/spore_stims/complex_20_B_a.gif","","","","","16","complex_similar","images/stimuli/spore_stims/complex_20_B_a.gif","middle","","","","",""
"","null","html-keyboard-response","300","523776","0.0-56.0-0.2","SS1613082756638","","","null","","","","","<p><img src= images/blank.png width =""200"" height = ""200"" style = ""float:right""></p><p><img src=images/blank.png width =""800"" height = ""200""></p>","","","","","","","","","","","",""
"","406.9499999968102","sequential-stimulus-presentation","301","525034","0.0-56.0-1.2","SS1613082756638","trial","","40","800","1206.9499999968102","images/stimuli/spore_stims/complex_20_A_a.gif","images/stimuli/spore_stims/complex_20_B_a.gif","","","","","16","complex_similar","images/stimuli/spore_stims/complex_20_B_a.gif","middle","","","","",""
"","null","html-keyboard-response","302","525897","0.0-56.0-0.3","SS1613082756638","","","null","","","","","<p><img src= images/blank.png width =""200"" height = ""200"" style = ""float:right""></p><p><img src=images/blank.png width =""800"" height = ""200""></p>","","","","","","","","","","","",""
"","411.91999999876134","sequential-stimulus-presentation","303","527137","0.0-56.0-1.3","SS1613082756638","trial","","40","800","1211.9199999987613","images/stimuli/spore_stims/complex_20_A_a.gif","images/stimuli/spore_stims/complex_20_B_a.gif","","","","","16","complex_similar","images/stimuli/spore_stims/complex_20_B_a.gif","middle","","","","",""
"","null","html-keyboard-response","304","528070","0.0-56.0-0.4","SS1613082756638","","","null","","","","","<p><img src= images/blank.png width =""200"" height = ""200"" style = ""float:right""></p><p><img src=images/blank.png width =""800"" height = ""200""></p>","","","","","","","","","","","",""
"","469.6899999980815","sequential-stimulus-presentation","305","529370","0.0-56.0-1.4","SS1613082756638","trial","","40","800","1269.6899999980815","images/stimuli/spore_stims/complex_20_A_a.gif","images/stimuli/spore_stims/complex_20_B_a.gif","","","","","16","complex_similar","images/stimuli/spore_stims/complex_20_A_a.gif","left","","","","",""
"","null","html-keyboard-response","306","530421","0.0-56.0-0.5","SS1613082756638","","","null","","","","","<p><img src= images/blank.png width =""200"" height = ""200"" style = ""float:right""></p><p><img src=images/blank.png width =""800"" height = ""200""></p>","","","","","","","","","","","",""
"","380.5400000056252","sequential-stimulus-presentation","307","531628","0.0-56.0-1.5","SS1613082756638","trial","","40","800","1180.5400000056252","images/stimuli/spore_stims/complex_20_A_a.gif","images/stimuli/spore_stims/complex_20_B_a.gif","","","","","16","complex_similar","images/stimuli/spore_stims/complex_20_B_a.gif","middle","","","","",""
"","null","html-keyboard-response","308","532579","0.0-56.0-0.6","SS1613082756638","","","null","","","","","<p><img src= images/blank.png width =""200"" height = ""200"" style = ""float:right""></p><p><img src=images/blank.png width =""800"" height = ""200""></p>","","","","","","","","","","","",""
"","4102.064999999013","sequential-stimulus-presentation","309","537496","0.0-56.0-1.6","SS1613082756638","trial","","40","800","4902.064999999013","images/stimuli/spore_stims/complex_20_A_a.gif","images/stimuli/spore_stims/complex_20_B_a.gif","","","","","16","complex_similar","images/stimuli/spore_stims/complex_20_B_a.gif","middle","","","","",""
"","null","html-keyboard-response","310","538584","0.0-56.0-0.7","SS1613082756638","","","null","","","","","<p><img src= images/blank.png width =""200"" height = ""200"" style = ""float:right""></p><p><img src=images/blank.png width =""800"" height = ""200""></p>","","","","","","","","","","","",""
"","755.5099999954691","sequential-stimulus-presentation","311","540159","0.0-56.0-1.7","SS1613082756638","trial","","40","800","1555.5099999954691","images/stimuli/spore_stims/complex_20_A_a.gif","images/stimuli/spore_stims/complex_20_B_a.gif","","","","","16","complex_similar","images/stimuli/spore_stims/complex_20_B_a.gif","middle","","","","",""
"","1420.7800000003772","html-keyboard-response","312","541624","0.0-57.0","SS1613082756638","pref_question","","97","","","","","<video width ='960' height = '540' style='padding-top:8%' autoplay muted><source src='images/stimuli/wall_pref.mp4' type='video/mp4'></video>","1","left","25%","16","","","","","","","",""
