"view_history","rt","trial_type","trial_index","time_elapsed","internal_node_id","subject","stimulus_type","trial_stimulus","key_press","minimum_viewing_duration","trial_looking_time","block_deviant","block_background","stimulus","wall_pref","location","location_percent","block_number","block_type","stimulus_displayed","position_displayed","stim_type_selected","responses","question_order","stimulus_left","stimulus_right"
"[{""page_index"":0,""viewing_time"":3782.180000038352}]","3783.6050000041723","instructions","0","3790","0.0-0.0","SS1613082248268","","","","","","","","","","","","","","","","","","","",""
"[{""page_index"":0,""viewing_time"":14140.264999994542},{""page_index"":1,""viewing_time"":7521.074999996927}]","21661.825000017416","instructions","1","27476","0.0-1.0","SS1613082248268","instructions","","","","","","","","","","","","","","","","","","",""
"","8706.174999999348","sequential-stimulus-presentation","2","37003","0.0-2.0","SS1613082248268","","","40","800","9506.174999999348","null","null","","","","","","","","","","","","",""
"","3566.575000004377","sequential-stimulus-presentation","3","41383","0.0-3.0","SS1613082248268","","","40","800","4366.575000004377","null","null","","","","","","","","","","","","",""
"[{""page_index"":0,""viewing_time"":12873.579999955837}]","12902.60999999009","instructions","4","54288","0.0-4.0","SS1613082248268","instructions","","","","","","","","","","","","","","","","","","",""
"","16328.615000005811","html-keyboard-response","5","70633","0.0-5.0","SS1613082248268","instructions","","50","","","","","<video width ='960' height = '540' autoplay muted><source src='images/stimuli/wall_pref.mp4' type='video/mp4'></video>","2","middle","45%","","","","","","","","",""
"","2426.824999973178","sequential-stimulus-presentation","6","73878","0.0-6.0","SS1613082248268","pref_reveal","","40","800","3226.824999973178","null","null","","","","","","","","","","","","",""
"[{""page_index"":0,""viewing_time"":11596.445000031963},{""page_index"":1,""viewing_time"":5890.35999996122},{""page_index"":2,""viewing_time"":2325.5550000467338},{""page_index"":3,""viewing_time"":2037.194999982603}]","21850.24500003783","instructions","7","95731","0.0-7.0","SS1613082248268","instructions","","","","","","","","","","","","","","","","","","",""
"","null","html-keyboard-response","8","96565","0.0-8.0-0.0","SS1613082248268","","","null","","","","","<p><img src= images/blank.png width =""200"" height = ""200"" style = ""float:right""></p><p><img src=images/blank.png width =""800"" height = ""200""></p>","","","","","","","","","","","",""
"","3543.3549999725074","sequential-stimulus-presentation","9","100940","0.0-8.0-1.0","SS1613082248268","trial","","40","800","4343.354999972507","images/stimuli/spore_stims/simple_16_A_a.gif","images/stimuli/spore_stims/simple_09_A_d.gif","","","","","0","simple_dissimilar","images/stimuli/spore_stims/simple_09_A_d.gif","middle","","","","",""
"","null","html-keyboard-response","10","102129","0.0-8.0-0.1","SS1613082248268","","","null","","","","","<p><img src= images/blank.png width =""200"" height = ""200"" style = ""float:right""></p><p><img src=images/blank.png width =""800"" height = ""200""></p>","","","","","","","","","","","",""
"","1224.129999987781","sequential-stimulus-presentation","11","104169","0.0-8.0-1.1","SS1613082248268","trial","","40","800","2024.129999987781","images/stimuli/spore_stims/simple_16_A_a.gif","images/stimuli/spore_stims/simple_09_A_d.gif","","","","","0","simple_dissimilar","images/stimuli/spore_stims/simple_09_A_d.gif","middle","","","","",""
"","null","html-keyboard-response","12","105470","0.0-8.0-0.2","SS1613082248268","","","null","","","","","<p><img src= images/blank.png width =""200"" height = ""200"" style = ""float:right""></p><p><img src=images/blank.png width =""800"" height = ""200""></p>","","","","","","","","","","","",""
"","933.9749999926426","sequential-stimulus-presentation","13","107224","0.0-8.0-1.2","SS1613082248268","trial","","40","800","1733.9749999926426","images/stimuli/spore_stims/simple_16_A_a.gif","images/stimuli/spore_stims/simple_09_A_d.gif","","","","","0","simple_dissimilar","images/stimuli/spore_stims/simple_09_A_d.gif","middle","","","","",""
"","null","html-keyboard-response","14","108127","0.0-8.0-0.3","SS1613082248268","","","null","","","","","<p><img src= images/blank.png width =""200"" height = ""200"" style = ""float:right""></p><p><img src=images/blank.png width =""800"" height = ""200""></p>","","","","","","","","","","","",""
"","730.6649999809451","sequential-stimulus-presentation","15","109702","0.0-8.0-1.3","SS1613082248268","trial","","40","800","1530.6649999809451","images/stimuli/spore_stims/simple_16_A_a.gif","images/stimuli/spore_stims/simple_09_A_d.gif","","","","","0","simple_dissimilar","images/stimuli/spore_stims/simple_09_A_d.gif","middle","","","","",""
"","null","html-keyboard-response","16","110669","0.0-8.0-0.4","SS1613082248268","","","null","","","","","<p><img src= images/blank.png width =""200"" height = ""200"" style = ""float:right""></p><p><img src=images/blank.png width =""800"" height = ""200""></p>","","","","","","","","","","","",""
"","545.7099999766797","sequential-stimulus-presentation","17","112042","0.0-8.0-1.4","SS1613082248268","trial","","40","800","1345.7099999766797","images/stimuli/spore_stims/simple_16_A_a.gif","images/stimuli/spore_stims/simple_09_A_d.gif","","","","","0","simple_dissimilar","images/stimuli/spore_stims/simple_09_A_d.gif","middle","","","","",""
"","null","html-keyboard-response","18","112917","0.0-8.0-0.5","SS1613082248268","","","null","","","","","<p><img src= images/blank.png width =""200"" height = ""200"" style = ""float:right""></p><p><img src=images/blank.png width =""800"" height = ""200""></p>","","","","","","","","","","","",""
"","2079.9150000093505","sequential-stimulus-presentation","19","115818","0.0-8.0-1.5","SS1613082248268","trial","","40","800","2879.9150000093505","images/stimuli/spore_stims/simple_16_A_a.gif","images/stimuli/spore_stims/simple_09_A_d.gif","","","","","0","simple_dissimilar","images/stimuli/spore_stims/simple_16_A_a.gif","right","","","","",""
"","null","html-keyboard-response","20","116639","0.0-8.0-0.6","SS1613082248268","","","null","","","","","<p><img src= images/blank.png width =""200"" height = ""200"" style = ""float:right""></p><p><img src=images/blank.png width =""800"" height = ""200""></p>","","","","","","","","","","","",""
"","813.7049999786541","sequential-stimulus-presentation","21","118287","0.0-8.0-1.6","SS1613082248268","trial","","40","800","1613.704999978654","images/stimuli/spore_stims/simple_16_A_a.gif","images/stimuli/spore_stims/simple_09_A_d.gif","","","","","0","simple_dissimilar","images/stimuli/spore_stims/simple_09_A_d.gif","middle","","","","",""
"","null","html-keyboard-response","22","119512","0.0-8.0-0.7","SS1613082248268","","","null","","","","","<p><img src= images/blank.png width =""200"" height = ""200"" style = ""float:right""></p><p><img src=images/blank.png width =""800"" height = ""200""></p>","","","","","","","","","","","",""
"","482.55499999504536","sequential-stimulus-presentation","23","120854","0.0-8.0-1.7","SS1613082248268","trial","","40","800","1282.5549999950454","images/stimuli/spore_stims/simple_16_A_a.gif","images/stimuli/spore_stims/simple_09_A_d.gif","","","","","0","simple_dissimilar","images/stimuli/spore_stims/simple_09_A_d.gif","middle","","","","",""
"","5993.099999963306","html-keyboard-response","24","126861","0.0-9.0","SS1613082248268","pref_question","","49","","","","","<video width ='960' height = '540' style='padding-top:8%' autoplay muted><source src='images/stimuli/wall_pref.mp4' type='video/mp4'></video>","1","left","25%","0","","","","","","","",""
"","2232.229999965057","sequential-stimulus-presentation","25","129921","0.0-10.0","SS1613082248268","pref_reveal","","40","800","3032.229999965057","null","null","","","","","0","","","","novel","","","",""
"","null","html-keyboard-response","26","131190","0.0-11.0-0.0","SS1613082248268","","","null","","","","","<p><img src= images/blank.png width =""200"" height = ""200"" style = ""float:right""></p><p><img src=images/blank.png width =""800"" height = ""200""></p>","","","","","","","","","","","",""
"","4345.580000022892","sequential-stimulus-presentation","27","136361","0.0-11.0-1.0","SS1613082248268","trial","","40","800","5145.580000022892","images/stimuli/spore_stims/complex_05_A_b.gif","images/stimuli/spore_stims/complex_15_B_d.gif","","","","","1","complex_dissimilar","images/stimuli/spore_stims/complex_15_B_d.gif","middle","","","","",""
"","null","html-keyboard-response","28","137384","0.0-11.0-0.1","SS1613082248268","","","null","","","","","<p><img src= images/blank.png width =""200"" height = ""200"" style = ""float:right""></p><p><img src=images/blank.png width =""800"" height = ""200""></p>","","","","","","","","","","","",""
"","634.4749999698251","sequential-stimulus-presentation","29","138847","0.0-11.0-1.1","SS1613082248268","trial","","40","800","1434.4749999698251","images/stimuli/spore_stims/complex_05_A_b.gif","images/stimuli/spore_stims/complex_15_B_d.gif","","","","","1","complex_dissimilar","images/stimuli/spore_stims/complex_15_B_d.gif","middle","","","","",""
"","null","html-keyboard-response","30","140088","0.0-11.0-0.2","SS1613082248268","","","null","","","","","<p><img src= images/blank.png width =""200"" height = ""200"" style = ""float:right""></p><p><img src=images/blank.png width =""800"" height = ""200""></p>","","","","","","","","","","","",""
"","755.040000018198","sequential-stimulus-presentation","31","141731","0.0-11.0-1.2","SS1613082248268","trial","","40","800","1555.040000018198","images/stimuli/spore_stims/complex_05_A_b.gif","images/stimuli/spore_stims/complex_15_B_d.gif","","","","","1","complex_dissimilar","images/stimuli/spore_stims/complex_15_B_d.gif","middle","","","","",""
"","null","html-keyboard-response","32","143004","0.0-11.0-0.3","SS1613082248268","","","null","","","","","<p><img src= images/blank.png width =""200"" height = ""200"" style = ""float:right""></p><p><img src=images/blank.png width =""800"" height = ""200""></p>","","","","","","","","","","","",""
"","3173.430000024382","sequential-stimulus-presentation","33","147027","0.0-11.0-1.3","SS1613082248268","trial","","40","800","3973.430000024382","images/stimuli/spore_stims/complex_05_A_b.gif","images/stimuli/spore_stims/complex_15_B_d.gif","","","","","1","complex_dissimilar","images/stimuli/spore_stims/complex_05_A_b.gif","right","","","","",""
"","null","html-keyboard-response","34","148184","0.0-11.0-0.4","SS1613082248268","","","null","","","","","<p><img src= images/blank.png width =""200"" height = ""200"" style = ""float:right""></p><p><img src=images/blank.png width =""800"" height = ""200""></p>","","","","","","","","","","","",""
"","747.0099999918602","sequential-stimulus-presentation","35","149757","0.0-11.0-1.4","SS1613082248268","trial","","40","800","1547.0099999918602","images/stimuli/spore_stims/complex_05_A_b.gif","images/stimuli/spore_stims/complex_15_B_d.gif","","","","","1","complex_dissimilar","images/stimuli/spore_stims/complex_15_B_d.gif","middle","","","","",""
"","null","html-keyboard-response","36","150888","0.0-11.0-0.5","SS1613082248268","","","null","","","","","<p><img src= images/blank.png width =""200"" height = ""200"" style = ""float:right""></p><p><img src=images/blank.png width =""800"" height = ""200""></p>","","","","","","","","","","","",""
"","738.3849999750964","sequential-stimulus-presentation","37","152445","0.0-11.0-1.5","SS1613082248268","trial","","40","800","1538.3849999750964","images/stimuli/spore_stims/complex_05_A_b.gif","images/stimuli/spore_stims/complex_15_B_d.gif","","","","","1","complex_dissimilar","images/stimuli/spore_stims/complex_15_B_d.gif","middle","","","","",""
"","null","html-keyboard-response","38","153453","0.0-11.0-0.6","SS1613082248268","","","null","","","","","<p><img src= images/blank.png width =""200"" height = ""200"" style = ""float:right""></p><p><img src=images/blank.png width =""800"" height = ""200""></p>","","","","","","","","","","","",""
"","792.6549999974668","sequential-stimulus-presentation","39","155064","0.0-11.0-1.6","SS1613082248268","trial","","40","800","1592.6549999974668","images/stimuli/spore_stims/complex_05_A_b.gif","images/stimuli/spore_stims/complex_15_B_d.gif","","","","","1","complex_dissimilar","images/stimuli/spore_stims/complex_15_B_d.gif","middle","","","","",""
"","null","html-keyboard-response","40","156369","0.0-11.0-0.7","SS1613082248268","","","null","","","","","<p><img src= images/blank.png width =""200"" height = ""200"" style = ""float:right""></p><p><img src=images/blank.png width =""800"" height = ""200""></p>","","","","","","","","","","","",""
"","531.3549999846146","sequential-stimulus-presentation","41","157743","0.0-11.0-1.7","SS1613082248268","trial","","40","800","1331.3549999846146","images/stimuli/spore_stims/complex_05_A_b.gif","images/stimuli/spore_stims/complex_15_B_d.gif","","","","","1","complex_dissimilar","images/stimuli/spore_stims/complex_15_B_d.gif","middle","","","","",""
"","2475.5499999737367","html-keyboard-response","42","160227","0.0-12.0","SS1613082248268","pref_question","","49","","","","","<video width ='960' height = '540' style='padding-top:8%' autoplay muted><source src='images/stimuli/wall_pref.mp4' type='video/mp4'></video>","1","left","25%","1","","","","","","","",""
"","3807.329999981448","sequential-stimulus-presentation","43","164854","0.0-13.0","SS1613082248268","pref_reveal","","40","800","4607.329999981448","null","null","","","","","1","","","","novel","","","",""
"","null","html-keyboard-response","44","166071","0.0-14.0-0.0","SS1613082248268","","","null","","","","","<p><img src= images/blank.png width =""200"" height = ""200"" style = ""float:right""></p><p><img src=images/blank.png width =""800"" height = ""200""></p>","","","","","","","","","","","",""
"","1358.1949999788776","sequential-stimulus-presentation","45","168254","0.0-14.0-1.0","SS1613082248268","trial","","40","800","2158.1949999788776","images/stimuli/spore_stims/simple_05_B_b.gif","images/stimuli/spore_stims/simple_20_B_d.gif","","","","","2","simple_dissimilar","images/stimuli/spore_stims/simple_20_B_d.gif","right","","","","",""
"","null","html-keyboard-response","46","169136","0.0-14.0-0.1","SS1613082248268","","","null","","","","","<p><img src= images/blank.png width =""200"" height = ""200"" style = ""float:right""></p><p><img src=images/blank.png width =""800"" height = ""200""></p>","","","","","","","","","","","",""
"","1574.3399999919347","sequential-stimulus-presentation","47","171551","0.0-14.0-1.1","SS1613082248268","trial","","40","800","2374.3399999919347","images/stimuli/spore_stims/simple_05_B_b.gif","images/stimuli/spore_stims/simple_20_B_d.gif","","","","","2","simple_dissimilar","images/stimuli/spore_stims/simple_20_B_d.gif","right","","","","",""
"","null","html-keyboard-response","48","172625","0.0-14.0-0.2","SS1613082248268","","","null","","","","","<p><img src= images/blank.png width =""200"" height = ""200"" style = ""float:right""></p><p><img src=images/blank.png width =""800"" height = ""200""></p>","","","","","","","","","","","",""
"","505.15500002074987","sequential-stimulus-presentation","49","173954","0.0-14.0-1.2","SS1613082248268","trial","","40","800","1305.1550000207499","images/stimuli/spore_stims/simple_05_B_b.gif","images/stimuli/spore_stims/simple_20_B_d.gif","","","","","2","simple_dissimilar","images/stimuli/spore_stims/simple_20_B_d.gif","right","","","","",""
"","null","html-keyboard-response","50","174871","0.0-14.0-0.3","SS1613082248268","","","null","","","","","<p><img src= images/blank.png width =""200"" height = ""200"" style = ""float:right""></p><p><img src=images/blank.png width =""800"" height = ""200""></p>","","","","","","","","","","","",""
"","1025.095000048168","sequential-stimulus-presentation","51","176723","0.0-14.0-1.3","SS1613082248268","trial","","40","800","1825.095000048168","images/stimuli/spore_stims/simple_05_B_b.gif","images/stimuli/spore_stims/simple_20_B_d.gif","","","","","2","simple_dissimilar","images/stimuli/spore_stims/simple_20_B_d.gif","right","","","","",""
"","null","html-keyboard-response","52","177599","0.0-14.0-0.4","SS1613082248268","","","null","","","","","<p><img src= images/blank.png width =""200"" height = ""200"" style = ""float:right""></p><p><img src=images/blank.png width =""800"" height = ""200""></p>","","","","","","","","","","","",""
"","411.03499999735504","sequential-stimulus-presentation","53","178834","0.0-14.0-1.4","SS1613082248268","trial","","40","800","1211.034999997355","images/stimuli/spore_stims/simple_05_B_b.gif","images/stimuli/spore_stims/simple_20_B_d.gif","","","","","2","simple_dissimilar","images/stimuli/spore_stims/simple_20_B_d.gif","right","","","","",""
"","null","html-keyboard-response","54","179776","0.0-14.0-0.5","SS1613082248268","","","null","","","","","<p><img src= images/blank.png width =""200"" height = ""200"" style = ""float:right""></p><p><img src=images/blank.png width =""800"" height = ""200""></p>","","","","","","","","","","","",""
"","382.5799999758601","sequential-stimulus-presentation","55","180976","0.0-14.0-1.5","SS1613082248268","trial","","40","800","1182.5799999758601","images/stimuli/spore_stims/simple_05_B_b.gif","images/stimuli/spore_stims/simple_20_B_d.gif","","","","","2","simple_dissimilar","images/stimuli/spore_stims/simple_20_B_d.gif","right","","","","",""
"","null","html-keyboard-response","56","182209","0.0-14.0-0.6","SS1613082248268","","","null","","","","","<p><img src= images/blank.png width =""200"" height = ""200"" style = ""float:right""></p><p><img src=images/blank.png width =""800"" height = ""200""></p>","","","","","","","","","","","",""
"","409.2349999700673","sequential-stimulus-presentation","57","183435","0.0-14.0-1.6","SS1613082248268","trial","","40","800","1209.2349999700673","images/stimuli/spore_stims/simple_05_B_b.gif","images/stimuli/spore_stims/simple_20_B_d.gif","","","","","2","simple_dissimilar","images/stimuli/spore_stims/simple_20_B_d.gif","right","","","","",""
"","null","html-keyboard-response","58","184716","0.0-14.0-0.7","SS1613082248268","","","null","","","","","<p><img src= images/blank.png width =""200"" height = ""200"" style = ""float:right""></p><p><img src=images/blank.png width =""800"" height = ""200""></p>","","","","","","","","","","","",""
"","2490.474999998696","sequential-stimulus-presentation","59","188038","0.0-14.0-1.7","SS1613082248268","trial","","40","800","3290.474999998696","images/stimuli/spore_stims/simple_05_B_b.gif","images/stimuli/spore_stims/simple_20_B_d.gif","","","","","2","simple_dissimilar","images/stimuli/spore_stims/simple_05_B_b.gif","middle","","","","",""
"","2399.410000012722","html-keyboard-response","60","190447","0.0-15.0","SS1613082248268","pref_question","","49","","","","","<video width ='960' height = '540' style='padding-top:8%' autoplay muted><source src='images/stimuli/wall_pref.mp4' type='video/mp4'></video>","1","left","25%","2","","","","","","","",""
"","2399.8150000115857","sequential-stimulus-presentation","61","193673","0.0-16.0","SS1613082248268","pref_reveal","","40","800","3199.8150000115857","null","null","","","","","2","","","","novel","","","",""
"","null","html-keyboard-response","62","194958","0.0-17.0-0.0","SS1613082248268","","","null","","","","","<p><img src= images/blank.png width =""200"" height = ""200"" style = ""float:right""></p><p><img src=images/blank.png width =""800"" height = ""200""></p>","","","","","","","","","","","",""
"","1784.8200000007637","sequential-stimulus-presentation","63","197572","0.0-17.0-1.0","SS1613082248268","trial","","40","800","2584.8200000007637","images/stimuli/spore_stims/simple_06_A_a.gif","images/stimuli/spore_stims/simple_11_A_c.gif","","","","","3","simple_dissimilar","images/stimuli/spore_stims/simple_11_A_c.gif","right","","","","",""
"","null","html-keyboard-response","64","198585","0.0-17.0-0.1","SS1613082248268","","","null","","","","","<p><img src= images/blank.png width =""200"" height = ""200"" style = ""float:right""></p><p><img src=images/blank.png width =""800"" height = ""200""></p>","","","","","","","","","","","",""
"","594.7400000295602","sequential-stimulus-presentation","65","200015","0.0-17.0-1.1","SS1613082248268","trial","","40","800","1394.7400000295602","images/stimuli/spore_stims/simple_06_A_a.gif","images/stimuli/spore_stims/simple_11_A_c.gif","","","","","3","simple_dissimilar","images/stimuli/spore_stims/simple_11_A_c.gif","right","","","","",""
"","null","html-keyboard-response","66","201088","0.0-17.0-0.2","SS1613082248268","","","null","","","","","<p><img src= images/blank.png width =""200"" height = ""200"" style = ""float:right""></p><p><img src=images/blank.png width =""800"" height = ""200""></p>","","","","","","","","","","","",""
"","2265.9700000076555","sequential-stimulus-presentation","67","204180","0.0-17.0-1.2","SS1613082248268","trial","","40","800","3065.9700000076555","images/stimuli/spore_stims/simple_06_A_a.gif","images/stimuli/spore_stims/simple_11_A_c.gif","","","","","3","simple_dissimilar","images/stimuli/spore_stims/simple_06_A_a.gif","middle","","","","",""
"","null","html-keyboard-response","68","205076","0.0-17.0-0.3","SS1613082248268","","","null","","","","","<p><img src= images/blank.png width =""200"" height = ""200"" style = ""float:right""></p><p><img src=images/blank.png width =""800"" height = ""200""></p>","","","","","","","","","","","",""
"","754.3749999604188","sequential-stimulus-presentation","69","206654","0.0-17.0-1.3","SS1613082248268","trial","","40","800","1554.3749999604188","images/stimuli/spore_stims/simple_06_A_a.gif","images/stimuli/spore_stims/simple_11_A_c.gif","","","","","3","simple_dissimilar","images/stimuli/spore_stims/simple_11_A_c.gif","right","","","","",""
"","null","html-keyboard-response","70","207574","0.0-17.0-0.4","SS1613082248268","","","null","","","","","<p><img src= images/blank.png width =""200"" height = ""200"" style = ""float:right""></p><p><img src=images/blank.png width =""800"" height = ""200""></p>","","","","","","","","","","","",""
"","439.04500000644475","sequential-stimulus-presentation","71","208825","0.0-17.0-1.4","SS1613082248268","trial","","40","800","1239.0450000064448","images/stimuli/spore_stims/simple_06_A_a.gif","images/stimuli/spore_stims/simple_11_A_c.gif","","","","","3","simple_dissimilar","images/stimuli/spore_stims/simple_11_A_c.gif","right","","","","",""
"","null","html-keyboard-response","72","209874","0.0-17.0-0.5","SS1613082248268","","","null","","","","","<p><img src= images/blank.png width =""200"" height = ""200"" style = ""float:right""></p><p><img src=images/blank.png width =""800"" height = ""200""></p>","","","","","","","","","","","",""
"","991.7800000403076","sequential-stimulus-presentation","73","211690","0.0-17.0-1.5","SS1613082248268","trial","","40","800","1791.7800000403076","images/stimuli/spore_stims/simple_06_A_a.gif","images/stimuli/spore_stims/simple_11_A_c.gif","","","","","3","simple_dissimilar","images/stimuli/spore_stims/simple_11_A_c.gif","right","","","","",""
"","null","html-keyboard-response","74","212610","0.0-17.0-0.6","SS1613082248268","","","null","","","","","<p><img src= images/blank.png width =""200"" height = ""200"" style = ""float:right""></p><p><img src=images/blank.png width =""800"" height = ""200""></p>","","","","","","","","","","","",""
"","375.17999997362494","sequential-stimulus-presentation","75","213811","0.0-17.0-1.6","SS1613082248268","trial","","40","800","1175.179999973625","images/stimuli/spore_stims/simple_06_A_a.gif","images/stimuli/spore_stims/simple_11_A_c.gif","","","","","3","simple_dissimilar","images/stimuli/spore_stims/simple_11_A_c.gif","right","","","","",""
"","null","html-keyboard-response","76","214694","0.0-17.0-0.7","SS1613082248268","","","null","","","","","<p><img src= images/blank.png width =""200"" height = ""200"" style = ""float:right""></p><p><img src=images/blank.png width =""800"" height = ""200""></p>","","","","","","","","","","","",""
"","374.36499999603257","sequential-stimulus-presentation","77","215914","0.0-17.0-1.7","SS1613082248268","trial","","40","800","1174.3649999960326","images/stimuli/spore_stims/simple_06_A_a.gif","images/stimuli/spore_stims/simple_11_A_c.gif","","","","","3","simple_dissimilar","images/stimuli/spore_stims/simple_11_A_c.gif","right","","","","",""
"","1884.1900000115857","html-keyboard-response","78","217807","0.0-18.0","SS1613082248268","pref_question","","49","","","","","<video width ='960' height = '540' style='padding-top:8%' autoplay muted><source src='images/stimuli/wall_pref.mp4' type='video/mp4'></video>","1","left","25%","3","","","","","","","",""
"","2426.4649999677204","sequential-stimulus-presentation","79","221063","0.0-19.0","SS1613082248268","pref_reveal","","40","800","3226.4649999677204","null","null","","","","","3","","","","novel","","","",""
"","null","html-keyboard-response","80","222056","0.0-20.0-0.0","SS1613082248268","","","null","","","","","<p><img src= images/blank.png width =""200"" height = ""200"" style = ""float:right""></p><p><img src=images/blank.png width =""800"" height = ""200""></p>","","","","","","","","","","","",""
"","986.7899999953806","sequential-stimulus-presentation","81","223900","0.0-20.0-1.0","SS1613082248268","trial","","40","800","1786.7899999953806","images/stimuli/spore_stims/simple_15_A_d.gif","images/stimuli/spore_stims/simple_10_A_c.gif","","","","","4","simple_dissimilar","images/stimuli/spore_stims/simple_10_A_c.gif","left","","","","",""
"","null","html-keyboard-response","82","224788","0.0-20.0-0.1","SS1613082248268","","","null","","","","","<p><img src= images/blank.png width =""200"" height = ""200"" style = ""float:right""></p><p><img src=images/blank.png width =""800"" height = ""200""></p>","","","","","","","","","","","",""
"","956.8200000212528","sequential-stimulus-presentation","83","226562","0.0-20.0-1.1","SS1613082248268","trial","","40","800","1756.8200000212528","images/stimuli/spore_stims/simple_15_A_d.gif","images/stimuli/spore_stims/simple_10_A_c.gif","","","","","4","simple_dissimilar","images/stimuli/spore_stims/simple_10_A_c.gif","left","","","","",""
"","null","html-keyboard-response","84","227394","0.0-20.0-0.2","SS1613082248268","","","null","","","","","<p><img src= images/blank.png width =""200"" height = ""200"" style = ""float:right""></p><p><img src=images/blank.png width =""800"" height = ""200""></p>","","","","","","","","","","","",""
"","617.4149999860674","sequential-stimulus-presentation","85","228852","0.0-20.0-1.2","SS1613082248268","trial","","40","800","1417.4149999860674","images/stimuli/spore_stims/simple_15_A_d.gif","images/stimuli/spore_stims/simple_10_A_c.gif","","","","","4","simple_dissimilar","images/stimuli/spore_stims/simple_10_A_c.gif","left","","","","",""
"","null","html-keyboard-response","86","229858","0.0-20.0-0.3","SS1613082248268","","","null","","","","","<p><img src= images/blank.png width =""200"" height = ""200"" style = ""float:right""></p><p><img src=images/blank.png width =""800"" height = ""200""></p>","","","","","","","","","","","",""
"","503.8499999791384","sequential-stimulus-presentation","87","231178","0.0-20.0-1.3","SS1613082248268","trial","","40","800","1303.8499999791384","images/stimuli/spore_stims/simple_15_A_d.gif","images/stimuli/spore_stims/simple_10_A_c.gif","","","","","4","simple_dissimilar","images/stimuli/spore_stims/simple_10_A_c.gif","left","","","","",""
"","null","html-keyboard-response","88","232392","0.0-20.0-0.4","SS1613082248268","","","null","","","","","<p><img src= images/blank.png width =""200"" height = ""200"" style = ""float:right""></p><p><img src=images/blank.png width =""800"" height = ""200""></p>","","","","","","","","","","","",""
"","427.12499998742715","sequential-stimulus-presentation","89","233648","0.0-20.0-1.4","SS1613082248268","trial","","40","800","1227.1249999874271","images/stimuli/spore_stims/simple_15_A_d.gif","images/stimuli/spore_stims/simple_10_A_c.gif","","","","","4","simple_dissimilar","images/stimuli/spore_stims/simple_10_A_c.gif","left","","","","",""
"","null","html-keyboard-response","90","234872","0.0-20.0-0.5","SS1613082248268","","","null","","","","","<p><img src= images/blank.png width =""200"" height = ""200"" style = ""float:right""></p><p><img src=images/blank.png width =""800"" height = ""200""></p>","","","","","","","","","","","",""
"","359.8549999878742","sequential-stimulus-presentation","91","236061","0.0-20.0-1.5","SS1613082248268","trial","","40","800","1159.8549999878742","images/stimuli/spore_stims/simple_15_A_d.gif","images/stimuli/spore_stims/simple_10_A_c.gif","","","","","4","simple_dissimilar","images/stimuli/spore_stims/simple_10_A_c.gif","left","","","","",""
"","null","html-keyboard-response","92","237175","0.0-20.0-0.6","SS1613082248268","","","null","","","","","<p><img src= images/blank.png width =""200"" height = ""200"" style = ""float:right""></p><p><img src=images/blank.png width =""800"" height = ""200""></p>","","","","","","","","","","","",""
"","372.9550000280142","sequential-stimulus-presentation","93","238381","0.0-20.0-1.6","SS1613082248268","trial","","40","800","1172.9550000280142","images/stimuli/spore_stims/simple_15_A_d.gif","images/stimuli/spore_stims/simple_10_A_c.gif","","","","","4","simple_dissimilar","images/stimuli/spore_stims/simple_10_A_c.gif","left","","","","",""
"","null","html-keyboard-response","94","239658","0.0-20.0-0.7","SS1613082248268","","","null","","","","","<p><img src= images/blank.png width =""200"" height = ""200"" style = ""float:right""></p><p><img src=images/blank.png width =""800"" height = ""200""></p>","","","","","","","","","","","",""
"","3779.6700000180863","sequential-stimulus-presentation","95","244262","0.0-20.0-1.7","SS1613082248268","trial","","40","800","4579.670000018086","images/stimuli/spore_stims/simple_15_A_d.gif","images/stimuli/spore_stims/simple_10_A_c.gif","","","","","4","simple_dissimilar","images/stimuli/spore_stims/simple_15_A_d.gif","middle","","","","",""
"","3682.16999998549","html-keyboard-response","96","247955","0.0-21.0","SS1613082248268","pref_question","","51","","","","","<video width ='960' height = '540' style='padding-top:8%' autoplay muted><source src='images/stimuli/wall_pref.mp4' type='video/mp4'></video>","3","right","66%","4","","","","","","","",""
"","3537.2600000118837","sequential-stimulus-presentation","97","252315","0.0-22.0","SS1613082248268","pref_reveal","","40","800","4337.260000011884","null","null","","","","","4","","","","novel","","","",""
"","null","html-keyboard-response","98","253460","0.0-23.0-0.0","SS1613082248268","","","null","","","","","<p><img src= images/blank.png width =""200"" height = ""200"" style = ""float:right""></p><p><img src=images/blank.png width =""800"" height = ""200""></p>","","","","","","","","","","","",""
"","1651.990000042133","sequential-stimulus-presentation","99","255984","0.0-23.0-1.0","SS1613082248268","trial","","40","800","2451.990000042133","images/stimuli/spore_stims/complex_20_A_d.gif","images/stimuli/spore_stims/complex_20_B_d.gif","","","","","5","complex_similar","images/stimuli/spore_stims/complex_20_B_d.gif","middle","","","","",""
"","null","html-keyboard-response","100","256956","0.0-23.0-0.1","SS1613082248268","","","null","","","","","<p><img src= images/blank.png width =""200"" height = ""200"" style = ""float:right""></p><p><img src=images/blank.png width =""800"" height = ""200""></p>","","","","","","","","","","","",""
"","763.2500000181608","sequential-stimulus-presentation","101","258540","0.0-23.0-1.1","SS1613082248268","trial","","40","800","1563.2500000181608","images/stimuli/spore_stims/complex_20_A_d.gif","images/stimuli/spore_stims/complex_20_B_d.gif","","","","","5","complex_similar","images/stimuli/spore_stims/complex_20_B_d.gif","middle","","","","",""
"","null","html-keyboard-response","102","259547","0.0-23.0-0.2","SS1613082248268","","","null","","","","","<p><img src= images/blank.png width =""200"" height = ""200"" style = ""float:right""></p><p><img src=images/blank.png width =""800"" height = ""200""></p>","","","","","","","","","","","",""
"","760.7500000158325","sequential-stimulus-presentation","103","261147","0.0-23.0-1.2","SS1613082248268","trial","","40","800","1560.7500000158325","images/stimuli/spore_stims/complex_20_A_d.gif","images/stimuli/spore_stims/complex_20_B_d.gif","","","","","5","complex_similar","images/stimuli/spore_stims/complex_20_B_d.gif","middle","","","","",""
"","null","html-keyboard-response","104","262012","0.0-23.0-0.3","SS1613082248268","","","null","","","","","<p><img src= images/blank.png width =""200"" height = ""200"" style = ""float:right""></p><p><img src=images/blank.png width =""800"" height = ""200""></p>","","","","","","","","","","","",""
"","633.9000000152737","sequential-stimulus-presentation","105","263476","0.0-23.0-1.3","SS1613082248268","trial","","40","800","1433.9000000152737","images/stimuli/spore_stims/complex_20_A_d.gif","images/stimuli/spore_stims/complex_20_B_d.gif","","","","","5","complex_similar","images/stimuli/spore_stims/complex_20_B_d.gif","middle","","","","",""
"","null","html-keyboard-response","106","264348","0.0-23.0-0.4","SS1613082248268","","","null","","","","","<p><img src= images/blank.png width =""200"" height = ""200"" style = ""float:right""></p><p><img src=images/blank.png width =""800"" height = ""200""></p>","","","","","","","","","","","",""
"","687.9099999787286","sequential-stimulus-presentation","107","265917","0.0-23.0-1.4","SS1613082248268","trial","","40","800","1487.9099999787286","images/stimuli/spore_stims/complex_20_A_d.gif","images/stimuli/spore_stims/complex_20_B_d.gif","","","","","5","complex_similar","images/stimuli/spore_stims/complex_20_B_d.gif","middle","","","","",""
"","null","html-keyboard-response","108","267019","0.0-23.0-0.5","SS1613082248268","","","null","","","","","<p><img src= images/blank.png width =""200"" height = ""200"" style = ""float:right""></p><p><img src=images/blank.png width =""800"" height = ""200""></p>","","","","","","","","","","","",""
"","2529.4799999683164","sequential-stimulus-presentation","109","270371","0.0-23.0-1.5","SS1613082248268","trial","","40","800","3329.4799999683164","images/stimuli/spore_stims/complex_20_A_d.gif","images/stimuli/spore_stims/complex_20_B_d.gif","","","","","5","complex_similar","images/stimuli/spore_stims/complex_20_A_d.gif","right","","","","",""
"","null","html-keyboard-response","110","271196","0.0-23.0-0.6","SS1613082248268","","","null","","","","","<p><img src= images/blank.png width =""200"" height = ""200"" style = ""float:right""></p><p><img src=images/blank.png width =""800"" height = ""200""></p>","","","","","","","","","","","",""
"","1748.8049999810755","sequential-stimulus-presentation","111","273770","0.0-23.0-1.6","SS1613082248268","trial","","40","800","2548.8049999810755","images/stimuli/spore_stims/complex_20_A_d.gif","images/stimuli/spore_stims/complex_20_B_d.gif","","","","","5","complex_similar","images/stimuli/spore_stims/complex_20_B_d.gif","middle","","","","",""
"","null","html-keyboard-response","112","274919","0.0-23.0-0.7","SS1613082248268","","","null","","","","","<p><img src= images/blank.png width =""200"" height = ""200"" style = ""float:right""></p><p><img src=images/blank.png width =""800"" height = ""200""></p>","","","","","","","","","","","",""
"","504.7449999838136","sequential-stimulus-presentation","113","276237","0.0-23.0-1.7","SS1613082248268","trial","","40","800","1304.7449999838136","images/stimuli/spore_stims/complex_20_A_d.gif","images/stimuli/spore_stims/complex_20_B_d.gif","","","","","5","complex_similar","images/stimuli/spore_stims/complex_20_B_d.gif","middle","","","","",""
"","1796.0500000044703","html-keyboard-response","114","278080","0.0-24.0","SS1613082248268","pref_question","","49","","","","","<video width ='960' height = '540' style='padding-top:8%' autoplay muted><source src='images/stimuli/wall_pref.mp4' type='video/mp4'></video>","1","left","25%","5","","","","","","","",""
"","1678.0849999631755","sequential-stimulus-presentation","115","280584","0.0-25.0","SS1613082248268","pref_reveal","","40","800","2478.0849999631755","null","null","","","","","5","","","","novel","","","",""
"","null","html-keyboard-response","116","281742","0.0-26.0-0.0","SS1613082248268","","","null","","","","","<p><img src= images/blank.png width =""200"" height = ""200"" style = ""float:right""></p><p><img src=images/blank.png width =""800"" height = ""200""></p>","","","","","","","","","","","",""
"","1094.054999994114","sequential-stimulus-presentation","117","283670","0.0-26.0-1.0","SS1613082248268","trial","","40","800","1894.054999994114","images/stimuli/spore_stims/complex_10_B_a.gif","images/stimuli/spore_stims/complex_13_A_d.gif","","","","","6","complex_dissimilar","images/stimuli/spore_stims/complex_13_A_d.gif","right","","","","",""
"","null","html-keyboard-response","118","284779","0.0-26.0-0.1","SS1613082248268","","","null","","","","","<p><img src= images/blank.png width =""200"" height = ""200"" style = ""float:right""></p><p><img src=images/blank.png width =""800"" height = ""200""></p>","","","","","","","","","","","",""
"","726.2399999890476","sequential-stimulus-presentation","119","286330","0.0-26.0-1.1","SS1613082248268","trial","","40","800","1526.2399999890476","images/stimuli/spore_stims/complex_10_B_a.gif","images/stimuli/spore_stims/complex_13_A_d.gif","","","","","6","complex_dissimilar","images/stimuli/spore_stims/complex_13_A_d.gif","right","","","","",""
"","null","html-keyboard-response","120","287291","0.0-26.0-0.2","SS1613082248268","","","null","","","","","<p><img src= images/blank.png width =""200"" height = ""200"" style = ""float:right""></p><p><img src=images/blank.png width =""800"" height = ""200""></p>","","","","","","","","","","","",""
"","613.6749999714084","sequential-stimulus-presentation","121","288737","0.0-26.0-1.2","SS1613082248268","trial","","40","800","1413.6749999714084","images/stimuli/spore_stims/complex_10_B_a.gif","images/stimuli/spore_stims/complex_13_A_d.gif","","","","","6","complex_dissimilar","images/stimuli/spore_stims/complex_13_A_d.gif","right","","","","",""
"","null","html-keyboard-response","122","290019","0.0-26.0-0.3","SS1613082248268","","","null","","","","","<p><img src= images/blank.png width =""200"" height = ""200"" style = ""float:right""></p><p><img src=images/blank.png width =""800"" height = ""200""></p>","","","","","","","","","","","",""
"","824.945000000298","sequential-stimulus-presentation","123","291669","0.0-26.0-1.3","SS1613082248268","trial","","40","800","1624.945000000298","images/stimuli/spore_stims/complex_10_B_a.gif","images/stimuli/spore_stims/complex_13_A_d.gif","","","","","6","complex_dissimilar","images/stimuli/spore_stims/complex_13_A_d.gif","right","","","","",""
"","null","html-keyboard-response","124","292874","0.0-26.0-0.4","SS1613082248268","","","null","","","","","<p><img src= images/blank.png width =""200"" height = ""200"" style = ""float:right""></p><p><img src=images/blank.png width =""800"" height = ""200""></p>","","","","","","","","","","","",""
"","460.3950000018813","sequential-stimulus-presentation","125","294151","0.0-26.0-1.4","SS1613082248268","trial","","40","800","1260.3950000018813","images/stimuli/spore_stims/complex_10_B_a.gif","images/stimuli/spore_stims/complex_13_A_d.gif","","","","","6","complex_dissimilar","images/stimuli/spore_stims/complex_13_A_d.gif","right","","","","",""
"","null","html-keyboard-response","126","295413","0.0-26.0-0.5","SS1613082248268","","","null","","","","","<p><img src= images/blank.png width =""200"" height = ""200"" style = ""float:right""></p><p><img src=images/blank.png width =""800"" height = ""200""></p>","","","","","","","","","","","",""
"","307.4299999861978","sequential-stimulus-presentation","127","296547","0.0-26.0-1.5","SS1613082248268","trial","","40","800","1107.4299999861978","images/stimuli/spore_stims/complex_10_B_a.gif","images/stimuli/spore_stims/complex_13_A_d.gif","","","","","6","complex_dissimilar","images/stimuli/spore_stims/complex_13_A_d.gif","right","","","","",""
"","null","html-keyboard-response","128","297446","0.0-26.0-0.6","SS1613082248268","","","null","","","","","<p><img src= images/blank.png width =""200"" height = ""200"" style = ""float:right""></p><p><img src=images/blank.png width =""800"" height = ""200""></p>","","","","","","","","","","","",""
"","401.06000000378117","sequential-stimulus-presentation","129","298683","0.0-26.0-1.6","SS1613082248268","trial","","40","800","1201.0600000037812","images/stimuli/spore_stims/complex_10_B_a.gif","images/stimuli/spore_stims/complex_13_A_d.gif","","","","","6","complex_dissimilar","images/stimuli/spore_stims/complex_13_A_d.gif","right","","","","",""
"","null","html-keyboard-response","130","299647","0.0-26.0-0.7","SS1613082248268","","","null","","","","","<p><img src= images/blank.png width =""200"" height = ""200"" style = ""float:right""></p><p><img src=images/blank.png width =""800"" height = ""200""></p>","","","","","","","","","","","",""
"","4216.705000028014","sequential-stimulus-presentation","131","304704","0.0-26.0-1.7","SS1613082248268","trial","","40","800","5016.705000028014","images/stimuli/spore_stims/complex_10_B_a.gif","images/stimuli/spore_stims/complex_13_A_d.gif","","","","","6","complex_dissimilar","images/stimuli/spore_stims/complex_10_B_a.gif","middle","","","","",""
"","2253.3350000157952","html-keyboard-response","132","306976","0.0-27.0","SS1613082248268","pref_question","","49","","","","","<video width ='960' height = '540' style='padding-top:8%' autoplay muted><source src='images/stimuli/wall_pref.mp4' type='video/mp4'></video>","1","left","25%","6","","","","","","","",""
"","2090.1700000395067","sequential-stimulus-presentation","133","309882","0.0-28.0","SS1613082248268","pref_reveal","","40","800","2890.1700000395067","null","null","","","","","6","","","","novel","","","",""
"","null","html-keyboard-response","134","310872","0.0-29.0-0.0","SS1613082248268","","","null","","","","","<p><img src= images/blank.png width =""200"" height = ""200"" style = ""float:right""></p><p><img src=images/blank.png width =""800"" height = ""200""></p>","","","","","","","","","","","",""
"","1213.1700000027195","sequential-stimulus-presentation","135","312947","0.0-29.0-1.0","SS1613082248268","trial","","40","800","2013.1700000027195","images/stimuli/spore_stims/simple_17_B_a.gif","images/stimuli/spore_stims/simple_17_A_a.gif","","","","","7","simple_similar","images/stimuli/spore_stims/simple_17_A_a.gif","right","","","","",""
"","null","html-keyboard-response","136","314232","0.0-29.0-0.1","SS1613082248268","","","null","","","","","<p><img src= images/blank.png width =""200"" height = ""200"" style = ""float:right""></p><p><img src=images/blank.png width =""800"" height = ""200""></p>","","","","","","","","","","","",""
"","1818.0050000082701","sequential-stimulus-presentation","137","316878","0.0-29.0-1.1","SS1613082248268","trial","","40","800","2618.00500000827","images/stimuli/spore_stims/simple_17_B_a.gif","images/stimuli/spore_stims/simple_17_A_a.gif","","","","","7","simple_similar","images/stimuli/spore_stims/simple_17_A_a.gif","right","","","","",""
"","null","html-keyboard-response","138","318187","0.0-29.0-0.2","SS1613082248268","","","null","","","","","<p><img src= images/blank.png width =""200"" height = ""200"" style = ""float:right""></p><p><img src=images/blank.png width =""800"" height = ""200""></p>","","","","","","","","","","","",""
"","462.2999999555759","sequential-stimulus-presentation","139","319481","0.0-29.0-1.2","SS1613082248268","trial","","40","800","1262.299999955576","images/stimuli/spore_stims/simple_17_B_a.gif","images/stimuli/spore_stims/simple_17_A_a.gif","","","","","7","simple_similar","images/stimuli/spore_stims/simple_17_A_a.gif","right","","","","",""
"","null","html-keyboard-response","140","320300","0.0-29.0-0.3","SS1613082248268","","","null","","","","","<p><img src= images/blank.png width =""200"" height = ""200"" style = ""float:right""></p><p><img src=images/blank.png width =""800"" height = ""200""></p>","","","","","","","","","","","",""
"","560.6400000397116","sequential-stimulus-presentation","141","321708","0.0-29.0-1.3","SS1613082248268","trial","","40","800","1360.6400000397116","images/stimuli/spore_stims/simple_17_B_a.gif","images/stimuli/spore_stims/simple_17_A_a.gif","","","","","7","simple_similar","images/stimuli/spore_stims/simple_17_A_a.gif","right","","","","",""
"","null","html-keyboard-response","142","322781","0.0-29.0-0.4","SS1613082248268","","","null","","","","","<p><img src= images/blank.png width =""200"" height = ""200"" style = ""float:right""></p><p><img src=images/blank.png width =""800"" height = ""200""></p>","","","","","","","","","","","",""
"","825.7150000426918","sequential-stimulus-presentation","143","324424","0.0-29.0-1.4","SS1613082248268","trial","","40","800","1625.7150000426918","images/stimuli/spore_stims/simple_17_B_a.gif","images/stimuli/spore_stims/simple_17_A_a.gif","","","","","7","simple_similar","images/stimuli/spore_stims/simple_17_A_a.gif","right","","","","",""
"","null","html-keyboard-response","144","325332","0.0-29.0-0.5","SS1613082248268","","","null","","","","","<p><img src= images/blank.png width =""200"" height = ""200"" style = ""float:right""></p><p><img src=images/blank.png width =""800"" height = ""200""></p>","","","","","","","","","","","",""
"","494.1450000042096","sequential-stimulus-presentation","145","326650","0.0-29.0-1.5","SS1613082248268","trial","","40","800","1294.1450000042096","images/stimuli/spore_stims/simple_17_B_a.gif","images/stimuli/spore_stims/simple_17_A_a.gif","","","","","7","simple_similar","images/stimuli/spore_stims/simple_17_A_a.gif","right","","","","",""
"","null","html-keyboard-response","146","327706","0.0-29.0-0.6","SS1613082248268","","","null","","","","","<p><img src= images/blank.png width =""200"" height = ""200"" style = ""float:right""></p><p><img src=images/blank.png width =""800"" height = ""200""></p>","","","","","","","","","","","",""
"","1490.9650000045076","sequential-stimulus-presentation","147","330036","0.0-29.0-1.6","SS1613082248268","trial","","40","800","2290.9650000045076","images/stimuli/spore_stims/simple_17_B_a.gif","images/stimuli/spore_stims/simple_17_A_a.gif","","","","","7","simple_similar","images/stimuli/spore_stims/simple_17_B_a.gif","middle","","","","",""
"","null","html-keyboard-response","148","331135","0.0-29.0-0.7","SS1613082248268","","","null","","","","","<p><img src= images/blank.png width =""200"" height = ""200"" style = ""float:right""></p><p><img src=images/blank.png width =""800"" height = ""200""></p>","","","","","","","","","","","",""
"","1638.5349999764003","sequential-stimulus-presentation","149","333596","0.0-29.0-1.7","SS1613082248268","trial","","40","800","2438.5349999764003","images/stimuli/spore_stims/simple_17_B_a.gif","images/stimuli/spore_stims/simple_17_A_a.gif","","","","","7","simple_similar","images/stimuli/spore_stims/simple_17_A_a.gif","right","","","","",""
"","2753.5350000252947","html-keyboard-response","150","336377","0.0-30.0","SS1613082248268","pref_question","","49","","","","","<video width ='960' height = '540' style='padding-top:8%' autoplay muted><source src='images/stimuli/wall_pref.mp4' type='video/mp4'></video>","1","left","25%","7","","","","","","","",""
"","1810.3549999650568","sequential-stimulus-presentation","151","339030","0.0-31.0","SS1613082248268","pref_reveal","","40","800","2610.354999965057","null","null","","","","","7","","","","novel","","","",""
"","null","html-keyboard-response","152","340016","0.0-32.0-0.0","SS1613082248268","","","null","","","","","<p><img src= images/blank.png width =""200"" height = ""200"" style = ""float:right""></p><p><img src=images/blank.png width =""800"" height = ""200""></p>","","","","","","","","","","","",""
"","2377.4199999752454","sequential-stimulus-presentation","153","343222","0.0-32.0-1.0","SS1613082248268","trial","","40","800","3177.4199999752454","images/stimuli/spore_stims/simple_19_A_b.gif","images/stimuli/spore_stims/simple_19_B_b.gif","","","","","8","simple_similar","images/stimuli/spore_stims/simple_19_B_b.gif","middle","","","","",""
"","null","html-keyboard-response","154","344185","0.0-32.0-0.1","SS1613082248268","","","null","","","","","<p><img src= images/blank.png width =""200"" height = ""200"" style = ""float:right""></p><p><img src=images/blank.png width =""800"" height = ""200""></p>","","","","","","","","","","","",""
"","458.1200000247918","sequential-stimulus-presentation","155","345482","0.0-32.0-1.1","SS1613082248268","trial","","40","800","1258.1200000247918","images/stimuli/spore_stims/simple_19_A_b.gif","images/stimuli/spore_stims/simple_19_B_b.gif","","","","","8","simple_similar","images/stimuli/spore_stims/simple_19_B_b.gif","middle","","","","",""
"","null","html-keyboard-response","156","346476","0.0-32.0-0.2","SS1613082248268","","","null","","","","","<p><img src= images/blank.png width =""200"" height = ""200"" style = ""float:right""></p><p><img src=images/blank.png width =""800"" height = ""200""></p>","","","","","","","","","","","",""
"","1303.040000027977","sequential-stimulus-presentation","157","348605","0.0-32.0-1.2","SS1613082248268","trial","","40","800","2103.040000027977","images/stimuli/spore_stims/simple_19_A_b.gif","images/stimuli/spore_stims/simple_19_B_b.gif","","","","","8","simple_similar","images/stimuli/spore_stims/simple_19_B_b.gif","middle","","","","",""
"","null","html-keyboard-response","158","349494","0.0-32.0-0.3","SS1613082248268","","","null","","","","","<p><img src= images/blank.png width =""200"" height = ""200"" style = ""float:right""></p><p><img src=images/blank.png width =""800"" height = ""200""></p>","","","","","","","","","","","",""
"","754.9800000269897","sequential-stimulus-presentation","159","351066","0.0-32.0-1.3","SS1613082248268","trial","","40","800","1554.9800000269897","images/stimuli/spore_stims/simple_19_A_b.gif","images/stimuli/spore_stims/simple_19_B_b.gif","","","","","8","simple_similar","images/stimuli/spore_stims/simple_19_B_b.gif","middle","","","","",""
"","null","html-keyboard-response","160","352331","0.0-32.0-0.4","SS1613082248268","","","null","","","","","<p><img src= images/blank.png width =""200"" height = ""200"" style = ""float:right""></p><p><img src=images/blank.png width =""800"" height = ""200""></p>","","","","","","","","","","","",""
"","573.389999975916","sequential-stimulus-presentation","161","353777","0.0-32.0-1.4","SS1613082248268","trial","","40","800","1373.389999975916","images/stimuli/spore_stims/simple_19_A_b.gif","images/stimuli/spore_stims/simple_19_B_b.gif","","","","","8","simple_similar","images/stimuli/spore_stims/simple_19_B_b.gif","middle","","","","",""
"","null","html-keyboard-response","162","354732","0.0-32.0-0.5","SS1613082248268","","","null","","","","","<p><img src= images/blank.png width =""200"" height = ""200"" style = ""float:right""></p><p><img src=images/blank.png width =""800"" height = ""200""></p>","","","","","","","","","","","",""
"","337.12999999988824","sequential-stimulus-presentation","163","355888","0.0-32.0-1.5","SS1613082248268","trial","","40","800","1137.1299999998882","images/stimuli/spore_stims/simple_19_A_b.gif","images/stimuli/spore_stims/simple_19_B_b.gif","","","","","8","simple_similar","images/stimuli/spore_stims/simple_19_B_b.gif","middle","","","","",""
"","null","html-keyboard-response","164","356733","0.0-32.0-0.6","SS1613082248268","","","null","","","","","<p><img src= images/blank.png width =""200"" height = ""200"" style = ""float:right""></p><p><img src=images/blank.png width =""800"" height = ""200""></p>","","","","","","","","","","","",""
"","636.5349999978207","sequential-stimulus-presentation","165","358195","0.0-32.0-1.6","SS1613082248268","trial","","40","800","1436.5349999978207","images/stimuli/spore_stims/simple_19_A_b.gif","images/stimuli/spore_stims/simple_19_B_b.gif","","","","","8","simple_similar","images/stimuli/spore_stims/simple_19_A_b.gif","right","","","","",""
"","null","html-keyboard-response","166","359204","0.0-32.0-0.7","SS1613082248268","","","null","","","","","<p><img src= images/blank.png width =""200"" height = ""200"" style = ""float:right""></p><p><img src=images/blank.png width =""800"" height = ""200""></p>","","","","","","","","","","","",""
"","1516.1300000036135","sequential-stimulus-presentation","167","361542","0.0-32.0-1.7","SS1613082248268","trial","","40","800","2316.1300000036135","images/stimuli/spore_stims/simple_19_A_b.gif","images/stimuli/spore_stims/simple_19_B_b.gif","","","","","8","simple_similar","images/stimuli/spore_stims/simple_19_B_b.gif","middle","","","","",""
"","2092.4749999539927","html-keyboard-response","168","363658","0.0-33.0","SS1613082248268","pref_question","","49","","","","","<video width ='960' height = '540' style='padding-top:8%' autoplay muted><source src='images/stimuli/wall_pref.mp4' type='video/mp4'></video>","1","left","25%","8","","","","","","","",""
"","2024.0649999468587","sequential-stimulus-presentation","169","366510","0.0-34.0","SS1613082248268","pref_reveal","","40","800","2824.0649999468587","null","null","","","","","8","","","","novel","","","",""
"","null","html-keyboard-response","170","367671","0.0-35.0-0.0","SS1613082248268","","","null","","","","","<p><img src= images/blank.png width =""200"" height = ""200"" style = ""float:right""></p><p><img src=images/blank.png width =""800"" height = ""200""></p>","","","","","","","","","","","",""
"","3258.8249999680556","sequential-stimulus-presentation","171","371762","0.0-35.0-1.0","SS1613082248268","trial","","40","800","4058.8249999680556","images/stimuli/spore_stims/simple_18_A_a.gif","images/stimuli/spore_stims/simple_18_B_a.gif","","","","","9","simple_similar","images/stimuli/spore_stims/simple_18_B_a.gif","left","","","","",""
"","null","html-keyboard-response","172","372718","0.0-35.0-0.1","SS1613082248268","","","null","","","","","<p><img src= images/blank.png width =""200"" height = ""200"" style = ""float:right""></p><p><img src=images/blank.png width =""800"" height = ""200""></p>","","","","","","","","","","","",""
"","491.41999997664243","sequential-stimulus-presentation","173","374035","0.0-35.0-1.1","SS1613082248268","trial","","40","800","1291.4199999766424","images/stimuli/spore_stims/simple_18_A_a.gif","images/stimuli/spore_stims/simple_18_B_a.gif","","","","","9","simple_similar","images/stimuli/spore_stims/simple_18_B_a.gif","left","","","","",""
"","null","html-keyboard-response","174","375205","0.0-35.0-0.2","SS1613082248268","","","null","","","","","<p><img src= images/blank.png width =""200"" height = ""200"" style = ""float:right""></p><p><img src=images/blank.png width =""800"" height = ""200""></p>","","","","","","","","","","","",""
"","1107.3850000393577","sequential-stimulus-presentation","175","377143","0.0-35.0-1.2","SS1613082248268","trial","","40","800","1907.3850000393577","images/stimuli/spore_stims/simple_18_A_a.gif","images/stimuli/spore_stims/simple_18_B_a.gif","","","","","9","simple_similar","images/stimuli/spore_stims/simple_18_A_a.gif","middle","","","","",""
"","null","html-keyboard-response","176","378186","0.0-35.0-0.3","SS1613082248268","","","null","","","","","<p><img src= images/blank.png width =""200"" height = ""200"" style = ""float:right""></p><p><img src=images/blank.png width =""800"" height = ""200""></p>","","","","","","","","","","","",""
"","926.2649999582209","sequential-stimulus-presentation","177","379945","0.0-35.0-1.3","SS1613082248268","trial","","40","800","1726.2649999582209","images/stimuli/spore_stims/simple_18_A_a.gif","images/stimuli/spore_stims/simple_18_B_a.gif","","","","","9","simple_similar","images/stimuli/spore_stims/simple_18_B_a.gif","left","","","","",""
"","null","html-keyboard-response","178","380965","0.0-35.0-0.4","SS1613082248268","","","null","","","","","<p><img src= images/blank.png width =""200"" height = ""200"" style = ""float:right""></p><p><img src=images/blank.png width =""800"" height = ""200""></p>","","","","","","","","","","","",""
"","672.2300000255927","sequential-stimulus-presentation","179","382454","0.0-35.0-1.4","SS1613082248268","trial","","40","800","1472.2300000255927","images/stimuli/spore_stims/simple_18_A_a.gif","images/stimuli/spore_stims/simple_18_B_a.gif","","","","","9","simple_similar","images/stimuli/spore_stims/simple_18_B_a.gif","left","","","","",""
"","null","html-keyboard-response","180","383651","0.0-35.0-0.5","SS1613082248268","","","null","","","","","<p><img src= images/blank.png width =""200"" height = ""200"" style = ""float:right""></p><p><img src=images/blank.png width =""800"" height = ""200""></p>","","","","","","","","","","","",""
"","500.9149999823421","sequential-stimulus-presentation","181","384969","0.0-35.0-1.5","SS1613082248268","trial","","40","800","1300.9149999823421","images/stimuli/spore_stims/simple_18_A_a.gif","images/stimuli/spore_stims/simple_18_B_a.gif","","","","","9","simple_similar","images/stimuli/spore_stims/simple_18_B_a.gif","left","","","","",""
"","null","html-keyboard-response","182","385926","0.0-35.0-0.6","SS1613082248268","","","null","","","","","<p><img src= images/blank.png width =""200"" height = ""200"" style = ""float:right""></p><p><img src=images/blank.png width =""800"" height = ""200""></p>","","","","","","","","","","","",""
"","827.7900000102818","sequential-stimulus-presentation","183","387587","0.0-35.0-1.6","SS1613082248268","trial","","40","800","1627.7900000102818","images/stimuli/spore_stims/simple_18_A_a.gif","images/stimuli/spore_stims/simple_18_B_a.gif","","","","","9","simple_similar","images/stimuli/spore_stims/simple_18_B_a.gif","left","","","","",""
"","null","html-keyboard-response","184","388823","0.0-35.0-0.7","SS1613082248268","","","null","","","","","<p><img src= images/blank.png width =""200"" height = ""200"" style = ""float:right""></p><p><img src=images/blank.png width =""800"" height = ""200""></p>","","","","","","","","","","","",""
"","411.980000033509","sequential-stimulus-presentation","185","390078","0.0-35.0-1.7","SS1613082248268","trial","","40","800","1211.980000033509","images/stimuli/spore_stims/simple_18_A_a.gif","images/stimuli/spore_stims/simple_18_B_a.gif","","","","","9","simple_similar","images/stimuli/spore_stims/simple_18_B_a.gif","left","","","","",""
"","3119.4150000228547","html-keyboard-response","186","393215","0.0-36.0","SS1613082248268","pref_question","","51","","","","","<video width ='960' height = '540' style='padding-top:8%' autoplay muted><source src='images/stimuli/wall_pref.mp4' type='video/mp4'></video>","3","right","66%","9","","","","","","","",""
"","4727.835000026971","sequential-stimulus-presentation","187","398764","0.0-37.0","SS1613082248268","pref_reveal","","40","800","5527.835000026971","null","null","","","","","9","","","","novel","","","",""
"","null","html-keyboard-response","188","400003","0.0-38.0-0.0","SS1613082248268","","","null","","","","","<p><img src= images/blank.png width =""200"" height = ""200"" style = ""float:right""></p><p><img src=images/blank.png width =""800"" height = ""200""></p>","","","","","","","","","","","",""
"","2182.3699999949895","sequential-stimulus-presentation","189","403002","0.0-38.0-1.0","SS1613082248268","trial","","40","800","2982.3699999949895","images/stimuli/spore_stims/complex_12_B_a.gif","images/stimuli/spore_stims/complex_12_A_a.gif","","","","","10","complex_similar","images/stimuli/spore_stims/complex_12_A_a.gif","left","","","","",""
"","null","html-keyboard-response","190","404253","0.0-38.0-0.1","SS1613082248268","","","null","","","","","<p><img src= images/blank.png width =""200"" height = ""200"" style = ""float:right""></p><p><img src=images/blank.png width =""800"" height = ""200""></p>","","","","","","","","","","","",""
"","1170.0249999994412","sequential-stimulus-presentation","191","406264","0.0-38.0-1.1","SS1613082248268","trial","","40","800","1970.0249999994412","images/stimuli/spore_stims/complex_12_B_a.gif","images/stimuli/spore_stims/complex_12_A_a.gif","","","","","10","complex_similar","images/stimuli/spore_stims/complex_12_A_a.gif","left","","","","",""
"","null","html-keyboard-response","192","407314","0.0-38.0-0.2","SS1613082248268","","","null","","","","","<p><img src= images/blank.png width =""200"" height = ""200"" style = ""float:right""></p><p><img src=images/blank.png width =""800"" height = ""200""></p>","","","","","","","","","","","",""
"","671.7749999952503","sequential-stimulus-presentation","193","408826","0.0-38.0-1.2","SS1613082248268","trial","","40","800","1471.7749999952503","images/stimuli/spore_stims/complex_12_B_a.gif","images/stimuli/spore_stims/complex_12_A_a.gif","","","","","10","complex_similar","images/stimuli/spore_stims/complex_12_A_a.gif","left","","","","",""
"","null","html-keyboard-response","194","409681","0.0-38.0-0.3","SS1613082248268","","","null","","","","","<p><img src= images/blank.png width =""200"" height = ""200"" style = ""float:right""></p><p><img src=images/blank.png width =""800"" height = ""200""></p>","","","","","","","","","","","",""
"","1158.2700000144541","sequential-stimulus-presentation","195","411665","0.0-38.0-1.3","SS1613082248268","trial","","40","800","1958.2700000144541","images/stimuli/spore_stims/complex_12_B_a.gif","images/stimuli/spore_stims/complex_12_A_a.gif","","","","","10","complex_similar","images/stimuli/spore_stims/complex_12_A_a.gif","left","","","","",""
"","null","html-keyboard-response","196","412948","0.0-38.0-0.4","SS1613082248268","","","null","","","","","<p><img src= images/blank.png width =""200"" height = ""200"" style = ""float:right""></p><p><img src=images/blank.png width =""800"" height = ""200""></p>","","","","","","","","","","","",""
"","882.3349999729544","sequential-stimulus-presentation","197","414670","0.0-38.0-1.4","SS1613082248268","trial","","40","800","1682.3349999729544","images/stimuli/spore_stims/complex_12_B_a.gif","images/stimuli/spore_stims/complex_12_A_a.gif","","","","","10","complex_similar","images/stimuli/spore_stims/complex_12_A_a.gif","left","","","","",""
"","null","html-keyboard-response","198","415516","0.0-38.0-0.5","SS1613082248268","","","null","","","","","<p><img src= images/blank.png width =""200"" height = ""200"" style = ""float:right""></p><p><img src=images/blank.png width =""800"" height = ""200""></p>","","","","","","","","","","","",""
"","531.8800000241026","sequential-stimulus-presentation","199","416872","0.0-38.0-1.5","SS1613082248268","trial","","40","800","1331.8800000241026","images/stimuli/spore_stims/complex_12_B_a.gif","images/stimuli/spore_stims/complex_12_A_a.gif","","","","","10","complex_similar","images/stimuli/spore_stims/complex_12_A_a.gif","left","","","","",""
"","null","html-keyboard-response","200","417959","0.0-38.0-0.6","SS1613082248268","","","null","","","","","<p><img src= images/blank.png width =""200"" height = ""200"" style = ""float:right""></p><p><img src=images/blank.png width =""800"" height = ""200""></p>","","","","","","","","","","","",""
"","2432.9450000077486","sequential-stimulus-presentation","201","421209","0.0-38.0-1.6","SS1613082248268","trial","","40","800","3232.9450000077486","images/stimuli/spore_stims/complex_12_B_a.gif","images/stimuli/spore_stims/complex_12_A_a.gif","","","","","10","complex_similar","images/stimuli/spore_stims/complex_12_B_a.gif","middle","","","","",""
"","null","html-keyboard-response","202","422160","0.0-38.0-0.7","SS1613082248268","","","null","","","","","<p><img src= images/blank.png width =""200"" height = ""200"" style = ""float:right""></p><p><img src=images/blank.png width =""800"" height = ""200""></p>","","","","","","","","","","","",""
"","1225.9399999747984","sequential-stimulus-presentation","203","424231","0.0-38.0-1.7","SS1613082248268","trial","","40","800","2025.9399999747984","images/stimuli/spore_stims/complex_12_B_a.gif","images/stimuli/spore_stims/complex_12_A_a.gif","","","","","10","complex_similar","images/stimuli/spore_stims/complex_12_A_a.gif","left","","","","",""
"","2173.4200000064448","html-keyboard-response","204","426418","0.0-39.0","SS1613082248268","pref_question","","51","","","","","<video width ='960' height = '540' style='padding-top:8%' autoplay muted><source src='images/stimuli/wall_pref.mp4' type='video/mp4'></video>","3","right","66%","10","","","","","","","",""
"","1109.4000000157394","sequential-stimulus-presentation","205","428362","0.0-40.0","SS1613082248268","pref_reveal","","40","800","1909.4000000157394","null","null","","","","","10","","","","novel","","","",""
"","null","html-keyboard-response","206","429420","0.0-41.0-0.0","SS1613082248268","","","null","","","","","<p><img src= images/blank.png width =""200"" height = ""200"" style = ""float:right""></p><p><img src=images/blank.png width =""800"" height = ""200""></p>","","","","","","","","","","","",""
"","2241.5150000015274","sequential-stimulus-presentation","207","432502","0.0-41.0-1.0","SS1613082248268","trial","","40","800","3041.5150000015274","images/stimuli/spore_stims/simple_04_A_d.gif","images/stimuli/spore_stims/simple_03_B_a.gif","","","","","11","simple_dissimilar","images/stimuli/spore_stims/simple_03_B_a.gif","right","","","","",""
"","null","html-keyboard-response","208","433643","0.0-41.0-0.1","SS1613082248268","","","null","","","","","<p><img src= images/blank.png width =""200"" height = ""200"" style = ""float:right""></p><p><img src=images/blank.png width =""800"" height = ""200""></p>","","","","","","","","","","","",""
"","1724.820000003092","sequential-stimulus-presentation","209","436184","0.0-41.0-1.1","SS1613082248268","trial","","40","800","2524.820000003092","images/stimuli/spore_stims/simple_04_A_d.gif","images/stimuli/spore_stims/simple_03_B_a.gif","","","","","11","simple_dissimilar","images/stimuli/spore_stims/simple_03_B_a.gif","right","","","","",""
"","null","html-keyboard-response","210","437440","0.0-41.0-0.2","SS1613082248268","","","null","","","","","<p><img src= images/blank.png width =""200"" height = ""200"" style = ""float:right""></p><p><img src=images/blank.png width =""800"" height = ""200""></p>","","","","","","","","","","","",""
"","468.18000002531335","sequential-stimulus-presentation","211","438748","0.0-41.0-1.2","SS1613082248268","trial","","40","800","1268.1800000253133","images/stimuli/spore_stims/simple_04_A_d.gif","images/stimuli/spore_stims/simple_03_B_a.gif","","","","","11","simple_dissimilar","images/stimuli/spore_stims/simple_03_B_a.gif","right","","","","",""
"","null","html-keyboard-response","212","439733","0.0-41.0-0.3","SS1613082248268","","","null","","","","","<p><img src= images/blank.png width =""200"" height = ""200"" style = ""float:right""></p><p><img src=images/blank.png width =""800"" height = ""200""></p>","","","","","","","","","","","",""
"","938.7700000079349","sequential-stimulus-presentation","213","441497","0.0-41.0-1.3","SS1613082248268","trial","","40","800","1738.7700000079349","images/stimuli/spore_stims/simple_04_A_d.gif","images/stimuli/spore_stims/simple_03_B_a.gif","","","","","11","simple_dissimilar","images/stimuli/spore_stims/simple_03_B_a.gif","right","","","","",""
"","null","html-keyboard-response","214","442557","0.0-41.0-0.4","SS1613082248268","","","null","","","","","<p><img src= images/blank.png width =""200"" height = ""200"" style = ""float:right""></p><p><img src=images/blank.png width =""800"" height = ""200""></p>","","","","","","","","","","","",""
"","848.4649999882095","sequential-stimulus-presentation","215","444246","0.0-41.0-1.4","SS1613082248268","trial","","40","800","1648.4649999882095","images/stimuli/spore_stims/simple_04_A_d.gif","images/stimuli/spore_stims/simple_03_B_a.gif","","","","","11","simple_dissimilar","images/stimuli/spore_stims/simple_03_B_a.gif","right","","","","",""
"","null","html-keyboard-response","216","445532","0.0-41.0-0.5","SS1613082248268","","","null","","","","","<p><img src= images/blank.png width =""200"" height = ""200"" style = ""float:right""></p><p><img src=images/blank.png width =""800"" height = ""200""></p>","","","","","","","","","","","",""
"","420.5000000074506","sequential-stimulus-presentation","217","446789","0.0-41.0-1.5","SS1613082248268","trial","","40","800","1220.5000000074506","images/stimuli/spore_stims/simple_04_A_d.gif","images/stimuli/spore_stims/simple_03_B_a.gif","","","","","11","simple_dissimilar","images/stimuli/spore_stims/simple_03_B_a.gif","right","","","","",""
"","null","html-keyboard-response","218","447609","0.0-41.0-0.6","SS1613082248268","","","null","","","","","<p><img src= images/blank.png width =""200"" height = ""200"" style = ""float:right""></p><p><img src=images/blank.png width =""800"" height = ""200""></p>","","","","","","","","","","","",""
"","864.9299999815412","sequential-stimulus-presentation","219","449298","0.0-41.0-1.6","SS1613082248268","trial","","40","800","1664.9299999815412","images/stimuli/spore_stims/simple_04_A_d.gif","images/stimuli/spore_stims/simple_03_B_a.gif","","","","","11","simple_dissimilar","images/stimuli/spore_stims/simple_03_B_a.gif","right","","","","",""
"","null","html-keyboard-response","220","450338","0.0-41.0-0.7","SS1613082248268","","","null","","","","","<p><img src= images/blank.png width =""200"" height = ""200"" style = ""float:right""></p><p><img src=images/blank.png width =""800"" height = ""200""></p>","","","","","","","","","","","",""
"","3771.0150000057183","sequential-stimulus-presentation","221","454961","0.0-41.0-1.7","SS1613082248268","trial","","40","800","4571.015000005718","images/stimuli/spore_stims/simple_04_A_d.gif","images/stimuli/spore_stims/simple_03_B_a.gif","","","","","11","simple_dissimilar","images/stimuli/spore_stims/simple_04_A_d.gif","middle","","","","",""
"","2751.609999977518","html-keyboard-response","222","457734","0.0-42.0","SS1613082248268","pref_question","","49","","","","","<video width ='960' height = '540' style='padding-top:8%' autoplay muted><source src='images/stimuli/wall_pref.mp4' type='video/mp4'></video>","1","left","25%","11","","","","","","","",""
"","3902.654999983497","sequential-stimulus-presentation","223","462466","0.0-43.0","SS1613082248268","pref_reveal","","40","800","4702.654999983497","null","null","","","","","11","","","","novel","","","",""
"","null","html-keyboard-response","224","463459","0.0-44.0-0.0","SS1613082248268","","","null","","","","","<p><img src= images/blank.png width =""200"" height = ""200"" style = ""float:right""></p><p><img src=images/blank.png width =""800"" height = ""200""></p>","","","","","","","","","","","",""
"","2106.229999975767","sequential-stimulus-presentation","225","466410","0.0-44.0-1.0","SS1613082248268","trial","","40","800","2906.229999975767","images/stimuli/spore_stims/simple_13_B_a.gif","images/stimuli/spore_stims/simple_13_A_a.gif","","","","","12","simple_similar","images/stimuli/spore_stims/simple_13_A_a.gif","left","","","","",""
"","null","html-keyboard-response","226","467427","0.0-44.0-0.1","SS1613082248268","","","null","","","","","<p><img src= images/blank.png width =""200"" height = ""200"" style = ""float:right""></p><p><img src=images/blank.png width =""800"" height = ""200""></p>","","","","","","","","","","","",""
"","380.3450000123121","sequential-stimulus-presentation","227","468632","0.0-44.0-1.1","SS1613082248268","trial","","40","800","1180.345000012312","images/stimuli/spore_stims/simple_13_B_a.gif","images/stimuli/spore_stims/simple_13_A_a.gif","","","","","12","simple_similar","images/stimuli/spore_stims/simple_13_A_a.gif","left","","","","",""
"","null","html-keyboard-response","228","469787","0.0-44.0-0.2","SS1613082248268","","","null","","","","","<p><img src= images/blank.png width =""200"" height = ""200"" style = ""float:right""></p><p><img src=images/blank.png width =""800"" height = ""200""></p>","","","","","","","","","","","",""
"","456.7049999604933","sequential-stimulus-presentation","229","471069","0.0-44.0-1.2","SS1613082248268","trial","","40","800","1256.7049999604933","images/stimuli/spore_stims/simple_13_B_a.gif","images/stimuli/spore_stims/simple_13_A_a.gif","","","","","12","simple_similar","images/stimuli/spore_stims/simple_13_A_a.gif","left","","","","",""
"","null","html-keyboard-response","230","471932","0.0-44.0-0.3","SS1613082248268","","","null","","","","","<p><img src= images/blank.png width =""200"" height = ""200"" style = ""float:right""></p><p><img src=images/blank.png width =""800"" height = ""200""></p>","","","","","","","","","","","",""
"","1476.3549999915995","sequential-stimulus-presentation","231","474223","0.0-44.0-1.3","SS1613082248268","trial","","40","800","2276.3549999915995","images/stimuli/spore_stims/simple_13_B_a.gif","images/stimuli/spore_stims/simple_13_A_a.gif","","","","","12","simple_similar","images/stimuli/spore_stims/simple_13_B_a.gif","middle","","","","",""
"","null","html-keyboard-response","232","475256","0.0-44.0-0.4","SS1613082248268","","","null","","","","","<p><img src= images/blank.png width =""200"" height = ""200"" style = ""float:right""></p><p><img src=images/blank.png width =""800"" height = ""200""></p>","","","","","","","","","","","",""
"","1785.5199999758042","sequential-stimulus-presentation","233","477880","0.0-44.0-1.4","SS1613082248268","trial","","40","800","2585.5199999758042","images/stimuli/spore_stims/simple_13_B_a.gif","images/stimuli/spore_stims/simple_13_A_a.gif","","","","","12","simple_similar","images/stimuli/spore_stims/simple_13_A_a.gif","left","","","","",""
"","null","html-keyboard-response","234","478930","0.0-44.0-0.5","SS1613082248268","","","null","","","","","<p><img src= images/blank.png width =""200"" height = ""200"" style = ""float:right""></p><p><img src=images/blank.png width =""800"" height = ""200""></p>","","","","","","","","","","","",""
"","611.620000039693","sequential-stimulus-presentation","235","480376","0.0-44.0-1.5","SS1613082248268","trial","","40","800","1411.620000039693","images/stimuli/spore_stims/simple_13_B_a.gif","images/stimuli/spore_stims/simple_13_A_a.gif","","","","","12","simple_similar","images/stimuli/spore_stims/simple_13_A_a.gif","left","","","","",""
"","null","html-keyboard-response","236","481505","0.0-44.0-0.6","SS1613082248268","","","null","","","","","<p><img src= images/blank.png width =""200"" height = ""200"" style = ""float:right""></p><p><img src=images/blank.png width =""800"" height = ""200""></p>","","","","","","","","","","","",""
"","1079.3350000167266","sequential-stimulus-presentation","237","483425","0.0-44.0-1.6","SS1613082248268","trial","","40","800","1879.3350000167266","images/stimuli/spore_stims/simple_13_B_a.gif","images/stimuli/spore_stims/simple_13_A_a.gif","","","","","12","simple_similar","images/stimuli/spore_stims/simple_13_A_a.gif","left","","","","",""
"","null","html-keyboard-response","238","484537","0.0-44.0-0.7","SS1613082248268","","","null","","","","","<p><img src= images/blank.png width =""200"" height = ""200"" style = ""float:right""></p><p><img src=images/blank.png width =""800"" height = ""200""></p>","","","","","","","","","","","",""
"","653.6949999863282","sequential-stimulus-presentation","239","486026","0.0-44.0-1.7","SS1613082248268","trial","","40","800","1453.6949999863282","images/stimuli/spore_stims/simple_13_B_a.gif","images/stimuli/spore_stims/simple_13_A_a.gif","","","","","12","simple_similar","images/stimuli/spore_stims/simple_13_A_a.gif","left","","","","",""
"","2018.0950000067241","html-keyboard-response","240","488063","0.0-45.0","SS1613082248268","pref_question","","51","","","","","<video width ='960' height = '540' style='padding-top:8%' autoplay muted><source src='images/stimuli/wall_pref.mp4' type='video/mp4'></video>","3","right","66%","12","","","","","","","",""
"","3894.5350000285544","sequential-stimulus-presentation","241","492781","0.0-46.0","SS1613082248268","pref_reveal","","40","800","4694.535000028554","null","null","","","","","12","","","","novel","","","",""
"","null","html-keyboard-response","242","494081","0.0-47.0-0.0","SS1613082248268","","","null","","","","","<p><img src= images/blank.png width =""200"" height = ""200"" style = ""float:right""></p><p><img src=images/blank.png width =""800"" height = ""200""></p>","","","","","","","","","","","",""
"","3664.145000046119","sequential-stimulus-presentation","243","498572","0.0-47.0-1.0","SS1613082248268","trial","","40","800","4464.145000046119","images/stimuli/spore_stims/complex_14_A_c.gif","images/stimuli/spore_stims/complex_14_B_c.gif","","","","","13","complex_similar","images/stimuli/spore_stims/complex_14_B_c.gif","right","","","","",""
"","null","html-keyboard-response","244","499770","0.0-47.0-0.1","SS1613082248268","","","null","","","","","<p><img src= images/blank.png width =""200"" height = ""200"" style = ""float:right""></p><p><img src=images/blank.png width =""800"" height = ""200""></p>","","","","","","","","","","","",""
"","469.11000000545755","sequential-stimulus-presentation","245","501064","0.0-47.0-1.1","SS1613082248268","trial","","40","800","1269.1100000054576","images/stimuli/spore_stims/complex_14_A_c.gif","images/stimuli/spore_stims/complex_14_B_c.gif","","","","","13","complex_similar","images/stimuli/spore_stims/complex_14_B_c.gif","right","","","","",""
"","null","html-keyboard-response","246","502003","0.0-47.0-0.2","SS1613082248268","","","null","","","","","<p><img src= images/blank.png width =""200"" height = ""200"" style = ""float:right""></p><p><img src=images/blank.png width =""800"" height = ""200""></p>","","","","","","","","","","","",""
"","467.0950000290759","sequential-stimulus-presentation","247","503287","0.0-47.0-1.2","SS1613082248268","trial","","40","800","1267.095000029076","images/stimuli/spore_stims/complex_14_A_c.gif","images/stimuli/spore_stims/complex_14_B_c.gif","","","","","13","complex_similar","images/stimuli/spore_stims/complex_14_B_c.gif","right","","","","",""
"","null","html-keyboard-response","248","504584","0.0-47.0-0.3","SS1613082248268","","","null","","","","","<p><img src= images/blank.png width =""200"" height = ""200"" style = ""float:right""></p><p><img src=images/blank.png width =""800"" height = ""200""></p>","","","","","","","","","","","",""
"","424.80500001693144","sequential-stimulus-presentation","249","505861","0.0-47.0-1.3","SS1613082248268","trial","","40","800","1224.8050000169314","images/stimuli/spore_stims/complex_14_A_c.gif","images/stimuli/spore_stims/complex_14_B_c.gif","","","","","13","complex_similar","images/stimuli/spore_stims/complex_14_B_c.gif","right","","","","",""
"","null","html-keyboard-response","250","507143","0.0-47.0-0.4","SS1613082248268","","","null","","","","","<p><img src= images/blank.png width =""200"" height = ""200"" style = ""float:right""></p><p><img src=images/blank.png width =""800"" height = ""200""></p>","","","","","","","","","","","",""
"","569.7749999817461","sequential-stimulus-presentation","251","508554","0.0-47.0-1.4","SS1613082248268","trial","","40","800","1369.774999981746","images/stimuli/spore_stims/complex_14_A_c.gif","images/stimuli/spore_stims/complex_14_B_c.gif","","","","","13","complex_similar","images/stimuli/spore_stims/complex_14_B_c.gif","right","","","","",""
"","null","html-keyboard-response","252","509823","0.0-47.0-0.5","SS1613082248268","","","null","","","","","<p><img src= images/blank.png width =""200"" height = ""200"" style = ""float:right""></p><p><img src=images/blank.png width =""800"" height = ""200""></p>","","","","","","","","","","","",""
"","1837.2749999980442","sequential-stimulus-presentation","253","512504","0.0-47.0-1.5","SS1613082248268","trial","","40","800","2637.274999998044","images/stimuli/spore_stims/complex_14_A_c.gif","images/stimuli/spore_stims/complex_14_B_c.gif","","","","","13","complex_similar","images/stimuli/spore_stims/complex_14_A_c.gif","middle","","","","",""
"","null","html-keyboard-response","254","513826","0.0-47.0-0.6","SS1613082248268","","","null","","","","","<p><img src= images/blank.png width =""200"" height = ""200"" style = ""float:right""></p><p><img src=images/blank.png width =""800"" height = ""200""></p>","","","","","","","","","","","",""
"","767.4949999782257","sequential-stimulus-presentation","255","515423","0.0-47.0-1.6","SS1613082248268","trial","","40","800","1567.4949999782257","images/stimuli/spore_stims/complex_14_A_c.gif","images/stimuli/spore_stims/complex_14_B_c.gif","","","","","13","complex_similar","images/stimuli/spore_stims/complex_14_B_c.gif","right","","","","",""
"","null","html-keyboard-response","256","516284","0.0-47.0-0.7","SS1613082248268","","","null","","","","","<p><img src= images/blank.png width =""200"" height = ""200"" style = ""float:right""></p><p><img src=images/blank.png width =""800"" height = ""200""></p>","","","","","","","","","","","",""
"","640.0999999605119","sequential-stimulus-presentation","257","517756","0.0-47.0-1.7","SS1613082248268","trial","","40","800","1440.099999960512","images/stimuli/spore_stims/complex_14_A_c.gif","images/stimuli/spore_stims/complex_14_B_c.gif","","","","","13","complex_similar","images/stimuli/spore_stims/complex_14_B_c.gif","right","","","","",""
"","2200.524999992922","html-keyboard-response","258","520016","0.0-48.0","SS1613082248268","pref_question","","49","","","","","<video width ='960' height = '540' style='padding-top:8%' autoplay muted><source src='images/stimuli/wall_pref.mp4' type='video/mp4'></video>","1","left","25%","13","","","","","","","",""
"","3353.31999999471","sequential-stimulus-presentation","259","524216","0.0-49.0","SS1613082248268","pref_reveal","","40","800","4153.31999999471","null","null","","","","","13","","","","novel","","","",""
"","null","html-keyboard-response","260","525504","0.0-50.0-0.0","SS1613082248268","","","null","","","","","<p><img src= images/blank.png width =""200"" height = ""200"" style = ""float:right""></p><p><img src=images/blank.png width =""800"" height = ""200""></p>","","","","","","","","","","","",""
"","1172.5600000354461","sequential-stimulus-presentation","261","527514","0.0-50.0-1.0","SS1613082248268","trial","","40","800","1972.5600000354461","images/stimuli/spore_stims/complex_07_A_d.gif","images/stimuli/spore_stims/complex_18_A_c.gif","","","","","14","complex_dissimilar","images/stimuli/spore_stims/complex_18_A_c.gif","middle","","","","",""
"","null","html-keyboard-response","262","528789","0.0-50.0-0.1","SS1613082248268","","","null","","","","","<p><img src= images/blank.png width =""200"" height = ""200"" style = ""float:right""></p><p><img src=images/blank.png width =""800"" height = ""200""></p>","","","","","","","","","","","",""
"","849.8600000166334","sequential-stimulus-presentation","263","530481","0.0-50.0-1.1","SS1613082248268","trial","","40","800","1649.8600000166334","images/stimuli/spore_stims/complex_07_A_d.gif","images/stimuli/spore_stims/complex_18_A_c.gif","","","","","14","complex_dissimilar","images/stimuli/spore_stims/complex_18_A_c.gif","middle","","","","",""
"","null","html-keyboard-response","264","531729","0.0-50.0-0.2","SS1613082248268","","","null","","","","","<p><img src= images/blank.png width =""200"" height = ""200"" style = ""float:right""></p><p><img src=images/blank.png width =""800"" height = ""200""></p>","","","","","","","","","","","",""
"","484.6200000029057","sequential-stimulus-presentation","265","533045","0.0-50.0-1.2","SS1613082248268","trial","","40","800","1284.6200000029057","images/stimuli/spore_stims/complex_07_A_d.gif","images/stimuli/spore_stims/complex_18_A_c.gif","","","","","14","complex_dissimilar","images/stimuli/spore_stims/complex_18_A_c.gif","middle","","","","",""
"","null","html-keyboard-response","266","534211","0.0-50.0-0.3","SS1613082248268","","","null","","","","","<p><img src= images/blank.png width =""200"" height = ""200"" style = ""float:right""></p><p><img src=images/blank.png width =""800"" height = ""200""></p>","","","","","","","","","","","",""
"","702.5600000051782","sequential-stimulus-presentation","267","535767","0.0-50.0-1.3","SS1613082248268","trial","","40","800","1502.5600000051782","images/stimuli/spore_stims/complex_07_A_d.gif","images/stimuli/spore_stims/complex_18_A_c.gif","","","","","14","complex_dissimilar","images/stimuli/spore_stims/complex_18_A_c.gif","middle","","","","",""
"","null","html-keyboard-response","268","536681","0.0-50.0-0.4","SS1613082248268","","","null","","","","","<p><img src= images/blank.png width =""200"" height = ""200"" style = ""float:right""></p><p><img src=images/blank.png width =""800"" height = ""200""></p>","","","","","","","","","","","",""
"","2875.6699999794364","sequential-stimulus-presentation","269","540448","0.0-50.0-1.4","SS1613082248268","trial","","40","800","3675.6699999794364","images/stimuli/spore_stims/complex_07_A_d.gif","images/stimuli/spore_stims/complex_18_A_c.gif","","","","","14","complex_dissimilar","images/stimuli/spore_stims/complex_07_A_d.gif","right","","","","",""
"","null","html-keyboard-response","270","541576","0.0-50.0-0.5","SS1613082248268","","","null","","","","","<p><img src= images/blank.png width =""200"" height = ""200"" style = ""float:right""></p><p><img src=images/blank.png width =""800"" height = ""200""></p>","","","","","","","","","","","",""
"","1043.3850000263192","sequential-stimulus-presentation","271","543440","0.0-50.0-1.5","SS1613082248268","trial","","40","800","1843.3850000263192","images/stimuli/spore_stims/complex_07_A_d.gif","images/stimuli/spore_stims/complex_18_A_c.gif","","","","","14","complex_dissimilar","images/stimuli/spore_stims/complex_18_A_c.gif","middle","","","","",""
"","null","html-keyboard-response","272","544760","0.0-50.0-0.6","SS1613082248268","","","null","","","","","<p><img src= images/blank.png width =""200"" height = ""200"" style = ""float:right""></p><p><img src=images/blank.png width =""800"" height = ""200""></p>","","","","","","","","","","","",""
"","1084.0099999913946","sequential-stimulus-presentation","273","546678","0.0-50.0-1.6","SS1613082248268","trial","","40","800","1884.0099999913946","images/stimuli/spore_stims/complex_07_A_d.gif","images/stimuli/spore_stims/complex_18_A_c.gif","","","","","14","complex_dissimilar","images/stimuli/spore_stims/complex_18_A_c.gif","middle","","","","",""
"","null","html-keyboard-response","274","547610","0.0-50.0-0.7","SS1613082248268","","","null","","","","","<p><img src= images/blank.png width =""200"" height = ""200"" style = ""float:right""></p><p><img src=images/blank.png width =""800"" height = ""200""></p>","","","","","","","","","","","",""
"","412.62999997707084","sequential-stimulus-presentation","275","548850","0.0-50.0-1.7","SS1613082248268","trial","","40","800","1212.6299999770708","images/stimuli/spore_stims/complex_07_A_d.gif","images/stimuli/spore_stims/complex_18_A_c.gif","","","","","14","complex_dissimilar","images/stimuli/spore_stims/complex_18_A_c.gif","middle","","","","",""
"","1745.4150000121444","html-keyboard-response","276","550618","0.0-51.0","SS1613082248268","pref_question","","49","","","","","<video width ='960' height = '540' style='padding-top:8%' autoplay muted><source src='images/stimuli/wall_pref.mp4' type='video/mp4'></video>","1","left","25%","14","","","","","","","",""
"","1768.6550000216812","sequential-stimulus-presentation","277","553277","0.0-52.0","SS1613082248268","pref_reveal","","40","800","2568.655000021681","null","null","","","","","14","","","","novel","","","",""
"","null","html-keyboard-response","278","554174","0.0-53.0-0.0","SS1613082248268","","","null","","","","","<p><img src= images/blank.png width =""200"" height = ""200"" style = ""float:right""></p><p><img src=images/blank.png width =""800"" height = ""200""></p>","","","","","","","","","","","",""
"","2635.9149999916553","sequential-stimulus-presentation","279","557643","0.0-53.0-1.0","SS1613082248268","trial","","40","800","3435.9149999916553","images/stimuli/spore_stims/simple_12_B_a.gif","images/stimuli/spore_stims/simple_12_A_a.gif","","","","","15","simple_similar","images/stimuli/spore_stims/simple_12_A_a.gif","left","","","","",""
"","null","html-keyboard-response","280","558509","0.0-53.0-0.1","SS1613082248268","","","null","","","","","<p><img src= images/blank.png width =""200"" height = ""200"" style = ""float:right""></p><p><img src=images/blank.png width =""800"" height = ""200""></p>","","","","","","","","","","","",""
"","746.4349999791011","sequential-stimulus-presentation","281","560073","0.0-53.0-1.1","SS1613082248268","trial","","40","800","1546.4349999791011","images/stimuli/spore_stims/simple_12_B_a.gif","images/stimuli/spore_stims/simple_12_A_a.gif","","","","","15","simple_similar","images/stimuli/spore_stims/simple_12_A_a.gif","left","","","","",""
"","null","html-keyboard-response","282","561329","0.0-53.0-0.2","SS1613082248268","","","null","","","","","<p><img src= images/blank.png width =""200"" height = ""200"" style = ""float:right""></p><p><img src=images/blank.png width =""800"" height = ""200""></p>","","","","","","","","","","","",""
"","413.60500000882894","sequential-stimulus-presentation","283","562588","0.0-53.0-1.2","SS1613082248268","trial","","40","800","1213.605000008829","images/stimuli/spore_stims/simple_12_B_a.gif","images/stimuli/spore_stims/simple_12_A_a.gif","","","","","15","simple_similar","images/stimuli/spore_stims/simple_12_A_a.gif","left","","","","",""
"","null","html-keyboard-response","284","563792","0.0-53.0-0.3","SS1613082248268","","","null","","","","","<p><img src= images/blank.png width =""200"" height = ""200"" style = ""float:right""></p><p><img src=images/blank.png width =""800"" height = ""200""></p>","","","","","","","","","","","",""
"","395.13000001898035","sequential-stimulus-presentation","285","565012","0.0-53.0-1.3","SS1613082248268","trial","","40","800","1195.1300000189804","images/stimuli/spore_stims/simple_12_B_a.gif","images/stimuli/spore_stims/simple_12_A_a.gif","","","","","15","simple_similar","images/stimuli/spore_stims/simple_12_A_a.gif","left","","","","",""
"","null","html-keyboard-response","286","566041","0.0-53.0-0.4","SS1613082248268","","","null","","","","","<p><img src= images/blank.png width =""200"" height = ""200"" style = ""float:right""></p><p><img src=images/blank.png width =""800"" height = ""200""></p>","","","","","","","","","","","",""
"","440.1300000026822","sequential-stimulus-presentation","287","567309","0.0-53.0-1.4","SS1613082248268","trial","","40","800","1240.1300000026822","images/stimuli/spore_stims/simple_12_B_a.gif","images/stimuli/spore_stims/simple_12_A_a.gif","","","","","15","simple_similar","images/stimuli/spore_stims/simple_12_A_a.gif","left","","","","",""
"","null","html-keyboard-response","288","568255","0.0-53.0-0.5","SS1613082248268","","","null","","","","","<p><img src= images/blank.png width =""200"" height = ""200"" style = ""float:right""></p><p><img src=images/blank.png width =""800"" height = ""200""></p>","","","","","","","","","","","",""
"","2695.080000034068","sequential-stimulus-presentation","289","571783","0.0-53.0-1.5","SS1613082248268","trial","","40","800","3495.080000034068","images/stimuli/spore_stims/simple_12_B_a.gif","images/stimuli/spore_stims/simple_12_A_a.gif","","","","","15","simple_similar","images/stimuli/spore_stims/simple_12_B_a.gif","right","","","","",""
"","null","html-keyboard-response","290","573021","0.0-53.0-0.6","SS1613082248268","","","null","","","","","<p><img src= images/blank.png width =""200"" height = ""200"" style = ""float:right""></p><p><img src=images/blank.png width =""800"" height = ""200""></p>","","","","","","","","","","","",""
"","614.0299999970011","sequential-stimulus-presentation","291","574476","0.0-53.0-1.6","SS1613082248268","trial","","40","800","1414.0299999970011","images/stimuli/spore_stims/simple_12_B_a.gif","images/stimuli/spore_stims/simple_12_A_a.gif","","","","","15","simple_similar","images/stimuli/spore_stims/simple_12_A_a.gif","left","","","","",""
"","null","html-keyboard-response","292","575646","0.0-53.0-0.7","SS1613082248268","","","null","","","","","<p><img src= images/blank.png width =""200"" height = ""200"" style = ""float:right""></p><p><img src=images/blank.png width =""800"" height = ""200""></p>","","","","","","","","","","","",""
"","632.3749999864958","sequential-stimulus-presentation","293","577119","0.0-53.0-1.7","SS1613082248268","trial","","40","800","1432.3749999864958","images/stimuli/spore_stims/simple_12_B_a.gif","images/stimuli/spore_stims/simple_12_A_a.gif","","","","","15","simple_similar","images/stimuli/spore_stims/simple_12_A_a.gif","left","","","","",""
"","2356.8300000042655","html-keyboard-response","294","579497","0.0-54.0","SS1613082248268","pref_question","","50","","","","","<video width ='960' height = '540' style='padding-top:8%' autoplay muted><source src='images/stimuli/wall_pref.mp4' type='video/mp4'></video>","2","middle","45%","15","","","","","","","",""
"","3404.2600000393577","sequential-stimulus-presentation","295","583750","0.0-55.0","SS1613082248268","pref_reveal","","40","800","4204.260000039358","null","null","","","","","15","","","","novel","","","",""
"","null","html-keyboard-response","296","585087","0.0-56.0-0.0","SS1613082248268","","","null","","","","","<p><img src= images/blank.png width =""200"" height = ""200"" style = ""float:right""></p><p><img src=images/blank.png width =""800"" height = ""200""></p>","","","","","","","","","","","",""
"","2591.5399999939837","sequential-stimulus-presentation","297","588503","0.0-56.0-1.0","SS1613082248268","trial","","40","800","3391.5399999939837","images/stimuli/spore_stims/complex_09_A_b.gif","images/stimuli/spore_stims/complex_09_B_b.gif","","","","","16","complex_similar","images/stimuli/spore_stims/complex_09_B_b.gif","left","","","","",""
"","null","html-keyboard-response","298","589586","0.0-56.0-0.1","SS1613082248268","","","null","","","","","<p><img src= images/blank.png width =""200"" height = ""200"" style = ""float:right""></p><p><img src=images/blank.png width =""800"" height = ""200""></p>","","","","","","","","","","","",""
"","576.4349999953993","sequential-stimulus-presentation","299","591021","0.0-56.0-1.1","SS1613082248268","trial","","40","800","1376.4349999953993","images/stimuli/spore_stims/complex_09_A_b.gif","images/stimuli/spore_stims/complex_09_B_b.gif","","","","","16","complex_similar","images/stimuli/spore_stims/complex_09_B_b.gif","left","","","","",""
"","null","html-keyboard-response","300","592082","0.0-56.0-0.2","SS1613082248268","","","null","","","","","<p><img src= images/blank.png width =""200"" height = ""200"" style = ""float:right""></p><p><img src=images/blank.png width =""800"" height = ""200""></p>","","","","","","","","","","","",""
"","457.460000005085","sequential-stimulus-presentation","301","593380","0.0-56.0-1.2","SS1613082248268","trial","","40","800","1257.460000005085","images/stimuli/spore_stims/complex_09_A_b.gif","images/stimuli/spore_stims/complex_09_B_b.gif","","","","","16","complex_similar","images/stimuli/spore_stims/complex_09_B_b.gif","left","","","","",""
"","null","html-keyboard-response","302","594430","0.0-56.0-0.3","SS1613082248268","","","null","","","","","<p><img src= images/blank.png width =""200"" height = ""200"" style = ""float:right""></p><p><img src=images/blank.png width =""800"" height = ""200""></p>","","","","","","","","","","","",""
"","2234.249999979511","sequential-stimulus-presentation","303","597511","0.0-56.0-1.3","SS1613082248268","trial","","40","800","3034.249999979511","images/stimuli/spore_stims/complex_09_A_b.gif","images/stimuli/spore_stims/complex_09_B_b.gif","","","","","16","complex_similar","images/stimuli/spore_stims/complex_09_A_b.gif","right","","","","",""
"","null","html-keyboard-response","304","598763","0.0-56.0-0.4","SS1613082248268","","","null","","","","","<p><img src= images/blank.png width =""200"" height = ""200"" style = ""float:right""></p><p><img src=images/blank.png width =""800"" height = ""200""></p>","","","","","","","","","","","",""
"","1182.0600000210106","sequential-stimulus-presentation","305","600770","0.0-56.0-1.4","SS1613082248268","trial","","40","800","1982.0600000210106","images/stimuli/spore_stims/complex_09_A_b.gif","images/stimuli/spore_stims/complex_09_B_b.gif","","","","","16","complex_similar","images/stimuli/spore_stims/complex_09_B_b.gif","left","","","","",""
"","null","html-keyboard-response","306","601770","0.0-56.0-0.5","SS1613082248268","","","null","","","","","<p><img src= images/blank.png width =""200"" height = ""200"" style = ""float:right""></p><p><img src=images/blank.png width =""800"" height = ""200""></p>","","","","","","","","","","","",""
"","547.420000017155","sequential-stimulus-presentation","307","603166","0.0-56.0-1.5","SS1613082248268","trial","","40","800","1347.420000017155","images/stimuli/spore_stims/complex_09_A_b.gif","images/stimuli/spore_stims/complex_09_B_b.gif","","","","","16","complex_similar","images/stimuli/spore_stims/complex_09_B_b.gif","left","","","","",""
"","null","html-keyboard-response","308","604310","0.0-56.0-0.6","SS1613082248268","","","null","","","","","<p><img src= images/blank.png width =""200"" height = ""200"" style = ""float:right""></p><p><img src=images/blank.png width =""800"" height = ""200""></p>","","","","","","","","","","","",""
"","458.8600000133738","sequential-stimulus-presentation","309","605632","0.0-56.0-1.6","SS1613082248268","trial","","40","800","1258.8600000133738","images/stimuli/spore_stims/complex_09_A_b.gif","images/stimuli/spore_stims/complex_09_B_b.gif","","","","","16","complex_similar","images/stimuli/spore_stims/complex_09_B_b.gif","left","","","","",""
"","null","html-keyboard-response","310","606537","0.0-56.0-0.7","SS1613082248268","","","null","","","","","<p><img src= images/blank.png width =""200"" height = ""200"" style = ""float:right""></p><p><img src=images/blank.png width =""800"" height = ""200""></p>","","","","","","","","","","","",""
"","556.1949999537319","sequential-stimulus-presentation","311","607920","0.0-56.0-1.7","SS1613082248268","trial","","40","800","1356.194999953732","images/stimuli/spore_stims/complex_09_A_b.gif","images/stimuli/spore_stims/complex_09_B_b.gif","","","","","16","complex_similar","images/stimuli/spore_stims/complex_09_B_b.gif","left","","","","",""
"","2400.4450000356883","html-keyboard-response","312","610359","0.0-57.0","SS1613082248268","pref_question","","50","","","","","<video width ='960' height = '540' style='padding-top:8%' autoplay muted><source src='images/stimuli/wall_pref.mp4' type='video/mp4'></video>","2","middle","45%","16","","","","","","","",""
