"view_history","rt","trial_type","trial_index","time_elapsed","internal_node_id","subject","stimulus_type","trial_stimulus","key_press","minimum_viewing_duration","trial_looking_time","block_deviant","block_background","stimulus","wall_pref","location","location_percent","block_number","block_type","stimulus_displayed","position_displayed","stim_type_selected","responses","question_order","stimulus_left","stimulus_right"
"[{""page_index"":0,""viewing_time"":36269.43999994546}]","36271.354999858886","instructions","0","36263","0.0-0.0","SS1613168368790","","","","","","","","","","","","","","","","","","","",""
"[{""page_index"":0,""viewing_time"":1919.5600003004074},{""page_index"":1,""viewing_time"":24565.854999702424}]","26485.89500039816","instructions","1","64763","0.0-1.0","SS1613168368790","instructions","","","","","","","","","","","","","","","","","","",""
"","2718.47500000149","sequential-stimulus-presentation","2","68324","0.0-2.0","SS1613168368790","","","40","800","3518.47500000149","null","null","","","","","","","","","","","","",""
"","6405.179999768734","sequential-stimulus-presentation","3","75564","0.0-3.0","SS1613168368790","","","40","800","7205.179999768734","null","null","","","","","","","","","","","","",""
"[{""page_index"":0,""viewing_time"":2833.959999959916}]","2834.4400003552437","instructions","4","78403","0.0-4.0","SS1613168368790","instructions","","","","","","","","","","","","","","","","","","",""
"","3166.2499997764826","html-keyboard-response","5","81578","0.0-5.0","SS1613168368790","instructions","","50","","","","","<video width ='960' height = '540' autoplay muted><source src='images/stimuli/wall_pref.mp4' type='video/mp4'></video>","2","middle","45%","","","","","","","","",""
"","7733.330000191927","sequential-stimulus-presentation","6","90130","0.0-6.0","SS1613168368790","pref_reveal","","40","800","8533.330000191927","null","null","","","","","","","","","","","","",""
"[{""page_index"":0,""viewing_time"":3230.559999588877},{""page_index"":1,""viewing_time"":1118.5800000093877},{""page_index"":2,""viewing_time"":1482.3400001041591},{""page_index"":3,""viewing_time"":1470.149999950081}]","7302.524999715388","instructions","7","97452","0.0-7.0","SS1613168368790","instructions","","","","","","","","","","","","","","","","","","",""
"","null","html-keyboard-response","8","98439","0.0-8.0-0.0","SS1613168368790","","","null","","","","","<p><img src= images/blank.png width =""200"" height = ""200"" style = ""float:right""></p><p><img src=images/blank.png width =""800"" height = ""200""></p>","","","","","","","","","","","",""
"","1852.4949997663498","sequential-stimulus-presentation","9","101113","0.0-8.0-1.0","SS1613168368790","trial","","40","800","2652.49499976635","images/stimuli/spore_stims/simple_16_B_b.gif","images/stimuli/spore_stims/simple_01_A_c.gif","","","","","0","simple_dissimilar","images/stimuli/spore_stims/simple_01_A_c.gif","right","","","","",""
"","null","html-keyboard-response","10","102170","0.0-8.0-0.1","SS1613168368790","","","null","","","","","<p><img src= images/blank.png width =""200"" height = ""200"" style = ""float:right""></p><p><img src=images/blank.png width =""800"" height = ""200""></p>","","","","","","","","","","","",""
"","1045.444999821484","sequential-stimulus-presentation","11","104031","0.0-8.0-1.1","SS1613168368790","trial","","40","800","1845.444999821484","images/stimuli/spore_stims/simple_16_B_b.gif","images/stimuli/spore_stims/simple_01_A_c.gif","","","","","0","simple_dissimilar","images/stimuli/spore_stims/simple_01_A_c.gif","right","","","","",""
"","null","html-keyboard-response","12","104940","0.0-8.0-0.2","SS1613168368790","","","null","","","","","<p><img src= images/blank.png width =""200"" height = ""200"" style = ""float:right""></p><p><img src=images/blank.png width =""800"" height = ""200""></p>","","","","","","","","","","","",""
"","752.5900001637638","sequential-stimulus-presentation","13","106508","0.0-8.0-1.2","SS1613168368790","trial","","40","800","1552.5900001637638","images/stimuli/spore_stims/simple_16_B_b.gif","images/stimuli/spore_stims/simple_01_A_c.gif","","","","","0","simple_dissimilar","images/stimuli/spore_stims/simple_01_A_c.gif","right","","","","",""
"","null","html-keyboard-response","14","107778","0.0-8.0-0.3","SS1613168368790","","","null","","","","","<p><img src= images/blank.png width =""200"" height = ""200"" style = ""float:right""></p><p><img src=images/blank.png width =""800"" height = ""200""></p>","","","","","","","","","","","",""
"","140.53500024601817","sequential-stimulus-presentation","15","108731","0.0-8.0-1.3","SS1613168368790","trial","","40","800","940.5350002460182","images/stimuli/spore_stims/simple_16_B_b.gif","images/stimuli/spore_stims/simple_01_A_c.gif","","","","","0","simple_dissimilar","images/stimuli/spore_stims/simple_16_B_b.gif","left","","","","",""
"","null","html-keyboard-response","16","109842","0.0-8.0-0.4","SS1613168368790","","","null","","","","","<p><img src= images/blank.png width =""200"" height = ""200"" style = ""float:right""></p><p><img src=images/blank.png width =""800"" height = ""200""></p>","","","","","","","","","","","",""
"","65.32000005245209","sequential-stimulus-presentation","17","110717","0.0-8.0-1.4","SS1613168368790","trial","","40","800","865.3200000524521","images/stimuli/spore_stims/simple_16_B_b.gif","images/stimuli/spore_stims/simple_01_A_c.gif","","","","","0","simple_dissimilar","images/stimuli/spore_stims/simple_01_A_c.gif","right","","","","",""
"","null","html-keyboard-response","18","111850","0.0-8.0-0.5","SS1613168368790","","","null","","","","","<p><img src= images/blank.png width =""200"" height = ""200"" style = ""float:right""></p><p><img src=images/blank.png width =""800"" height = ""200""></p>","","","","","","","","","","","",""
"","1312.6250002533197","sequential-stimulus-presentation","19","114027","0.0-8.0-1.5","SS1613168368790","trial","","40","800","2112.6250002533197","images/stimuli/spore_stims/simple_16_B_b.gif","images/stimuli/spore_stims/simple_01_A_c.gif","","","","","0","simple_dissimilar","images/stimuli/spore_stims/simple_01_A_c.gif","right","","","","",""
"","null","html-keyboard-response","20","115182","0.0-8.0-0.6","SS1613168368790","","","null","","","","","<p><img src= images/blank.png width =""200"" height = ""200"" style = ""float:right""></p><p><img src=images/blank.png width =""800"" height = ""200""></p>","","","","","","","","","","","",""
"","240.61999982222915","sequential-stimulus-presentation","21","116252","0.0-8.0-1.6","SS1613168368790","trial","","40","800","1040.6199998222291","images/stimuli/spore_stims/simple_16_B_b.gif","images/stimuli/spore_stims/simple_01_A_c.gif","","","","","0","simple_dissimilar","images/stimuli/spore_stims/simple_01_A_c.gif","right","","","","",""
"","null","html-keyboard-response","22","117484","0.0-8.0-0.7","SS1613168368790","","","null","","","","","<p><img src= images/blank.png width =""200"" height = ""200"" style = ""float:right""></p><p><img src=images/blank.png width =""800"" height = ""200""></p>","","","","","","","","","","","",""
"","235.17500003799796","sequential-stimulus-presentation","23","118539","0.0-8.0-1.7","SS1613168368790","trial","","40","800","1035.175000037998","images/stimuli/spore_stims/simple_16_B_b.gif","images/stimuli/spore_stims/simple_01_A_c.gif","","","","","0","simple_dissimilar","images/stimuli/spore_stims/simple_01_A_c.gif","right","","","","",""
"","1719.4900000467896","html-keyboard-response","24","120266","0.0-9.0","SS1613168368790","pref_question","","50","","","","","<video width ='960' height = '540' style='padding-top:8%' autoplay muted><source src='images/stimuli/wall_pref.mp4' type='video/mp4'></video>","2","middle","45%","0","","","","","","","",""
"","1902.71499985829","sequential-stimulus-presentation","25","122999","0.0-10.0","SS1613168368790","pref_reveal","","40","800","2702.71499985829","null","null","","","","","0","","","","novel","","","",""
"","null","html-keyboard-response","26","123932","0.0-11.0-0.0","SS1613168368790","","","null","","","","","<p><img src= images/blank.png width =""200"" height = ""200"" style = ""float:right""></p><p><img src=images/blank.png width =""800"" height = ""200""></p>","","","","","","","","","","","",""
"","95.9299998357892","sequential-stimulus-presentation","27","124848","0.0-11.0-1.0","SS1613168368790","trial","","40","800","895.9299998357892","images/stimuli/spore_stims/complex_03_A_a.gif","images/stimuli/spore_stims/complex_08_A_c.gif","","","","","1","complex_dissimilar","images/stimuli/spore_stims/complex_08_A_c.gif","right","","","","",""
"","null","html-keyboard-response","28","125859","0.0-11.0-0.1","SS1613168368790","","","null","","","","","<p><img src= images/blank.png width =""200"" height = ""200"" style = ""float:right""></p><p><img src=images/blank.png width =""800"" height = ""200""></p>","","","","","","","","","","","",""
"","120.01499999314547","sequential-stimulus-presentation","29","126799","0.0-11.0-1.1","SS1613168368790","trial","","40","800","920.0149999931455","images/stimuli/spore_stims/complex_03_A_a.gif","images/stimuli/spore_stims/complex_08_A_c.gif","","","","","1","complex_dissimilar","images/stimuli/spore_stims/complex_08_A_c.gif","right","","","","",""
"","null","html-keyboard-response","30","127937","0.0-11.0-0.2","SS1613168368790","","","null","","","","","<p><img src= images/blank.png width =""200"" height = ""200"" style = ""float:right""></p><p><img src=images/blank.png width =""800"" height = ""200""></p>","","","","","","","","","","","",""
"","315.6650001183152","sequential-stimulus-presentation","31","129068","0.0-11.0-1.2","SS1613168368790","trial","","40","800","1115.6650001183152","images/stimuli/spore_stims/complex_03_A_a.gif","images/stimuli/spore_stims/complex_08_A_c.gif","","","","","1","complex_dissimilar","images/stimuli/spore_stims/complex_03_A_a.gif","left","","","","",""
"","null","html-keyboard-response","32","129951","0.0-11.0-0.3","SS1613168368790","","","null","","","","","<p><img src= images/blank.png width =""200"" height = ""200"" style = ""float:right""></p><p><img src=images/blank.png width =""800"" height = ""200""></p>","","","","","","","","","","","",""
"","193.8200001604855","sequential-stimulus-presentation","33","130964","0.0-11.0-1.3","SS1613168368790","trial","","40","800","993.8200001604855","images/stimuli/spore_stims/complex_03_A_a.gif","images/stimuli/spore_stims/complex_08_A_c.gif","","","","","1","complex_dissimilar","images/stimuli/spore_stims/complex_08_A_c.gif","right","","","","",""
"","null","html-keyboard-response","34","132194","0.0-11.0-0.4","SS1613168368790","","","null","","","","","<p><img src= images/blank.png width =""200"" height = ""200"" style = ""float:right""></p><p><img src=images/blank.png width =""800"" height = ""200""></p>","","","","","","","","","","","",""
"","118.89499984681606","sequential-stimulus-presentation","35","133122","0.0-11.0-1.4","SS1613168368790","trial","","40","800","918.8949998468161","images/stimuli/spore_stims/complex_03_A_a.gif","images/stimuli/spore_stims/complex_08_A_c.gif","","","","","1","complex_dissimilar","images/stimuli/spore_stims/complex_08_A_c.gif","right","","","","",""
"","null","html-keyboard-response","36","134174","0.0-11.0-0.5","SS1613168368790","","","null","","","","","<p><img src= images/blank.png width =""200"" height = ""200"" style = ""float:right""></p><p><img src=images/blank.png width =""800"" height = ""200""></p>","","","","","","","","","","","",""
"","285.86999978870153","sequential-stimulus-presentation","37","135296","0.0-11.0-1.5","SS1613168368790","trial","","40","800","1085.8699997887015","images/stimuli/spore_stims/complex_03_A_a.gif","images/stimuli/spore_stims/complex_08_A_c.gif","","","","","1","complex_dissimilar","images/stimuli/spore_stims/complex_08_A_c.gif","right","","","","",""
"","null","html-keyboard-response","38","136301","0.0-11.0-0.6","SS1613168368790","","","null","","","","","<p><img src= images/blank.png width =""200"" height = ""200"" style = ""float:right""></p><p><img src=images/blank.png width =""800"" height = ""200""></p>","","","","","","","","","","","",""
"","206.10000006854534","sequential-stimulus-presentation","39","137340","0.0-11.0-1.6","SS1613168368790","trial","","40","800","1006.1000000685453","images/stimuli/spore_stims/complex_03_A_a.gif","images/stimuli/spore_stims/complex_08_A_c.gif","","","","","1","complex_dissimilar","images/stimuli/spore_stims/complex_08_A_c.gif","right","","","","",""
"","null","html-keyboard-response","40","138326","0.0-11.0-0.7","SS1613168368790","","","null","","","","","<p><img src= images/blank.png width =""200"" height = ""200"" style = ""float:right""></p><p><img src=images/blank.png width =""800"" height = ""200""></p>","","","","","","","","","","","",""
"","18.400000408291817","sequential-stimulus-presentation","41","139167","0.0-11.0-1.7","SS1613168368790","trial","","40","800","818.4000004082918","images/stimuli/spore_stims/complex_03_A_a.gif","images/stimuli/spore_stims/complex_08_A_c.gif","","","","","1","complex_dissimilar","images/stimuli/spore_stims/complex_08_A_c.gif","right","","","","",""
"","2338.3149998262525","html-keyboard-response","42","141513","0.0-12.0","SS1613168368790","pref_question","","51","","","","","<video width ='960' height = '540' style='padding-top:8%' autoplay muted><source src='images/stimuli/wall_pref.mp4' type='video/mp4'></video>","3","right","66%","1","","","","","","","",""
"","143.82999995723367","sequential-stimulus-presentation","43","142498","0.0-13.0","SS1613168368790","pref_reveal","","40","800","943.8299999572337","null","null","","","","","1","","","","background","","","",""
"","null","html-keyboard-response","44","143339","0.0-14.0-0.0","SS1613168368790","","","null","","","","","<p><img src= images/blank.png width =""200"" height = ""200"" style = ""float:right""></p><p><img src=images/blank.png width =""800"" height = ""200""></p>","","","","","","","","","","","",""
"","28.159999754279852","sequential-stimulus-presentation","45","144177","0.0-14.0-1.0","SS1613168368790","trial","","40","800","828.1599997542799","images/stimuli/spore_stims/simple_06_A_a.gif","images/stimuli/spore_stims/simple_06_B_a.gif","","","","","2","simple_similar","images/stimuli/spore_stims/simple_06_B_a.gif","right","","","","",""
"","null","html-keyboard-response","46","145332","0.0-14.0-0.1","SS1613168368790","","","null","","","","","<p><img src= images/blank.png width =""200"" height = ""200"" style = ""float:right""></p><p><img src=images/blank.png width =""800"" height = ""200""></p>","","","","","","","","","","","",""
"","329.08499985933304","sequential-stimulus-presentation","47","146475","0.0-14.0-1.1","SS1613168368790","trial","","40","800","1129.084999859333","images/stimuli/spore_stims/simple_06_A_a.gif","images/stimuli/spore_stims/simple_06_B_a.gif","","","","","2","simple_similar","images/stimuli/spore_stims/simple_06_B_a.gif","right","","","","",""
"","null","html-keyboard-response","48","147355","0.0-14.0-0.2","SS1613168368790","","","null","","","","","<p><img src= images/blank.png width =""200"" height = ""200"" style = ""float:right""></p><p><img src=images/blank.png width =""800"" height = ""200""></p>","","","","","","","","","","","",""
"","428.60000021755695","sequential-stimulus-presentation","49","148608","0.0-14.0-1.2","SS1613168368790","trial","","40","800","1228.600000217557","images/stimuli/spore_stims/simple_06_A_a.gif","images/stimuli/spore_stims/simple_06_B_a.gif","","","","","2","simple_similar","images/stimuli/spore_stims/simple_06_B_a.gif","right","","","","",""
"","null","html-keyboard-response","50","149697","0.0-14.0-0.3","SS1613168368790","","","null","","","","","<p><img src= images/blank.png width =""200"" height = ""200"" style = ""float:right""></p><p><img src=images/blank.png width =""800"" height = ""200""></p>","","","","","","","","","","","",""
"","262.8049999475479","sequential-stimulus-presentation","51","150774","0.0-14.0-1.3","SS1613168368790","trial","","40","800","1062.804999947548","images/stimuli/spore_stims/simple_06_A_a.gif","images/stimuli/spore_stims/simple_06_B_a.gif","","","","","2","simple_similar","images/stimuli/spore_stims/simple_06_B_a.gif","right","","","","",""
"","null","html-keyboard-response","52","151628","0.0-14.0-0.4","SS1613168368790","","","null","","","","","<p><img src= images/blank.png width =""200"" height = ""200"" style = ""float:right""></p><p><img src=images/blank.png width =""800"" height = ""200""></p>","","","","","","","","","","","",""
"","110.06999993696809","sequential-stimulus-presentation","53","152556","0.0-14.0-1.4","SS1613168368790","trial","","40","800","910.0699999369681","images/stimuli/spore_stims/simple_06_A_a.gif","images/stimuli/spore_stims/simple_06_B_a.gif","","","","","2","simple_similar","images/stimuli/spore_stims/simple_06_B_a.gif","right","","","","",""
"","null","html-keyboard-response","54","153775","0.0-14.0-0.5","SS1613168368790","","","null","","","","","<p><img src= images/blank.png width =""200"" height = ""200"" style = ""float:right""></p><p><img src=images/blank.png width =""800"" height = ""200""></p>","","","","","","","","","","","",""
"","199.28999990224838","sequential-stimulus-presentation","55","154784","0.0-14.0-1.5","SS1613168368790","trial","","40","800","999.2899999022484","images/stimuli/spore_stims/simple_06_A_a.gif","images/stimuli/spore_stims/simple_06_B_a.gif","","","","","2","simple_similar","images/stimuli/spore_stims/simple_06_B_a.gif","right","","","","",""
"","null","html-keyboard-response","56","156088","0.0-14.0-0.6","SS1613168368790","","","null","","","","","<p><img src= images/blank.png width =""200"" height = ""200"" style = ""float:right""></p><p><img src=images/blank.png width =""800"" height = ""200""></p>","","","","","","","","","","","",""
"","67.04000011086464","sequential-stimulus-presentation","57","156976","0.0-14.0-1.6","SS1613168368790","trial","","40","800","867.0400001108646","images/stimuli/spore_stims/simple_06_A_a.gif","images/stimuli/spore_stims/simple_06_B_a.gif","","","","","2","simple_similar","images/stimuli/spore_stims/simple_06_B_a.gif","right","","","","",""
"","null","html-keyboard-response","58","158173","0.0-14.0-0.7","SS1613168368790","","","null","","","","","<p><img src= images/blank.png width =""200"" height = ""200"" style = ""float:right""></p><p><img src=images/blank.png width =""800"" height = ""200""></p>","","","","","","","","","","","",""
"","306.3300000503659","sequential-stimulus-presentation","59","159297","0.0-14.0-1.7","SS1613168368790","trial","","40","800","1106.330000050366","images/stimuli/spore_stims/simple_06_A_a.gif","images/stimuli/spore_stims/simple_06_B_a.gif","","","","","2","simple_similar","images/stimuli/spore_stims/simple_06_A_a.gif","middle","","","","",""
"","1373.1949999928474","html-keyboard-response","60","160678","0.0-15.0","SS1613168368790","pref_question","","51","","","","","<video width ='960' height = '540' style='padding-top:8%' autoplay muted><source src='images/stimuli/wall_pref.mp4' type='video/mp4'></video>","3","right","66%","2","","","","","","","",""
"","290.98499985411763","sequential-stimulus-presentation","61","161784","0.0-16.0","SS1613168368790","pref_reveal","","40","800","1090.9849998541176","null","null","","","","","2","","","","background","","","",""
"","null","html-keyboard-response","62","162660","0.0-17.0-0.0","SS1613168368790","","","null","","","","","<p><img src= images/blank.png width =""200"" height = ""200"" style = ""float:right""></p><p><img src=images/blank.png width =""800"" height = ""200""></p>","","","","","","","","","","","",""
"","156.15000016987324","sequential-stimulus-presentation","63","163635","0.0-17.0-1.0","SS1613168368790","trial","","40","800","956.1500001698732","images/stimuli/spore_stims/simple_08_A_d.gif","images/stimuli/spore_stims/simple_08_B_d.gif","","","","","3","simple_similar","images/stimuli/spore_stims/simple_08_B_d.gif","right","","","","",""
"","null","html-keyboard-response","64","164710","0.0-17.0-0.1","SS1613168368790","","","null","","","","","<p><img src= images/blank.png width =""200"" height = ""200"" style = ""float:right""></p><p><img src=images/blank.png width =""800"" height = ""200""></p>","","","","","","","","","","","",""
"","250.40999986231327","sequential-stimulus-presentation","65","165789","0.0-17.0-1.1","SS1613168368790","trial","","40","800","1050.4099998623133","images/stimuli/spore_stims/simple_08_A_d.gif","images/stimuli/spore_stims/simple_08_B_d.gif","","","","","3","simple_similar","images/stimuli/spore_stims/simple_08_B_d.gif","right","","","","",""
"","null","html-keyboard-response","66","166709","0.0-17.0-0.2","SS1613168368790","","","null","","","","","<p><img src= images/blank.png width =""200"" height = ""200"" style = ""float:right""></p><p><img src=images/blank.png width =""800"" height = ""200""></p>","","","","","","","","","","","",""
"","226.96999972686172","sequential-stimulus-presentation","67","167754","0.0-17.0-1.2","SS1613168368790","trial","","40","800","1026.9699997268617","images/stimuli/spore_stims/simple_08_A_d.gif","images/stimuli/spore_stims/simple_08_B_d.gif","","","","","3","simple_similar","images/stimuli/spore_stims/simple_08_B_d.gif","right","","","","",""
"","null","html-keyboard-response","68","168750","0.0-17.0-0.3","SS1613168368790","","","null","","","","","<p><img src= images/blank.png width =""200"" height = ""200"" style = ""float:right""></p><p><img src=images/blank.png width =""800"" height = ""200""></p>","","","","","","","","","","","",""
"","68.62499983981252","sequential-stimulus-presentation","69","169638","0.0-17.0-1.3","SS1613168368790","trial","","40","800","868.6249998398125","images/stimuli/spore_stims/simple_08_A_d.gif","images/stimuli/spore_stims/simple_08_B_d.gif","","","","","3","simple_similar","images/stimuli/spore_stims/simple_08_B_d.gif","right","","","","",""
"","null","html-keyboard-response","70","170896","0.0-17.0-0.4","SS1613168368790","","","null","","","","","<p><img src= images/blank.png width =""200"" height = ""200"" style = ""float:right""></p><p><img src=images/blank.png width =""800"" height = ""200""></p>","","","","","","","","","","","",""
"","136.30999997258186","sequential-stimulus-presentation","71","171842","0.0-17.0-1.4","SS1613168368790","trial","","40","800","936.3099999725819","images/stimuli/spore_stims/simple_08_A_d.gif","images/stimuli/spore_stims/simple_08_B_d.gif","","","","","3","simple_similar","images/stimuli/spore_stims/simple_08_A_d.gif","left","","","","",""
"","null","html-keyboard-response","72","172984","0.0-17.0-0.5","SS1613168368790","","","null","","","","","<p><img src= images/blank.png width =""200"" height = ""200"" style = ""float:right""></p><p><img src=images/blank.png width =""800"" height = ""200""></p>","","","","","","","","","","","",""
"","292.28000016883016","sequential-stimulus-presentation","73","174096","0.0-17.0-1.5","SS1613168368790","trial","","40","800","1092.2800001688302","images/stimuli/spore_stims/simple_08_A_d.gif","images/stimuli/spore_stims/simple_08_B_d.gif","","","","","3","simple_similar","images/stimuli/spore_stims/simple_08_B_d.gif","right","","","","",""
"","null","html-keyboard-response","74","175306","0.0-17.0-0.6","SS1613168368790","","","null","","","","","<p><img src= images/blank.png width =""200"" height = ""200"" style = ""float:right""></p><p><img src=images/blank.png width =""800"" height = ""200""></p>","","","","","","","","","","","",""
"","225.08000023663044","sequential-stimulus-presentation","75","176342","0.0-17.0-1.6","SS1613168368790","trial","","40","800","1025.0800002366304","images/stimuli/spore_stims/simple_08_A_d.gif","images/stimuli/spore_stims/simple_08_B_d.gif","","","","","3","simple_similar","images/stimuli/spore_stims/simple_08_B_d.gif","right","","","","",""
"","null","html-keyboard-response","76","177163","0.0-17.0-0.7","SS1613168368790","","","null","","","","","<p><img src= images/blank.png width =""200"" height = ""200"" style = ""float:right""></p><p><img src=images/blank.png width =""800"" height = ""200""></p>","","","","","","","","","","","",""
"","87.89000008255243","sequential-stimulus-presentation","77","178087","0.0-17.0-1.7","SS1613168368790","trial","","40","800","887.8900000825524","images/stimuli/spore_stims/simple_08_A_d.gif","images/stimuli/spore_stims/simple_08_B_d.gif","","","","","3","simple_similar","images/stimuli/spore_stims/simple_08_B_d.gif","right","","","","",""
"","1236.1350003629923","html-keyboard-response","78","179338","0.0-18.0","SS1613168368790","pref_question","","50","","","","","<video width ='960' height = '540' style='padding-top:8%' autoplay muted><source src='images/stimuli/wall_pref.mp4' type='video/mp4'></video>","2","middle","45%","3","","","","","","","",""
"","106.57500009983778","sequential-stimulus-presentation","79","180287","0.0-19.0","SS1613168368790","pref_reveal","","40","800","906.5750000998378","null","null","","","","","3","","","","novel","","","",""
"","null","html-keyboard-response","80","181383","0.0-20.0-0.0","SS1613168368790","","","null","","","","","<p><img src= images/blank.png width =""200"" height = ""200"" style = ""float:right""></p><p><img src=images/blank.png width =""800"" height = ""200""></p>","","","","","","","","","","","",""
"","257.1600000374019","sequential-stimulus-presentation","81","182470","0.0-20.0-1.0","SS1613168368790","trial","","40","800","1057.160000037402","images/stimuli/spore_stims/complex_13_B_c.gif","images/stimuli/spore_stims/complex_01_A_a.gif","","","","","4","complex_dissimilar","images/stimuli/spore_stims/complex_01_A_a.gif","middle","","","","",""
"","null","html-keyboard-response","82","183669","0.0-20.0-0.1","SS1613168368790","","","null","","","","","<p><img src= images/blank.png width =""200"" height = ""200"" style = ""float:right""></p><p><img src=images/blank.png width =""800"" height = ""200""></p>","","","","","","","","","","","",""
"","254.54499991610646","sequential-stimulus-presentation","83","184738","0.0-20.0-1.1","SS1613168368790","trial","","40","800","1054.5449999161065","images/stimuli/spore_stims/complex_13_B_c.gif","images/stimuli/spore_stims/complex_01_A_a.gif","","","","","4","complex_dissimilar","images/stimuli/spore_stims/complex_01_A_a.gif","middle","","","","",""
"","null","html-keyboard-response","84","186011","0.0-20.0-0.2","SS1613168368790","","","null","","","","","<p><img src= images/blank.png width =""200"" height = ""200"" style = ""float:right""></p><p><img src=images/blank.png width =""800"" height = ""200""></p>","","","","","","","","","","","",""
"","69.54999966546893","sequential-stimulus-presentation","85","186891","0.0-20.0-1.2","SS1613168368790","trial","","40","800","869.5499996654689","images/stimuli/spore_stims/complex_13_B_c.gif","images/stimuli/spore_stims/complex_01_A_a.gif","","","","","4","complex_dissimilar","images/stimuli/spore_stims/complex_01_A_a.gif","middle","","","","",""
"","null","html-keyboard-response","86","188016","0.0-20.0-0.3","SS1613168368790","","","null","","","","","<p><img src= images/blank.png width =""200"" height = ""200"" style = ""float:right""></p><p><img src=images/blank.png width =""800"" height = ""200""></p>","","","","","","","","","","","",""
"","113.5950000025332","sequential-stimulus-presentation","87","188950","0.0-20.0-1.3","SS1613168368790","trial","","40","800","913.5950000025332","images/stimuli/spore_stims/complex_13_B_c.gif","images/stimuli/spore_stims/complex_01_A_a.gif","","","","","4","complex_dissimilar","images/stimuli/spore_stims/complex_01_A_a.gif","middle","","","","",""
"","null","html-keyboard-response","88","190002","0.0-20.0-0.4","SS1613168368790","","","null","","","","","<p><img src= images/blank.png width =""200"" height = ""200"" style = ""float:right""></p><p><img src=images/blank.png width =""800"" height = ""200""></p>","","","","","","","","","","","",""
"","112.90499987080693","sequential-stimulus-presentation","89","190931","0.0-20.0-1.4","SS1613168368790","trial","","40","800","912.9049998708069","images/stimuli/spore_stims/complex_13_B_c.gif","images/stimuli/spore_stims/complex_01_A_a.gif","","","","","4","complex_dissimilar","images/stimuli/spore_stims/complex_01_A_a.gif","middle","","","","",""
"","null","html-keyboard-response","90","192236","0.0-20.0-0.5","SS1613168368790","","","null","","","","","<p><img src= images/blank.png width =""200"" height = ""200"" style = ""float:right""></p><p><img src=images/blank.png width =""800"" height = ""200""></p>","","","","","","","","","","","",""
"","153.52499997243285","sequential-stimulus-presentation","91","193284","0.0-20.0-1.5","SS1613168368790","trial","","40","800","953.5249999724329","images/stimuli/spore_stims/complex_13_B_c.gif","images/stimuli/spore_stims/complex_01_A_a.gif","","","","","4","complex_dissimilar","images/stimuli/spore_stims/complex_01_A_a.gif","middle","","","","",""
"","null","html-keyboard-response","92","194298","0.0-20.0-0.6","SS1613168368790","","","null","","","","","<p><img src= images/blank.png width =""200"" height = ""200"" style = ""float:right""></p><p><img src=images/blank.png width =""800"" height = ""200""></p>","","","","","","","","","","","",""
"","191.95999996736646","sequential-stimulus-presentation","93","195304","0.0-20.0-1.6","SS1613168368790","trial","","40","800","991.9599999673665","images/stimuli/spore_stims/complex_13_B_c.gif","images/stimuli/spore_stims/complex_01_A_a.gif","","","","","4","complex_dissimilar","images/stimuli/spore_stims/complex_01_A_a.gif","middle","","","","",""
"","null","html-keyboard-response","94","196411","0.0-20.0-0.7","SS1613168368790","","","null","","","","","<p><img src= images/blank.png width =""200"" height = ""200"" style = ""float:right""></p><p><img src=images/blank.png width =""800"" height = ""200""></p>","","","","","","","","","","","",""
"","340.0599998421967","sequential-stimulus-presentation","95","197561","0.0-20.0-1.7","SS1613168368790","trial","","40","800","1140.0599998421967","images/stimuli/spore_stims/complex_13_B_c.gif","images/stimuli/spore_stims/complex_01_A_a.gif","","","","","4","complex_dissimilar","images/stimuli/spore_stims/complex_13_B_c.gif","left","","","","",""
"","1424.0500000305474","html-keyboard-response","96","199002","0.0-21.0","SS1613168368790","pref_question","","50","","","","","<video width ='960' height = '540' style='padding-top:8%' autoplay muted><source src='images/stimuli/wall_pref.mp4' type='video/mp4'></video>","2","middle","45%","4","","","","","","","",""
"","228.46999997273088","sequential-stimulus-presentation","97","200044","0.0-22.0","SS1613168368790","pref_reveal","","40","800","1028.4699999727309","null","null","","","","","4","","","","background","","","",""
"","null","html-keyboard-response","98","201083","0.0-23.0-0.0","SS1613168368790","","","null","","","","","<p><img src= images/blank.png width =""200"" height = ""200"" style = ""float:right""></p><p><img src=images/blank.png width =""800"" height = ""200""></p>","","","","","","","","","","","",""
"","215.98000032827258","sequential-stimulus-presentation","99","202118","0.0-23.0-1.0","SS1613168368790","trial","","40","800","1015.9800003282726","images/stimuli/spore_stims/simple_18_A_a.gif","images/stimuli/spore_stims/simple_02_B_c.gif","","","","","5","simple_dissimilar","images/stimuli/spore_stims/simple_02_B_c.gif","left","","","","",""
"","null","html-keyboard-response","100","203343","0.0-23.0-0.1","SS1613168368790","","","null","","","","","<p><img src= images/blank.png width =""200"" height = ""200"" style = ""float:right""></p><p><img src=images/blank.png width =""800"" height = ""200""></p>","","","","","","","","","","","",""
"","40.50000011920929","sequential-stimulus-presentation","101","204210","0.0-23.0-1.1","SS1613168368790","trial","","40","800","840.5000001192093","images/stimuli/spore_stims/simple_18_A_a.gif","images/stimuli/spore_stims/simple_02_B_c.gif","","","","","5","simple_dissimilar","images/stimuli/spore_stims/simple_02_B_c.gif","left","","","","",""
"","null","html-keyboard-response","102","205107","0.0-23.0-0.2","SS1613168368790","","","null","","","","","<p><img src= images/blank.png width =""200"" height = ""200"" style = ""float:right""></p><p><img src=images/blank.png width =""800"" height = ""200""></p>","","","","","","","","","","","",""
"","257.54000013694167","sequential-stimulus-presentation","103","206191","0.0-23.0-1.2","SS1613168368790","trial","","40","800","1057.5400001369417","images/stimuli/spore_stims/simple_18_A_a.gif","images/stimuli/spore_stims/simple_02_B_c.gif","","","","","5","simple_dissimilar","images/stimuli/spore_stims/simple_02_B_c.gif","left","","","","",""
"","null","html-keyboard-response","104","207393","0.0-23.0-0.3","SS1613168368790","","","null","","","","","<p><img src= images/blank.png width =""200"" height = ""200"" style = ""float:right""></p><p><img src=images/blank.png width =""800"" height = ""200""></p>","","","","","","","","","","","",""
"","206.94500021636486","sequential-stimulus-presentation","105","208416","0.0-23.0-1.3","SS1613168368790","trial","","40","800","1006.9450002163649","images/stimuli/spore_stims/simple_18_A_a.gif","images/stimuli/spore_stims/simple_02_B_c.gif","","","","","5","simple_dissimilar","images/stimuli/spore_stims/simple_02_B_c.gif","left","","","","",""
"","null","html-keyboard-response","106","209262","0.0-23.0-0.4","SS1613168368790","","","null","","","","","<p><img src= images/blank.png width =""200"" height = ""200"" style = ""float:right""></p><p><img src=images/blank.png width =""800"" height = ""200""></p>","","","","","","","","","","","",""
"","156.28999983891845","sequential-stimulus-presentation","107","210237","0.0-23.0-1.4","SS1613168368790","trial","","40","800","956.2899998389184","images/stimuli/spore_stims/simple_18_A_a.gif","images/stimuli/spore_stims/simple_02_B_c.gif","","","","","5","simple_dissimilar","images/stimuli/spore_stims/simple_02_B_c.gif","left","","","","",""
"","null","html-keyboard-response","108","211448","0.0-23.0-0.5","SS1613168368790","","","null","","","","","<p><img src= images/blank.png width =""200"" height = ""200"" style = ""float:right""></p><p><img src=images/blank.png width =""800"" height = ""200""></p>","","","","","","","","","","","",""
"","173.92500024288893","sequential-stimulus-presentation","109","212443","0.0-23.0-1.5","SS1613168368790","trial","","40","800","973.9250002428889","images/stimuli/spore_stims/simple_18_A_a.gif","images/stimuli/spore_stims/simple_02_B_c.gif","","","","","5","simple_dissimilar","images/stimuli/spore_stims/simple_18_A_a.gif","right","","","","",""
"","null","html-keyboard-response","110","213607","0.0-23.0-0.6","SS1613168368790","","","null","","","","","<p><img src= images/blank.png width =""200"" height = ""200"" style = ""float:right""></p><p><img src=images/blank.png width =""800"" height = ""200""></p>","","","","","","","","","","","",""
"","288.00499998033047","sequential-stimulus-presentation","111","214709","0.0-23.0-1.6","SS1613168368790","trial","","40","800","1088.0049999803305","images/stimuli/spore_stims/simple_18_A_a.gif","images/stimuli/spore_stims/simple_02_B_c.gif","","","","","5","simple_dissimilar","images/stimuli/spore_stims/simple_02_B_c.gif","left","","","","",""
"","null","html-keyboard-response","112","215801","0.0-23.0-0.7","SS1613168368790","","","null","","","","","<p><img src= images/blank.png width =""200"" height = ""200"" style = ""float:right""></p><p><img src=images/blank.png width =""800"" height = ""200""></p>","","","","","","","","","","","",""
"","271.59500028938055","sequential-stimulus-presentation","113","216884","0.0-23.0-1.7","SS1613168368790","trial","","40","800","1071.5950002893806","images/stimuli/spore_stims/simple_18_A_a.gif","images/stimuli/spore_stims/simple_02_B_c.gif","","","","","5","simple_dissimilar","images/stimuli/spore_stims/simple_02_B_c.gif","left","","","","",""
"","2272.394999861717","html-keyboard-response","114","219165","0.0-24.0","SS1613168368790","pref_question","","50","","","","","<video width ='960' height = '540' style='padding-top:8%' autoplay muted><source src='images/stimuli/wall_pref.mp4' type='video/mp4'></video>","2","middle","45%","5","","","","","","","",""
"","51.715000066906214","sequential-stimulus-presentation","115","220028","0.0-25.0","SS1613168368790","pref_reveal","","40","800","851.7150000669062","null","null","","","","","5","","","","novel","","","",""
"","null","html-keyboard-response","116","221167","0.0-26.0-0.0","SS1613168368790","","","null","","","","","<p><img src= images/blank.png width =""200"" height = ""200"" style = ""float:right""></p><p><img src=images/blank.png width =""800"" height = ""200""></p>","","","","","","","","","","","",""
"","241.1399995908141","sequential-stimulus-presentation","117","222241","0.0-26.0-1.0","SS1613168368790","trial","","40","800","1041.139999590814","images/stimuli/spore_stims/simple_20_A_c.gif","images/stimuli/spore_stims/simple_20_B_c.gif","","","","","6","simple_similar","images/stimuli/spore_stims/simple_20_B_c.gif","left","","","","",""
"","null","html-keyboard-response","118","223124","0.0-26.0-0.1","SS1613168368790","","","null","","","","","<p><img src= images/blank.png width =""200"" height = ""200"" style = ""float:right""></p><p><img src=images/blank.png width =""800"" height = ""200""></p>","","","","","","","","","","","",""
"","41.81000031530857","sequential-stimulus-presentation","119","223983","0.0-26.0-1.1","SS1613168368790","trial","","40","800","841.8100003153086","images/stimuli/spore_stims/simple_20_A_c.gif","images/stimuli/spore_stims/simple_20_B_c.gif","","","","","6","simple_similar","images/stimuli/spore_stims/simple_20_B_c.gif","left","","","","",""
"","null","html-keyboard-response","120","225236","0.0-26.0-0.2","SS1613168368790","","","null","","","","","<p><img src= images/blank.png width =""200"" height = ""200"" style = ""float:right""></p><p><img src=images/blank.png width =""800"" height = ""200""></p>","","","","","","","","","","","",""
"","64.81499969959259","sequential-stimulus-presentation","121","226117","0.0-26.0-1.2","SS1613168368790","trial","","40","800","864.8149996995926","images/stimuli/spore_stims/simple_20_A_c.gif","images/stimuli/spore_stims/simple_20_B_c.gif","","","","","6","simple_similar","images/stimuli/spore_stims/simple_20_B_c.gif","left","","","","",""
"","null","html-keyboard-response","122","227143","0.0-26.0-0.3","SS1613168368790","","","null","","","","","<p><img src= images/blank.png width =""200"" height = ""200"" style = ""float:right""></p><p><img src=images/blank.png width =""800"" height = ""200""></p>","","","","","","","","","","","",""
"","126.70000037178397","sequential-stimulus-presentation","123","228082","0.0-26.0-1.3","SS1613168368790","trial","","40","800","926.700000371784","images/stimuli/spore_stims/simple_20_A_c.gif","images/stimuli/spore_stims/simple_20_B_c.gif","","","","","6","simple_similar","images/stimuli/spore_stims/simple_20_B_c.gif","left","","","","",""
"","null","html-keyboard-response","124","229136","0.0-26.0-0.4","SS1613168368790","","","null","","","","","<p><img src= images/blank.png width =""200"" height = ""200"" style = ""float:right""></p><p><img src=images/blank.png width =""800"" height = ""200""></p>","","","","","","","","","","","",""
"","205.71999996900558","sequential-stimulus-presentation","125","230156","0.0-26.0-1.4","SS1613168368790","trial","","40","800","1005.7199999690056","images/stimuli/spore_stims/simple_20_A_c.gif","images/stimuli/spore_stims/simple_20_B_c.gif","","","","","6","simple_similar","images/stimuli/spore_stims/simple_20_B_c.gif","left","","","","",""
"","null","html-keyboard-response","126","231269","0.0-26.0-0.5","SS1613168368790","","","null","","","","","<p><img src= images/blank.png width =""200"" height = ""200"" style = ""float:right""></p><p><img src=images/blank.png width =""800"" height = ""200""></p>","","","","","","","","","","","",""
"","84.6100002527237","sequential-stimulus-presentation","127","232166","0.0-26.0-1.5","SS1613168368790","trial","","40","800","884.6100002527237","images/stimuli/spore_stims/simple_20_A_c.gif","images/stimuli/spore_stims/simple_20_B_c.gif","","","","","6","simple_similar","images/stimuli/spore_stims/simple_20_B_c.gif","left","","","","",""
"","null","html-keyboard-response","128","233022","0.0-26.0-0.6","SS1613168368790","","","null","","","","","<p><img src= images/blank.png width =""200"" height = ""200"" style = ""float:right""></p><p><img src=images/blank.png width =""800"" height = ""200""></p>","","","","","","","","","","","",""
"","320.95000008121133","sequential-stimulus-presentation","129","234178","0.0-26.0-1.6","SS1613168368790","trial","","40","800","1120.9500000812113","images/stimuli/spore_stims/simple_20_A_c.gif","images/stimuli/spore_stims/simple_20_B_c.gif","","","","","6","simple_similar","images/stimuli/spore_stims/simple_20_A_c.gif","right","","","","",""
"","null","html-keyboard-response","130","235087","0.0-26.0-0.7","SS1613168368790","","","null","","","","","<p><img src= images/blank.png width =""200"" height = ""200"" style = ""float:right""></p><p><img src=images/blank.png width =""800"" height = ""200""></p>","","","","","","","","","","","",""
"","39.11000024527311","sequential-stimulus-presentation","131","235943","0.0-26.0-1.7","SS1613168368790","trial","","40","800","839.1100002452731","images/stimuli/spore_stims/simple_20_A_c.gif","images/stimuli/spore_stims/simple_20_B_c.gif","","","","","6","simple_similar","images/stimuli/spore_stims/simple_20_B_c.gif","left","","","","",""
"","1536.7699996568263","html-keyboard-response","132","237488","0.0-27.0","SS1613168368790","pref_question","","50","","","","","<video width ='960' height = '540' style='padding-top:8%' autoplay muted><source src='images/stimuli/wall_pref.mp4' type='video/mp4'></video>","2","middle","45%","6","","","","","","","",""
"","212.39500027149916","sequential-stimulus-presentation","133","238513","0.0-28.0","SS1613168368790","pref_reveal","","40","800","1012.3950002714992","null","null","","","","","6","","","","novel","","","",""
"","null","html-keyboard-response","134","239805","0.0-29.0-0.0","SS1613168368790","","","null","","","","","<p><img src= images/blank.png width =""200"" height = ""200"" style = ""float:right""></p><p><img src=images/blank.png width =""800"" height = ""200""></p>","","","","","","","","","","","",""
"","248.16500023007393","sequential-stimulus-presentation","135","240871","0.0-29.0-1.0","SS1613168368790","trial","","40","800","1048.165000230074","images/stimuli/spore_stims/complex_15_A_c.gif","images/stimuli/spore_stims/complex_15_B_c.gif","","","","","7","complex_similar","images/stimuli/spore_stims/complex_15_B_c.gif","left","","","","",""
"","null","html-keyboard-response","136","242003","0.0-29.0-0.1","SS1613168368790","","","null","","","","","<p><img src= images/blank.png width =""200"" height = ""200"" style = ""float:right""></p><p><img src=images/blank.png width =""800"" height = ""200""></p>","","","","","","","","","","","",""
"","294.53499987721443","sequential-stimulus-presentation","137","243139","0.0-29.0-1.1","SS1613168368790","trial","","40","800","1094.5349998772144","images/stimuli/spore_stims/complex_15_A_c.gif","images/stimuli/spore_stims/complex_15_B_c.gif","","","","","7","complex_similar","images/stimuli/spore_stims/complex_15_B_c.gif","left","","","","",""
"","null","html-keyboard-response","138","243952","0.0-29.0-0.2","SS1613168368790","","","null","","","","","<p><img src= images/blank.png width =""200"" height = ""200"" style = ""float:right""></p><p><img src=images/blank.png width =""800"" height = ""200""></p>","","","","","","","","","","","",""
"","142.835000064224","sequential-stimulus-presentation","139","244915","0.0-29.0-1.2","SS1613168368790","trial","","40","800","942.835000064224","images/stimuli/spore_stims/complex_15_A_c.gif","images/stimuli/spore_stims/complex_15_B_c.gif","","","","","7","complex_similar","images/stimuli/spore_stims/complex_15_B_c.gif","left","","","","",""
"","null","html-keyboard-response","140","245877","0.0-29.0-0.3","SS1613168368790","","","null","","","","","<p><img src= images/blank.png width =""200"" height = ""200"" style = ""float:right""></p><p><img src=images/blank.png width =""800"" height = ""200""></p>","","","","","","","","","","","",""
"","190.86500024423003","sequential-stimulus-presentation","141","246908","0.0-29.0-1.3","SS1613168368790","trial","","40","800","990.86500024423","images/stimuli/spore_stims/complex_15_A_c.gif","images/stimuli/spore_stims/complex_15_B_c.gif","","","","","7","complex_similar","images/stimuli/spore_stims/complex_15_B_c.gif","left","","","","",""
"","null","html-keyboard-response","142","248130","0.0-29.0-0.4","SS1613168368790","","","null","","","","","<p><img src= images/blank.png width =""200"" height = ""200"" style = ""float:right""></p><p><img src=images/blank.png width =""800"" height = ""200""></p>","","","","","","","","","","","",""
"","241.96500005200505","sequential-stimulus-presentation","143","249184","0.0-29.0-1.4","SS1613168368790","trial","","40","800","1041.965000052005","images/stimuli/spore_stims/complex_15_A_c.gif","images/stimuli/spore_stims/complex_15_B_c.gif","","","","","7","complex_similar","images/stimuli/spore_stims/complex_15_B_c.gif","left","","","","",""
"","null","html-keyboard-response","144","250120","0.0-29.0-0.5","SS1613168368790","","","null","","","","","<p><img src= images/blank.png width =""200"" height = ""200"" style = ""float:right""></p><p><img src=images/blank.png width =""800"" height = ""200""></p>","","","","","","","","","","","",""
"","33.92499964684248","sequential-stimulus-presentation","145","251002","0.0-29.0-1.5","SS1613168368790","trial","","40","800","833.9249996468425","images/stimuli/spore_stims/complex_15_A_c.gif","images/stimuli/spore_stims/complex_15_B_c.gif","","","","","7","complex_similar","images/stimuli/spore_stims/complex_15_A_c.gif","middle","","","","",""
"","null","html-keyboard-response","146","252336","0.0-29.0-0.6","SS1613168368790","","","null","","","","","<p><img src= images/blank.png width =""200"" height = ""200"" style = ""float:right""></p><p><img src=images/blank.png width =""800"" height = ""200""></p>","","","","","","","","","","","",""
"","283.11000019311905","sequential-stimulus-presentation","147","253438","0.0-29.0-1.6","SS1613168368790","trial","","40","800","1083.110000193119","images/stimuli/spore_stims/complex_15_A_c.gif","images/stimuli/spore_stims/complex_15_B_c.gif","","","","","7","complex_similar","images/stimuli/spore_stims/complex_15_B_c.gif","left","","","","",""
"","null","html-keyboard-response","148","254449","0.0-29.0-0.7","SS1613168368790","","","null","","","","","<p><img src= images/blank.png width =""200"" height = ""200"" style = ""float:right""></p><p><img src=images/blank.png width =""800"" height = ""200""></p>","","","","","","","","","","","",""
"","183.80000023171306","sequential-stimulus-presentation","149","255469","0.0-29.0-1.7","SS1613168368790","trial","","40","800","983.800000231713","images/stimuli/spore_stims/complex_15_A_c.gif","images/stimuli/spore_stims/complex_15_B_c.gif","","","","","7","complex_similar","images/stimuli/spore_stims/complex_15_B_c.gif","left","","","","",""
"","1479.3050000444055","html-keyboard-response","150","256960","0.0-30.0","SS1613168368790","pref_question","","51","","","","","<video width ='960' height = '540' style='padding-top:8%' autoplay muted><source src='images/stimuli/wall_pref.mp4' type='video/mp4'></video>","3","right","66%","7","","","","","","","",""
"","55.59000000357628","sequential-stimulus-presentation","151","257844","0.0-31.0","SS1613168368790","pref_reveal","","40","800","855.5900000035763","null","null","","","","","7","","","","novel","","","",""
"","null","html-keyboard-response","152","259103","0.0-32.0-0.0","SS1613168368790","","","null","","","","","<p><img src= images/blank.png width =""200"" height = ""200"" style = ""float:right""></p><p><img src=images/blank.png width =""800"" height = ""200""></p>","","","","","","","","","","","",""
"","136.86499977484345","sequential-stimulus-presentation","153","260087","0.0-32.0-1.0","SS1613168368790","trial","","40","800","936.8649997748435","images/stimuli/spore_stims/complex_20_A_d.gif","images/stimuli/spore_stims/complex_18_A_d.gif","","","","","8","complex_dissimilar","images/stimuli/spore_stims/complex_18_A_d.gif","middle","","","","",""
"","null","html-keyboard-response","154","261225","0.0-32.0-0.1","SS1613168368790","","","null","","","","","<p><img src= images/blank.png width =""200"" height = ""200"" style = ""float:right""></p><p><img src=images/blank.png width =""800"" height = ""200""></p>","","","","","","","","","","","",""
"","337.05500001087785","sequential-stimulus-presentation","155","262381","0.0-32.0-1.1","SS1613168368790","trial","","40","800","1137.0550000108778","images/stimuli/spore_stims/complex_20_A_d.gif","images/stimuli/spore_stims/complex_18_A_d.gif","","","","","8","complex_dissimilar","images/stimuli/spore_stims/complex_18_A_d.gif","middle","","","","",""
"","null","html-keyboard-response","156","263651","0.0-32.0-0.2","SS1613168368790","","","null","","","","","<p><img src= images/blank.png width =""200"" height = ""200"" style = ""float:right""></p><p><img src=images/blank.png width =""800"" height = ""200""></p>","","","","","","","","","","","",""
"","327.82999984920025","sequential-stimulus-presentation","157","264809","0.0-32.0-1.2","SS1613168368790","trial","","40","800","1127.8299998492002","images/stimuli/spore_stims/complex_20_A_d.gif","images/stimuli/spore_stims/complex_18_A_d.gif","","","","","8","complex_dissimilar","images/stimuli/spore_stims/complex_18_A_d.gif","middle","","","","",""
"","null","html-keyboard-response","158","265712","0.0-32.0-0.3","SS1613168368790","","","null","","","","","<p><img src= images/blank.png width =""200"" height = ""200"" style = ""float:right""></p><p><img src=images/blank.png width =""800"" height = ""200""></p>","","","","","","","","","","","",""
"","298.7500000745058","sequential-stimulus-presentation","159","266834","0.0-32.0-1.3","SS1613168368790","trial","","40","800","1098.7500000745058","images/stimuli/spore_stims/complex_20_A_d.gif","images/stimuli/spore_stims/complex_18_A_d.gif","","","","","8","complex_dissimilar","images/stimuli/spore_stims/complex_18_A_d.gif","middle","","","","",""
"","null","html-keyboard-response","160","267777","0.0-32.0-0.4","SS1613168368790","","","null","","","","","<p><img src= images/blank.png width =""200"" height = ""200"" style = ""float:right""></p><p><img src=images/blank.png width =""800"" height = ""200""></p>","","","","","","","","","","","",""
"","217.53999963402748","sequential-stimulus-presentation","161","268811","0.0-32.0-1.4","SS1613168368790","trial","","40","800","1017.5399996340275","images/stimuli/spore_stims/complex_20_A_d.gif","images/stimuli/spore_stims/complex_18_A_d.gif","","","","","8","complex_dissimilar","images/stimuli/spore_stims/complex_20_A_d.gif","right","","","","",""
"","null","html-keyboard-response","162","269761","0.0-32.0-0.5","SS1613168368790","","","null","","","","","<p><img src= images/blank.png width =""200"" height = ""200"" style = ""float:right""></p><p><img src=images/blank.png width =""800"" height = ""200""></p>","","","","","","","","","","","",""
"","347.7250002324581","sequential-stimulus-presentation","163","270926","0.0-32.0-1.5","SS1613168368790","trial","","40","800","1147.7250002324581","images/stimuli/spore_stims/complex_20_A_d.gif","images/stimuli/spore_stims/complex_18_A_d.gif","","","","","8","complex_dissimilar","images/stimuli/spore_stims/complex_18_A_d.gif","middle","","","","",""
"","null","html-keyboard-response","164","272164","0.0-32.0-0.6","SS1613168368790","","","null","","","","","<p><img src= images/blank.png width =""200"" height = ""200"" style = ""float:right""></p><p><img src=images/blank.png width =""800"" height = ""200""></p>","","","","","","","","","","","",""
"","330.5000001564622","sequential-stimulus-presentation","165","273376","0.0-32.0-1.6","SS1613168368790","trial","","40","800","1130.5000001564622","images/stimuli/spore_stims/complex_20_A_d.gif","images/stimuli/spore_stims/complex_18_A_d.gif","","","","","8","complex_dissimilar","images/stimuli/spore_stims/complex_18_A_d.gif","middle","","","","",""
"","null","html-keyboard-response","166","274634","0.0-32.0-0.7","SS1613168368790","","","null","","","","","<p><img src= images/blank.png width =""200"" height = ""200"" style = ""float:right""></p><p><img src=images/blank.png width =""800"" height = ""200""></p>","","","","","","","","","","","",""
"","288.5499997064471","sequential-stimulus-presentation","167","275735","0.0-32.0-1.7","SS1613168368790","trial","","40","800","1088.5499997064471","images/stimuli/spore_stims/complex_20_A_d.gif","images/stimuli/spore_stims/complex_18_A_d.gif","","","","","8","complex_dissimilar","images/stimuli/spore_stims/complex_18_A_d.gif","middle","","","","",""
"","4469.134999904782","html-keyboard-response","168","280216","0.0-33.0","SS1613168368790","pref_question","","51","","","","","<video width ='960' height = '540' style='padding-top:8%' autoplay muted><source src='images/stimuli/wall_pref.mp4' type='video/mp4'></video>","3","right","66%","8","","","","","","","",""
"","59.90999983623624","sequential-stimulus-presentation","169","281099","0.0-34.0","SS1613168368790","pref_reveal","","40","800","859.9099998362362","null","null","","","","","8","","","","deviant","","","",""
"","null","html-keyboard-response","170","281978","0.0-35.0-0.0","SS1613168368790","","","null","","","","","<p><img src= images/blank.png width =""200"" height = ""200"" style = ""float:right""></p><p><img src=images/blank.png width =""800"" height = ""200""></p>","","","","","","","","","","","",""
"","65.28500001877546","sequential-stimulus-presentation","171","282879","0.0-35.0-1.0","SS1613168368790","trial","","40","800","865.2850000187755","images/stimuli/spore_stims/complex_16_A_b.gif","images/stimuli/spore_stims/complex_16_B_b.gif","","","","","9","complex_similar","images/stimuli/spore_stims/complex_16_B_b.gif","right","","","","",""
"","null","html-keyboard-response","172","284012","0.0-35.0-0.1","SS1613168368790","","","null","","","","","<p><img src= images/blank.png width =""200"" height = ""200"" style = ""float:right""></p><p><img src=images/blank.png width =""800"" height = ""200""></p>","","","","","","","","","","","",""
"","255.89000014588237","sequential-stimulus-presentation","173","285106","0.0-35.0-1.1","SS1613168368790","trial","","40","800","1055.8900001458824","images/stimuli/spore_stims/complex_16_A_b.gif","images/stimuli/spore_stims/complex_16_B_b.gif","","","","","9","complex_similar","images/stimuli/spore_stims/complex_16_B_b.gif","right","","","","",""
"","null","html-keyboard-response","174","285994","0.0-35.0-0.2","SS1613168368790","","","null","","","","","<p><img src= images/blank.png width =""200"" height = ""200"" style = ""float:right""></p><p><img src=images/blank.png width =""800"" height = ""200""></p>","","","","","","","","","","","",""
"","393.10500025749207","sequential-stimulus-presentation","175","287221","0.0-35.0-1.2","SS1613168368790","trial","","40","800","1193.105000257492","images/stimuli/spore_stims/complex_16_A_b.gif","images/stimuli/spore_stims/complex_16_B_b.gif","","","","","9","complex_similar","images/stimuli/spore_stims/complex_16_B_b.gif","right","","","","",""
"","null","html-keyboard-response","176","288128","0.0-35.0-0.3","SS1613168368790","","","null","","","","","<p><img src= images/blank.png width =""200"" height = ""200"" style = ""float:right""></p><p><img src=images/blank.png width =""800"" height = ""200""></p>","","","","","","","","","","","",""
"","167.84500004723668","sequential-stimulus-presentation","177","289113","0.0-35.0-1.3","SS1613168368790","trial","","40","800","967.8450000472367","images/stimuli/spore_stims/complex_16_A_b.gif","images/stimuli/spore_stims/complex_16_B_b.gif","","","","","9","complex_similar","images/stimuli/spore_stims/complex_16_B_b.gif","right","","","","",""
"","null","html-keyboard-response","178","290063","0.0-35.0-0.4","SS1613168368790","","","null","","","","","<p><img src= images/blank.png width =""200"" height = ""200"" style = ""float:right""></p><p><img src=images/blank.png width =""800"" height = ""200""></p>","","","","","","","","","","","",""
"","10.79500000923872","sequential-stimulus-presentation","179","290895","0.0-35.0-1.4","SS1613168368790","trial","","40","800","810.7950000092387","images/stimuli/spore_stims/complex_16_A_b.gif","images/stimuli/spore_stims/complex_16_B_b.gif","","","","","9","complex_similar","images/stimuli/spore_stims/complex_16_A_b.gif","middle","","","","",""
"","null","html-keyboard-response","180","291745","0.0-35.0-0.5","SS1613168368790","","","null","","","","","<p><img src= images/blank.png width =""200"" height = ""200"" style = ""float:right""></p><p><img src=images/blank.png width =""800"" height = ""200""></p>","","","","","","","","","","","",""
"","124.02499979361892","sequential-stimulus-presentation","181","292695","0.0-35.0-1.5","SS1613168368790","trial","","40","800","924.0249997936189","images/stimuli/spore_stims/complex_16_A_b.gif","images/stimuli/spore_stims/complex_16_B_b.gif","","","","","9","complex_similar","images/stimuli/spore_stims/complex_16_B_b.gif","right","","","","",""
"","null","html-keyboard-response","182","293755","0.0-35.0-0.6","SS1613168368790","","","null","","","","","<p><img src= images/blank.png width =""200"" height = ""200"" style = ""float:right""></p><p><img src=images/blank.png width =""800"" height = ""200""></p>","","","","","","","","","","","",""
"","106.51999991387129","sequential-stimulus-presentation","183","294682","0.0-35.0-1.6","SS1613168368790","trial","","40","800","906.5199999138713","images/stimuli/spore_stims/complex_16_A_b.gif","images/stimuli/spore_stims/complex_16_B_b.gif","","","","","9","complex_similar","images/stimuli/spore_stims/complex_16_B_b.gif","right","","","","",""
"","null","html-keyboard-response","184","295707","0.0-35.0-0.7","SS1613168368790","","","null","","","","","<p><img src= images/blank.png width =""200"" height = ""200"" style = ""float:right""></p><p><img src=images/blank.png width =""800"" height = ""200""></p>","","","","","","","","","","","",""
"","293.9200000837445","sequential-stimulus-presentation","185","296817","0.0-35.0-1.7","SS1613168368790","trial","","40","800","1093.9200000837445","images/stimuli/spore_stims/complex_16_A_b.gif","images/stimuli/spore_stims/complex_16_B_b.gif","","","","","9","complex_similar","images/stimuli/spore_stims/complex_16_B_b.gif","right","","","","",""
"","2981.3450002111495","html-keyboard-response","186","299812","0.0-36.0","SS1613168368790","pref_question","","51","","","","","<video width ='960' height = '540' style='padding-top:8%' autoplay muted><source src='images/stimuli/wall_pref.mp4' type='video/mp4'></video>","3","right","66%","9","","","","","","","",""
"","15.105000231415033","sequential-stimulus-presentation","187","300654","0.0-37.0","SS1613168368790","pref_reveal","","40","800","815.105000231415","null","null","","","","","9","","","","background","","","",""
"","null","html-keyboard-response","188","301626","0.0-38.0-0.0","SS1613168368790","","","null","","","","","<p><img src= images/blank.png width =""200"" height = ""200"" style = ""float:right""></p><p><img src=images/blank.png width =""800"" height = ""200""></p>","","","","","","","","","","","",""
"","95.57500015944242","sequential-stimulus-presentation","189","302550","0.0-38.0-1.0","SS1613168368790","trial","","40","800","895.5750001594424","images/stimuli/spore_stims/simple_14_A_d.gif","images/stimuli/spore_stims/simple_13_A_c.gif","","","","","10","simple_dissimilar","images/stimuli/spore_stims/simple_13_A_c.gif","left","","","","",""
"","null","html-keyboard-response","190","303563","0.0-38.0-0.1","SS1613168368790","","","null","","","","","<p><img src= images/blank.png width =""200"" height = ""200"" style = ""float:right""></p><p><img src=images/blank.png width =""800"" height = ""200""></p>","","","","","","","","","","","",""
"","229.39500026404858","sequential-stimulus-presentation","191","304624","0.0-38.0-1.1","SS1613168368790","trial","","40","800","1029.3950002640486","images/stimuli/spore_stims/simple_14_A_d.gif","images/stimuli/spore_stims/simple_13_A_c.gif","","","","","10","simple_dissimilar","images/stimuli/spore_stims/simple_13_A_c.gif","left","","","","",""
"","null","html-keyboard-response","192","305749","0.0-38.0-0.2","SS1613168368790","","","null","","","","","<p><img src= images/blank.png width =""200"" height = ""200"" style = ""float:right""></p><p><img src=images/blank.png width =""800"" height = ""200""></p>","","","","","","","","","","","",""
"","242.95000033453107","sequential-stimulus-presentation","193","306812","0.0-38.0-1.2","SS1613168368790","trial","","40","800","1042.950000334531","images/stimuli/spore_stims/simple_14_A_d.gif","images/stimuli/spore_stims/simple_13_A_c.gif","","","","","10","simple_dissimilar","images/stimuli/spore_stims/simple_13_A_c.gif","left","","","","",""
"","null","html-keyboard-response","194","308057","0.0-38.0-0.3","SS1613168368790","","","null","","","","","<p><img src= images/blank.png width =""200"" height = ""200"" style = ""float:right""></p><p><img src=images/blank.png width =""800"" height = ""200""></p>","","","","","","","","","","","",""
"","134.27500007674098","sequential-stimulus-presentation","195","309010","0.0-38.0-1.3","SS1613168368790","trial","","40","800","934.275000076741","images/stimuli/spore_stims/simple_14_A_d.gif","images/stimuli/spore_stims/simple_13_A_c.gif","","","","","10","simple_dissimilar","images/stimuli/spore_stims/simple_13_A_c.gif","left","","","","",""
"","null","html-keyboard-response","196","310135","0.0-38.0-0.4","SS1613168368790","","","null","","","","","<p><img src= images/blank.png width =""200"" height = ""200"" style = ""float:right""></p><p><img src=images/blank.png width =""800"" height = ""200""></p>","","","","","","","","","","","",""
"","293.8250000588596","sequential-stimulus-presentation","197","311282","0.0-38.0-1.4","SS1613168368790","trial","","40","800","1093.8250000588596","images/stimuli/spore_stims/simple_14_A_d.gif","images/stimuli/spore_stims/simple_13_A_c.gif","","","","","10","simple_dissimilar","images/stimuli/spore_stims/simple_13_A_c.gif","left","","","","",""
"","null","html-keyboard-response","198","312575","0.0-38.0-0.5","SS1613168368790","","","null","","","","","<p><img src= images/blank.png width =""200"" height = ""200"" style = ""float:right""></p><p><img src=images/blank.png width =""800"" height = ""200""></p>","","","","","","","","","","","",""
"","442.7749998867512","sequential-stimulus-presentation","199","313837","0.0-38.0-1.5","SS1613168368790","trial","","40","800","1242.7749998867512","images/stimuli/spore_stims/simple_14_A_d.gif","images/stimuli/spore_stims/simple_13_A_c.gif","","","","","10","simple_dissimilar","images/stimuli/spore_stims/simple_13_A_c.gif","left","","","","",""
"","null","html-keyboard-response","200","314760","0.0-38.0-0.6","SS1613168368790","","","null","","","","","<p><img src= images/blank.png width =""200"" height = ""200"" style = ""float:right""></p><p><img src=images/blank.png width =""800"" height = ""200""></p>","","","","","","","","","","","",""
"","23.54499977082014","sequential-stimulus-presentation","201","315614","0.0-38.0-1.6","SS1613168368790","trial","","40","800","823.5449997708201","images/stimuli/spore_stims/simple_14_A_d.gif","images/stimuli/spore_stims/simple_13_A_c.gif","","","","","10","simple_dissimilar","images/stimuli/spore_stims/simple_13_A_c.gif","left","","","","",""
"","null","html-keyboard-response","202","316517","0.0-38.0-0.7","SS1613168368790","","","null","","","","","<p><img src= images/blank.png width =""200"" height = ""200"" style = ""float:right""></p><p><img src=images/blank.png width =""800"" height = ""200""></p>","","","","","","","","","","","",""
"","135.48999978229403","sequential-stimulus-presentation","203","317466","0.0-38.0-1.7","SS1613168368790","trial","","40","800","935.489999782294","images/stimuli/spore_stims/simple_14_A_d.gif","images/stimuli/spore_stims/simple_13_A_c.gif","","","","","10","simple_dissimilar","images/stimuli/spore_stims/simple_14_A_d.gif","right","","","","",""
"","2679.840000346303","html-keyboard-response","204","320185","0.0-39.0","SS1613168368790","pref_question","","51","","","","","<video width ='960' height = '540' style='padding-top:8%' autoplay muted><source src='images/stimuli/wall_pref.mp4' type='video/mp4'></video>","3","right","66%","10","","","","","","","",""
"","230.574999935925","sequential-stimulus-presentation","205","321238","0.0-40.0","SS1613168368790","pref_reveal","","40","800","1030.574999935925","null","null","","","","","10","","","","deviant","","","",""
"","null","html-keyboard-response","206","322298","0.0-41.0-0.0","SS1613168368790","","","null","","","","","<p><img src= images/blank.png width =""200"" height = ""200"" style = ""float:right""></p><p><img src=images/blank.png width =""800"" height = ""200""></p>","","","","","","","","","","","",""
"","27.250000275671482","sequential-stimulus-presentation","207","323139","0.0-41.0-1.0","SS1613168368790","trial","","40","800","827.2500002756715","images/stimuli/spore_stims/complex_09_B_d.gif","images/stimuli/spore_stims/complex_09_A_d.gif","","","","","11","complex_similar","images/stimuli/spore_stims/complex_09_A_d.gif","middle","","","","",""
"","null","html-keyboard-response","208","324227","0.0-41.0-0.1","SS1613168368790","","","null","","","","","<p><img src= images/blank.png width =""200"" height = ""200"" style = ""float:right""></p><p><img src=images/blank.png width =""800"" height = ""200""></p>","","","","","","","","","","","",""
"","325.310000218451","sequential-stimulus-presentation","209","325384","0.0-41.0-1.1","SS1613168368790","trial","","40","800","1125.310000218451","images/stimuli/spore_stims/complex_09_B_d.gif","images/stimuli/spore_stims/complex_09_A_d.gif","","","","","11","complex_similar","images/stimuli/spore_stims/complex_09_A_d.gif","middle","","","","",""
"","null","html-keyboard-response","210","326308","0.0-41.0-0.2","SS1613168368790","","","null","","","","","<p><img src= images/blank.png width =""200"" height = ""200"" style = ""float:right""></p><p><img src=images/blank.png width =""800"" height = ""200""></p>","","","","","","","","","","","",""
"","250.5300003103912","sequential-stimulus-presentation","211","327381","0.0-41.0-1.2","SS1613168368790","trial","","40","800","1050.5300003103912","images/stimuli/spore_stims/complex_09_B_d.gif","images/stimuli/spore_stims/complex_09_A_d.gif","","","","","11","complex_similar","images/stimuli/spore_stims/complex_09_A_d.gif","middle","","","","",""
"","null","html-keyboard-response","212","328288","0.0-41.0-0.3","SS1613168368790","","","null","","","","","<p><img src= images/blank.png width =""200"" height = ""200"" style = ""float:right""></p><p><img src=images/blank.png width =""800"" height = ""200""></p>","","","","","","","","","","","",""
"","96.10500000417233","sequential-stimulus-presentation","213","329207","0.0-41.0-1.3","SS1613168368790","trial","","40","800","896.1050000041723","images/stimuli/spore_stims/complex_09_B_d.gif","images/stimuli/spore_stims/complex_09_A_d.gif","","","","","11","complex_similar","images/stimuli/spore_stims/complex_09_A_d.gif","middle","","","","",""
"","null","html-keyboard-response","214","330524","0.0-41.0-0.4","SS1613168368790","","","null","","","","","<p><img src= images/blank.png width =""200"" height = ""200"" style = ""float:right""></p><p><img src=images/blank.png width =""800"" height = ""200""></p>","","","","","","","","","","","",""
"","104.52500032261014","sequential-stimulus-presentation","215","331445","0.0-41.0-1.4","SS1613168368790","trial","","40","800","904.5250003226101","images/stimuli/spore_stims/complex_09_B_d.gif","images/stimuli/spore_stims/complex_09_A_d.gif","","","","","11","complex_similar","images/stimuli/spore_stims/complex_09_A_d.gif","middle","","","","",""
"","null","html-keyboard-response","216","332471","0.0-41.0-0.5","SS1613168368790","","","null","","","","","<p><img src= images/blank.png width =""200"" height = ""200"" style = ""float:right""></p><p><img src=images/blank.png width =""800"" height = ""200""></p>","","","","","","","","","","","",""
"","280.42999980971217","sequential-stimulus-presentation","217","333563","0.0-41.0-1.5","SS1613168368790","trial","","40","800","1080.4299998097122","images/stimuli/spore_stims/complex_09_B_d.gif","images/stimuli/spore_stims/complex_09_A_d.gif","","","","","11","complex_similar","images/stimuli/spore_stims/complex_09_B_d.gif","right","","","","",""
"","null","html-keyboard-response","218","334516","0.0-41.0-0.6","SS1613168368790","","","null","","","","","<p><img src= images/blank.png width =""200"" height = ""200"" style = ""float:right""></p><p><img src=images/blank.png width =""800"" height = ""200""></p>","","","","","","","","","","","",""
"","42.249999940395355","sequential-stimulus-presentation","219","335381","0.0-41.0-1.6","SS1613168368790","trial","","40","800","842.2499999403954","images/stimuli/spore_stims/complex_09_B_d.gif","images/stimuli/spore_stims/complex_09_A_d.gif","","","","","11","complex_similar","images/stimuli/spore_stims/complex_09_A_d.gif","middle","","","","",""
"","null","html-keyboard-response","220","336346","0.0-41.0-0.7","SS1613168368790","","","null","","","","","<p><img src= images/blank.png width =""200"" height = ""200"" style = ""float:right""></p><p><img src=images/blank.png width =""800"" height = ""200""></p>","","","","","","","","","","","",""
"","346.7149999924004","sequential-stimulus-presentation","221","337512","0.0-41.0-1.7","SS1613168368790","trial","","40","800","1146.7149999924004","images/stimuli/spore_stims/complex_09_B_d.gif","images/stimuli/spore_stims/complex_09_A_d.gif","","","","","11","complex_similar","images/stimuli/spore_stims/complex_09_A_d.gif","middle","","","","",""
"","1796.7550000175834","html-keyboard-response","222","339331","0.0-42.0","SS1613168368790","pref_question","","50","","","","","<video width ='960' height = '540' style='padding-top:8%' autoplay muted><source src='images/stimuli/wall_pref.mp4' type='video/mp4'></video>","2","middle","45%","11","","","","","","","",""
"","224.65500002726912","sequential-stimulus-presentation","223","340383","0.0-43.0","SS1613168368790","pref_reveal","","40","800","1024.6550000272691","null","null","","","","","11","","","","background","","","",""
"","null","html-keyboard-response","224","341511","0.0-44.0-0.0","SS1613168368790","","","null","","","","","<p><img src= images/blank.png width =""200"" height = ""200"" style = ""float:right""></p><p><img src=images/blank.png width =""800"" height = ""200""></p>","","","","","","","","","","","",""
"","528.5749998874962","sequential-stimulus-presentation","225","342890","0.0-44.0-1.0","SS1613168368790","trial","","40","800","1328.5749998874962","images/stimuli/spore_stims/complex_19_B_b.gif","images/stimuli/spore_stims/complex_19_A_b.gif","","","","","12","complex_similar","images/stimuli/spore_stims/complex_19_A_b.gif","right","","","","",""
"","null","html-keyboard-response","226","343926","0.0-44.0-0.1","SS1613168368790","","","null","","","","","<p><img src= images/blank.png width =""200"" height = ""200"" style = ""float:right""></p><p><img src=images/blank.png width =""800"" height = ""200""></p>","","","","","","","","","","","",""
"","241.44000001251698","sequential-stimulus-presentation","227","344992","0.0-44.0-1.1","SS1613168368790","trial","","40","800","1041.440000012517","images/stimuli/spore_stims/complex_19_B_b.gif","images/stimuli/spore_stims/complex_19_A_b.gif","","","","","12","complex_similar","images/stimuli/spore_stims/complex_19_A_b.gif","right","","","","",""
"","null","html-keyboard-response","228","346145","0.0-44.0-0.2","SS1613168368790","","","null","","","","","<p><img src= images/blank.png width =""200"" height = ""200"" style = ""float:right""></p><p><img src=images/blank.png width =""800"" height = ""200""></p>","","","","","","","","","","","",""
"","327.7300000190735","sequential-stimulus-presentation","229","347295","0.0-44.0-1.2","SS1613168368790","trial","","40","800","1127.7300000190735","images/stimuli/spore_stims/complex_19_B_b.gif","images/stimuli/spore_stims/complex_19_A_b.gif","","","","","12","complex_similar","images/stimuli/spore_stims/complex_19_A_b.gif","right","","","","",""
"","null","html-keyboard-response","230","348342","0.0-44.0-0.3","SS1613168368790","","","null","","","","","<p><img src= images/blank.png width =""200"" height = ""200"" style = ""float:right""></p><p><img src=images/blank.png width =""800"" height = ""200""></p>","","","","","","","","","","","",""
"","46.78500024601817","sequential-stimulus-presentation","231","349225","0.0-44.0-1.3","SS1613168368790","trial","","40","800","846.7850002460182","images/stimuli/spore_stims/complex_19_B_b.gif","images/stimuli/spore_stims/complex_19_A_b.gif","","","","","12","complex_similar","images/stimuli/spore_stims/complex_19_A_b.gif","right","","","","",""
"","null","html-keyboard-response","232","350127","0.0-44.0-0.4","SS1613168368790","","","null","","","","","<p><img src= images/blank.png width =""200"" height = ""200"" style = ""float:right""></p><p><img src=images/blank.png width =""800"" height = ""200""></p>","","","","","","","","","","","",""
"","57.994999922811985","sequential-stimulus-presentation","233","351016","0.0-44.0-1.4","SS1613168368790","trial","","40","800","857.994999922812","images/stimuli/spore_stims/complex_19_B_b.gif","images/stimuli/spore_stims/complex_19_A_b.gif","","","","","12","complex_similar","images/stimuli/spore_stims/complex_19_A_b.gif","right","","","","",""
"","null","html-keyboard-response","234","352035","0.0-44.0-0.5","SS1613168368790","","","null","","","","","<p><img src= images/blank.png width =""200"" height = ""200"" style = ""float:right""></p><p><img src=images/blank.png width =""800"" height = ""200""></p>","","","","","","","","","","","",""
"","5.824999883770943","sequential-stimulus-presentation","235","352884","0.0-44.0-1.5","SS1613168368790","trial","","40","800","805.8249998837709","images/stimuli/spore_stims/complex_19_B_b.gif","images/stimuli/spore_stims/complex_19_A_b.gif","","","","","12","complex_similar","images/stimuli/spore_stims/complex_19_B_b.gif","middle","","","","",""
"","null","html-keyboard-response","236","354000","0.0-44.0-0.6","SS1613168368790","","","null","","","","","<p><img src= images/blank.png width =""200"" height = ""200"" style = ""float:right""></p><p><img src=images/blank.png width =""800"" height = ""200""></p>","","","","","","","","","","","",""
"","26.215000078082085","sequential-stimulus-presentation","237","354857","0.0-44.0-1.6","SS1613168368790","trial","","40","800","826.2150000780821","images/stimuli/spore_stims/complex_19_B_b.gif","images/stimuli/spore_stims/complex_19_A_b.gif","","","","","12","complex_similar","images/stimuli/spore_stims/complex_19_A_b.gif","right","","","","",""
"","null","html-keyboard-response","238","355677","0.0-44.0-0.7","SS1613168368790","","","null","","","","","<p><img src= images/blank.png width =""200"" height = ""200"" style = ""float:right""></p><p><img src=images/blank.png width =""800"" height = ""200""></p>","","","","","","","","","","","",""
"","286.5349999628961","sequential-stimulus-presentation","239","356781","0.0-44.0-1.7","SS1613168368790","trial","","40","800","1086.534999962896","images/stimuli/spore_stims/complex_19_B_b.gif","images/stimuli/spore_stims/complex_19_A_b.gif","","","","","12","complex_similar","images/stimuli/spore_stims/complex_19_A_b.gif","right","","","","",""
"","1225.8850000798702","html-keyboard-response","240","358021","0.0-45.0","SS1613168368790","pref_question","","49","","","","","<video width ='960' height = '540' style='padding-top:8%' autoplay muted><source src='images/stimuli/wall_pref.mp4' type='video/mp4'></video>","1","left","25%","12","","","","","","","",""
"","231.87000025063753","sequential-stimulus-presentation","241","359077","0.0-46.0","SS1613168368790","pref_reveal","","40","800","1031.8700002506375","null","null","","","","","12","","","","novel","","","",""
"","null","html-keyboard-response","242","359956","0.0-47.0-0.0","SS1613168368790","","","null","","","","","<p><img src= images/blank.png width =""200"" height = ""200"" style = ""float:right""></p><p><img src=images/blank.png width =""800"" height = ""200""></p>","","","","","","","","","","","",""
"","113.55500016361475","sequential-stimulus-presentation","243","360895","0.0-47.0-1.0","SS1613168368790","trial","","40","800","913.5550001636147","images/stimuli/spore_stims/complex_07_B_a.gif","images/stimuli/spore_stims/complex_17_B_d.gif","","","","","13","complex_dissimilar","images/stimuli/spore_stims/complex_17_B_d.gif","left","","","","",""
"","null","html-keyboard-response","244","361907","0.0-47.0-0.1","SS1613168368790","","","null","","","","","<p><img src= images/blank.png width =""200"" height = ""200"" style = ""float:right""></p><p><img src=images/blank.png width =""800"" height = ""200""></p>","","","","","","","","","","","",""
"","273.6149998381734","sequential-stimulus-presentation","245","363045","0.0-47.0-1.1","SS1613168368790","trial","","40","800","1073.6149998381734","images/stimuli/spore_stims/complex_07_B_a.gif","images/stimuli/spore_stims/complex_17_B_d.gif","","","","","13","complex_dissimilar","images/stimuli/spore_stims/complex_17_B_d.gif","left","","","","",""
"","null","html-keyboard-response","246","364133","0.0-47.0-0.2","SS1613168368790","","","null","","","","","<p><img src= images/blank.png width =""200"" height = ""200"" style = ""float:right""></p><p><img src=images/blank.png width =""800"" height = ""200""></p>","","","","","","","","","","","",""
"","259.2249996960163","sequential-stimulus-presentation","247","365222","0.0-47.0-1.2","SS1613168368790","trial","","40","800","1059.2249996960163","images/stimuli/spore_stims/complex_07_B_a.gif","images/stimuli/spore_stims/complex_17_B_d.gif","","","","","13","complex_dissimilar","images/stimuli/spore_stims/complex_17_B_d.gif","left","","","","",""
"","null","html-keyboard-response","248","366132","0.0-47.0-0.3","SS1613168368790","","","null","","","","","<p><img src= images/blank.png width =""200"" height = ""200"" style = ""float:right""></p><p><img src=images/blank.png width =""800"" height = ""200""></p>","","","","","","","","","","","",""
"","209.585000295192","sequential-stimulus-presentation","249","367185","0.0-47.0-1.3","SS1613168368790","trial","","40","800","1009.585000295192","images/stimuli/spore_stims/complex_07_B_a.gif","images/stimuli/spore_stims/complex_17_B_d.gif","","","","","13","complex_dissimilar","images/stimuli/spore_stims/complex_17_B_d.gif","left","","","","",""
"","null","html-keyboard-response","250","368404","0.0-47.0-0.4","SS1613168368790","","","null","","","","","<p><img src= images/blank.png width =""200"" height = ""200"" style = ""float:right""></p><p><img src=images/blank.png width =""800"" height = ""200""></p>","","","","","","","","","","","",""
"","292.0349999330938","sequential-stimulus-presentation","251","369515","0.0-47.0-1.4","SS1613168368790","trial","","40","800","1092.0349999330938","images/stimuli/spore_stims/complex_07_B_a.gif","images/stimuli/spore_stims/complex_17_B_d.gif","","","","","13","complex_dissimilar","images/stimuli/spore_stims/complex_17_B_d.gif","left","","","","",""
"","null","html-keyboard-response","252","370655","0.0-47.0-0.5","SS1613168368790","","","null","","","","","<p><img src= images/blank.png width =""200"" height = ""200"" style = ""float:right""></p><p><img src=images/blank.png width =""800"" height = ""200""></p>","","","","","","","","","","","",""
"","357.4449997395277","sequential-stimulus-presentation","253","371833","0.0-47.0-1.5","SS1613168368790","trial","","40","800","1157.4449997395277","images/stimuli/spore_stims/complex_07_B_a.gif","images/stimuli/spore_stims/complex_17_B_d.gif","","","","","13","complex_dissimilar","images/stimuli/spore_stims/complex_17_B_d.gif","left","","","","",""
"","null","html-keyboard-response","254","372682","0.0-47.0-0.6","SS1613168368790","","","null","","","","","<p><img src= images/blank.png width =""200"" height = ""200"" style = ""float:right""></p><p><img src=images/blank.png width =""800"" height = ""200""></p>","","","","","","","","","","","",""
"","1.4749998226761818","sequential-stimulus-presentation","255","373527","0.0-47.0-1.6","SS1613168368790","trial","","40","800","801.4749998226762","images/stimuli/spore_stims/complex_07_B_a.gif","images/stimuli/spore_stims/complex_17_B_d.gif","","","","","13","complex_dissimilar","images/stimuli/spore_stims/complex_07_B_a.gif","right","","","","",""
"","null","html-keyboard-response","256","374398","0.0-47.0-0.7","SS1613168368790","","","null","","","","","<p><img src= images/blank.png width =""200"" height = ""200"" style = ""float:right""></p><p><img src=images/blank.png width =""800"" height = ""200""></p>","","","","","","","","","","","",""
"","67.7249999716878","sequential-stimulus-presentation","257","375289","0.0-47.0-1.7","SS1613168368790","trial","","40","800","867.7249999716878","images/stimuli/spore_stims/complex_07_B_a.gif","images/stimuli/spore_stims/complex_17_B_d.gif","","","","","13","complex_dissimilar","images/stimuli/spore_stims/complex_17_B_d.gif","left","","","","",""
"","2142.634999938309","html-keyboard-response","258","377502","0.0-48.0","SS1613168368790","pref_question","","51","","","","","<video width ='960' height = '540' style='padding-top:8%' autoplay muted><source src='images/stimuli/wall_pref.mp4' type='video/mp4'></video>","3","right","66%","13","","","","","","","",""
"","243.19000029936433","sequential-stimulus-presentation","259","378570","0.0-49.0","SS1613168368790","pref_reveal","","40","800","1043.1900002993643","null","null","","","","","13","","","","deviant","","","",""
"","null","html-keyboard-response","260","379740","0.0-50.0-0.0","SS1613168368790","","","null","","","","","<p><img src= images/blank.png width =""200"" height = ""200"" style = ""float:right""></p><p><img src=images/blank.png width =""800"" height = ""200""></p>","","","","","","","","","","","",""
"","55.530000012367964","sequential-stimulus-presentation","261","380633","0.0-50.0-1.0","SS1613168368790","trial","","40","800","855.530000012368","images/stimuli/spore_stims/simple_19_A_c.gif","images/stimuli/spore_stims/simple_19_B_c.gif","","","","","14","simple_similar","images/stimuli/spore_stims/simple_19_B_c.gif","left","","","","",""
"","null","html-keyboard-response","262","381831","0.0-50.0-0.1","SS1613168368790","","","null","","","","","<p><img src= images/blank.png width =""200"" height = ""200"" style = ""float:right""></p><p><img src=images/blank.png width =""800"" height = ""200""></p>","","","","","","","","","","","",""
"","51.94999976083636","sequential-stimulus-presentation","263","382711","0.0-50.0-1.1","SS1613168368790","trial","","40","800","851.9499997608364","images/stimuli/spore_stims/simple_19_A_c.gif","images/stimuli/spore_stims/simple_19_B_c.gif","","","","","14","simple_similar","images/stimuli/spore_stims/simple_19_B_c.gif","left","","","","",""
"","null","html-keyboard-response","264","383916","0.0-50.0-0.2","SS1613168368790","","","null","","","","","<p><img src= images/blank.png width =""200"" height = ""200"" style = ""float:right""></p><p><img src=images/blank.png width =""800"" height = ""200""></p>","","","","","","","","","","","",""
"","67.09500029683113","sequential-stimulus-presentation","265","384824","0.0-50.0-1.2","SS1613168368790","trial","","40","800","867.0950002968311","images/stimuli/spore_stims/simple_19_A_c.gif","images/stimuli/spore_stims/simple_19_B_c.gif","","","","","14","simple_similar","images/stimuli/spore_stims/simple_19_B_c.gif","left","","","","",""
"","null","html-keyboard-response","266","385668","0.0-50.0-0.3","SS1613168368790","","","null","","","","","<p><img src= images/blank.png width =""200"" height = ""200"" style = ""float:right""></p><p><img src=images/blank.png width =""800"" height = ""200""></p>","","","","","","","","","","","",""
"","212.80500013381243","sequential-stimulus-presentation","267","386704","0.0-50.0-1.3","SS1613168368790","trial","","40","800","1012.8050001338124","images/stimuli/spore_stims/simple_19_A_c.gif","images/stimuli/spore_stims/simple_19_B_c.gif","","","","","14","simple_similar","images/stimuli/spore_stims/simple_19_B_c.gif","left","","","","",""
"","null","html-keyboard-response","268","387972","0.0-50.0-0.4","SS1613168368790","","","null","","","","","<p><img src= images/blank.png width =""200"" height = ""200"" style = ""float:right""></p><p><img src=images/blank.png width =""800"" height = ""200""></p>","","","","","","","","","","","",""
"","44.19999988749623","sequential-stimulus-presentation","269","388861","0.0-50.0-1.4","SS1613168368790","trial","","40","800","844.1999998874962","images/stimuli/spore_stims/simple_19_A_c.gif","images/stimuli/spore_stims/simple_19_B_c.gif","","","","","14","simple_similar","images/stimuli/spore_stims/simple_19_B_c.gif","left","","","","",""
"","null","html-keyboard-response","270","389796","0.0-50.0-0.5","SS1613168368790","","","null","","","","","<p><img src= images/blank.png width =""200"" height = ""200"" style = ""float:right""></p><p><img src=images/blank.png width =""800"" height = ""200""></p>","","","","","","","","","","","",""
"","111.52000026777387","sequential-stimulus-presentation","271","390728","0.0-50.0-1.5","SS1613168368790","trial","","40","800","911.5200002677739","images/stimuli/spore_stims/simple_19_A_c.gif","images/stimuli/spore_stims/simple_19_B_c.gif","","","","","14","simple_similar","images/stimuli/spore_stims/simple_19_B_c.gif","left","","","","",""
"","null","html-keyboard-response","272","391845","0.0-50.0-0.6","SS1613168368790","","","null","","","","","<p><img src= images/blank.png width =""200"" height = ""200"" style = ""float:right""></p><p><img src=images/blank.png width =""800"" height = ""200""></p>","","","","","","","","","","","",""
"","206.3400000333786","sequential-stimulus-presentation","273","392881","0.0-50.0-1.6","SS1613168368790","trial","","40","800","1006.3400000333786","images/stimuli/spore_stims/simple_19_A_c.gif","images/stimuli/spore_stims/simple_19_B_c.gif","","","","","14","simple_similar","images/stimuli/spore_stims/simple_19_A_c.gif","middle","","","","",""
"","null","html-keyboard-response","274","393945","0.0-50.0-0.7","SS1613168368790","","","null","","","","","<p><img src= images/blank.png width =""200"" height = ""200"" style = ""float:right""></p><p><img src=images/blank.png width =""800"" height = ""200""></p>","","","","","","","","","","","",""
"","152.05999976024032","sequential-stimulus-presentation","275","394936","0.0-50.0-1.7","SS1613168368790","trial","","40","800","952.0599997602403","images/stimuli/spore_stims/simple_19_A_c.gif","images/stimuli/spore_stims/simple_19_B_c.gif","","","","","14","simple_similar","images/stimuli/spore_stims/simple_19_B_c.gif","left","","","","",""
"","2194.920000154525","html-keyboard-response","276","397149","0.0-51.0","SS1613168368790","pref_question","","50","","","","","<video width ='960' height = '540' style='padding-top:8%' autoplay muted><source src='images/stimuli/wall_pref.mp4' type='video/mp4'></video>","2","middle","45%","14","","","","","","","",""
"","273.1399997137487","sequential-stimulus-presentation","277","398243","0.0-52.0","SS1613168368790","pref_reveal","","40","800","1073.1399997137487","null","null","","","","","14","","","","deviant","","","",""
"","null","html-keyboard-response","278","399237","0.0-53.0-0.0","SS1613168368790","","","null","","","","","<p><img src= images/blank.png width =""200"" height = ""200"" style = ""float:right""></p><p><img src=images/blank.png width =""800"" height = ""200""></p>","","","","","","","","","","","",""
"","142.33499998226762","sequential-stimulus-presentation","279","400266","0.0-53.0-1.0","SS1613168368790","trial","","40","800","942.3349999822676","images/stimuli/spore_stims/simple_11_B_d.gif","images/stimuli/spore_stims/simple_03_A_c.gif","","","","","15","simple_dissimilar","images/stimuli/spore_stims/simple_03_A_c.gif","right","","","","",""
"","null","html-keyboard-response","280","401328","0.0-53.0-0.1","SS1613168368790","","","null","","","","","<p><img src= images/blank.png width =""200"" height = ""200"" style = ""float:right""></p><p><img src=images/blank.png width =""800"" height = ""200""></p>","","","","","","","","","","","",""
"","155.7200001552701","sequential-stimulus-presentation","281","402311","0.0-53.0-1.1","SS1613168368790","trial","","40","800","955.7200001552701","images/stimuli/spore_stims/simple_11_B_d.gif","images/stimuli/spore_stims/simple_03_A_c.gif","","","","","15","simple_dissimilar","images/stimuli/spore_stims/simple_03_A_c.gif","right","","","","",""
"","null","html-keyboard-response","282","403552","0.0-53.0-0.2","SS1613168368790","","","null","","","","","<p><img src= images/blank.png width =""200"" height = ""200"" style = ""float:right""></p><p><img src=images/blank.png width =""800"" height = ""200""></p>","","","","","","","","","","","",""
"","331.6750000230968","sequential-stimulus-presentation","283","404723","0.0-53.0-1.2","SS1613168368790","trial","","40","800","1131.6750000230968","images/stimuli/spore_stims/simple_11_B_d.gif","images/stimuli/spore_stims/simple_03_A_c.gif","","","","","15","simple_dissimilar","images/stimuli/spore_stims/simple_03_A_c.gif","right","","","","",""
"","null","html-keyboard-response","284","405822","0.0-53.0-0.3","SS1613168368790","","","null","","","","","<p><img src= images/blank.png width =""200"" height = ""200"" style = ""float:right""></p><p><img src=images/blank.png width =""800"" height = ""200""></p>","","","","","","","","","","","",""
"","98.96000009030104","sequential-stimulus-presentation","285","406735","0.0-53.0-1.3","SS1613168368790","trial","","40","800","898.960000090301","images/stimuli/spore_stims/simple_11_B_d.gif","images/stimuli/spore_stims/simple_03_A_c.gif","","","","","15","simple_dissimilar","images/stimuli/spore_stims/simple_11_B_d.gif","middle","","","","",""
"","null","html-keyboard-response","286","407706","0.0-53.0-0.4","SS1613168368790","","","null","","","","","<p><img src= images/blank.png width =""200"" height = ""200"" style = ""float:right""></p><p><img src=images/blank.png width =""800"" height = ""200""></p>","","","","","","","","","","","",""
"","282.4250003322959","sequential-stimulus-presentation","287","408888","0.0-53.0-1.4","SS1613168368790","trial","","40","800","1082.425000332296","images/stimuli/spore_stims/simple_11_B_d.gif","images/stimuli/spore_stims/simple_03_A_c.gif","","","","","15","simple_dissimilar","images/stimuli/spore_stims/simple_03_A_c.gif","right","","","","",""
"","null","html-keyboard-response","288","409824","0.0-53.0-0.5","SS1613168368790","","","null","","","","","<p><img src= images/blank.png width =""200"" height = ""200"" style = ""float:right""></p><p><img src=images/blank.png width =""800"" height = ""200""></p>","","","","","","","","","","","",""
"","333.6950000375509","sequential-stimulus-presentation","289","410973","0.0-53.0-1.5","SS1613168368790","trial","","40","800","1133.695000037551","images/stimuli/spore_stims/simple_11_B_d.gif","images/stimuli/spore_stims/simple_03_A_c.gif","","","","","15","simple_dissimilar","images/stimuli/spore_stims/simple_03_A_c.gif","right","","","","",""
"","null","html-keyboard-response","290","411948","0.0-53.0-0.6","SS1613168368790","","","null","","","","","<p><img src= images/blank.png width =""200"" height = ""200"" style = ""float:right""></p><p><img src=images/blank.png width =""800"" height = ""200""></p>","","","","","","","","","","","",""
"","258.95499996840954","sequential-stimulus-presentation","291","413032","0.0-53.0-1.6","SS1613168368790","trial","","40","800","1058.9549999684095","images/stimuli/spore_stims/simple_11_B_d.gif","images/stimuli/spore_stims/simple_03_A_c.gif","","","","","15","simple_dissimilar","images/stimuli/spore_stims/simple_03_A_c.gif","right","","","","",""
"","null","html-keyboard-response","292","414066","0.0-53.0-0.7","SS1613168368790","","","null","","","","","<p><img src= images/blank.png width =""200"" height = ""200"" style = ""float:right""></p><p><img src=images/blank.png width =""800"" height = ""200""></p>","","","","","","","","","","","",""
"","177.37000016495585","sequential-stimulus-presentation","293","415083","0.0-53.0-1.7","SS1613168368790","trial","","40","800","977.3700001649559","images/stimuli/spore_stims/simple_11_B_d.gif","images/stimuli/spore_stims/simple_03_A_c.gif","","","","","15","simple_dissimilar","images/stimuli/spore_stims/simple_03_A_c.gif","right","","","","",""
"","1478.1800000928342","html-keyboard-response","294","416581","0.0-54.0","SS1613168368790","pref_question","","51","","","","","<video width ='960' height = '540' style='padding-top:8%' autoplay muted><source src='images/stimuli/wall_pref.mp4' type='video/mp4'></video>","3","right","66%","15","","","","","","","",""
"","260.88499976322055","sequential-stimulus-presentation","295","417679","0.0-55.0","SS1613168368790","pref_reveal","","40","800","1060.8849997632205","null","null","","","","","15","","","","background","","","",""
"","null","html-keyboard-response","296","418814","0.0-56.0-0.0","SS1613168368790","","","null","","","","","<p><img src= images/blank.png width =""200"" height = ""200"" style = ""float:right""></p><p><img src=images/blank.png width =""800"" height = ""200""></p>","","","","","","","","","","","",""
"","0.7400000467896461","sequential-stimulus-presentation","297","419632","0.0-56.0-1.0","SS1613168368790","trial","","40","800","800.7400000467896","images/stimuli/spore_stims/simple_07_A_b.gif","images/stimuli/spore_stims/simple_10_B_d.gif","","","","","16","simple_dissimilar","images/stimuli/spore_stims/simple_10_B_d.gif","right","","","","",""
"","null","html-keyboard-response","298","420539","0.0-56.0-0.1","SS1613168368790","","","null","","","","","<p><img src= images/blank.png width =""200"" height = ""200"" style = ""float:right""></p><p><img src=images/blank.png width =""800"" height = ""200""></p>","","","","","","","","","","","",""
"","103.51999988779426","sequential-stimulus-presentation","299","421476","0.0-56.0-1.1","SS1613168368790","trial","","40","800","903.5199998877943","images/stimuli/spore_stims/simple_07_A_b.gif","images/stimuli/spore_stims/simple_10_B_d.gif","","","","","16","simple_dissimilar","images/stimuli/spore_stims/simple_10_B_d.gif","right","","","","",""
"","null","html-keyboard-response","300","422526","0.0-56.0-0.2","SS1613168368790","","","null","","","","","<p><img src= images/blank.png width =""200"" height = ""200"" style = ""float:right""></p><p><img src=images/blank.png width =""800"" height = ""200""></p>","","","","","","","","","","","",""
"","219.26000015810132","sequential-stimulus-presentation","301","423560","0.0-56.0-1.2","SS1613168368790","trial","","40","800","1019.2600001581013","images/stimuli/spore_stims/simple_07_A_b.gif","images/stimuli/spore_stims/simple_10_B_d.gif","","","","","16","simple_dissimilar","images/stimuli/spore_stims/simple_10_B_d.gif","right","","","","",""
"","null","html-keyboard-response","302","424589","0.0-56.0-0.3","SS1613168368790","","","null","","","","","<p><img src= images/blank.png width =""200"" height = ""200"" style = ""float:right""></p><p><img src=images/blank.png width =""800"" height = ""200""></p>","","","","","","","","","","","",""
"","287.71999990567565","sequential-stimulus-presentation","303","425707","0.0-56.0-1.3","SS1613168368790","trial","","40","800","1087.7199999056756","images/stimuli/spore_stims/simple_07_A_b.gif","images/stimuli/spore_stims/simple_10_B_d.gif","","","","","16","simple_dissimilar","images/stimuli/spore_stims/simple_10_B_d.gif","right","","","","",""
"","null","html-keyboard-response","304","426727","0.0-56.0-0.4","SS1613168368790","","","null","","","","","<p><img src= images/blank.png width =""200"" height = ""200"" style = ""float:right""></p><p><img src=images/blank.png width =""800"" height = ""200""></p>","","","","","","","","","","","",""
"","279.8500000499189","sequential-stimulus-presentation","305","427857","0.0-56.0-1.4","SS1613168368790","trial","","40","800","1079.850000049919","images/stimuli/spore_stims/simple_07_A_b.gif","images/stimuli/spore_stims/simple_10_B_d.gif","","","","","16","simple_dissimilar","images/stimuli/spore_stims/simple_10_B_d.gif","right","","","","",""
"","null","html-keyboard-response","306","429107","0.0-56.0-0.5","SS1613168368790","","","null","","","","","<p><img src= images/blank.png width =""200"" height = ""200"" style = ""float:right""></p><p><img src=images/blank.png width =""800"" height = ""200""></p>","","","","","","","","","","","",""
"","26.54500026255846","sequential-stimulus-presentation","307","429954","0.0-56.0-1.5","SS1613168368790","trial","","40","800","826.5450002625585","images/stimuli/spore_stims/simple_07_A_b.gif","images/stimuli/spore_stims/simple_10_B_d.gif","","","","","16","simple_dissimilar","images/stimuli/spore_stims/simple_10_B_d.gif","right","","","","",""
"","null","html-keyboard-response","308","430868","0.0-56.0-0.6","SS1613168368790","","","null","","","","","<p><img src= images/blank.png width =""200"" height = ""200"" style = ""float:right""></p><p><img src=images/blank.png width =""800"" height = ""200""></p>","","","","","","","","","","","",""
"","652.9200002551079","sequential-stimulus-presentation","309","432336","0.0-56.0-1.6","SS1613168368790","trial","","40","800","1452.9200002551079","images/stimuli/spore_stims/simple_07_A_b.gif","images/stimuli/spore_stims/simple_10_B_d.gif","","","","","16","simple_dissimilar","images/stimuli/spore_stims/simple_07_A_b.gif","left","","","","",""
"","null","html-keyboard-response","310","433606","0.0-56.0-0.7","SS1613168368790","","","null","","","","","<p><img src= images/blank.png width =""200"" height = ""200"" style = ""float:right""></p><p><img src=images/blank.png width =""800"" height = ""200""></p>","","","","","","","","","","","",""
"","212.4899998307228","sequential-stimulus-presentation","311","434639","0.0-56.0-1.7","SS1613168368790","trial","","40","800","1012.4899998307228","images/stimuli/spore_stims/simple_07_A_b.gif","images/stimuli/spore_stims/simple_10_B_d.gif","","","","","16","simple_dissimilar","images/stimuli/spore_stims/simple_10_B_d.gif","right","","","","",""
"","1441.2799999117851","html-keyboard-response","312","436104","0.0-57.0","SS1613168368790","pref_question","","49","","","","","<video width ='960' height = '540' style='padding-top:8%' autoplay muted><source src='images/stimuli/wall_pref.mp4' type='video/mp4'></video>","1","left","25%","16","","","","","","","",""
