"view_history","rt","trial_type","trial_index","time_elapsed","internal_node_id","subject","stimulus_type","trial_stimulus","key_press","minimum_viewing_duration","trial_looking_time","block_deviant","block_background","stimulus","wall_pref","location","location_percent","block_number","block_type","stimulus_displayed","position_displayed","stim_type_selected","responses","question_order","stimulus_left","stimulus_right"
"[{""page_index"":0,""viewing_time"":1711.4500000607222}]","1711.8049999698997","instructions","0","1715","0.0-0.0","SS1613082078376","","","","","","","","","","","","","","","","","","","",""
"[{""page_index"":0,""viewing_time"":8119.454999919981},{""page_index"":1,""viewing_time"":3003.114999970421}]","11122.804999817163","instructions","1","14841","0.0-1.0","SS1613082078376","instructions","","","","","","","","","","","","","","","","","","",""
"","5929.615000030026","sequential-stimulus-presentation","2","21577","0.0-2.0","SS1613082078376","","","40","800","6729.615000030026","null","null","","","","","","","","","","","","",""
"","1284.6800000406802","sequential-stimulus-presentation","3","23671","0.0-3.0","SS1613082078376","","","40","800","2084.68000004068","null","null","","","","","","","","","","","","",""
"[{""page_index"":0,""viewing_time"":3070.6450000870973}]","3070.8149999845773","instructions","4","26743","0.0-4.0","SS1613082078376","instructions","","","","","","","","","","","","","","","","","","",""
"","6986.99999996461","html-keyboard-response","5","33733","0.0-5.0","SS1613082078376","instructions","","51","","","","","<video width ='960' height = '540' autoplay muted><source src='images/stimuli/wall_pref.mp4' type='video/mp4'></video>","3","right","66%","","","","","","","","",""
"","1314.4600000232458","sequential-stimulus-presentation","6","35852","0.0-6.0","SS1613082078376","pref_reveal","","40","800","2114.460000023246","null","null","","","","","","","","","","","","",""
"[{""page_index"":0,""viewing_time"":13740.125000011176},{""page_index"":1,""viewing_time"":5344.72499997355},{""page_index"":2,""viewing_time"":1440.3499998152256},{""page_index"":3,""viewing_time"":742.0900000724941}]","21267.56999990903","instructions","7","57121","0.0-7.0","SS1613082078376","instructions","","","","","","","","","","","","","","","","","","",""
"","null","html-keyboard-response","8","58231","0.0-8.0-0.0","SS1613082078376","","","null","","","","","<p><img src= images/blank.png width =""200"" height = ""200"" style = ""float:right""></p><p><img src=images/blank.png width =""800"" height = ""200""></p>","","","","","","","","","","","",""
"","1857.0049998816103","sequential-stimulus-presentation","9","60894","0.0-8.0-1.0","SS1613082078376","trial","","40","800","2657.0049998816103","images/stimuli/spore_stims/simple_13_A_d.gif","images/stimuli/spore_stims/simple_09_B_a.gif","","","","","0","simple_dissimilar","images/stimuli/spore_stims/simple_09_B_a.gif","right","","","","",""
"","null","html-keyboard-response","10","62164","0.0-8.0-0.1","SS1613082078376","","","null","","","","","<p><img src= images/blank.png width =""200"" height = ""200"" style = ""float:right""></p><p><img src=images/blank.png width =""800"" height = ""200""></p>","","","","","","","","","","","",""
"","2095.9850000217557","sequential-stimulus-presentation","11","65063","0.0-8.0-1.1","SS1613082078376","trial","","40","800","2895.9850000217557","images/stimuli/spore_stims/simple_13_A_d.gif","images/stimuli/spore_stims/simple_09_B_a.gif","","","","","0","simple_dissimilar","images/stimuli/spore_stims/simple_09_B_a.gif","right","","","","",""
"","null","html-keyboard-response","12","66658","0.0-8.0-0.2","SS1613082078376","","","null","","","","","<p><img src= images/blank.png width =""200"" height = ""200"" style = ""float:right""></p><p><img src=images/blank.png width =""800"" height = ""200""></p>","","","","","","","","","","","",""
"","624.0799999795854","sequential-stimulus-presentation","13","68237","0.0-8.0-1.2","SS1613082078376","trial","","40","800","1424.0799999795854","images/stimuli/spore_stims/simple_13_A_d.gif","images/stimuli/spore_stims/simple_09_B_a.gif","","","","","0","simple_dissimilar","images/stimuli/spore_stims/simple_09_B_a.gif","right","","","","",""
"","null","html-keyboard-response","14","69073","0.0-8.0-0.3","SS1613082078376","","","null","","","","","<p><img src= images/blank.png width =""200"" height = ""200"" style = ""float:right""></p><p><img src=images/blank.png width =""800"" height = ""200""></p>","","","","","","","","","","","",""
"","1975.8099999744445","sequential-stimulus-presentation","15","71855","0.0-8.0-1.3","SS1613082078376","trial","","40","800","2775.8099999744445","images/stimuli/spore_stims/simple_13_A_d.gif","images/stimuli/spore_stims/simple_09_B_a.gif","","","","","0","simple_dissimilar","images/stimuli/spore_stims/simple_09_B_a.gif","right","","","","",""
"","null","html-keyboard-response","16","72896","0.0-8.0-0.4","SS1613082078376","","","null","","","","","<p><img src= images/blank.png width =""200"" height = ""200"" style = ""float:right""></p><p><img src=images/blank.png width =""800"" height = ""200""></p>","","","","","","","","","","","",""
"","848.6699999775738","sequential-stimulus-presentation","17","74551","0.0-8.0-1.4","SS1613082078376","trial","","40","800","1648.6699999775738","images/stimuli/spore_stims/simple_13_A_d.gif","images/stimuli/spore_stims/simple_09_B_a.gif","","","","","0","simple_dissimilar","images/stimuli/spore_stims/simple_09_B_a.gif","right","","","","",""
"","null","html-keyboard-response","18","75622","0.0-8.0-0.5","SS1613082078376","","","null","","","","","<p><img src= images/blank.png width =""200"" height = ""200"" style = ""float:right""></p><p><img src=images/blank.png width =""800"" height = ""200""></p>","","","","","","","","","","","",""
"","1236.7450001183897","sequential-stimulus-presentation","19","77667","0.0-8.0-1.5","SS1613082078376","trial","","40","800","2036.7450001183897","images/stimuli/spore_stims/simple_13_A_d.gif","images/stimuli/spore_stims/simple_09_B_a.gif","","","","","0","simple_dissimilar","images/stimuli/spore_stims/simple_09_B_a.gif","right","","","","",""
"","null","html-keyboard-response","20","78942","0.0-8.0-0.6","SS1613082078376","","","null","","","","","<p><img src= images/blank.png width =""200"" height = ""200"" style = ""float:right""></p><p><img src=images/blank.png width =""800"" height = ""200""></p>","","","","","","","","","","","",""
"","2444.8049999773502","sequential-stimulus-presentation","21","82194","0.0-8.0-1.6","SS1613082078376","trial","","40","800","3244.8049999773502","images/stimuli/spore_stims/simple_13_A_d.gif","images/stimuli/spore_stims/simple_09_B_a.gif","","","","","0","simple_dissimilar","images/stimuli/spore_stims/simple_13_A_d.gif","middle","","","","",""
"","null","html-keyboard-response","22","83299","0.0-8.0-0.7","SS1613082078376","","","null","","","","","<p><img src= images/blank.png width =""200"" height = ""200"" style = ""float:right""></p><p><img src=images/blank.png width =""800"" height = ""200""></p>","","","","","","","","","","","",""
"","1665.0249999947846","sequential-stimulus-presentation","23","85773","0.0-8.0-1.7","SS1613082078376","trial","","40","800","2465.0249999947846","images/stimuli/spore_stims/simple_13_A_d.gif","images/stimuli/spore_stims/simple_09_B_a.gif","","","","","0","simple_dissimilar","images/stimuli/spore_stims/simple_09_B_a.gif","right","","","","",""
"","1709.6599999349564","html-keyboard-response","24","87486","0.0-9.0","SS1613082078376","pref_question","","49","","","","","<video width ='960' height = '540' style='padding-top:8%' autoplay muted><source src='images/stimuli/wall_pref.mp4' type='video/mp4'></video>","1","left","25%","0","","","","","","","",""
"","3481.089999899268","sequential-stimulus-presentation","25","91771","0.0-10.0","SS1613082078376","pref_reveal","","40","800","4281.089999899268","null","null","","","","","0","","","","novel","","","",""
"","null","html-keyboard-response","26","92576","0.0-11.0-0.0","SS1613082078376","","","null","","","","","<p><img src= images/blank.png width =""200"" height = ""200"" style = ""float:right""></p><p><img src=images/blank.png width =""800"" height = ""200""></p>","","","","","","","","","","","",""
"","61.465000035241246","sequential-stimulus-presentation","27","93447","0.0-11.0-1.0","SS1613082078376","trial","","40","800","861.4650000352412","images/stimuli/spore_stims/complex_18_B_c.gif","images/stimuli/spore_stims/complex_18_A_c.gif","","","","","1","complex_similar","images/stimuli/spore_stims/complex_18_A_c.gif","right","","","","",""
"","null","html-keyboard-response","28","94477","0.0-11.0-0.1","SS1613082078376","","","null","","","","","<p><img src= images/blank.png width =""200"" height = ""200"" style = ""float:right""></p><p><img src=images/blank.png width =""800"" height = ""200""></p>","","","","","","","","","","","",""
"","2030.629999935627","sequential-stimulus-presentation","29","97313","0.0-11.0-1.1","SS1613082078376","trial","","40","800","2830.629999935627","images/stimuli/spore_stims/complex_18_B_c.gif","images/stimuli/spore_stims/complex_18_A_c.gif","","","","","1","complex_similar","images/stimuli/spore_stims/complex_18_A_c.gif","right","","","","",""
"","null","html-keyboard-response","30","98355","0.0-11.0-0.2","SS1613082078376","","","null","","","","","<p><img src= images/blank.png width =""200"" height = ""200"" style = ""float:right""></p><p><img src=images/blank.png width =""800"" height = ""200""></p>","","","","","","","","","","","",""
"","2972.7300000377","sequential-stimulus-presentation","31","102139","0.0-11.0-1.2","SS1613082078376","trial","","40","800","3772.7300000377","images/stimuli/spore_stims/complex_18_B_c.gif","images/stimuli/spore_stims/complex_18_A_c.gif","","","","","1","complex_similar","images/stimuli/spore_stims/complex_18_B_c.gif","left","","","","",""
"","null","html-keyboard-response","32","103148","0.0-11.0-0.3","SS1613082078376","","","null","","","","","<p><img src= images/blank.png width =""200"" height = ""200"" style = ""float:right""></p><p><img src=images/blank.png width =""800"" height = ""200""></p>","","","","","","","","","","","",""
"","32038.60000008717","sequential-stimulus-presentation","33","135992","0.0-11.0-1.3","SS1613082078376","trial","","40","800","32838.60000008717","images/stimuli/spore_stims/complex_18_B_c.gif","images/stimuli/spore_stims/complex_18_A_c.gif","","","","","1","complex_similar","images/stimuli/spore_stims/complex_18_A_c.gif","right","","","","",""
"","null","html-keyboard-response","34","137267","0.0-11.0-0.4","SS1613082078376","","","null","","","","","<p><img src= images/blank.png width =""200"" height = ""200"" style = ""float:right""></p><p><img src=images/blank.png width =""800"" height = ""200""></p>","","","","","","","","","","","",""
"","1279.3999998830259","sequential-stimulus-presentation","35","139358","0.0-11.0-1.4","SS1613082078376","trial","","40","800","2079.399999883026","images/stimuli/spore_stims/complex_18_B_c.gif","images/stimuli/spore_stims/complex_18_A_c.gif","","","","","1","complex_similar","images/stimuli/spore_stims/complex_18_A_c.gif","right","","","","",""
"","null","html-keyboard-response","36","140318","0.0-11.0-0.5","SS1613082078376","","","null","","","","","<p><img src= images/blank.png width =""200"" height = ""200"" style = ""float:right""></p><p><img src=images/blank.png width =""800"" height = ""200""></p>","","","","","","","","","","","",""
"","2195.6450000870973","sequential-stimulus-presentation","37","143319","0.0-11.0-1.5","SS1613082078376","trial","","40","800","2995.6450000870973","images/stimuli/spore_stims/complex_18_B_c.gif","images/stimuli/spore_stims/complex_18_A_c.gif","","","","","1","complex_similar","images/stimuli/spore_stims/complex_18_A_c.gif","right","","","","",""
"","null","html-keyboard-response","38","144345","0.0-11.0-0.6","SS1613082078376","","","null","","","","","<p><img src= images/blank.png width =""200"" height = ""200"" style = ""float:right""></p><p><img src=images/blank.png width =""800"" height = ""200""></p>","","","","","","","","","","","",""
"","2626.79999996908","sequential-stimulus-presentation","39","147783","0.0-11.0-1.6","SS1613082078376","trial","","40","800","3426.79999996908","images/stimuli/spore_stims/complex_18_B_c.gif","images/stimuli/spore_stims/complex_18_A_c.gif","","","","","1","complex_similar","images/stimuli/spore_stims/complex_18_A_c.gif","right","","","","",""
"","null","html-keyboard-response","40","148663","0.0-11.0-0.7","SS1613082078376","","","null","","","","","<p><img src= images/blank.png width =""200"" height = ""200"" style = ""float:right""></p><p><img src=images/blank.png width =""800"" height = ""200""></p>","","","","","","","","","","","",""
"","6425.77000008896","sequential-stimulus-presentation","41","156085","0.0-11.0-1.7","SS1613082078376","trial","","40","800","7225.77000008896","images/stimuli/spore_stims/complex_18_B_c.gif","images/stimuli/spore_stims/complex_18_A_c.gif","","","","","1","complex_similar","images/stimuli/spore_stims/complex_18_A_c.gif","right","","","","",""
"","1215.0299998465925","html-keyboard-response","42","157307","0.0-12.0","SS1613082078376","pref_question","","50","","","","","<video width ='960' height = '540' style='padding-top:8%' autoplay muted><source src='images/stimuli/wall_pref.mp4' type='video/mp4'></video>","2","middle","45%","1","","","","","","","",""
"","7131.195000139996","sequential-stimulus-presentation","43","165248","0.0-13.0","SS1613082078376","pref_reveal","","40","800","7931.195000139996","null","null","","","","","1","","","","novel","","","",""
"","null","html-keyboard-response","44","166448","0.0-14.0-0.0","SS1613082078376","","","null","","","","","<p><img src= images/blank.png width =""200"" height = ""200"" style = ""float:right""></p><p><img src=images/blank.png width =""800"" height = ""200""></p>","","","","","","","","","","","",""
"","2208.579999860376","sequential-stimulus-presentation","45","169464","0.0-14.0-1.0","SS1613082078376","trial","","40","800","3008.579999860376","images/stimuli/spore_stims/simple_16_A_a.gif","images/stimuli/spore_stims/simple_16_B_a.gif","","","","","2","simple_similar","images/stimuli/spore_stims/simple_16_B_a.gif","middle","","","","",""
"","null","html-keyboard-response","46","170475","0.0-14.0-0.1","SS1613082078376","","","null","","","","","<p><img src= images/blank.png width =""200"" height = ""200"" style = ""float:right""></p><p><img src=images/blank.png width =""800"" height = ""200""></p>","","","","","","","","","","","",""
"","3922.1200000029057","sequential-stimulus-presentation","47","175209","0.0-14.0-1.1","SS1613082078376","trial","","40","800","4722.120000002906","images/stimuli/spore_stims/simple_16_A_a.gif","images/stimuli/spore_stims/simple_16_B_a.gif","","","","","2","simple_similar","images/stimuli/spore_stims/simple_16_B_a.gif","middle","","","","",""
"","null","html-keyboard-response","48","176455","0.0-14.0-0.2","SS1613082078376","","","null","","","","","<p><img src= images/blank.png width =""200"" height = ""200"" style = ""float:right""></p><p><img src=images/blank.png width =""800"" height = ""200""></p>","","","","","","","","","","","",""
"","847.1249998547137","sequential-stimulus-presentation","49","178112","0.0-14.0-1.2","SS1613082078376","trial","","40","800","1647.1249998547137","images/stimuli/spore_stims/simple_16_A_a.gif","images/stimuli/spore_stims/simple_16_B_a.gif","","","","","2","simple_similar","images/stimuli/spore_stims/simple_16_B_a.gif","middle","","","","",""
"","null","html-keyboard-response","50","179245","0.0-14.0-0.3","SS1613082078376","","","null","","","","","<p><img src= images/blank.png width =""200"" height = ""200"" style = ""float:right""></p><p><img src=images/blank.png width =""800"" height = ""200""></p>","","","","","","","","","","","",""
"","1832.5849999673665","sequential-stimulus-presentation","51","181885","0.0-14.0-1.3","SS1613082078376","trial","","40","800","2632.5849999673665","images/stimuli/spore_stims/simple_16_A_a.gif","images/stimuli/spore_stims/simple_16_B_a.gif","","","","","2","simple_similar","images/stimuli/spore_stims/simple_16_B_a.gif","middle","","","","",""
"","null","html-keyboard-response","52","182986","0.0-14.0-0.4","SS1613082078376","","","null","","","","","<p><img src= images/blank.png width =""200"" height = ""200"" style = ""float:right""></p><p><img src=images/blank.png width =""800"" height = ""200""></p>","","","","","","","","","","","",""
"","2048.045000061393","sequential-stimulus-presentation","53","185843","0.0-14.0-1.4","SS1613082078376","trial","","40","800","2848.045000061393","images/stimuli/spore_stims/simple_16_A_a.gif","images/stimuli/spore_stims/simple_16_B_a.gif","","","","","2","simple_similar","images/stimuli/spore_stims/simple_16_B_a.gif","middle","","","","",""
"","null","html-keyboard-response","54","186969","0.0-14.0-0.5","SS1613082078376","","","null","","","","","<p><img src= images/blank.png width =""200"" height = ""200"" style = ""float:right""></p><p><img src=images/blank.png width =""800"" height = ""200""></p>","","","","","","","","","","","",""
"","2020.8499999716878","sequential-stimulus-presentation","55","189795","0.0-14.0-1.5","SS1613082078376","trial","","40","800","2820.849999971688","images/stimuli/spore_stims/simple_16_A_a.gif","images/stimuli/spore_stims/simple_16_B_a.gif","","","","","2","simple_similar","images/stimuli/spore_stims/simple_16_B_a.gif","middle","","","","",""
"","null","html-keyboard-response","56","190908","0.0-14.0-0.6","SS1613082078376","","","null","","","","","<p><img src= images/blank.png width =""200"" height = ""200"" style = ""float:right""></p><p><img src=images/blank.png width =""800"" height = ""200""></p>","","","","","","","","","","","",""
"","5491.630000062287","sequential-stimulus-presentation","57","197211","0.0-14.0-1.6","SS1613082078376","trial","","40","800","6291.630000062287","images/stimuli/spore_stims/simple_16_A_a.gif","images/stimuli/spore_stims/simple_16_B_a.gif","","","","","2","simple_similar","images/stimuli/spore_stims/simple_16_A_a.gif","left","","","","",""
"","null","html-keyboard-response","58","198167","0.0-14.0-0.7","SS1613082078376","","","null","","","","","<p><img src= images/blank.png width =""200"" height = ""200"" style = ""float:right""></p><p><img src=images/blank.png width =""800"" height = ""200""></p>","","","","","","","","","","","",""
"","8092.844999860972","sequential-stimulus-presentation","59","207067","0.0-14.0-1.7","SS1613082078376","trial","","40","800","8892.844999860972","images/stimuli/spore_stims/simple_16_A_a.gif","images/stimuli/spore_stims/simple_16_B_a.gif","","","","","2","simple_similar","images/stimuli/spore_stims/simple_16_B_a.gif","middle","","","","",""
"","1255.9100000653416","html-keyboard-response","60","208330","0.0-15.0","SS1613082078376","pref_question","","49","","","","","<video width ='960' height = '540' style='padding-top:8%' autoplay muted><source src='images/stimuli/wall_pref.mp4' type='video/mp4'></video>","1","left","25%","2","","","","","","","",""
"","6252.729999832809","sequential-stimulus-presentation","61","215388","0.0-16.0","SS1613082078376","pref_reveal","","40","800","7052.729999832809","null","null","","","","","2","","","","deviant","","","",""
"","null","html-keyboard-response","62","216619","0.0-17.0-0.0","SS1613082078376","","","null","","","","","<p><img src= images/blank.png width =""200"" height = ""200"" style = ""float:right""></p><p><img src=images/blank.png width =""800"" height = ""200""></p>","","","","","","","","","","","",""
"","4489.6249999292195","sequential-stimulus-presentation","63","221923","0.0-17.0-1.0","SS1613082078376","trial","","40","800","5289.6249999292195","images/stimuli/spore_stims/simple_17_B_c.gif","images/stimuli/spore_stims/simple_17_A_c.gif","","","","","3","simple_similar","images/stimuli/spore_stims/simple_17_A_c.gif","middle","","","","",""
"","null","html-keyboard-response","64","223209","0.0-17.0-0.1","SS1613082078376","","","null","","","","","<p><img src= images/blank.png width =""200"" height = ""200"" style = ""float:right""></p><p><img src=images/blank.png width =""800"" height = ""200""></p>","","","","","","","","","","","",""
"","6389.559999806806","sequential-stimulus-presentation","65","230412","0.0-17.0-1.1","SS1613082078376","trial","","40","800","7189.559999806806","images/stimuli/spore_stims/simple_17_B_c.gif","images/stimuli/spore_stims/simple_17_A_c.gif","","","","","3","simple_similar","images/stimuli/spore_stims/simple_17_A_c.gif","middle","","","","",""
"","null","html-keyboard-response","66","231612","0.0-17.0-0.2","SS1613082078376","","","null","","","","","<p><img src= images/blank.png width =""200"" height = ""200"" style = ""float:right""></p><p><img src=images/blank.png width =""800"" height = ""200""></p>","","","","","","","","","","","",""
"","11257.740000030026","sequential-stimulus-presentation","67","243674","0.0-17.0-1.2","SS1613082078376","trial","","40","800","12057.740000030026","images/stimuli/spore_stims/simple_17_B_c.gif","images/stimuli/spore_stims/simple_17_A_c.gif","","","","","3","simple_similar","images/stimuli/spore_stims/simple_17_A_c.gif","middle","","","","",""
"","null","html-keyboard-response","68","244827","0.0-17.0-0.3","SS1613082078376","","","null","","","","","<p><img src= images/blank.png width =""200"" height = ""200"" style = ""float:right""></p><p><img src=images/blank.png width =""800"" height = ""200""></p>","","","","","","","","","","","",""
"","7724.335000151768","sequential-stimulus-presentation","69","253365","0.0-17.0-1.3","SS1613082078376","trial","","40","800","8524.335000151768","images/stimuli/spore_stims/simple_17_B_c.gif","images/stimuli/spore_stims/simple_17_A_c.gif","","","","","3","simple_similar","images/stimuli/spore_stims/simple_17_A_c.gif","middle","","","","",""
"","null","html-keyboard-response","70","254285","0.0-17.0-0.4","SS1613082078376","","","null","","","","","<p><img src= images/blank.png width =""200"" height = ""200"" style = ""float:right""></p><p><img src=images/blank.png width =""800"" height = ""200""></p>","","","","","","","","","","","",""
"","4124.580000061542","sequential-stimulus-presentation","71","259222","0.0-17.0-1.4","SS1613082078376","trial","","40","800","4924.580000061542","images/stimuli/spore_stims/simple_17_B_c.gif","images/stimuli/spore_stims/simple_17_A_c.gif","","","","","3","simple_similar","images/stimuli/spore_stims/simple_17_A_c.gif","middle","","","","",""
"","null","html-keyboard-response","72","260243","0.0-17.0-0.5","SS1613082078376","","","null","","","","","<p><img src= images/blank.png width =""200"" height = ""200"" style = ""float:right""></p><p><img src=images/blank.png width =""800"" height = ""200""></p>","","","","","","","","","","","",""
"","4874.779999954626","sequential-stimulus-presentation","73","265941","0.0-17.0-1.5","SS1613082078376","trial","","40","800","5674.779999954626","images/stimuli/spore_stims/simple_17_B_c.gif","images/stimuli/spore_stims/simple_17_A_c.gif","","","","","3","simple_similar","images/stimuli/spore_stims/simple_17_A_c.gif","middle","","","","",""
"","null","html-keyboard-response","74","267157","0.0-17.0-0.6","SS1613082078376","","","null","","","","","<p><img src= images/blank.png width =""200"" height = ""200"" style = ""float:right""></p><p><img src=images/blank.png width =""800"" height = ""200""></p>","","","","","","","","","","","",""
"","2024.8049998190254","sequential-stimulus-presentation","75","269993","0.0-17.0-1.6","SS1613082078376","trial","","40","800","2824.8049998190254","images/stimuli/spore_stims/simple_17_B_c.gif","images/stimuli/spore_stims/simple_17_A_c.gif","","","","","3","simple_similar","images/stimuli/spore_stims/simple_17_A_c.gif","middle","","","","",""
"","null","html-keyboard-response","76","271235","0.0-17.0-0.7","SS1613082078376","","","null","","","","","<p><img src= images/blank.png width =""200"" height = ""200"" style = ""float:right""></p><p><img src=images/blank.png width =""800"" height = ""200""></p>","","","","","","","","","","","",""
"","1190.9350000787526","sequential-stimulus-presentation","77","273239","0.0-17.0-1.7","SS1613082078376","trial","","40","800","1990.9350000787526","images/stimuli/spore_stims/simple_17_B_c.gif","images/stimuli/spore_stims/simple_17_A_c.gif","","","","","3","simple_similar","images/stimuli/spore_stims/simple_17_B_c.gif","left","","","","",""
"","2057.7249999623746","html-keyboard-response","78","275304","0.0-18.0","SS1613082078376","pref_question","","51","","","","","<video width ='960' height = '540' style='padding-top:8%' autoplay muted><source src='images/stimuli/wall_pref.mp4' type='video/mp4'></video>","3","right","66%","3","","","","","","","",""
"","2869.504999835044","sequential-stimulus-presentation","79","278986","0.0-19.0","SS1613082078376","pref_reveal","","40","800","3669.504999835044","null","null","","","","","3","","","","novel","","","",""
"","null","html-keyboard-response","80","280142","0.0-20.0-0.0","SS1613082078376","","","null","","","","","<p><img src= images/blank.png width =""200"" height = ""200"" style = ""float:right""></p><p><img src=images/blank.png width =""800"" height = ""200""></p>","","","","","","","","","","","",""
"","1907.1150000672787","sequential-stimulus-presentation","81","282861","0.0-20.0-1.0","SS1613082078376","trial","","40","800","2707.1150000672787","images/stimuli/spore_stims/complex_08_B_b.gif","images/stimuli/spore_stims/complex_08_A_b.gif","","","","","4","complex_similar","images/stimuli/spore_stims/complex_08_A_b.gif","right","","","","",""
"","null","html-keyboard-response","82","284055","0.0-20.0-0.1","SS1613082078376","","","null","","","","","<p><img src= images/blank.png width =""200"" height = ""200"" style = ""float:right""></p><p><img src=images/blank.png width =""800"" height = ""200""></p>","","","","","","","","","","","",""
"","1332.1299999952316","sequential-stimulus-presentation","83","286199","0.0-20.0-1.1","SS1613082078376","trial","","40","800","2132.1299999952316","images/stimuli/spore_stims/complex_08_B_b.gif","images/stimuli/spore_stims/complex_08_A_b.gif","","","","","4","complex_similar","images/stimuli/spore_stims/complex_08_A_b.gif","right","","","","",""
"","null","html-keyboard-response","84","287096","0.0-20.0-0.2","SS1613082078376","","","null","","","","","<p><img src= images/blank.png width =""200"" height = ""200"" style = ""float:right""></p><p><img src=images/blank.png width =""800"" height = ""200""></p>","","","","","","","","","","","",""
"","2972.5450000260025","sequential-stimulus-presentation","85","290878","0.0-20.0-1.2","SS1613082078376","trial","","40","800","3772.5450000260025","images/stimuli/spore_stims/complex_08_B_b.gif","images/stimuli/spore_stims/complex_08_A_b.gif","","","","","4","complex_similar","images/stimuli/spore_stims/complex_08_A_b.gif","right","","","","",""
"","null","html-keyboard-response","86","292101","0.0-20.0-0.3","SS1613082078376","","","null","","","","","<p><img src= images/blank.png width =""200"" height = ""200"" style = ""float:right""></p><p><img src=images/blank.png width =""800"" height = ""200""></p>","","","","","","","","","","","",""
"","52.02500009909272","sequential-stimulus-presentation","87","292966","0.0-20.0-1.3","SS1613082078376","trial","","40","800","852.0250000990927","images/stimuli/spore_stims/complex_08_B_b.gif","images/stimuli/spore_stims/complex_08_A_b.gif","","","","","4","complex_similar","images/stimuli/spore_stims/complex_08_A_b.gif","right","","","","",""
"","null","html-keyboard-response","88","294052","0.0-20.0-0.4","SS1613082078376","","","null","","","","","<p><img src= images/blank.png width =""200"" height = ""200"" style = ""float:right""></p><p><img src=images/blank.png width =""800"" height = ""200""></p>","","","","","","","","","","","",""
"","134.13999998010695","sequential-stimulus-presentation","89","294992","0.0-20.0-1.4","SS1613082078376","trial","","40","800","934.139999980107","images/stimuli/spore_stims/complex_08_B_b.gif","images/stimuli/spore_stims/complex_08_A_b.gif","","","","","4","complex_similar","images/stimuli/spore_stims/complex_08_A_b.gif","right","","","","",""
"","null","html-keyboard-response","90","296227","0.0-20.0-0.5","SS1613082078376","","","null","","","","","<p><img src= images/blank.png width =""200"" height = ""200"" style = ""float:right""></p><p><img src=images/blank.png width =""800"" height = ""200""></p>","","","","","","","","","","","",""
"","1153.4349999856204","sequential-stimulus-presentation","91","298190","0.0-20.0-1.5","SS1613082078376","trial","","40","800","1953.4349999856204","images/stimuli/spore_stims/complex_08_B_b.gif","images/stimuli/spore_stims/complex_08_A_b.gif","","","","","4","complex_similar","images/stimuli/spore_stims/complex_08_A_b.gif","right","","","","",""
"","null","html-keyboard-response","92","299179","0.0-20.0-0.6","SS1613082078376","","","null","","","","","<p><img src= images/blank.png width =""200"" height = ""200"" style = ""float:right""></p><p><img src=images/blank.png width =""800"" height = ""200""></p>","","","","","","","","","","","",""
"","1796.2150000967085","sequential-stimulus-presentation","93","301790","0.0-20.0-1.6","SS1613082078376","trial","","40","800","2596.2150000967085","images/stimuli/spore_stims/complex_08_B_b.gif","images/stimuli/spore_stims/complex_08_A_b.gif","","","","","4","complex_similar","images/stimuli/spore_stims/complex_08_A_b.gif","right","","","","",""
"","null","html-keyboard-response","94","302958","0.0-20.0-0.7","SS1613082078376","","","null","","","","","<p><img src= images/blank.png width =""200"" height = ""200"" style = ""float:right""></p><p><img src=images/blank.png width =""800"" height = ""200""></p>","","","","","","","","","","","",""
"","2678.804999915883","sequential-stimulus-presentation","95","306447","0.0-20.0-1.7","SS1613082078376","trial","","40","800","3478.804999915883","images/stimuli/spore_stims/complex_08_B_b.gif","images/stimuli/spore_stims/complex_08_A_b.gif","","","","","4","complex_similar","images/stimuli/spore_stims/complex_08_B_b.gif","left","","","","",""
"","2638.0600000265986","html-keyboard-response","96","309097","0.0-21.0","SS1613082078376","pref_question","","50","","","","","<video width ='960' height = '540' style='padding-top:8%' autoplay muted><source src='images/stimuli/wall_pref.mp4' type='video/mp4'></video>","2","middle","45%","4","","","","","","","",""
"","2452.169999945909","sequential-stimulus-presentation","97","312358","0.0-22.0","SS1613082078376","pref_reveal","","40","800","3252.169999945909","null","null","","","","","4","","","","novel","","","",""
"","null","html-keyboard-response","98","313533","0.0-23.0-0.0","SS1613082078376","","","null","","","","","<p><img src= images/blank.png width =""200"" height = ""200"" style = ""float:right""></p><p><img src=images/blank.png width =""800"" height = ""200""></p>","","","","","","","","","","","",""
"","2503.8949998561293","sequential-stimulus-presentation","99","316851","0.0-23.0-1.0","SS1613082078376","trial","","40","800","3303.8949998561293","images/stimuli/spore_stims/complex_20_B_d.gif","images/stimuli/spore_stims/complex_20_A_d.gif","","","","","5","complex_similar","images/stimuli/spore_stims/complex_20_A_d.gif","middle","","","","",""
"","null","html-keyboard-response","100","317852","0.0-23.0-0.1","SS1613082078376","","","null","","","","","<p><img src= images/blank.png width =""200"" height = ""200"" style = ""float:right""></p><p><img src=images/blank.png width =""800"" height = ""200""></p>","","","","","","","","","","","",""
"","2772.3699999041855","sequential-stimulus-presentation","101","321439","0.0-23.0-1.1","SS1613082078376","trial","","40","800","3572.3699999041855","images/stimuli/spore_stims/complex_20_B_d.gif","images/stimuli/spore_stims/complex_20_A_d.gif","","","","","5","complex_similar","images/stimuli/spore_stims/complex_20_A_d.gif","middle","","","","",""
"","null","html-keyboard-response","102","322710","0.0-23.0-0.2","SS1613082078376","","","null","","","","","<p><img src= images/blank.png width =""200"" height = ""200"" style = ""float:right""></p><p><img src=images/blank.png width =""800"" height = ""200""></p>","","","","","","","","","","","",""
"","490.3049999848008","sequential-stimulus-presentation","103","324006","0.0-23.0-1.2","SS1613082078376","trial","","40","800","1290.3049999848008","images/stimuli/spore_stims/complex_20_B_d.gif","images/stimuli/spore_stims/complex_20_A_d.gif","","","","","5","complex_similar","images/stimuli/spore_stims/complex_20_A_d.gif","middle","","","","",""
"","null","html-keyboard-response","104","324956","0.0-23.0-0.3","SS1613082078376","","","null","","","","","<p><img src= images/blank.png width =""200"" height = ""200"" style = ""float:right""></p><p><img src=images/blank.png width =""800"" height = ""200""></p>","","","","","","","","","","","",""
"","1142.2449999954551","sequential-stimulus-presentation","105","326911","0.0-23.0-1.3","SS1613082078376","trial","","40","800","1942.2449999954551","images/stimuli/spore_stims/complex_20_B_d.gif","images/stimuli/spore_stims/complex_20_A_d.gif","","","","","5","complex_similar","images/stimuli/spore_stims/complex_20_A_d.gif","middle","","","","",""
"","null","html-keyboard-response","106","328159","0.0-23.0-0.4","SS1613082078376","","","null","","","","","<p><img src= images/blank.png width =""200"" height = ""200"" style = ""float:right""></p><p><img src=images/blank.png width =""800"" height = ""200""></p>","","","","","","","","","","","",""
"","615.8649998251349","sequential-stimulus-presentation","107","329583","0.0-23.0-1.4","SS1613082078376","trial","","40","800","1415.8649998251349","images/stimuli/spore_stims/complex_20_B_d.gif","images/stimuli/spore_stims/complex_20_A_d.gif","","","","","5","complex_similar","images/stimuli/spore_stims/complex_20_A_d.gif","middle","","","","",""
"","null","html-keyboard-response","108","330897","0.0-23.0-0.5","SS1613082078376","","","null","","","","","<p><img src= images/blank.png width =""200"" height = ""200"" style = ""float:right""></p><p><img src=images/blank.png width =""800"" height = ""200""></p>","","","","","","","","","","","",""
"","1284.4499999191612","sequential-stimulus-presentation","109","332989","0.0-23.0-1.5","SS1613082078376","trial","","40","800","2084.449999919161","images/stimuli/spore_stims/complex_20_B_d.gif","images/stimuli/spore_stims/complex_20_A_d.gif","","","","","5","complex_similar","images/stimuli/spore_stims/complex_20_A_d.gif","middle","","","","",""
"","null","html-keyboard-response","110","333802","0.0-23.0-0.6","SS1613082078376","","","null","","","","","<p><img src= images/blank.png width =""200"" height = ""200"" style = ""float:right""></p><p><img src=images/blank.png width =""800"" height = ""200""></p>","","","","","","","","","","","",""
"","1462.4650001060218","sequential-stimulus-presentation","111","336087","0.0-23.0-1.6","SS1613082078376","trial","","40","800","2262.4650001060218","images/stimuli/spore_stims/complex_20_B_d.gif","images/stimuli/spore_stims/complex_20_A_d.gif","","","","","5","complex_similar","images/stimuli/spore_stims/complex_20_A_d.gif","middle","","","","",""
"","null","html-keyboard-response","112","337208","0.0-23.0-0.7","SS1613082078376","","","null","","","","","<p><img src= images/blank.png width =""200"" height = ""200"" style = ""float:right""></p><p><img src=images/blank.png width =""800"" height = ""200""></p>","","","","","","","","","","","",""
"","1646.0450000595301","sequential-stimulus-presentation","113","339669","0.0-23.0-1.7","SS1613082078376","trial","","40","800","2446.04500005953","images/stimuli/spore_stims/complex_20_B_d.gif","images/stimuli/spore_stims/complex_20_A_d.gif","","","","","5","complex_similar","images/stimuli/spore_stims/complex_20_B_d.gif","left","","","","",""
"","1425.3849999513477","html-keyboard-response","114","341104","0.0-24.0","SS1613082078376","pref_question","","51","","","","","<video width ='960' height = '540' style='padding-top:8%' autoplay muted><source src='images/stimuli/wall_pref.mp4' type='video/mp4'></video>","3","right","66%","5","","","","","","","",""
"","2597.760000033304","sequential-stimulus-presentation","115","344511","0.0-25.0","SS1613082078376","pref_reveal","","40","800","3397.760000033304","null","null","","","","","5","","","","novel","","","",""
"","null","html-keyboard-response","116","345672","0.0-26.0-0.0","SS1613082078376","","","null","","","","","<p><img src= images/blank.png width =""200"" height = ""200"" style = ""float:right""></p><p><img src=images/blank.png width =""800"" height = ""200""></p>","","","","","","","","","","","",""
"","2946.6750000137836","sequential-stimulus-presentation","117","349443","0.0-26.0-1.0","SS1613082078376","trial","","40","800","3746.6750000137836","images/stimuli/spore_stims/complex_15_A_d.gif","images/stimuli/spore_stims/complex_10_B_c.gif","","","","","6","complex_dissimilar","images/stimuli/spore_stims/complex_10_B_c.gif","right","","","","",""
"","null","html-keyboard-response","118","350573","0.0-26.0-0.1","SS1613082078376","","","null","","","","","<p><img src= images/blank.png width =""200"" height = ""200"" style = ""float:right""></p><p><img src=images/blank.png width =""800"" height = ""200""></p>","","","","","","","","","","","",""
"","2353.4549998585135","sequential-stimulus-presentation","119","353736","0.0-26.0-1.1","SS1613082078376","trial","","40","800","3153.4549998585135","images/stimuli/spore_stims/complex_15_A_d.gif","images/stimuli/spore_stims/complex_10_B_c.gif","","","","","6","complex_dissimilar","images/stimuli/spore_stims/complex_10_B_c.gif","right","","","","",""
"","null","html-keyboard-response","120","354769","0.0-26.0-0.2","SS1613082078376","","","null","","","","","<p><img src= images/blank.png width =""200"" height = ""200"" style = ""float:right""></p><p><img src=images/blank.png width =""800"" height = ""200""></p>","","","","","","","","","","","",""
"","2360.4349999222904","sequential-stimulus-presentation","121","357943","0.0-26.0-1.2","SS1613082078376","trial","","40","800","3160.4349999222904","images/stimuli/spore_stims/complex_15_A_d.gif","images/stimuli/spore_stims/complex_10_B_c.gif","","","","","6","complex_dissimilar","images/stimuli/spore_stims/complex_10_B_c.gif","right","","","","",""
"","null","html-keyboard-response","122","358877","0.0-26.0-0.3","SS1613082078376","","","null","","","","","<p><img src= images/blank.png width =""200"" height = ""200"" style = ""float:right""></p><p><img src=images/blank.png width =""800"" height = ""200""></p>","","","","","","","","","","","",""
"","3027.324999915436","sequential-stimulus-presentation","123","362719","0.0-26.0-1.3","SS1613082078376","trial","","40","800","3827.324999915436","images/stimuli/spore_stims/complex_15_A_d.gif","images/stimuli/spore_stims/complex_10_B_c.gif","","","","","6","complex_dissimilar","images/stimuli/spore_stims/complex_10_B_c.gif","right","","","","",""
"","null","html-keyboard-response","124","363566","0.0-26.0-0.4","SS1613082078376","","","null","","","","","<p><img src= images/blank.png width =""200"" height = ""200"" style = ""float:right""></p><p><img src=images/blank.png width =""800"" height = ""200""></p>","","","","","","","","","","","",""
"","2709.620000096038","sequential-stimulus-presentation","125","367091","0.0-26.0-1.4","SS1613082078376","trial","","40","800","3509.620000096038","images/stimuli/spore_stims/complex_15_A_d.gif","images/stimuli/spore_stims/complex_10_B_c.gif","","","","","6","complex_dissimilar","images/stimuli/spore_stims/complex_10_B_c.gif","right","","","","",""
"","null","html-keyboard-response","126","368347","0.0-26.0-0.5","SS1613082078376","","","null","","","","","<p><img src= images/blank.png width =""200"" height = ""200"" style = ""float:right""></p><p><img src=images/blank.png width =""800"" height = ""200""></p>","","","","","","","","","","","",""
"","2557.259999914095","sequential-stimulus-presentation","127","371717","0.0-26.0-1.5","SS1613082078376","trial","","40","800","3357.259999914095","images/stimuli/spore_stims/complex_15_A_d.gif","images/stimuli/spore_stims/complex_10_B_c.gif","","","","","6","complex_dissimilar","images/stimuli/spore_stims/complex_10_B_c.gif","right","","","","",""
"","null","html-keyboard-response","128","372672","0.0-26.0-0.6","SS1613082078376","","","null","","","","","<p><img src= images/blank.png width =""200"" height = ""200"" style = ""float:right""></p><p><img src=images/blank.png width =""800"" height = ""200""></p>","","","","","","","","","","","",""
"","1771.1949998047203","sequential-stimulus-presentation","129","375257","0.0-26.0-1.6","SS1613082078376","trial","","40","800","2571.1949998047203","images/stimuli/spore_stims/complex_15_A_d.gif","images/stimuli/spore_stims/complex_10_B_c.gif","","","","","6","complex_dissimilar","images/stimuli/spore_stims/complex_15_A_d.gif","left","","","","",""
"","null","html-keyboard-response","130","376540","0.0-26.0-0.7","SS1613082078376","","","null","","","","","<p><img src= images/blank.png width =""200"" height = ""200"" style = ""float:right""></p><p><img src=images/blank.png width =""800"" height = ""200""></p>","","","","","","","","","","","",""
"","584.6049999818206","sequential-stimulus-presentation","131","377939","0.0-26.0-1.7","SS1613082078376","trial","","40","800","1384.6049999818206","images/stimuli/spore_stims/complex_15_A_d.gif","images/stimuli/spore_stims/complex_10_B_c.gif","","","","","6","complex_dissimilar","images/stimuli/spore_stims/complex_10_B_c.gif","right","","","","",""
"","3866.094999946654","html-keyboard-response","132","381816","0.0-27.0","SS1613082078376","pref_question","","50","","","","","<video width ='960' height = '540' style='padding-top:8%' autoplay muted><source src='images/stimuli/wall_pref.mp4' type='video/mp4'></video>","2","middle","45%","6","","","","","","","",""
"","2879.9449999351054","sequential-stimulus-presentation","133","385509","0.0-28.0","SS1613082078376","pref_reveal","","40","800","3679.9449999351054","null","null","","","","","6","","","","novel","","","",""
"","null","html-keyboard-response","134","386815","0.0-29.0-0.0","SS1613082078376","","","null","","","","","<p><img src= images/blank.png width =""200"" height = ""200"" style = ""float:right""></p><p><img src=images/blank.png width =""800"" height = ""200""></p>","","","","","","","","","","","",""
"","1719.9850000906736","sequential-stimulus-presentation","135","389342","0.0-29.0-1.0","SS1613082078376","trial","","40","800","2519.9850000906736","images/stimuli/spore_stims/simple_10_B_c.gif","images/stimuli/spore_stims/simple_10_A_c.gif","","","","","7","simple_similar","images/stimuli/spore_stims/simple_10_A_c.gif","left","","","","",""
"","null","html-keyboard-response","136","390309","0.0-29.0-0.1","SS1613082078376","","","null","","","","","<p><img src= images/blank.png width =""200"" height = ""200"" style = ""float:right""></p><p><img src=images/blank.png width =""800"" height = ""200""></p>","","","","","","","","","","","",""
"","3005.515000084415","sequential-stimulus-presentation","137","394129","0.0-29.0-1.1","SS1613082078376","trial","","40","800","3805.515000084415","images/stimuli/spore_stims/simple_10_B_c.gif","images/stimuli/spore_stims/simple_10_A_c.gif","","","","","7","simple_similar","images/stimuli/spore_stims/simple_10_A_c.gif","left","","","","",""
"","null","html-keyboard-response","138","395157","0.0-29.0-0.2","SS1613082078376","","","null","","","","","<p><img src= images/blank.png width =""200"" height = ""200"" style = ""float:right""></p><p><img src=images/blank.png width =""800"" height = ""200""></p>","","","","","","","","","","","",""
"","2511.1650000326335","sequential-stimulus-presentation","139","398483","0.0-29.0-1.2","SS1613082078376","trial","","40","800","3311.1650000326335","images/stimuli/spore_stims/simple_10_B_c.gif","images/stimuli/spore_stims/simple_10_A_c.gif","","","","","7","simple_similar","images/stimuli/spore_stims/simple_10_A_c.gif","left","","","","",""
"","null","html-keyboard-response","140","399693","0.0-29.0-0.3","SS1613082078376","","","null","","","","","<p><img src= images/blank.png width =""200"" height = ""200"" style = ""float:right""></p><p><img src=images/blank.png width =""800"" height = ""200""></p>","","","","","","","","","","","",""
"","2777.720000129193","sequential-stimulus-presentation","141","403277","0.0-29.0-1.3","SS1613082078376","trial","","40","800","3577.720000129193","images/stimuli/spore_stims/simple_10_B_c.gif","images/stimuli/spore_stims/simple_10_A_c.gif","","","","","7","simple_similar","images/stimuli/spore_stims/simple_10_A_c.gif","left","","","","",""
"","null","html-keyboard-response","142","404495","0.0-29.0-0.4","SS1613082078376","","","null","","","","","<p><img src= images/blank.png width =""200"" height = ""200"" style = ""float:right""></p><p><img src=images/blank.png width =""800"" height = ""200""></p>","","","","","","","","","","","",""
"","3358.415000140667","sequential-stimulus-presentation","143","408668","0.0-29.0-1.4","SS1613082078376","trial","","40","800","4158.415000140667","images/stimuli/spore_stims/simple_10_B_c.gif","images/stimuli/spore_stims/simple_10_A_c.gif","","","","","7","simple_similar","images/stimuli/spore_stims/simple_10_B_c.gif","right","","","","",""
"","null","html-keyboard-response","144","409511","0.0-29.0-0.5","SS1613082078376","","","null","","","","","<p><img src= images/blank.png width =""200"" height = ""200"" style = ""float:right""></p><p><img src=images/blank.png width =""800"" height = ""200""></p>","","","","","","","","","","","",""
"","1708.725000033155","sequential-stimulus-presentation","145","412033","0.0-29.0-1.5","SS1613082078376","trial","","40","800","2508.725000033155","images/stimuli/spore_stims/simple_10_B_c.gif","images/stimuli/spore_stims/simple_10_A_c.gif","","","","","7","simple_similar","images/stimuli/spore_stims/simple_10_A_c.gif","left","","","","",""
"","null","html-keyboard-response","146","413238","0.0-29.0-0.6","SS1613082078376","","","null","","","","","<p><img src= images/blank.png width =""200"" height = ""200"" style = ""float:right""></p><p><img src=images/blank.png width =""800"" height = ""200""></p>","","","","","","","","","","","",""
"","1474.0500000771135","sequential-stimulus-presentation","147","415527","0.0-29.0-1.6","SS1613082078376","trial","","40","800","2274.0500000771135","images/stimuli/spore_stims/simple_10_B_c.gif","images/stimuli/spore_stims/simple_10_A_c.gif","","","","","7","simple_similar","images/stimuli/spore_stims/simple_10_A_c.gif","left","","","","",""
"","null","html-keyboard-response","148","416480","0.0-29.0-0.7","SS1613082078376","","","null","","","","","<p><img src= images/blank.png width =""200"" height = ""200"" style = ""float:right""></p><p><img src=images/blank.png width =""800"" height = ""200""></p>","","","","","","","","","","","",""
"","2215.499999932945","sequential-stimulus-presentation","149","419509","0.0-29.0-1.7","SS1613082078376","trial","","40","800","3015.499999932945","images/stimuli/spore_stims/simple_10_B_c.gif","images/stimuli/spore_stims/simple_10_A_c.gif","","","","","7","simple_similar","images/stimuli/spore_stims/simple_10_A_c.gif","left","","","","",""
"","1590.2449998538941","html-keyboard-response","150","421102","0.0-30.0","SS1613082078376","pref_question","","50","","","","","<video width ='960' height = '540' style='padding-top:8%' autoplay muted><source src='images/stimuli/wall_pref.mp4' type='video/mp4'></video>","2","middle","45%","7","","","","","","","",""
"","2035.1800001226366","sequential-stimulus-presentation","151","423947","0.0-31.0","SS1613082078376","pref_reveal","","40","800","2835.1800001226366","null","null","","","","","7","","","","novel","","","",""
"","null","html-keyboard-response","152","425022","0.0-32.0-0.0","SS1613082078376","","","null","","","","","<p><img src= images/blank.png width =""200"" height = ""200"" style = ""float:right""></p><p><img src=images/blank.png width =""800"" height = ""200""></p>","","","","","","","","","","","",""
"","2004.9449999351054","sequential-stimulus-presentation","153","427833","0.0-32.0-1.0","SS1613082078376","trial","","40","800","2804.9449999351054","images/stimuli/spore_stims/complex_03_B_a.gif","images/stimuli/spore_stims/complex_09_A_a.gif","","","","","8","complex_dissimilar","images/stimuli/spore_stims/complex_09_A_a.gif","left","","","","",""
"","null","html-keyboard-response","154","429086","0.0-32.0-0.1","SS1613082078376","","","null","","","","","<p><img src= images/blank.png width =""200"" height = ""200"" style = ""float:right""></p><p><img src=images/blank.png width =""800"" height = ""200""></p>","","","","","","","","","","","",""
"","2908.640000037849","sequential-stimulus-presentation","155","432800","0.0-32.0-1.1","SS1613082078376","trial","","40","800","3708.640000037849","images/stimuli/spore_stims/complex_03_B_a.gif","images/stimuli/spore_stims/complex_09_A_a.gif","","","","","8","complex_dissimilar","images/stimuli/spore_stims/complex_09_A_a.gif","left","","","","",""
"","null","html-keyboard-response","156","433614","0.0-32.0-0.2","SS1613082078376","","","null","","","","","<p><img src= images/blank.png width =""200"" height = ""200"" style = ""float:right""></p><p><img src=images/blank.png width =""800"" height = ""200""></p>","","","","","","","","","","","",""
"","7382.844999898225","sequential-stimulus-presentation","157","441802","0.0-32.0-1.2","SS1613082078376","trial","","40","800","8182.844999898225","images/stimuli/spore_stims/complex_03_B_a.gif","images/stimuli/spore_stims/complex_09_A_a.gif","","","","","8","complex_dissimilar","images/stimuli/spore_stims/complex_09_A_a.gif","left","","","","",""
"","null","html-keyboard-response","158","443073","0.0-32.0-0.3","SS1613082078376","","","null","","","","","<p><img src= images/blank.png width =""200"" height = ""200"" style = ""float:right""></p><p><img src=images/blank.png width =""800"" height = ""200""></p>","","","","","","","","","","","",""
"","2049.4949999265373","sequential-stimulus-presentation","159","445928","0.0-32.0-1.3","SS1613082078376","trial","","40","800","2849.4949999265373","images/stimuli/spore_stims/complex_03_B_a.gif","images/stimuli/spore_stims/complex_09_A_a.gif","","","","","8","complex_dissimilar","images/stimuli/spore_stims/complex_09_A_a.gif","left","","","","",""
"","null","html-keyboard-response","160","446752","0.0-32.0-0.4","SS1613082078376","","","null","","","","","<p><img src= images/blank.png width =""200"" height = ""200"" style = ""float:right""></p><p><img src=images/blank.png width =""800"" height = ""200""></p>","","","","","","","","","","","",""
"","4263.839999912307","sequential-stimulus-presentation","161","451820","0.0-32.0-1.4","SS1613082078376","trial","","40","800","5063.839999912307","images/stimuli/spore_stims/complex_03_B_a.gif","images/stimuli/spore_stims/complex_09_A_a.gif","","","","","8","complex_dissimilar","images/stimuli/spore_stims/complex_09_A_a.gif","left","","","","",""
"","null","html-keyboard-response","162","452794","0.0-32.0-0.5","SS1613082078376","","","null","","","","","<p><img src= images/blank.png width =""200"" height = ""200"" style = ""float:right""></p><p><img src=images/blank.png width =""800"" height = ""200""></p>","","","","","","","","","","","",""
"","5642.100000055507","sequential-stimulus-presentation","163","459243","0.0-32.0-1.5","SS1613082078376","trial","","40","800","6442.100000055507","images/stimuli/spore_stims/complex_03_B_a.gif","images/stimuli/spore_stims/complex_09_A_a.gif","","","","","8","complex_dissimilar","images/stimuli/spore_stims/complex_09_A_a.gif","left","","","","",""
"","null","html-keyboard-response","164","460284","0.0-32.0-0.6","SS1613082078376","","","null","","","","","<p><img src= images/blank.png width =""200"" height = ""200"" style = ""float:right""></p><p><img src=images/blank.png width =""800"" height = ""200""></p>","","","","","","","","","","","",""
"","4733.90999995172","sequential-stimulus-presentation","165","465825","0.0-32.0-1.6","SS1613082078376","trial","","40","800","5533.90999995172","images/stimuli/spore_stims/complex_03_B_a.gif","images/stimuli/spore_stims/complex_09_A_a.gif","","","","","8","complex_dissimilar","images/stimuli/spore_stims/complex_09_A_a.gif","left","","","","",""
"","null","html-keyboard-response","166","467014","0.0-32.0-0.7","SS1613082078376","","","null","","","","","<p><img src= images/blank.png width =""200"" height = ""200"" style = ""float:right""></p><p><img src=images/blank.png width =""800"" height = ""200""></p>","","","","","","","","","","","",""
"","2400.330000091344","sequential-stimulus-presentation","167","470239","0.0-32.0-1.7","SS1613082078376","trial","","40","800","3200.330000091344","images/stimuli/spore_stims/complex_03_B_a.gif","images/stimuli/spore_stims/complex_09_A_a.gif","","","","","8","complex_dissimilar","images/stimuli/spore_stims/complex_03_B_a.gif","middle","","","","",""
"","1349.9050000682473","html-keyboard-response","168","471601","0.0-33.0","SS1613082078376","pref_question","","51","","","","","<video width ='960' height = '540' style='padding-top:8%' autoplay muted><source src='images/stimuli/wall_pref.mp4' type='video/mp4'></video>","3","right","66%","8","","","","","","","",""
"","1572.2650000825524","sequential-stimulus-presentation","169","473985","0.0-34.0","SS1613082078376","pref_reveal","","40","800","2372.2650000825524","null","null","","","","","8","","","","novel","","","",""
"","null","html-keyboard-response","170","475163","0.0-35.0-0.0","SS1613082078376","","","null","","","","","<p><img src= images/blank.png width =""200"" height = ""200"" style = ""float:right""></p><p><img src=images/blank.png width =""800"" height = ""200""></p>","","","","","","","","","","","",""
"","3427.7449999935925","sequential-stimulus-presentation","171","479407","0.0-35.0-1.0","SS1613082078376","trial","","40","800","4227.7449999935925","images/stimuli/spore_stims/complex_07_B_a.gif","images/stimuli/spore_stims/complex_07_A_a.gif","","","","","9","complex_similar","images/stimuli/spore_stims/complex_07_A_a.gif","middle","","","","",""
"","null","html-keyboard-response","172","480616","0.0-35.0-0.1","SS1613082078376","","","null","","","","","<p><img src= images/blank.png width =""200"" height = ""200"" style = ""float:right""></p><p><img src=images/blank.png width =""800"" height = ""200""></p>","","","","","","","","","","","",""
"","1808.2950001116842","sequential-stimulus-presentation","173","483238","0.0-35.0-1.1","SS1613082078376","trial","","40","800","2608.295000111684","images/stimuli/spore_stims/complex_07_B_a.gif","images/stimuli/spore_stims/complex_07_A_a.gif","","","","","9","complex_similar","images/stimuli/spore_stims/complex_07_A_a.gif","middle","","","","",""
"","null","html-keyboard-response","174","484346","0.0-35.0-0.2","SS1613082078376","","","null","","","","","<p><img src= images/blank.png width =""200"" height = ""200"" style = ""float:right""></p><p><img src=images/blank.png width =""800"" height = ""200""></p>","","","","","","","","","","","",""
"","2611.934999935329","sequential-stimulus-presentation","175","487772","0.0-35.0-1.2","SS1613082078376","trial","","40","800","3411.934999935329","images/stimuli/spore_stims/complex_07_B_a.gif","images/stimuli/spore_stims/complex_07_A_a.gif","","","","","9","complex_similar","images/stimuli/spore_stims/complex_07_A_a.gif","middle","","","","",""
"","null","html-keyboard-response","176","488668","0.0-35.0-0.3","SS1613082078376","","","null","","","","","<p><img src= images/blank.png width =""200"" height = ""200"" style = ""float:right""></p><p><img src=images/blank.png width =""800"" height = ""200""></p>","","","","","","","","","","","",""
"","4561.500000068918","sequential-stimulus-presentation","177","494035","0.0-35.0-1.3","SS1613082078376","trial","","40","800","5361.500000068918","images/stimuli/spore_stims/complex_07_B_a.gif","images/stimuli/spore_stims/complex_07_A_a.gif","","","","","9","complex_similar","images/stimuli/spore_stims/complex_07_A_a.gif","middle","","","","",""
"","null","html-keyboard-response","178","495185","0.0-35.0-0.4","SS1613082078376","","","null","","","","","<p><img src= images/blank.png width =""200"" height = ""200"" style = ""float:right""></p><p><img src=images/blank.png width =""800"" height = ""200""></p>","","","","","","","","","","","",""
"","1788.1300000008196","sequential-stimulus-presentation","179","497782","0.0-35.0-1.4","SS1613082078376","trial","","40","800","2588.1300000008196","images/stimuli/spore_stims/complex_07_B_a.gif","images/stimuli/spore_stims/complex_07_A_a.gif","","","","","9","complex_similar","images/stimuli/spore_stims/complex_07_A_a.gif","middle","","","","",""
"","null","html-keyboard-response","180","498932","0.0-35.0-0.5","SS1613082078376","","","null","","","","","<p><img src= images/blank.png width =""200"" height = ""200"" style = ""float:right""></p><p><img src=images/blank.png width =""800"" height = ""200""></p>","","","","","","","","","","","",""
"","3112.6200000289828","sequential-stimulus-presentation","181","502858","0.0-35.0-1.5","SS1613082078376","trial","","40","800","3912.6200000289828","images/stimuli/spore_stims/complex_07_B_a.gif","images/stimuli/spore_stims/complex_07_A_a.gif","","","","","9","complex_similar","images/stimuli/spore_stims/complex_07_B_a.gif","right","","","","",""
"","null","html-keyboard-response","182","503773","0.0-35.0-0.6","SS1613082078376","","","null","","","","","<p><img src= images/blank.png width =""200"" height = ""200"" style = ""float:right""></p><p><img src=images/blank.png width =""800"" height = ""200""></p>","","","","","","","","","","","",""
"","2003.1700001563877","sequential-stimulus-presentation","183","506582","0.0-35.0-1.6","SS1613082078376","trial","","40","800","2803.1700001563877","images/stimuli/spore_stims/complex_07_B_a.gif","images/stimuli/spore_stims/complex_07_A_a.gif","","","","","9","complex_similar","images/stimuli/spore_stims/complex_07_A_a.gif","middle","","","","",""
"","null","html-keyboard-response","184","507605","0.0-35.0-0.7","SS1613082078376","","","null","","","","","<p><img src= images/blank.png width =""200"" height = ""200"" style = ""float:right""></p><p><img src=images/blank.png width =""800"" height = ""200""></p>","","","","","","","","","","","",""
"","1897.385000018403","sequential-stimulus-presentation","185","510321","0.0-35.0-1.7","SS1613082078376","trial","","40","800","2697.385000018403","images/stimuli/spore_stims/complex_07_B_a.gif","images/stimuli/spore_stims/complex_07_A_a.gif","","","","","9","complex_similar","images/stimuli/spore_stims/complex_07_A_a.gif","middle","","","","",""
"","4537.445000139996","html-keyboard-response","186","514878","0.0-36.0","SS1613082078376","pref_question","","49","","","","","<video width ='960' height = '540' style='padding-top:8%' autoplay muted><source src='images/stimuli/wall_pref.mp4' type='video/mp4'></video>","1","left","25%","9","","","","","","","",""
"","1541.09499999322","sequential-stimulus-presentation","187","517229","0.0-37.0","SS1613082078376","pref_reveal","","40","800","2341.09499999322","null","null","","","","","9","","","","novel","","","",""
"","null","html-keyboard-response","188","518481","0.0-38.0-0.0","SS1613082078376","","","null","","","","","<p><img src= images/blank.png width =""200"" height = ""200"" style = ""float:right""></p><p><img src=images/blank.png width =""800"" height = ""200""></p>","","","","","","","","","","","",""
"","220.339999999851","sequential-stimulus-presentation","189","519519","0.0-38.0-1.0","SS1613082078376","trial","","40","800","1020.339999999851","images/stimuli/spore_stims/complex_02_A_c.gif","images/stimuli/spore_stims/complex_02_B_c.gif","","","","","10","complex_similar","images/stimuli/spore_stims/complex_02_B_c.gif","left","","","","",""
"","null","html-keyboard-response","190","520625","0.0-38.0-0.1","SS1613082078376","","","null","","","","","<p><img src= images/blank.png width =""200"" height = ""200"" style = ""float:right""></p><p><img src=images/blank.png width =""800"" height = ""200""></p>","","","","","","","","","","","",""
"","891.8800000101328","sequential-stimulus-presentation","191","522331","0.0-38.0-1.1","SS1613082078376","trial","","40","800","1691.8800000101328","images/stimuli/spore_stims/complex_02_A_c.gif","images/stimuli/spore_stims/complex_02_B_c.gif","","","","","10","complex_similar","images/stimuli/spore_stims/complex_02_B_c.gif","left","","","","",""
"","null","html-keyboard-response","192","523177","0.0-38.0-0.2","SS1613082078376","","","null","","","","","<p><img src= images/blank.png width =""200"" height = ""200"" style = ""float:right""></p><p><img src=images/blank.png width =""800"" height = ""200""></p>","","","","","","","","","","","",""
"","1008.10999982059","sequential-stimulus-presentation","193","525002","0.0-38.0-1.2","SS1613082078376","trial","","40","800","1808.10999982059","images/stimuli/spore_stims/complex_02_A_c.gif","images/stimuli/spore_stims/complex_02_B_c.gif","","","","","10","complex_similar","images/stimuli/spore_stims/complex_02_B_c.gif","left","","","","",""
"","null","html-keyboard-response","194","526012","0.0-38.0-0.3","SS1613082078376","","","null","","","","","<p><img src= images/blank.png width =""200"" height = ""200"" style = ""float:right""></p><p><img src=images/blank.png width =""800"" height = ""200""></p>","","","","","","","","","","","",""
"","1369.6800000034273","sequential-stimulus-presentation","195","528197","0.0-38.0-1.3","SS1613082078376","trial","","40","800","2169.6800000034273","images/stimuli/spore_stims/complex_02_A_c.gif","images/stimuli/spore_stims/complex_02_B_c.gif","","","","","10","complex_similar","images/stimuli/spore_stims/complex_02_B_c.gif","left","","","","",""
"","null","html-keyboard-response","196","529461","0.0-38.0-0.4","SS1613082078376","","","null","","","","","<p><img src= images/blank.png width =""200"" height = ""200"" style = ""float:right""></p><p><img src=images/blank.png width =""800"" height = ""200""></p>","","","","","","","","","","","",""
"","2210.4800001252443","sequential-stimulus-presentation","197","532488","0.0-38.0-1.4","SS1613082078376","trial","","40","800","3010.4800001252443","images/stimuli/spore_stims/complex_02_A_c.gif","images/stimuli/spore_stims/complex_02_B_c.gif","","","","","10","complex_similar","images/stimuli/spore_stims/complex_02_B_c.gif","left","","","","",""
"","null","html-keyboard-response","198","533347","0.0-38.0-0.5","SS1613082078376","","","null","","","","","<p><img src= images/blank.png width =""200"" height = ""200"" style = ""float:right""></p><p><img src=images/blank.png width =""800"" height = ""200""></p>","","","","","","","","","","","",""
"","1160.7600001152605","sequential-stimulus-presentation","199","535326","0.0-38.0-1.5","SS1613082078376","trial","","40","800","1960.7600001152605","images/stimuli/spore_stims/complex_02_A_c.gif","images/stimuli/spore_stims/complex_02_B_c.gif","","","","","10","complex_similar","images/stimuli/spore_stims/complex_02_B_c.gif","left","","","","",""
"","null","html-keyboard-response","200","536278","0.0-38.0-0.6","SS1613082078376","","","null","","","","","<p><img src= images/blank.png width =""200"" height = ""200"" style = ""float:right""></p><p><img src=images/blank.png width =""800"" height = ""200""></p>","","","","","","","","","","","",""
"","2448.6450001131743","sequential-stimulus-presentation","201","539544","0.0-38.0-1.6","SS1613082078376","trial","","40","800","3248.6450001131743","images/stimuli/spore_stims/complex_02_A_c.gif","images/stimuli/spore_stims/complex_02_B_c.gif","","","","","10","complex_similar","images/stimuli/spore_stims/complex_02_B_c.gif","left","","","","",""
"","null","html-keyboard-response","202","540639","0.0-38.0-0.7","SS1613082078376","","","null","","","","","<p><img src= images/blank.png width =""200"" height = ""200"" style = ""float:right""></p><p><img src=images/blank.png width =""800"" height = ""200""></p>","","","","","","","","","","","",""
"","1337.010000133887","sequential-stimulus-presentation","203","542792","0.0-38.0-1.7","SS1613082078376","trial","","40","800","2137.010000133887","images/stimuli/spore_stims/complex_02_A_c.gif","images/stimuli/spore_stims/complex_02_B_c.gif","","","","","10","complex_similar","images/stimuli/spore_stims/complex_02_A_c.gif","right","","","","",""
"","2976.479999953881","html-keyboard-response","204","545776","0.0-39.0","SS1613082078376","pref_question","","50","","","","","<video width ='960' height = '540' style='padding-top:8%' autoplay muted><source src='images/stimuli/wall_pref.mp4' type='video/mp4'></video>","2","middle","45%","10","","","","","","","",""
"","1120.9150000941008","sequential-stimulus-presentation","205","547706","0.0-40.0","SS1613082078376","pref_reveal","","40","800","1920.9150000941008","null","null","","","","","10","","","","novel","","","",""
"","null","html-keyboard-response","206","548530","0.0-41.0-0.0","SS1613082078376","","","null","","","","","<p><img src= images/blank.png width =""200"" height = ""200"" style = ""float:right""></p><p><img src=images/blank.png width =""800"" height = ""200""></p>","","","","","","","","","","","",""
"","640.8349999692291","sequential-stimulus-presentation","207","549987","0.0-41.0-1.0","SS1613082078376","trial","","40","800","1440.834999969229","images/stimuli/spore_stims/complex_16_A_d.gif","images/stimuli/spore_stims/complex_01_A_b.gif","","","","","11","complex_dissimilar","images/stimuli/spore_stims/complex_01_A_b.gif","right","","","","",""
"","null","html-keyboard-response","208","551284","0.0-41.0-0.1","SS1613082078376","","","null","","","","","<p><img src= images/blank.png width =""200"" height = ""200"" style = ""float:right""></p><p><img src=images/blank.png width =""800"" height = ""200""></p>","","","","","","","","","","","",""
"","946.4400000870228","sequential-stimulus-presentation","209","553040","0.0-41.0-1.1","SS1613082078376","trial","","40","800","1746.4400000870228","images/stimuli/spore_stims/complex_16_A_d.gif","images/stimuli/spore_stims/complex_01_A_b.gif","","","","","11","complex_dissimilar","images/stimuli/spore_stims/complex_01_A_b.gif","right","","","","",""
"","null","html-keyboard-response","210","553979","0.0-41.0-0.2","SS1613082078376","","","null","","","","","<p><img src= images/blank.png width =""200"" height = ""200"" style = ""float:right""></p><p><img src=images/blank.png width =""800"" height = ""200""></p>","","","","","","","","","","","",""
"","1051.3100000098348","sequential-stimulus-presentation","211","555842","0.0-41.0-1.2","SS1613082078376","trial","","40","800","1851.3100000098348","images/stimuli/spore_stims/complex_16_A_d.gif","images/stimuli/spore_stims/complex_01_A_b.gif","","","","","11","complex_dissimilar","images/stimuli/spore_stims/complex_01_A_b.gif","right","","","","",""
"","null","html-keyboard-response","212","557095","0.0-41.0-0.3","SS1613082078376","","","null","","","","","<p><img src= images/blank.png width =""200"" height = ""200"" style = ""float:right""></p><p><img src=images/blank.png width =""800"" height = ""200""></p>","","","","","","","","","","","",""
"","2426.810000091791","sequential-stimulus-presentation","213","560338","0.0-41.0-1.3","SS1613082078376","trial","","40","800","3226.810000091791","images/stimuli/spore_stims/complex_16_A_d.gif","images/stimuli/spore_stims/complex_01_A_b.gif","","","","","11","complex_dissimilar","images/stimuli/spore_stims/complex_01_A_b.gif","right","","","","",""
"","null","html-keyboard-response","214","561289","0.0-41.0-0.4","SS1613082078376","","","null","","","","","<p><img src= images/blank.png width =""200"" height = ""200"" style = ""float:right""></p><p><img src=images/blank.png width =""800"" height = ""200""></p>","","","","","","","","","","","",""
"","3271.500000031665","sequential-stimulus-presentation","215","565377","0.0-41.0-1.4","SS1613082078376","trial","","40","800","4071.500000031665","images/stimuli/spore_stims/complex_16_A_d.gif","images/stimuli/spore_stims/complex_01_A_b.gif","","","","","11","complex_dissimilar","images/stimuli/spore_stims/complex_16_A_d.gif","middle","","","","",""
"","null","html-keyboard-response","216","566322","0.0-41.0-0.5","SS1613082078376","","","null","","","","","<p><img src= images/blank.png width =""200"" height = ""200"" style = ""float:right""></p><p><img src=images/blank.png width =""800"" height = ""200""></p>","","","","","","","","","","","",""
"","1036.5800000727177","sequential-stimulus-presentation","217","568176","0.0-41.0-1.5","SS1613082078376","trial","","40","800","1836.5800000727177","images/stimuli/spore_stims/complex_16_A_d.gif","images/stimuli/spore_stims/complex_01_A_b.gif","","","","","11","complex_dissimilar","images/stimuli/spore_stims/complex_01_A_b.gif","right","","","","",""
"","null","html-keyboard-response","218","569224","0.0-41.0-0.6","SS1613082078376","","","null","","","","","<p><img src= images/blank.png width =""200"" height = ""200"" style = ""float:right""></p><p><img src=images/blank.png width =""800"" height = ""200""></p>","","","","","","","","","","","",""
"","2002.024999819696","sequential-stimulus-presentation","219","572040","0.0-41.0-1.6","SS1613082078376","trial","","40","800","2802.024999819696","images/stimuli/spore_stims/complex_16_A_d.gif","images/stimuli/spore_stims/complex_01_A_b.gif","","","","","11","complex_dissimilar","images/stimuli/spore_stims/complex_01_A_b.gif","right","","","","",""
"","null","html-keyboard-response","220","573251","0.0-41.0-0.7","SS1613082078376","","","null","","","","","<p><img src= images/blank.png width =""200"" height = ""200"" style = ""float:right""></p><p><img src=images/blank.png width =""800"" height = ""200""></p>","","","","","","","","","","","",""
"","1211.8150000460446","sequential-stimulus-presentation","221","575274","0.0-41.0-1.7","SS1613082078376","trial","","40","800","2011.8150000460446","images/stimuli/spore_stims/complex_16_A_d.gif","images/stimuli/spore_stims/complex_01_A_b.gif","","","","","11","complex_dissimilar","images/stimuli/spore_stims/complex_01_A_b.gif","right","","","","",""
"","3786.1149997916073","html-keyboard-response","222","579074","0.0-42.0","SS1613082078376","pref_question","","49","","","","","<video width ='960' height = '540' style='padding-top:8%' autoplay muted><source src='images/stimuli/wall_pref.mp4' type='video/mp4'></video>","1","left","25%","11","","","","","","","",""
"","1105.9050001204014","sequential-stimulus-presentation","223","580995","0.0-43.0","SS1613082078376","pref_reveal","","40","800","1905.9050001204014","null","null","","","","","11","","","","novel","","","",""
"","null","html-keyboard-response","224","581933","0.0-44.0-0.0","SS1613082078376","","","null","","","","","<p><img src= images/blank.png width =""200"" height = ""200"" style = ""float:right""></p><p><img src=images/blank.png width =""800"" height = ""200""></p>","","","","","","","","","","","",""
"","2441.219999920577","sequential-stimulus-presentation","225","585188","0.0-44.0-1.0","SS1613082078376","trial","","40","800","3241.219999920577","images/stimuli/spore_stims/simple_19_B_d.gif","images/stimuli/spore_stims/simple_03_A_d.gif","","","","","12","simple_dissimilar","images/stimuli/spore_stims/simple_03_A_d.gif","right","","","","",""
"","null","html-keyboard-response","226","586332","0.0-44.0-0.1","SS1613082078376","","","null","","","","","<p><img src= images/blank.png width =""200"" height = ""200"" style = ""float:right""></p><p><img src=images/blank.png width =""800"" height = ""200""></p>","","","","","","","","","","","",""
"","1791.1749999038875","sequential-stimulus-presentation","227","588939","0.0-44.0-1.1","SS1613082078376","trial","","40","800","2591.1749999038875","images/stimuli/spore_stims/simple_19_B_d.gif","images/stimuli/spore_stims/simple_03_A_d.gif","","","","","12","simple_dissimilar","images/stimuli/spore_stims/simple_03_A_d.gif","right","","","","",""
"","null","html-keyboard-response","228","590207","0.0-44.0-0.2","SS1613082078376","","","null","","","","","<p><img src= images/blank.png width =""200"" height = ""200"" style = ""float:right""></p><p><img src=images/blank.png width =""800"" height = ""200""></p>","","","","","","","","","","","",""
"","2687.8649999853224","sequential-stimulus-presentation","229","593713","0.0-44.0-1.2","SS1613082078376","trial","","40","800","3487.8649999853224","images/stimuli/spore_stims/simple_19_B_d.gif","images/stimuli/spore_stims/simple_03_A_d.gif","","","","","12","simple_dissimilar","images/stimuli/spore_stims/simple_03_A_d.gif","right","","","","",""
"","null","html-keyboard-response","230","594752","0.0-44.0-0.3","SS1613082078376","","","null","","","","","<p><img src= images/blank.png width =""200"" height = ""200"" style = ""float:right""></p><p><img src=images/blank.png width =""800"" height = ""200""></p>","","","","","","","","","","","",""
"","2156.100000021979","sequential-stimulus-presentation","231","597713","0.0-44.0-1.3","SS1613082078376","trial","","40","800","2956.100000021979","images/stimuli/spore_stims/simple_19_B_d.gif","images/stimuli/spore_stims/simple_03_A_d.gif","","","","","12","simple_dissimilar","images/stimuli/spore_stims/simple_03_A_d.gif","right","","","","",""
"","null","html-keyboard-response","232","598660","0.0-44.0-0.4","SS1613082078376","","","null","","","","","<p><img src= images/blank.png width =""200"" height = ""200"" style = ""float:right""></p><p><img src=images/blank.png width =""800"" height = ""200""></p>","","","","","","","","","","","",""
"","3267.5550000276417","sequential-stimulus-presentation","233","602746","0.0-44.0-1.4","SS1613082078376","trial","","40","800","4067.5550000276417","images/stimuli/spore_stims/simple_19_B_d.gif","images/stimuli/spore_stims/simple_03_A_d.gif","","","","","12","simple_dissimilar","images/stimuli/spore_stims/simple_19_B_d.gif","middle","","","","",""
"","null","html-keyboard-response","234","603812","0.0-44.0-0.5","SS1613082078376","","","null","","","","","<p><img src= images/blank.png width =""200"" height = ""200"" style = ""float:right""></p><p><img src=images/blank.png width =""800"" height = ""200""></p>","","","","","","","","","","","",""
"","1321.7199998907745","sequential-stimulus-presentation","235","605951","0.0-44.0-1.5","SS1613082078376","trial","","40","800","2121.7199998907745","images/stimuli/spore_stims/simple_19_B_d.gif","images/stimuli/spore_stims/simple_03_A_d.gif","","","","","12","simple_dissimilar","images/stimuli/spore_stims/simple_03_A_d.gif","right","","","","",""
"","null","html-keyboard-response","236","606892","0.0-44.0-0.6","SS1613082078376","","","null","","","","","<p><img src= images/blank.png width =""200"" height = ""200"" style = ""float:right""></p><p><img src=images/blank.png width =""800"" height = ""200""></p>","","","","","","","","","","","",""
"","2595.3799998387694","sequential-stimulus-presentation","237","610294","0.0-44.0-1.6","SS1613082078376","trial","","40","800","3395.3799998387694","images/stimuli/spore_stims/simple_19_B_d.gif","images/stimuli/spore_stims/simple_03_A_d.gif","","","","","12","simple_dissimilar","images/stimuli/spore_stims/simple_03_A_d.gif","right","","","","",""
"","null","html-keyboard-response","238","611474","0.0-44.0-0.7","SS1613082078376","","","null","","","","","<p><img src= images/blank.png width =""200"" height = ""200"" style = ""float:right""></p><p><img src=images/blank.png width =""800"" height = ""200""></p>","","","","","","","","","","","",""
"","899.449999909848","sequential-stimulus-presentation","239","613191","0.0-44.0-1.7","SS1613082078376","trial","","40","800","1699.449999909848","images/stimuli/spore_stims/simple_19_B_d.gif","images/stimuli/spore_stims/simple_03_A_d.gif","","","","","12","simple_dissimilar","images/stimuli/spore_stims/simple_03_A_d.gif","right","","","","",""
"","6040.01500015147","html-keyboard-response","240","619253","0.0-45.0","SS1613082078376","pref_question","","49","","","","","<video width ='960' height = '540' style='padding-top:8%' autoplay muted><source src='images/stimuli/wall_pref.mp4' type='video/mp4'></video>","1","left","25%","12","","","","","","","",""
"","3339.570000069216","sequential-stimulus-presentation","241","623407","0.0-46.0","SS1613082078376","pref_reveal","","40","800","4139.570000069216","null","null","","","","","12","","","","novel","","","",""
"","null","html-keyboard-response","242","624691","0.0-47.0-0.0","SS1613082078376","","","null","","","","","<p><img src= images/blank.png width =""200"" height = ""200"" style = ""float:right""></p><p><img src=images/blank.png width =""800"" height = ""200""></p>","","","","","","","","","","","",""
"","3.874999936670065","sequential-stimulus-presentation","243","625503","0.0-47.0-1.0","SS1613082078376","trial","","40","800","803.8749999366701","images/stimuli/spore_stims/complex_13_A_a.gif","images/stimuli/spore_stims/complex_04_B_a.gif","","","","","13","complex_dissimilar","images/stimuli/spore_stims/complex_04_B_a.gif","middle","","","","",""
"","null","html-keyboard-response","244","626662","0.0-47.0-0.1","SS1613082078376","","","null","","","","","<p><img src= images/blank.png width =""200"" height = ""200"" style = ""float:right""></p><p><img src=images/blank.png width =""800"" height = ""200""></p>","","","","","","","","","","","",""
"","655.7699998375028","sequential-stimulus-presentation","245","628141","0.0-47.0-1.1","SS1613082078376","trial","","40","800","1455.7699998375028","images/stimuli/spore_stims/complex_13_A_a.gif","images/stimuli/spore_stims/complex_04_B_a.gif","","","","","13","complex_dissimilar","images/stimuli/spore_stims/complex_04_B_a.gif","middle","","","","",""
"","null","html-keyboard-response","246","629315","0.0-47.0-0.2","SS1613082078376","","","null","","","","","<p><img src= images/blank.png width =""200"" height = ""200"" style = ""float:right""></p><p><img src=images/blank.png width =""800"" height = ""200""></p>","","","","","","","","","","","",""
"","687.9450001288205","sequential-stimulus-presentation","247","630820","0.0-47.0-1.2","SS1613082078376","trial","","40","800","1487.9450001288205","images/stimuli/spore_stims/complex_13_A_a.gif","images/stimuli/spore_stims/complex_04_B_a.gif","","","","","13","complex_dissimilar","images/stimuli/spore_stims/complex_04_B_a.gif","middle","","","","",""
"","null","html-keyboard-response","248","631649","0.0-47.0-0.3","SS1613082078376","","","null","","","","","<p><img src= images/blank.png width =""200"" height = ""200"" style = ""float:right""></p><p><img src=images/blank.png width =""800"" height = ""200""></p>","","","","","","","","","","","",""
"","541.2349998950958","sequential-stimulus-presentation","249","633012","0.0-47.0-1.3","SS1613082078376","trial","","40","800","1341.2349998950958","images/stimuli/spore_stims/complex_13_A_a.gif","images/stimuli/spore_stims/complex_04_B_a.gif","","","","","13","complex_dissimilar","images/stimuli/spore_stims/complex_04_B_a.gif","middle","","","","",""
"","null","html-keyboard-response","250","633846","0.0-47.0-0.4","SS1613082078376","","","null","","","","","<p><img src= images/blank.png width =""200"" height = ""200"" style = ""float:right""></p><p><img src=images/blank.png width =""800"" height = ""200""></p>","","","","","","","","","","","",""
"","647.8950001765043","sequential-stimulus-presentation","251","635301","0.0-47.0-1.4","SS1613082078376","trial","","40","800","1447.8950001765043","images/stimuli/spore_stims/complex_13_A_a.gif","images/stimuli/spore_stims/complex_04_B_a.gif","","","","","13","complex_dissimilar","images/stimuli/spore_stims/complex_04_B_a.gif","middle","","","","",""
"","null","html-keyboard-response","252","636435","0.0-47.0-0.5","SS1613082078376","","","null","","","","","<p><img src= images/blank.png width =""200"" height = ""200"" style = ""float:right""></p><p><img src=images/blank.png width =""800"" height = ""200""></p>","","","","","","","","","","","",""
"","1036.4300000946969","sequential-stimulus-presentation","253","638289","0.0-47.0-1.5","SS1613082078376","trial","","40","800","1836.4300000946969","images/stimuli/spore_stims/complex_13_A_a.gif","images/stimuli/spore_stims/complex_04_B_a.gif","","","","","13","complex_dissimilar","images/stimuli/spore_stims/complex_13_A_a.gif","left","","","","",""
"","null","html-keyboard-response","254","639574","0.0-47.0-0.6","SS1613082078376","","","null","","","","","<p><img src= images/blank.png width =""200"" height = ""200"" style = ""float:right""></p><p><img src=images/blank.png width =""800"" height = ""200""></p>","","","","","","","","","","","",""
"","703.8249999750406","sequential-stimulus-presentation","255","641096","0.0-47.0-1.6","SS1613082078376","trial","","40","800","1503.8249999750406","images/stimuli/spore_stims/complex_13_A_a.gif","images/stimuli/spore_stims/complex_04_B_a.gif","","","","","13","complex_dissimilar","images/stimuli/spore_stims/complex_04_B_a.gif","middle","","","","",""
"","null","html-keyboard-response","256","642150","0.0-47.0-0.7","SS1613082078376","","","null","","","","","<p><img src= images/blank.png width =""200"" height = ""200"" style = ""float:right""></p><p><img src=images/blank.png width =""800"" height = ""200""></p>","","","","","","","","","","","",""
"","1538.0900001619011","sequential-stimulus-presentation","257","644507","0.0-47.0-1.7","SS1613082078376","trial","","40","800","2338.090000161901","images/stimuli/spore_stims/complex_13_A_a.gif","images/stimuli/spore_stims/complex_04_B_a.gif","","","","","13","complex_dissimilar","images/stimuli/spore_stims/complex_04_B_a.gif","middle","","","","",""
"","3317.8550000302494","html-keyboard-response","258","647845","0.0-48.0","SS1613082078376","pref_question","","51","","","","","<video width ='960' height = '540' style='padding-top:8%' autoplay muted><source src='images/stimuli/wall_pref.mp4' type='video/mp4'></video>","3","right","66%","13","","","","","","","",""
"","1628.8550000172108","sequential-stimulus-presentation","259","650291","0.0-49.0","SS1613082078376","pref_reveal","","40","800","2428.855000017211","null","null","","","","","13","","","","novel","","","",""
"","null","html-keyboard-response","260","651171","0.0-50.0-0.0","SS1613082078376","","","null","","","","","<p><img src= images/blank.png width =""200"" height = ""200"" style = ""float:right""></p><p><img src=images/blank.png width =""800"" height = ""200""></p>","","","","","","","","","","","",""
"","1071.6950001660734","sequential-stimulus-presentation","261","653061","0.0-50.0-1.0","SS1613082078376","trial","","40","800","1871.6950001660734","images/stimuli/spore_stims/simple_13_A_a.gif","images/stimuli/spore_stims/simple_13_B_a.gif","","","","","14","simple_similar","images/stimuli/spore_stims/simple_13_B_a.gif","middle","","","","",""
"","null","html-keyboard-response","262","653982","0.0-50.0-0.1","SS1613082078376","","","null","","","","","<p><img src= images/blank.png width =""200"" height = ""200"" style = ""float:right""></p><p><img src=images/blank.png width =""800"" height = ""200""></p>","","","","","","","","","","","",""
"","617.5150000490248","sequential-stimulus-presentation","263","655408","0.0-50.0-1.1","SS1613082078376","trial","","40","800","1417.5150000490248","images/stimuli/spore_stims/simple_13_A_a.gif","images/stimuli/spore_stims/simple_13_B_a.gif","","","","","14","simple_similar","images/stimuli/spore_stims/simple_13_B_a.gif","middle","","","","",""
"","null","html-keyboard-response","264","656254","0.0-50.0-0.2","SS1613082078376","","","null","","","","","<p><img src= images/blank.png width =""200"" height = ""200"" style = ""float:right""></p><p><img src=images/blank.png width =""800"" height = ""200""></p>","","","","","","","","","","","",""
"","1300.3350000362843","sequential-stimulus-presentation","265","658373","0.0-50.0-1.2","SS1613082078376","trial","","40","800","2100.3350000362843","images/stimuli/spore_stims/simple_13_A_a.gif","images/stimuli/spore_stims/simple_13_B_a.gif","","","","","14","simple_similar","images/stimuli/spore_stims/simple_13_B_a.gif","middle","","","","",""
"","null","html-keyboard-response","266","659335","0.0-50.0-0.3","SS1613082078376","","","null","","","","","<p><img src= images/blank.png width =""200"" height = ""200"" style = ""float:right""></p><p><img src=images/blank.png width =""800"" height = ""200""></p>","","","","","","","","","","","",""
"","1902.6049999520183","sequential-stimulus-presentation","267","662065","0.0-50.0-1.3","SS1613082078376","trial","","40","800","2702.6049999520183","images/stimuli/spore_stims/simple_13_A_a.gif","images/stimuli/spore_stims/simple_13_B_a.gif","","","","","14","simple_similar","images/stimuli/spore_stims/simple_13_B_a.gif","middle","","","","",""
"","null","html-keyboard-response","268","662942","0.0-50.0-0.4","SS1613082078376","","","null","","","","","<p><img src= images/blank.png width =""200"" height = ""200"" style = ""float:right""></p><p><img src=images/blank.png width =""800"" height = ""200""></p>","","","","","","","","","","","",""
"","2261.5650000516325","sequential-stimulus-presentation","269","666009","0.0-50.0-1.4","SS1613082078376","trial","","40","800","3061.5650000516325","images/stimuli/spore_stims/simple_13_A_a.gif","images/stimuli/spore_stims/simple_13_B_a.gif","","","","","14","simple_similar","images/stimuli/spore_stims/simple_13_A_a.gif","right","","","","",""
"","null","html-keyboard-response","270","667193","0.0-50.0-0.5","SS1613082078376","","","null","","","","","<p><img src= images/blank.png width =""200"" height = ""200"" style = ""float:right""></p><p><img src=images/blank.png width =""800"" height = ""200""></p>","","","","","","","","","","","",""
"","693.3800000697374","sequential-stimulus-presentation","271","668703","0.0-50.0-1.5","SS1613082078376","trial","","40","800","1493.3800000697374","images/stimuli/spore_stims/simple_13_A_a.gif","images/stimuli/spore_stims/simple_13_B_a.gif","","","","","14","simple_similar","images/stimuli/spore_stims/simple_13_B_a.gif","middle","","","","",""
"","null","html-keyboard-response","272","669878","0.0-50.0-0.6","SS1613082078376","","","null","","","","","<p><img src= images/blank.png width =""200"" height = ""200"" style = ""float:right""></p><p><img src=images/blank.png width =""800"" height = ""200""></p>","","","","","","","","","","","",""
"","6010.084999958053","sequential-stimulus-presentation","273","676695","0.0-50.0-1.6","SS1613082078376","trial","","40","800","6810.084999958053","images/stimuli/spore_stims/simple_13_A_a.gif","images/stimuli/spore_stims/simple_13_B_a.gif","","","","","14","simple_similar","images/stimuli/spore_stims/simple_13_B_a.gif","middle","","","","",""
"","null","html-keyboard-response","274","677912","0.0-50.0-0.7","SS1613082078376","","","null","","","","","<p><img src= images/blank.png width =""200"" height = ""200"" style = ""float:right""></p><p><img src=images/blank.png width =""800"" height = ""200""></p>","","","","","","","","","","","",""
"","1661.9599999394268","sequential-stimulus-presentation","275","680389","0.0-50.0-1.7","SS1613082078376","trial","","40","800","2461.959999939427","images/stimuli/spore_stims/simple_13_A_a.gif","images/stimuli/spore_stims/simple_13_B_a.gif","","","","","14","simple_similar","images/stimuli/spore_stims/simple_13_B_a.gif","middle","","","","",""
"","2256.675000069663","html-keyboard-response","276","682674","0.0-51.0","SS1613082078376","pref_question","","49","","","","","<video width ='960' height = '540' style='padding-top:8%' autoplay muted><source src='images/stimuli/wall_pref.mp4' type='video/mp4'></video>","1","left","25%","14","","","","","","","",""
"","1597.0399999059737","sequential-stimulus-presentation","277","685084","0.0-52.0","SS1613082078376","pref_reveal","","40","800","2397.0399999059737","null","null","","","","","14","","","","novel","","","",""
"","null","html-keyboard-response","278","686304","0.0-53.0-0.0","SS1613082078376","","","null","","","","","<p><img src= images/blank.png width =""200"" height = ""200"" style = ""float:right""></p><p><img src=images/blank.png width =""800"" height = ""200""></p>","","","","","","","","","","","",""
"","1915.1549998205155","sequential-stimulus-presentation","279","689038","0.0-53.0-1.0","SS1613082078376","trial","","40","800","2715.1549998205155","images/stimuli/spore_stims/complex_05_B_c.gif","images/stimuli/spore_stims/complex_15_B_a.gif","","","","","15","complex_dissimilar","images/stimuli/spore_stims/complex_15_B_a.gif","right","","","","",""
"","null","html-keyboard-response","280","690295","0.0-53.0-0.1","SS1613082078376","","","null","","","","","<p><img src= images/blank.png width =""200"" height = ""200"" style = ""float:right""></p><p><img src=images/blank.png width =""800"" height = ""200""></p>","","","","","","","","","","","",""
"","4946.944999974221","sequential-stimulus-presentation","281","696062","0.0-53.0-1.1","SS1613082078376","trial","","40","800","5746.944999974221","images/stimuli/spore_stims/complex_05_B_c.gif","images/stimuli/spore_stims/complex_15_B_a.gif","","","","","15","complex_dissimilar","images/stimuli/spore_stims/complex_15_B_a.gif","right","","","","",""
"","null","html-keyboard-response","282","697218","0.0-53.0-0.2","SS1613082078376","","","null","","","","","<p><img src= images/blank.png width =""200"" height = ""200"" style = ""float:right""></p><p><img src=images/blank.png width =""800"" height = ""200""></p>","","","","","","","","","","","",""
"","4387.984999921173","sequential-stimulus-presentation","283","702424","0.0-53.0-1.2","SS1613082078376","trial","","40","800","5187.984999921173","images/stimuli/spore_stims/complex_05_B_c.gif","images/stimuli/spore_stims/complex_15_B_a.gif","","","","","15","complex_dissimilar","images/stimuli/spore_stims/complex_15_B_a.gif","right","","","","",""
"","null","html-keyboard-response","284","703419","0.0-53.0-0.3","SS1613082078376","","","null","","","","","<p><img src= images/blank.png width =""200"" height = ""200"" style = ""float:right""></p><p><img src=images/blank.png width =""800"" height = ""200""></p>","","","","","","","","","","","",""
"","1568.9899998251349","sequential-stimulus-presentation","285","705807","0.0-53.0-1.3","SS1613082078376","trial","","40","800","2368.989999825135","images/stimuli/spore_stims/complex_05_B_c.gif","images/stimuli/spore_stims/complex_15_B_a.gif","","","","","15","complex_dissimilar","images/stimuli/spore_stims/complex_15_B_a.gif","right","","","","",""
"","null","html-keyboard-response","286","706700","0.0-53.0-0.4","SS1613082078376","","","null","","","","","<p><img src= images/blank.png width =""200"" height = ""200"" style = ""float:right""></p><p><img src=images/blank.png width =""800"" height = ""200""></p>","","","","","","","","","","","",""
"","1664.600000018254","sequential-stimulus-presentation","287","709174","0.0-53.0-1.4","SS1613082078376","trial","","40","800","2464.600000018254","images/stimuli/spore_stims/complex_05_B_c.gif","images/stimuli/spore_stims/complex_15_B_a.gif","","","","","15","complex_dissimilar","images/stimuli/spore_stims/complex_05_B_c.gif","middle","","","","",""
"","null","html-keyboard-response","288","710251","0.0-53.0-0.5","SS1613082078376","","","null","","","","","<p><img src= images/blank.png width =""200"" height = ""200"" style = ""float:right""></p><p><img src=images/blank.png width =""800"" height = ""200""></p>","","","","","","","","","","","",""
"","1964.2350000794977","sequential-stimulus-presentation","289","713037","0.0-53.0-1.5","SS1613082078376","trial","","40","800","2764.2350000794977","images/stimuli/spore_stims/complex_05_B_c.gif","images/stimuli/spore_stims/complex_15_B_a.gif","","","","","15","complex_dissimilar","images/stimuli/spore_stims/complex_15_B_a.gif","right","","","","",""
"","null","html-keyboard-response","290","714341","0.0-53.0-0.6","SS1613082078376","","","null","","","","","<p><img src= images/blank.png width =""200"" height = ""200"" style = ""float:right""></p><p><img src=images/blank.png width =""800"" height = ""200""></p>","","","","","","","","","","","",""
"","1045.4949999693781","sequential-stimulus-presentation","291","716199","0.0-53.0-1.6","SS1613082078376","trial","","40","800","1845.4949999693781","images/stimuli/spore_stims/complex_05_B_c.gif","images/stimuli/spore_stims/complex_15_B_a.gif","","","","","15","complex_dissimilar","images/stimuli/spore_stims/complex_15_B_a.gif","right","","","","",""
"","null","html-keyboard-response","292","717183","0.0-53.0-0.7","SS1613082078376","","","null","","","","","<p><img src= images/blank.png width =""200"" height = ""200"" style = ""float:right""></p><p><img src=images/blank.png width =""800"" height = ""200""></p>","","","","","","","","","","","",""
"","1025.395000120625","sequential-stimulus-presentation","293","719024","0.0-53.0-1.7","SS1613082078376","trial","","40","800","1825.395000120625","images/stimuli/spore_stims/complex_05_B_c.gif","images/stimuli/spore_stims/complex_15_B_a.gif","","","","","15","complex_dissimilar","images/stimuli/spore_stims/complex_15_B_a.gif","right","","","","",""
"","1383.5849999450147","html-keyboard-response","294","720425","0.0-54.0","SS1613082078376","pref_question","","49","","","","","<video width ='960' height = '540' style='padding-top:8%' autoplay muted><source src='images/stimuli/wall_pref.mp4' type='video/mp4'></video>","1","left","25%","15","","","","","","","",""
"","939.6800000686198","sequential-stimulus-presentation","295","722184","0.0-55.0","SS1613082078376","pref_reveal","","40","800","1739.6800000686198","null","null","","","","","15","","","","novel","","","",""
"","null","html-keyboard-response","296","723193","0.0-56.0-0.0","SS1613082078376","","","null","","","","","<p><img src= images/blank.png width =""200"" height = ""200"" style = ""float:right""></p><p><img src=images/blank.png width =""800"" height = ""200""></p>","","","","","","","","","","","",""
"","52.8700000140816","sequential-stimulus-presentation","297","724056","0.0-56.0-1.0","SS1613082078376","trial","","40","800","852.8700000140816","images/stimuli/spore_stims/simple_06_B_c.gif","images/stimuli/spore_stims/simple_07_B_b.gif","","","","","16","simple_dissimilar","images/stimuli/spore_stims/simple_07_B_b.gif","right","","","","",""
"","null","html-keyboard-response","298","725365","0.0-56.0-0.1","SS1613082078376","","","null","","","","","<p><img src= images/blank.png width =""200"" height = ""200"" style = ""float:right""></p><p><img src=images/blank.png width =""800"" height = ""200""></p>","","","","","","","","","","","",""
"","417.87999984808266","sequential-stimulus-presentation","299","726601","0.0-56.0-1.1","SS1613082078376","trial","","40","800","1217.8799998480827","images/stimuli/spore_stims/simple_06_B_c.gif","images/stimuli/spore_stims/simple_07_B_b.gif","","","","","16","simple_dissimilar","images/stimuli/spore_stims/simple_07_B_b.gif","right","","","","",""
"","null","html-keyboard-response","300","727846","0.0-56.0-0.2","SS1613082078376","","","null","","","","","<p><img src= images/blank.png width =""200"" height = ""200"" style = ""float:right""></p><p><img src=images/blank.png width =""800"" height = ""200""></p>","","","","","","","","","","","",""
"","500.50500012002885","sequential-stimulus-presentation","301","729167","0.0-56.0-1.2","SS1613082078376","trial","","40","800","1300.5050001200289","images/stimuli/spore_stims/simple_06_B_c.gif","images/stimuli/spore_stims/simple_07_B_b.gif","","","","","16","simple_dissimilar","images/stimuli/spore_stims/simple_07_B_b.gif","right","","","","",""
"","null","html-keyboard-response","302","730329","0.0-56.0-0.3","SS1613082078376","","","null","","","","","<p><img src= images/blank.png width =""200"" height = ""200"" style = ""float:right""></p><p><img src=images/blank.png width =""800"" height = ""200""></p>","","","","","","","","","","","",""
"","701.935000019148","sequential-stimulus-presentation","303","731848","0.0-56.0-1.3","SS1613082078376","trial","","40","800","1501.935000019148","images/stimuli/spore_stims/simple_06_B_c.gif","images/stimuli/spore_stims/simple_07_B_b.gif","","","","","16","simple_dissimilar","images/stimuli/spore_stims/simple_07_B_b.gif","right","","","","",""
"","null","html-keyboard-response","304","733126","0.0-56.0-0.4","SS1613082078376","","","null","","","","","<p><img src= images/blank.png width =""200"" height = ""200"" style = ""float:right""></p><p><img src=images/blank.png width =""800"" height = ""200""></p>","","","","","","","","","","","",""
"","299.99500000849366","sequential-stimulus-presentation","305","734243","0.0-56.0-1.4","SS1613082078376","trial","","40","800","1099.9950000084937","images/stimuli/spore_stims/simple_06_B_c.gif","images/stimuli/spore_stims/simple_07_B_b.gif","","","","","16","simple_dissimilar","images/stimuli/spore_stims/simple_07_B_b.gif","right","","","","",""
"","null","html-keyboard-response","306","735309","0.0-56.0-0.5","SS1613082078376","","","null","","","","","<p><img src= images/blank.png width =""200"" height = ""200"" style = ""float:right""></p><p><img src=images/blank.png width =""800"" height = ""200""></p>","","","","","","","","","","","",""
"","99.27999996580184","sequential-stimulus-presentation","307","736241","0.0-56.0-1.5","SS1613082078376","trial","","40","800","899.2799999658018","images/stimuli/spore_stims/simple_06_B_c.gif","images/stimuli/spore_stims/simple_07_B_b.gif","","","","","16","simple_dissimilar","images/stimuli/spore_stims/simple_07_B_b.gif","right","","","","",""
"","null","html-keyboard-response","308","737348","0.0-56.0-0.6","SS1613082078376","","","null","","","","","<p><img src= images/blank.png width =""200"" height = ""200"" style = ""float:right""></p><p><img src=images/blank.png width =""800"" height = ""200""></p>","","","","","","","","","","","",""
"","624.8050001449883","sequential-stimulus-presentation","309","738781","0.0-56.0-1.6","SS1613082078376","trial","","40","800","1424.8050001449883","images/stimuli/spore_stims/simple_06_B_c.gif","images/stimuli/spore_stims/simple_07_B_b.gif","","","","","16","simple_dissimilar","images/stimuli/spore_stims/simple_06_B_c.gif","left","","","","",""
"","null","html-keyboard-response","310","739724","0.0-56.0-0.7","SS1613082078376","","","null","","","","","<p><img src= images/blank.png width =""200"" height = ""200"" style = ""float:right""></p><p><img src=images/blank.png width =""800"" height = ""200""></p>","","","","","","","","","","","",""
"","485.14000000432134","sequential-stimulus-presentation","311","741014","0.0-56.0-1.7","SS1613082078376","trial","","40","800","1285.1400000043213","images/stimuli/spore_stims/simple_06_B_c.gif","images/stimuli/spore_stims/simple_07_B_b.gif","","","","","16","simple_dissimilar","images/stimuli/spore_stims/simple_07_B_b.gif","right","","","","",""
"","3680.6199999991804","html-keyboard-response","312","744717","0.0-57.0","SS1613082078376","pref_question","","50","","","","","<video width ='960' height = '540' style='padding-top:8%' autoplay muted><source src='images/stimuli/wall_pref.mp4' type='video/mp4'></video>","2","middle","45%","16","","","","","","","",""
