"view_history","rt","trial_type","trial_index","time_elapsed","internal_node_id","subject","stimulus_type","trial_stimulus","key_press","minimum_viewing_duration","trial_looking_time","block_deviant","block_background","stimulus","wall_pref","location","location_percent","block_number","block_type","stimulus_displayed","position_displayed","stim_type_selected","responses","question_order","stimulus_left","stimulus_right"
"[{""page_index"":0,""viewing_time"":25970.984999999928}]","25972.44000000137","instructions","0","25978","0.0-0.0","SS1613081908596","","","","","","","","","","","","","","","","","","","",""
"[{""page_index"":0,""viewing_time"":36895.360000002256},{""page_index"":1,""viewing_time"":6654.114999997546}]","43550.255000001926","instructions","1","71535","0.0-1.0","SS1613081908596","instructions","","","","","","","","","","","","","","","","","","",""
"","1382.2699999982433","sequential-stimulus-presentation","2","73734","0.0-2.0","SS1613081908596","","","40","800","2182.2699999982433","null","null","","","","","","","","","","","","",""
"","314.9149999990186","sequential-stimulus-presentation","3","74862","0.0-3.0","SS1613081908596","","","40","800","1114.9149999990186","null","null","","","","","","","","","","","","",""
"[{""page_index"":0,""viewing_time"":1809.2499999984284}]","1809.8549999995157","instructions","4","76676","0.0-4.0","SS1613081908596","instructions","","","","","","","","","","","","","","","","","","",""
"","2237.809999998717","html-keyboard-response","5","78925","0.0-5.0","SS1613081908596","instructions","","98","","","","","<video width ='960' height = '540' autoplay muted><source src='images/stimuli/wall_pref.mp4' type='video/mp4'></video>","2","middle","45%","","","","","","","","",""
"","3192.094999998517","sequential-stimulus-presentation","6","82935","0.0-6.0","SS1613081908596","pref_reveal","","40","800","3992.094999998517","null","null","","","","","","","","","","","","",""
"[{""page_index"":0,""viewing_time"":1321.5300000010757},{""page_index"":1,""viewing_time"":192.05499999952735},{""page_index"":2,""viewing_time"":511.85999999870546},{""page_index"":3,""viewing_time"":519.8550000022806}]","2545.924999998533","instructions","7","85485","0.0-7.0","SS1613081908596","instructions","","","","","","","","","","","","","","","","","","",""
"","null","html-keyboard-response","8","86415","0.0-8.0-0.0","SS1613081908596","","","null","","","","","<p><img src= images/blank.png width =""200"" height = ""200"" style = ""float:right""></p><p><img src=images/blank.png width =""800"" height = ""200""></p>","","","","","","","","","","","",""
"","1029.8900000016147","sequential-stimulus-presentation","9","88261","0.0-8.0-1.0","SS1613081908596","trial","","40","800","1829.8900000016147","images/stimuli/spore_stims/simple_08_B_c.gif","images/stimuli/spore_stims/simple_12_A_a.gif","","","","","0","simple_dissimilar","images/stimuli/spore_stims/simple_12_A_a.gif","right","","","","",""
"","null","html-keyboard-response","10","89504","0.0-8.0-0.1","SS1613081908596","","","null","","","","","<p><img src= images/blank.png width =""200"" height = ""200"" style = ""float:right""></p><p><img src=images/blank.png width =""800"" height = ""200""></p>","","","","","","","","","","","",""
"","862.9650000002584","sequential-stimulus-presentation","11","91180","0.0-8.0-1.1","SS1613081908596","trial","","40","800","1662.9650000002584","images/stimuli/spore_stims/simple_08_B_c.gif","images/stimuli/spore_stims/simple_12_A_a.gif","","","","","0","simple_dissimilar","images/stimuli/spore_stims/simple_12_A_a.gif","right","","","","",""
"","null","html-keyboard-response","12","92029","0.0-8.0-0.2","SS1613081908596","","","null","","","","","<p><img src= images/blank.png width =""200"" height = ""200"" style = ""float:right""></p><p><img src=images/blank.png width =""800"" height = ""200""></p>","","","","","","","","","","","",""
"","226.65000000051805","sequential-stimulus-presentation","13","93069","0.0-8.0-1.2","SS1613081908596","trial","","40","800","1026.650000000518","images/stimuli/spore_stims/simple_08_B_c.gif","images/stimuli/spore_stims/simple_12_A_a.gif","","","","","0","simple_dissimilar","images/stimuli/spore_stims/simple_12_A_a.gif","right","","","","",""
"","null","html-keyboard-response","14","94153","0.0-8.0-0.3","SS1613081908596","","","null","","","","","<p><img src= images/blank.png width =""200"" height = ""200"" style = ""float:right""></p><p><img src=images/blank.png width =""800"" height = ""200""></p>","","","","","","","","","","","",""
"","221.6499999994994","sequential-stimulus-presentation","15","95212","0.0-8.0-1.3","SS1613081908596","trial","","40","800","1021.6499999994994","images/stimuli/spore_stims/simple_08_B_c.gif","images/stimuli/spore_stims/simple_12_A_a.gif","","","","","0","simple_dissimilar","images/stimuli/spore_stims/simple_12_A_a.gif","right","","","","",""
"","null","html-keyboard-response","16","96129","0.0-8.0-0.4","SS1613081908596","","","null","","","","","<p><img src= images/blank.png width =""200"" height = ""200"" style = ""float:right""></p><p><img src=images/blank.png width =""800"" height = ""200""></p>","","","","","","","","","","","",""
"","404.8350000011851","sequential-stimulus-presentation","17","97347","0.0-8.0-1.4","SS1613081908596","trial","","40","800","1204.835000001185","images/stimuli/spore_stims/simple_08_B_c.gif","images/stimuli/spore_stims/simple_12_A_a.gif","","","","","0","simple_dissimilar","images/stimuli/spore_stims/simple_12_A_a.gif","right","","","","",""
"","null","html-keyboard-response","18","98246","0.0-8.0-0.5","SS1613081908596","","","null","","","","","<p><img src= images/blank.png width =""200"" height = ""200"" style = ""float:right""></p><p><img src=images/blank.png width =""800"" height = ""200""></p>","","","","","","","","","","","",""
"","143.36499999990338","sequential-stimulus-presentation","19","99202","0.0-8.0-1.5","SS1613081908596","trial","","40","800","943.3649999999034","images/stimuli/spore_stims/simple_08_B_c.gif","images/stimuli/spore_stims/simple_12_A_a.gif","","","","","0","simple_dissimilar","images/stimuli/spore_stims/simple_12_A_a.gif","right","","","","",""
"","null","html-keyboard-response","20","100109","0.0-8.0-0.6","SS1613081908596","","","null","","","","","<p><img src= images/blank.png width =""200"" height = ""200"" style = ""float:right""></p><p><img src=images/blank.png width =""800"" height = ""200""></p>","","","","","","","","","","","",""
"","448.0799999982992","sequential-stimulus-presentation","21","101370","0.0-8.0-1.6","SS1613081908596","trial","","40","800","1248.0799999982992","images/stimuli/spore_stims/simple_08_B_c.gif","images/stimuli/spore_stims/simple_12_A_a.gif","","","","","0","simple_dissimilar","images/stimuli/spore_stims/simple_08_B_c.gif","middle","","","","",""
"","null","html-keyboard-response","22","102473","0.0-8.0-0.7","SS1613081908596","","","null","","","","","<p><img src= images/blank.png width =""200"" height = ""200"" style = ""float:right""></p><p><img src=images/blank.png width =""800"" height = ""200""></p>","","","","","","","","","","","",""
"","2171.3850000014645","sequential-stimulus-presentation","23","105458","0.0-8.0-1.7","SS1613081908596","trial","","40","800","2971.3850000014645","images/stimuli/spore_stims/simple_08_B_c.gif","images/stimuli/spore_stims/simple_12_A_a.gif","","","","","0","simple_dissimilar","images/stimuli/spore_stims/simple_12_A_a.gif","right","","","","",""
"","7178.725000001577","html-keyboard-response","24","112651","0.0-9.0","SS1613081908596","pref_question","","99","","","","","<video width ='960' height = '540' style='padding-top:8%' autoplay muted><source src='images/stimuli/wall_pref.mp4' type='video/mp4'></video>","3","right","66%","0","","","","","","","",""
"","1827.434999999241","sequential-stimulus-presentation","25","115295","0.0-10.0","SS1613081908596","pref_reveal","","40","800","2627.434999999241","null","null","","","","","0","","","","background","","","",""
"","null","html-keyboard-response","26","116401","0.0-11.0-0.0","SS1613081908596","","","null","","","","","<p><img src= images/blank.png width =""200"" height = ""200"" style = ""float:right""></p><p><img src=images/blank.png width =""800"" height = ""200""></p>","","","","","","","","","","","",""
"","374.79499999972177","sequential-stimulus-presentation","27","117591","0.0-11.0-1.0","SS1613081908596","trial","","40","800","1174.7949999997218","images/stimuli/spore_stims/complex_12_A_d.gif","images/stimuli/spore_stims/complex_04_A_b.gif","","","","","1","complex_dissimilar","images/stimuli/spore_stims/complex_04_A_b.gif","middle","","","","",""
"","null","html-keyboard-response","28","118773","0.0-11.0-0.1","SS1613081908596","","","null","","","","","<p><img src= images/blank.png width =""200"" height = ""200"" style = ""float:right""></p><p><img src=images/blank.png width =""800"" height = ""200""></p>","","","","","","","","","","","",""
"","595.485000001645","sequential-stimulus-presentation","29","120183","0.0-11.0-1.1","SS1613081908596","trial","","40","800","1395.485000001645","images/stimuli/spore_stims/complex_12_A_d.gif","images/stimuli/spore_stims/complex_04_A_b.gif","","","","","1","complex_dissimilar","images/stimuli/spore_stims/complex_04_A_b.gif","middle","","","","",""
"","null","html-keyboard-response","30","121362","0.0-11.0-0.2","SS1613081908596","","","null","","","","","<p><img src= images/blank.png width =""200"" height = ""200"" style = ""float:right""></p><p><img src=images/blank.png width =""800"" height = ""200""></p>","","","","","","","","","","","",""
"","608.9050000009593","sequential-stimulus-presentation","31","122783","0.0-11.0-1.2","SS1613081908596","trial","","40","800","1408.9050000009593","images/stimuli/spore_stims/complex_12_A_d.gif","images/stimuli/spore_stims/complex_04_A_b.gif","","","","","1","complex_dissimilar","images/stimuli/spore_stims/complex_04_A_b.gif","middle","","","","",""
"","null","html-keyboard-response","32","123714","0.0-11.0-0.3","SS1613081908596","","","null","","","","","<p><img src= images/blank.png width =""200"" height = ""200"" style = ""float:right""></p><p><img src=images/blank.png width =""800"" height = ""200""></p>","","","","","","","","","","","",""
"","518.8000000016473","sequential-stimulus-presentation","33","125046","0.0-11.0-1.3","SS1613081908596","trial","","40","800","1318.8000000016473","images/stimuli/spore_stims/complex_12_A_d.gif","images/stimuli/spore_stims/complex_04_A_b.gif","","","","","1","complex_dissimilar","images/stimuli/spore_stims/complex_04_A_b.gif","middle","","","","",""
"","null","html-keyboard-response","34","125905","0.0-11.0-0.4","SS1613081908596","","","null","","","","","<p><img src= images/blank.png width =""200"" height = ""200"" style = ""float:right""></p><p><img src=images/blank.png width =""800"" height = ""200""></p>","","","","","","","","","","","",""
"","222.52500000104192","sequential-stimulus-presentation","35","126943","0.0-11.0-1.4","SS1613081908596","trial","","40","800","1022.5250000010419","images/stimuli/spore_stims/complex_12_A_d.gif","images/stimuli/spore_stims/complex_04_A_b.gif","","","","","1","complex_dissimilar","images/stimuli/spore_stims/complex_04_A_b.gif","middle","","","","",""
"","null","html-keyboard-response","36","128234","0.0-11.0-0.5","SS1613081908596","","","null","","","","","<p><img src= images/blank.png width =""200"" height = ""200"" style = ""float:right""></p><p><img src=images/blank.png width =""800"" height = ""200""></p>","","","","","","","","","","","",""
"","221.95499999725143","sequential-stimulus-presentation","37","129269","0.0-11.0-1.5","SS1613081908596","trial","","40","800","1021.9549999972514","images/stimuli/spore_stims/complex_12_A_d.gif","images/stimuli/spore_stims/complex_04_A_b.gif","","","","","1","complex_dissimilar","images/stimuli/spore_stims/complex_04_A_b.gif","middle","","","","",""
"","null","html-keyboard-response","38","130367","0.0-11.0-0.6","SS1613081908596","","","null","","","","","<p><img src= images/blank.png width =""200"" height = ""200"" style = ""float:right""></p><p><img src=images/blank.png width =""800"" height = ""200""></p>","","","","","","","","","","","",""
"","87.72500000122818","sequential-stimulus-presentation","39","131269","0.0-11.0-1.6","SS1613081908596","trial","","40","800","887.7250000012282","images/stimuli/spore_stims/complex_12_A_d.gif","images/stimuli/spore_stims/complex_04_A_b.gif","","","","","1","complex_dissimilar","images/stimuli/spore_stims/complex_04_A_b.gif","middle","","","","",""
"","null","html-keyboard-response","40","132225","0.0-11.0-0.7","SS1613081908596","","","null","","","","","<p><img src= images/blank.png width =""200"" height = ""200"" style = ""float:right""></p><p><img src=images/blank.png width =""800"" height = ""200""></p>","","","","","","","","","","","",""
"","76.3150000020687","sequential-stimulus-presentation","41","133116","0.0-11.0-1.7","SS1613081908596","trial","","40","800","876.3150000020687","images/stimuli/spore_stims/complex_12_A_d.gif","images/stimuli/spore_stims/complex_04_A_b.gif","","","","","1","complex_dissimilar","images/stimuli/spore_stims/complex_12_A_d.gif","right","","","","",""
"","4231.599999999162","html-keyboard-response","42","137358","0.0-12.0","SS1613081908596","pref_question","","98","","","","","<video width ='960' height = '540' style='padding-top:8%' autoplay muted><source src='images/stimuli/wall_pref.mp4' type='video/mp4'></video>","2","middle","45%","1","","","","","","","",""
"","285.1250000021537","sequential-stimulus-presentation","43","138460","0.0-13.0","SS1613081908596","pref_reveal","","40","800","1085.1250000021537","null","null","","","","","1","","","","background","","","",""
"","null","html-keyboard-response","44","139718","0.0-14.0-0.0","SS1613081908596","","","null","","","","","<p><img src= images/blank.png width =""200"" height = ""200"" style = ""float:right""></p><p><img src=images/blank.png width =""800"" height = ""200""></p>","","","","","","","","","","","",""
"","7.090000002790475","sequential-stimulus-presentation","45","140540","0.0-14.0-1.0","SS1613081908596","trial","","40","800","807.0900000027905","images/stimuli/spore_stims/complex_05_B_c.gif","images/stimuli/spore_stims/complex_05_A_c.gif","","","","","2","complex_similar","images/stimuli/spore_stims/complex_05_A_c.gif","right","","","","",""
"","null","html-keyboard-response","46","141790","0.0-14.0-0.1","SS1613081908596","","","null","","","","","<p><img src= images/blank.png width =""200"" height = ""200"" style = ""float:right""></p><p><img src=images/blank.png width =""800"" height = ""200""></p>","","","","","","","","","","","",""
"","238.3700000027602","sequential-stimulus-presentation","47","142844","0.0-14.0-1.1","SS1613081908596","trial","","40","800","1038.3700000027602","images/stimuli/spore_stims/complex_05_B_c.gif","images/stimuli/spore_stims/complex_05_A_c.gif","","","","","2","complex_similar","images/stimuli/spore_stims/complex_05_A_c.gif","right","","","","",""
"","null","html-keyboard-response","48","143966","0.0-14.0-0.2","SS1613081908596","","","null","","","","","<p><img src= images/blank.png width =""200"" height = ""200"" style = ""float:right""></p><p><img src=images/blank.png width =""800"" height = ""200""></p>","","","","","","","","","","","",""
"","8.294999999634456","sequential-stimulus-presentation","49","144789","0.0-14.0-1.2","SS1613081908596","trial","","40","800","808.2949999996345","images/stimuli/spore_stims/complex_05_B_c.gif","images/stimuli/spore_stims/complex_05_A_c.gif","","","","","2","complex_similar","images/stimuli/spore_stims/complex_05_A_c.gif","right","","","","",""
"","null","html-keyboard-response","50","145871","0.0-14.0-0.3","SS1613081908596","","","null","","","","","<p><img src= images/blank.png width =""200"" height = ""200"" style = ""float:right""></p><p><img src=images/blank.png width =""800"" height = ""200""></p>","","","","","","","","","","","",""
"","389.63499999954365","sequential-stimulus-presentation","51","147069","0.0-14.0-1.3","SS1613081908596","trial","","40","800","1189.6349999995437","images/stimuli/spore_stims/complex_05_B_c.gif","images/stimuli/spore_stims/complex_05_A_c.gif","","","","","2","complex_similar","images/stimuli/spore_stims/complex_05_A_c.gif","right","","","","",""
"","null","html-keyboard-response","52","147948","0.0-14.0-0.4","SS1613081908596","","","null","","","","","<p><img src= images/blank.png width =""200"" height = ""200"" style = ""float:right""></p><p><img src=images/blank.png width =""800"" height = ""200""></p>","","","","","","","","","","","",""
"","456.88999999765656","sequential-stimulus-presentation","53","149220","0.0-14.0-1.4","SS1613081908596","trial","","40","800","1256.8899999976566","images/stimuli/spore_stims/complex_05_B_c.gif","images/stimuli/spore_stims/complex_05_A_c.gif","","","","","2","complex_similar","images/stimuli/spore_stims/complex_05_A_c.gif","right","","","","",""
"","null","html-keyboard-response","54","150318","0.0-14.0-0.5","SS1613081908596","","","null","","","","","<p><img src= images/blank.png width =""200"" height = ""200"" style = ""float:right""></p><p><img src=images/blank.png width =""800"" height = ""200""></p>","","","","","","","","","","","",""
"","517.7850000000035","sequential-stimulus-presentation","55","151652","0.0-14.0-1.5","SS1613081908596","trial","","40","800","1317.7850000000035","images/stimuli/spore_stims/complex_05_B_c.gif","images/stimuli/spore_stims/complex_05_A_c.gif","","","","","2","complex_similar","images/stimuli/spore_stims/complex_05_A_c.gif","right","","","","",""
"","null","html-keyboard-response","56","152560","0.0-14.0-0.6","SS1613081908596","","","null","","","","","<p><img src= images/blank.png width =""200"" height = ""200"" style = ""float:right""></p><p><img src=images/blank.png width =""800"" height = ""200""></p>","","","","","","","","","","","",""
"","394.3799999979092","sequential-stimulus-presentation","57","153772","0.0-14.0-1.6","SS1613081908596","trial","","40","800","1194.3799999979092","images/stimuli/spore_stims/complex_05_B_c.gif","images/stimuli/spore_stims/complex_05_A_c.gif","","","","","2","complex_similar","images/stimuli/spore_stims/complex_05_B_c.gif","middle","","","","",""
"","null","html-keyboard-response","58","154674","0.0-14.0-0.7","SS1613081908596","","","null","","","","","<p><img src= images/blank.png width =""200"" height = ""200"" style = ""float:right""></p><p><img src=images/blank.png width =""800"" height = ""200""></p>","","","","","","","","","","","",""
"","338.56999999989057","sequential-stimulus-presentation","59","155852","0.0-14.0-1.7","SS1613081908596","trial","","40","800","1138.5699999998906","images/stimuli/spore_stims/complex_05_B_c.gif","images/stimuli/spore_stims/complex_05_A_c.gif","","","","","2","complex_similar","images/stimuli/spore_stims/complex_05_A_c.gif","right","","","","",""
"","6251.980000000913","html-keyboard-response","60","162115","0.0-15.0","SS1613081908596","pref_question","","97","","","","","<video width ='960' height = '540' style='padding-top:8%' autoplay muted><source src='images/stimuli/wall_pref.mp4' type='video/mp4'></video>","1","left","25%","2","","","","","","","",""
"","612.2399999985646","sequential-stimulus-presentation","61","163546","0.0-16.0","SS1613081908596","pref_reveal","","40","800","1412.2399999985646","null","null","","","","","2","","","","novel","","","",""
"","null","html-keyboard-response","62","164664","0.0-17.0-0.0","SS1613081908596","","","null","","","","","<p><img src= images/blank.png width =""200"" height = ""200"" style = ""float:right""></p><p><img src=images/blank.png width =""800"" height = ""200""></p>","","","","","","","","","","","",""
"","767.8900000028079","sequential-stimulus-presentation","63","166249","0.0-17.0-1.0","SS1613081908596","trial","","40","800","1567.890000002808","images/stimuli/spore_stims/simple_07_B_a.gif","images/stimuli/spore_stims/simple_07_A_a.gif","","","","","3","simple_similar","images/stimuli/spore_stims/simple_07_A_a.gif","middle","","","","",""
"","null","html-keyboard-response","64","167555","0.0-17.0-0.1","SS1613081908596","","","null","","","","","<p><img src= images/blank.png width =""200"" height = ""200"" style = ""float:right""></p><p><img src=images/blank.png width =""800"" height = ""200""></p>","","","","","","","","","","","",""
"","509.4699999972363","sequential-stimulus-presentation","65","168905","0.0-17.0-1.1","SS1613081908596","trial","","40","800","1309.4699999972363","images/stimuli/spore_stims/simple_07_B_a.gif","images/stimuli/spore_stims/simple_07_A_a.gif","","","","","3","simple_similar","images/stimuli/spore_stims/simple_07_A_a.gif","middle","","","","",""
"","null","html-keyboard-response","66","169760","0.0-17.0-0.2","SS1613081908596","","","null","","","","","<p><img src= images/blank.png width =""200"" height = ""200"" style = ""float:right""></p><p><img src=images/blank.png width =""800"" height = ""200""></p>","","","","","","","","","","","",""
"","785.2599999969243","sequential-stimulus-presentation","67","171361","0.0-17.0-1.2","SS1613081908596","trial","","40","800","1585.2599999969243","images/stimuli/spore_stims/simple_07_B_a.gif","images/stimuli/spore_stims/simple_07_A_a.gif","","","","","3","simple_similar","images/stimuli/spore_stims/simple_07_A_a.gif","middle","","","","",""
"","null","html-keyboard-response","68","172522","0.0-17.0-0.3","SS1613081908596","","","null","","","","","<p><img src= images/blank.png width =""200"" height = ""200"" style = ""float:right""></p><p><img src=images/blank.png width =""800"" height = ""200""></p>","","","","","","","","","","","",""
"","508.9750000006461","sequential-stimulus-presentation","69","173847","0.0-17.0-1.3","SS1613081908596","trial","","40","800","1308.975000000646","images/stimuli/spore_stims/simple_07_B_a.gif","images/stimuli/spore_stims/simple_07_A_a.gif","","","","","3","simple_similar","images/stimuli/spore_stims/simple_07_B_a.gif","right","","","","",""
"","null","html-keyboard-response","70","174855","0.0-17.0-0.4","SS1613081908596","","","null","","","","","<p><img src= images/blank.png width =""200"" height = ""200"" style = ""float:right""></p><p><img src=images/blank.png width =""800"" height = ""200""></p>","","","","","","","","","","","",""
"","33.325000000331784","sequential-stimulus-presentation","71","175703","0.0-17.0-1.4","SS1613081908596","trial","","40","800","833.3250000003318","images/stimuli/spore_stims/simple_07_B_a.gif","images/stimuli/spore_stims/simple_07_A_a.gif","","","","","3","simple_similar","images/stimuli/spore_stims/simple_07_A_a.gif","middle","","","","",""
"","null","html-keyboard-response","72","176647","0.0-17.0-0.5","SS1613081908596","","","null","","","","","<p><img src= images/blank.png width =""200"" height = ""200"" style = ""float:right""></p><p><img src=images/blank.png width =""800"" height = ""200""></p>","","","","","","","","","","","",""
"","238.9450000009674","sequential-stimulus-presentation","73","177704","0.0-17.0-1.5","SS1613081908596","trial","","40","800","1038.9450000009674","images/stimuli/spore_stims/simple_07_B_a.gif","images/stimuli/spore_stims/simple_07_A_a.gif","","","","","3","simple_similar","images/stimuli/spore_stims/simple_07_A_a.gif","middle","","","","",""
"","null","html-keyboard-response","74","178999","0.0-17.0-0.6","SS1613081908596","","","null","","","","","<p><img src= images/blank.png width =""200"" height = ""200"" style = ""float:right""></p><p><img src=images/blank.png width =""800"" height = ""200""></p>","","","","","","","","","","","",""
"","114.06499999793596","sequential-stimulus-presentation","75","179950","0.0-17.0-1.6","SS1613081908596","trial","","40","800","914.064999997936","images/stimuli/spore_stims/simple_07_B_a.gif","images/stimuli/spore_stims/simple_07_A_a.gif","","","","","3","simple_similar","images/stimuli/spore_stims/simple_07_A_a.gif","middle","","","","",""
"","null","html-keyboard-response","76","180805","0.0-17.0-0.7","SS1613081908596","","","null","","","","","<p><img src= images/blank.png width =""200"" height = ""200"" style = ""float:right""></p><p><img src=images/blank.png width =""800"" height = ""200""></p>","","","","","","","","","","","",""
"","33.22000000116532","sequential-stimulus-presentation","77","181656","0.0-17.0-1.7","SS1613081908596","trial","","40","800","833.2200000011653","images/stimuli/spore_stims/simple_07_B_a.gif","images/stimuli/spore_stims/simple_07_A_a.gif","","","","","3","simple_similar","images/stimuli/spore_stims/simple_07_A_a.gif","middle","","","","",""
"","19068.38499999867","html-keyboard-response","78","200742","0.0-18.0","SS1613081908596","pref_question","","99","","","","","<video width ='960' height = '540' style='padding-top:8%' autoplay muted><source src='images/stimuli/wall_pref.mp4' type='video/mp4'></video>","3","right","66%","3","","","","","","","",""
"","166.17000000042026","sequential-stimulus-presentation","79","201723","0.0-19.0","SS1613081908596","pref_reveal","","40","800","966.1700000004203","null","null","","","","","3","","","","deviant","","","",""
"","null","html-keyboard-response","80","202952","0.0-20.0-0.0","SS1613081908596","","","null","","","","","<p><img src= images/blank.png width =""200"" height = ""200"" style = ""float:right""></p><p><img src=images/blank.png width =""800"" height = ""200""></p>","","","","","","","","","","","",""
"","568.794999999227","sequential-stimulus-presentation","81","204342","0.0-20.0-1.0","SS1613081908596","trial","","40","800","1368.794999999227","images/stimuli/spore_stims/complex_08_B_b.gif","images/stimuli/spore_stims/complex_06_B_b.gif","","","","","4","complex_dissimilar","images/stimuli/spore_stims/complex_06_B_b.gif","middle","","","","",""
"","null","html-keyboard-response","82","205282","0.0-20.0-0.1","SS1613081908596","","","null","","","","","<p><img src= images/blank.png width =""200"" height = ""200"" style = ""float:right""></p><p><img src=images/blank.png width =""800"" height = ""200""></p>","","","","","","","","","","","",""
"","546.1749999994936","sequential-stimulus-presentation","83","206646","0.0-20.0-1.1","SS1613081908596","trial","","40","800","1346.1749999994936","images/stimuli/spore_stims/complex_08_B_b.gif","images/stimuli/spore_stims/complex_06_B_b.gif","","","","","4","complex_dissimilar","images/stimuli/spore_stims/complex_06_B_b.gif","middle","","","","",""
"","null","html-keyboard-response","84","207679","0.0-20.0-0.2","SS1613081908596","","","null","","","","","<p><img src= images/blank.png width =""200"" height = ""200"" style = ""float:right""></p><p><img src=images/blank.png width =""800"" height = ""200""></p>","","","","","","","","","","","",""
"","580.259999998816","sequential-stimulus-presentation","85","209069","0.0-20.0-1.2","SS1613081908596","trial","","40","800","1380.259999998816","images/stimuli/spore_stims/complex_08_B_b.gif","images/stimuli/spore_stims/complex_06_B_b.gif","","","","","4","complex_dissimilar","images/stimuli/spore_stims/complex_06_B_b.gif","middle","","","","",""
"","null","html-keyboard-response","86","210013","0.0-20.0-0.3","SS1613081908596","","","null","","","","","<p><img src= images/blank.png width =""200"" height = ""200"" style = ""float:right""></p><p><img src=images/blank.png width =""800"" height = ""200""></p>","","","","","","","","","","","",""
"","85.53000000028987","sequential-stimulus-presentation","87","210916","0.0-20.0-1.3","SS1613081908596","trial","","40","800","885.5300000002899","images/stimuli/spore_stims/complex_08_B_b.gif","images/stimuli/spore_stims/complex_06_B_b.gif","","","","","4","complex_dissimilar","images/stimuli/spore_stims/complex_06_B_b.gif","middle","","","","",""
"","null","html-keyboard-response","88","211814","0.0-20.0-0.4","SS1613081908596","","","null","","","","","<p><img src= images/blank.png width =""200"" height = ""200"" style = ""float:right""></p><p><img src=images/blank.png width =""800"" height = ""200""></p>","","","","","","","","","","","",""
"","11038.870000000315","sequential-stimulus-presentation","89","223676","0.0-20.0-1.4","SS1613081908596","trial","","40","800","11838.870000000315","images/stimuli/spore_stims/complex_08_B_b.gif","images/stimuli/spore_stims/complex_06_B_b.gif","","","","","4","complex_dissimilar","images/stimuli/spore_stims/complex_08_B_b.gif","left","","","","",""
"","null","html-keyboard-response","90","224817","0.0-20.0-0.5","SS1613081908596","","","null","","","","","<p><img src= images/blank.png width =""200"" height = ""200"" style = ""float:right""></p><p><img src=images/blank.png width =""800"" height = ""200""></p>","","","","","","","","","","","",""
"","2486.300000000454","sequential-stimulus-presentation","91","228305","0.0-20.0-1.5","SS1613081908596","trial","","40","800","3286.300000000454","images/stimuli/spore_stims/complex_08_B_b.gif","images/stimuli/spore_stims/complex_06_B_b.gif","","","","","4","complex_dissimilar","images/stimuli/spore_stims/complex_06_B_b.gif","middle","","","","",""
"","null","html-keyboard-response","92","229554","0.0-20.0-0.6","SS1613081908596","","","null","","","","","<p><img src= images/blank.png width =""200"" height = ""200"" style = ""float:right""></p><p><img src=images/blank.png width =""800"" height = ""200""></p>","","","","","","","","","","","",""
"","436.38000000285683","sequential-stimulus-presentation","93","230826","0.0-20.0-1.6","SS1613081908596","trial","","40","800","1236.3800000028568","images/stimuli/spore_stims/complex_08_B_b.gif","images/stimuli/spore_stims/complex_06_B_b.gif","","","","","4","complex_dissimilar","images/stimuli/spore_stims/complex_06_B_b.gif","middle","","","","",""
"","null","html-keyboard-response","94","231862","0.0-20.0-0.7","SS1613081908596","","","null","","","","","<p><img src= images/blank.png width =""200"" height = ""200"" style = ""float:right""></p><p><img src=images/blank.png width =""800"" height = ""200""></p>","","","","","","","","","","","",""
"","3087.7099999998463","sequential-stimulus-presentation","95","235761","0.0-20.0-1.7","SS1613081908596","trial","","40","800","3887.7099999998463","images/stimuli/spore_stims/complex_08_B_b.gif","images/stimuli/spore_stims/complex_06_B_b.gif","","","","","4","complex_dissimilar","images/stimuli/spore_stims/complex_06_B_b.gif","middle","","","","",""
"","2626.8049999998766","html-keyboard-response","96","238409","0.0-21.0","SS1613081908596","pref_question","","98","","","","","<video width ='960' height = '540' style='padding-top:8%' autoplay muted><source src='images/stimuli/wall_pref.mp4' type='video/mp4'></video>","2","middle","45%","4","","","","","","","",""
"","42.649999999383","sequential-stimulus-presentation","97","239273","0.0-22.0","SS1613081908596","pref_reveal","","40","800","842.649999999383","null","null","","","","","4","","","","background","","","",""
"","null","html-keyboard-response","98","240332","0.0-23.0-0.0","SS1613081908596","","","null","","","","","<p><img src= images/blank.png width =""200"" height = ""200"" style = ""float:right""></p><p><img src=images/blank.png width =""800"" height = ""200""></p>","","","","","","","","","","","",""
"","129.55499999946915","sequential-stimulus-presentation","99","241303","0.0-23.0-1.0","SS1613081908596","trial","","40","800","929.5549999994691","images/stimuli/spore_stims/simple_11_A_c.gif","images/stimuli/spore_stims/simple_11_B_c.gif","","","","","5","simple_similar","images/stimuli/spore_stims/simple_11_B_c.gif","left","","","","",""
"","null","html-keyboard-response","100","242557","0.0-23.0-0.1","SS1613081908596","","","null","","","","","<p><img src= images/blank.png width =""200"" height = ""200"" style = ""float:right""></p><p><img src=images/blank.png width =""800"" height = ""200""></p>","","","","","","","","","","","",""
"","9750.374999999593","sequential-stimulus-presentation","101","253126","0.0-23.0-1.1","SS1613081908596","trial","","40","800","10550.374999999593","images/stimuli/spore_stims/simple_11_A_c.gif","images/stimuli/spore_stims/simple_11_B_c.gif","","","","","5","simple_similar","images/stimuli/spore_stims/simple_11_B_c.gif","left","","","","",""
"","null","html-keyboard-response","102","254355","0.0-23.0-0.2","SS1613081908596","","","null","","","","","<p><img src= images/blank.png width =""200"" height = ""200"" style = ""float:right""></p><p><img src=images/blank.png width =""800"" height = ""200""></p>","","","","","","","","","","","",""
"","627.9200000026613","sequential-stimulus-presentation","103","255805","0.0-23.0-1.2","SS1613081908596","trial","","40","800","1427.9200000026613","images/stimuli/spore_stims/simple_11_A_c.gif","images/stimuli/spore_stims/simple_11_B_c.gif","","","","","5","simple_similar","images/stimuli/spore_stims/simple_11_B_c.gif","left","","","","",""
"","null","html-keyboard-response","104","256819","0.0-23.0-0.3","SS1613081908596","","","null","","","","","<p><img src= images/blank.png width =""200"" height = ""200"" style = ""float:right""></p><p><img src=images/blank.png width =""800"" height = ""200""></p>","","","","","","","","","","","",""
"","1558.3699999988312","sequential-stimulus-presentation","105","259196","0.0-23.0-1.3","SS1613081908596","trial","","40","800","2358.369999998831","images/stimuli/spore_stims/simple_11_A_c.gif","images/stimuli/spore_stims/simple_11_B_c.gif","","","","","5","simple_similar","images/stimuli/spore_stims/simple_11_B_c.gif","left","","","","",""
"","null","html-keyboard-response","106","260336","0.0-23.0-0.4","SS1613081908596","","","null","","","","","<p><img src= images/blank.png width =""200"" height = ""200"" style = ""float:right""></p><p><img src=images/blank.png width =""800"" height = ""200""></p>","","","","","","","","","","","",""
"","3216.1400000004214","sequential-stimulus-presentation","107","264374","0.0-23.0-1.4","SS1613081908596","trial","","40","800","4016.1400000004214","images/stimuli/spore_stims/simple_11_A_c.gif","images/stimuli/spore_stims/simple_11_B_c.gif","","","","","5","simple_similar","images/stimuli/spore_stims/simple_11_B_c.gif","left","","","","",""
"","null","html-keyboard-response","108","265671","0.0-23.0-0.5","SS1613081908596","","","null","","","","","<p><img src= images/blank.png width =""200"" height = ""200"" style = ""float:right""></p><p><img src=images/blank.png width =""800"" height = ""200""></p>","","","","","","","","","","","",""
"","1009.7950000017299","sequential-stimulus-presentation","109","267501","0.0-23.0-1.5","SS1613081908596","trial","","40","800","1809.79500000173","images/stimuli/spore_stims/simple_11_A_c.gif","images/stimuli/spore_stims/simple_11_B_c.gif","","","","","5","simple_similar","images/stimuli/spore_stims/simple_11_A_c.gif","right","","","","",""
"","null","html-keyboard-response","110","268637","0.0-23.0-0.6","SS1613081908596","","","null","","","","","<p><img src= images/blank.png width =""200"" height = ""200"" style = ""float:right""></p><p><img src=images/blank.png width =""800"" height = ""200""></p>","","","","","","","","","","","",""
"","2384.9849999969592","sequential-stimulus-presentation","111","271836","0.0-23.0-1.6","SS1613081908596","trial","","40","800","3184.9849999969592","images/stimuli/spore_stims/simple_11_A_c.gif","images/stimuli/spore_stims/simple_11_B_c.gif","","","","","5","simple_similar","images/stimuli/spore_stims/simple_11_B_c.gif","left","","","","",""
"","null","html-keyboard-response","112","273072","0.0-23.0-0.7","SS1613081908596","","","null","","","","","<p><img src= images/blank.png width =""200"" height = ""200"" style = ""float:right""></p><p><img src=images/blank.png width =""800"" height = ""200""></p>","","","","","","","","","","","",""
"","77.2499999984284","sequential-stimulus-presentation","113","273971","0.0-23.0-1.7","SS1613081908596","trial","","40","800","877.2499999984284","images/stimuli/spore_stims/simple_11_A_c.gif","images/stimuli/spore_stims/simple_11_B_c.gif","","","","","5","simple_similar","images/stimuli/spore_stims/simple_11_B_c.gif","left","","","","",""
"","8859.544999999343","html-keyboard-response","114","282874","0.0-24.0","SS1613081908596","pref_question","","98","","","","","<video width ='960' height = '540' style='padding-top:8%' autoplay muted><source src='images/stimuli/wall_pref.mp4' type='video/mp4'></video>","2","middle","45%","5","","","","","","","",""
"","195.3350000003702","sequential-stimulus-presentation","115","283881","0.0-25.0","SS1613081908596","pref_reveal","","40","800","995.3350000003702","null","null","","","","","5","","","","novel","","","",""
"","null","html-keyboard-response","116","284798","0.0-26.0-0.0","SS1613081908596","","","null","","","","","<p><img src= images/blank.png width =""200"" height = ""200"" style = ""float:right""></p><p><img src=images/blank.png width =""800"" height = ""200""></p>","","","","","","","","","","","",""
"","78.65999999921769","sequential-stimulus-presentation","117","285698","0.0-26.0-1.0","SS1613081908596","trial","","40","800","878.6599999992177","images/stimuli/spore_stims/simple_16_B_d.gif","images/stimuli/spore_stims/simple_16_A_d.gif","","","","","6","simple_similar","images/stimuli/spore_stims/simple_16_A_d.gif","left","","","","",""
"","null","html-keyboard-response","118","287010","0.0-26.0-0.1","SS1613081908596","","","null","","","","","<p><img src= images/blank.png width =""200"" height = ""200"" style = ""float:right""></p><p><img src=images/blank.png width =""800"" height = ""200""></p>","","","","","","","","","","","",""
"","4037.094999999681","sequential-stimulus-presentation","119","291864","0.0-26.0-1.1","SS1613081908596","trial","","40","800","4837.094999999681","images/stimuli/spore_stims/simple_16_B_d.gif","images/stimuli/spore_stims/simple_16_A_d.gif","","","","","6","simple_similar","images/stimuli/spore_stims/simple_16_A_d.gif","left","","","","",""
"","null","html-keyboard-response","120","292946","0.0-26.0-0.2","SS1613081908596","","","null","","","","","<p><img src= images/blank.png width =""200"" height = ""200"" style = ""float:right""></p><p><img src=images/blank.png width =""800"" height = ""200""></p>","","","","","","","","","","","",""
"","239.98500000021886","sequential-stimulus-presentation","121","294009","0.0-26.0-1.2","SS1613081908596","trial","","40","800","1039.9850000002189","images/stimuli/spore_stims/simple_16_B_d.gif","images/stimuli/spore_stims/simple_16_A_d.gif","","","","","6","simple_similar","images/stimuli/spore_stims/simple_16_A_d.gif","left","","","","",""
"","null","html-keyboard-response","122","295111","0.0-26.0-0.3","SS1613081908596","","","null","","","","","<p><img src= images/blank.png width =""200"" height = ""200"" style = ""float:right""></p><p><img src=images/blank.png width =""800"" height = ""200""></p>","","","","","","","","","","","",""
"","879.0100000005914","sequential-stimulus-presentation","123","296809","0.0-26.0-1.3","SS1613081908596","trial","","40","800","1679.0100000005914","images/stimuli/spore_stims/simple_16_B_d.gif","images/stimuli/spore_stims/simple_16_A_d.gif","","","","","6","simple_similar","images/stimuli/spore_stims/simple_16_A_d.gif","left","","","","",""
"","null","html-keyboard-response","124","297637","0.0-26.0-0.4","SS1613081908596","","","null","","","","","<p><img src= images/blank.png width =""200"" height = ""200"" style = ""float:right""></p><p><img src=images/blank.png width =""800"" height = ""200""></p>","","","","","","","","","","","",""
"","1113.1349999995437","sequential-stimulus-presentation","125","299567","0.0-26.0-1.4","SS1613081908596","trial","","40","800","1913.1349999995437","images/stimuli/spore_stims/simple_16_B_d.gif","images/stimuli/spore_stims/simple_16_A_d.gif","","","","","6","simple_similar","images/stimuli/spore_stims/simple_16_A_d.gif","left","","","","",""
"","null","html-keyboard-response","126","300489","0.0-26.0-0.5","SS1613081908596","","","null","","","","","<p><img src= images/blank.png width =""200"" height = ""200"" style = ""float:right""></p><p><img src=images/blank.png width =""800"" height = ""200""></p>","","","","","","","","","","","",""
"","658.2150000031106","sequential-stimulus-presentation","127","301967","0.0-26.0-1.5","SS1613081908596","trial","","40","800","1458.2150000031106","images/stimuli/spore_stims/simple_16_B_d.gif","images/stimuli/spore_stims/simple_16_A_d.gif","","","","","6","simple_similar","images/stimuli/spore_stims/simple_16_A_d.gif","left","","","","",""
"","null","html-keyboard-response","128","303052","0.0-26.0-0.6","SS1613081908596","","","null","","","","","<p><img src= images/blank.png width =""200"" height = ""200"" style = ""float:right""></p><p><img src=images/blank.png width =""800"" height = ""200""></p>","","","","","","","","","","","",""
"","437.7999999996973","sequential-stimulus-presentation","129","304310","0.0-26.0-1.6","SS1613081908596","trial","","40","800","1237.7999999996973","images/stimuli/spore_stims/simple_16_B_d.gif","images/stimuli/spore_stims/simple_16_A_d.gif","","","","","6","simple_similar","images/stimuli/spore_stims/simple_16_A_d.gif","left","","","","",""
"","null","html-keyboard-response","130","305613","0.0-26.0-0.7","SS1613081908596","","","null","","","","","<p><img src= images/blank.png width =""200"" height = ""200"" style = ""float:right""></p><p><img src=images/blank.png width =""800"" height = ""200""></p>","","","","","","","","","","","",""
"","2450.629999999306","sequential-stimulus-presentation","131","308886","0.0-26.0-1.7","SS1613081908596","trial","","40","800","3250.629999999306","images/stimuli/spore_stims/simple_16_B_d.gif","images/stimuli/spore_stims/simple_16_A_d.gif","","","","","6","simple_similar","images/stimuli/spore_stims/simple_16_B_d.gif","right","","","","",""
"","12361.580000000657","html-keyboard-response","132","321271","0.0-27.0","SS1613081908596","pref_question","","98","","","","","<video width ='960' height = '540' style='padding-top:8%' autoplay muted><source src='images/stimuli/wall_pref.mp4' type='video/mp4'></video>","2","middle","45%","6","","","","","","","",""
"","102.7749999994412","sequential-stimulus-presentation","133","322196","0.0-28.0","SS1613081908596","pref_reveal","","40","800","902.7749999994412","null","null","","","","","6","","","","novel","","","",""
"","null","html-keyboard-response","134","323457","0.0-29.0-0.0","SS1613081908596","","","null","","","","","<p><img src= images/blank.png width =""200"" height = ""200"" style = ""float:right""></p><p><img src=images/blank.png width =""800"" height = ""200""></p>","","","","","","","","","","","",""
"","3042.4199999979464","sequential-stimulus-presentation","135","327349","0.0-29.0-1.0","SS1613081908596","trial","","40","800","3842.4199999979464","images/stimuli/spore_stims/simple_09_B_a.gif","images/stimuli/spore_stims/simple_18_A_d.gif","","","","","7","simple_dissimilar","images/stimuli/spore_stims/simple_18_A_d.gif","middle","","","","",""
"","null","html-keyboard-response","136","328495","0.0-29.0-0.1","SS1613081908596","","","null","","","","","<p><img src= images/blank.png width =""200"" height = ""200"" style = ""float:right""></p><p><img src=images/blank.png width =""800"" height = ""200""></p>","","","","","","","","","","","",""
"","488.19499999808613","sequential-stimulus-presentation","137","329798","0.0-29.0-1.1","SS1613081908596","trial","","40","800","1288.1949999980861","images/stimuli/spore_stims/simple_09_B_a.gif","images/stimuli/spore_stims/simple_18_A_d.gif","","","","","7","simple_dissimilar","images/stimuli/spore_stims/simple_18_A_d.gif","middle","","","","",""
"","null","html-keyboard-response","138","330901","0.0-29.0-0.2","SS1613081908596","","","null","","","","","<p><img src= images/blank.png width =""200"" height = ""200"" style = ""float:right""></p><p><img src=images/blank.png width =""800"" height = ""200""></p>","","","","","","","","","","","",""
"","330.3300000007148","sequential-stimulus-presentation","139","332054","0.0-29.0-1.2","SS1613081908596","trial","","40","800","1130.3300000007148","images/stimuli/spore_stims/simple_09_B_a.gif","images/stimuli/spore_stims/simple_18_A_d.gif","","","","","7","simple_dissimilar","images/stimuli/spore_stims/simple_18_A_d.gif","middle","","","","",""
"","null","html-keyboard-response","140","333132","0.0-29.0-0.3","SS1613081908596","","","null","","","","","<p><img src= images/blank.png width =""200"" height = ""200"" style = ""float:right""></p><p><img src=images/blank.png width =""800"" height = ""200""></p>","","","","","","","","","","","",""
"","317.7949999989942","sequential-stimulus-presentation","141","334292","0.0-29.0-1.3","SS1613081908596","trial","","40","800","1117.7949999989942","images/stimuli/spore_stims/simple_09_B_a.gif","images/stimuli/spore_stims/simple_18_A_d.gif","","","","","7","simple_dissimilar","images/stimuli/spore_stims/simple_18_A_d.gif","middle","","","","",""
"","null","html-keyboard-response","142","335398","0.0-29.0-0.4","SS1613081908596","","","null","","","","","<p><img src= images/blank.png width =""200"" height = ""200"" style = ""float:right""></p><p><img src=images/blank.png width =""800"" height = ""200""></p>","","","","","","","","","","","",""
"","965.2950000017881","sequential-stimulus-presentation","143","337188","0.0-29.0-1.4","SS1613081908596","trial","","40","800","1765.2950000017881","images/stimuli/spore_stims/simple_09_B_a.gif","images/stimuli/spore_stims/simple_18_A_d.gif","","","","","7","simple_dissimilar","images/stimuli/spore_stims/simple_18_A_d.gif","middle","","","","",""
"","null","html-keyboard-response","144","338218","0.0-29.0-0.5","SS1613081908596","","","null","","","","","<p><img src= images/blank.png width =""200"" height = ""200"" style = ""float:right""></p><p><img src=images/blank.png width =""800"" height = ""200""></p>","","","","","","","","","","","",""
"","145.3849999998347","sequential-stimulus-presentation","145","339188","0.0-29.0-1.5","SS1613081908596","trial","","40","800","945.3849999998347","images/stimuli/spore_stims/simple_09_B_a.gif","images/stimuli/spore_stims/simple_18_A_d.gif","","","","","7","simple_dissimilar","images/stimuli/spore_stims/simple_18_A_d.gif","middle","","","","",""
"","null","html-keyboard-response","146","340447","0.0-29.0-0.6","SS1613081908596","","","null","","","","","<p><img src= images/blank.png width =""200"" height = ""200"" style = ""float:right""></p><p><img src=images/blank.png width =""800"" height = ""200""></p>","","","","","","","","","","","",""
"","223.5000000000582","sequential-stimulus-presentation","147","341483","0.0-29.0-1.6","SS1613081908596","trial","","40","800","1023.5000000000582","images/stimuli/spore_stims/simple_09_B_a.gif","images/stimuli/spore_stims/simple_18_A_d.gif","","","","","7","simple_dissimilar","images/stimuli/spore_stims/simple_18_A_d.gif","middle","","","","",""
"","null","html-keyboard-response","148","342745","0.0-29.0-0.7","SS1613081908596","","","null","","","","","<p><img src= images/blank.png width =""200"" height = ""200"" style = ""float:right""></p><p><img src=images/blank.png width =""800"" height = ""200""></p>","","","","","","","","","","","",""
"","539.1049999998068","sequential-stimulus-presentation","149","344098","0.0-29.0-1.7","SS1613081908596","trial","","40","800","1339.1049999998068","images/stimuli/spore_stims/simple_09_B_a.gif","images/stimuli/spore_stims/simple_18_A_d.gif","","","","","7","simple_dissimilar","images/stimuli/spore_stims/simple_09_B_a.gif","right","","","","",""
"","7459.695000001404","html-keyboard-response","150","351580","0.0-30.0","SS1613081908596","pref_question","","98","","","","","<video width ='960' height = '540' style='padding-top:8%' autoplay muted><source src='images/stimuli/wall_pref.mp4' type='video/mp4'></video>","2","middle","45%","7","","","","","","","",""
"","268.07499999995343","sequential-stimulus-presentation","151","352674","0.0-31.0","SS1613081908596","pref_reveal","","40","800","1068.0749999999534","null","null","","","","","7","","","","background","","","",""
"","null","html-keyboard-response","152","353841","0.0-32.0-0.0","SS1613081908596","","","null","","","","","<p><img src= images/blank.png width =""200"" height = ""200"" style = ""float:right""></p><p><img src=images/blank.png width =""800"" height = ""200""></p>","","","","","","","","","","","",""
"","4020.7200000004377","sequential-stimulus-presentation","153","358681","0.0-32.0-1.0","SS1613081908596","trial","","40","800","4820.720000000438","images/stimuli/spore_stims/complex_06_A_d.gif","images/stimuli/spore_stims/complex_18_A_a.gif","","","","","8","complex_dissimilar","images/stimuli/spore_stims/complex_18_A_a.gif","right","","","","",""
"","null","html-keyboard-response","154","359652","0.0-32.0-0.1","SS1613081908596","","","null","","","","","<p><img src= images/blank.png width =""200"" height = ""200"" style = ""float:right""></p><p><img src=images/blank.png width =""800"" height = ""200""></p>","","","","","","","","","","","",""
"","10.925000002258457","sequential-stimulus-presentation","155","360488","0.0-32.0-1.1","SS1613081908596","trial","","40","800","810.9250000022585","images/stimuli/spore_stims/complex_06_A_d.gif","images/stimuli/spore_stims/complex_18_A_a.gif","","","","","8","complex_dissimilar","images/stimuli/spore_stims/complex_18_A_a.gif","right","","","","",""
"","null","html-keyboard-response","156","361671","0.0-32.0-0.2","SS1613081908596","","","null","","","","","<p><img src= images/blank.png width =""200"" height = ""200"" style = ""float:right""></p><p><img src=images/blank.png width =""800"" height = ""200""></p>","","","","","","","","","","","",""
"","280.9750000014901","sequential-stimulus-presentation","157","362792","0.0-32.0-1.2","SS1613081908596","trial","","40","800","1080.9750000014901","images/stimuli/spore_stims/complex_06_A_d.gif","images/stimuli/spore_stims/complex_18_A_a.gif","","","","","8","complex_dissimilar","images/stimuli/spore_stims/complex_18_A_a.gif","right","","","","",""
"","null","html-keyboard-response","158","363848","0.0-32.0-0.3","SS1613081908596","","","null","","","","","<p><img src= images/blank.png width =""200"" height = ""200"" style = ""float:right""></p><p><img src=images/blank.png width =""800"" height = ""200""></p>","","","","","","","","","","","",""
"","160.0350000007311","sequential-stimulus-presentation","159","364830","0.0-32.0-1.3","SS1613081908596","trial","","40","800","960.0350000007311","images/stimuli/spore_stims/complex_06_A_d.gif","images/stimuli/spore_stims/complex_18_A_a.gif","","","","","8","complex_dissimilar","images/stimuli/spore_stims/complex_18_A_a.gif","right","","","","",""
"","null","html-keyboard-response","160","365858","0.0-32.0-0.4","SS1613081908596","","","null","","","","","<p><img src= images/blank.png width =""200"" height = ""200"" style = ""float:right""></p><p><img src=images/blank.png width =""800"" height = ""200""></p>","","","","","","","","","","","",""
"","1753.4400000004098","sequential-stimulus-presentation","161","368430","0.0-32.0-1.4","SS1613081908596","trial","","40","800","2553.44000000041","images/stimuli/spore_stims/complex_06_A_d.gif","images/stimuli/spore_stims/complex_18_A_a.gif","","","","","8","complex_dissimilar","images/stimuli/spore_stims/complex_18_A_a.gif","right","","","","",""
"","null","html-keyboard-response","162","369478","0.0-32.0-0.5","SS1613081908596","","","null","","","","","<p><img src= images/blank.png width =""200"" height = ""200"" style = ""float:right""></p><p><img src=images/blank.png width =""800"" height = ""200""></p>","","","","","","","","","","","",""
"","43.74000000092201","sequential-stimulus-presentation","163","370344","0.0-32.0-1.5","SS1613081908596","trial","","40","800","843.740000000922","images/stimuli/spore_stims/complex_06_A_d.gif","images/stimuli/spore_stims/complex_18_A_a.gif","","","","","8","complex_dissimilar","images/stimuli/spore_stims/complex_18_A_a.gif","right","","","","",""
"","null","html-keyboard-response","164","371205","0.0-32.0-0.6","SS1613081908596","","","null","","","","","<p><img src= images/blank.png width =""200"" height = ""200"" style = ""float:right""></p><p><img src=images/blank.png width =""800"" height = ""200""></p>","","","","","","","","","","","",""
"","823.7749999971129","sequential-stimulus-presentation","165","372845","0.0-32.0-1.6","SS1613081908596","trial","","40","800","1623.774999997113","images/stimuli/spore_stims/complex_06_A_d.gif","images/stimuli/spore_stims/complex_18_A_a.gif","","","","","8","complex_dissimilar","images/stimuli/spore_stims/complex_06_A_d.gif","left","","","","",""
"","null","html-keyboard-response","166","373990","0.0-32.0-0.7","SS1613081908596","","","null","","","","","<p><img src= images/blank.png width =""200"" height = ""200"" style = ""float:right""></p><p><img src=images/blank.png width =""800"" height = ""200""></p>","","","","","","","","","","","",""
"","21548.095000001893","sequential-stimulus-presentation","167","396365","0.0-32.0-1.7","SS1613081908596","trial","","40","800","22348.095000001893","images/stimuli/spore_stims/complex_06_A_d.gif","images/stimuli/spore_stims/complex_18_A_a.gif","","","","","8","complex_dissimilar","images/stimuli/spore_stims/complex_18_A_a.gif","right","","","","",""
"","2815.115000001213","html-keyboard-response","168","399205","0.0-33.0","SS1613081908596","pref_question","","98","","","","","<video width ='960' height = '540' style='padding-top:8%' autoplay muted><source src='images/stimuli/wall_pref.mp4' type='video/mp4'></video>","2","middle","45%","8","","","","","","","",""
"","140.47999999823514","sequential-stimulus-presentation","169","400171","0.0-34.0","SS1613081908596","pref_reveal","","40","800","940.4799999982351","null","null","","","","","8","","","","novel","","","",""
"","null","html-keyboard-response","170","401278","0.0-35.0-0.0","SS1613081908596","","","null","","","","","<p><img src= images/blank.png width =""200"" height = ""200"" style = ""float:right""></p><p><img src=images/blank.png width =""800"" height = ""200""></p>","","","","","","","","","","","",""
"","90.68000000115717","sequential-stimulus-presentation","171","402218","0.0-35.0-1.0","SS1613081908596","trial","","40","800","890.6800000011572","images/stimuli/spore_stims/simple_03_B_a.gif","images/stimuli/spore_stims/simple_04_A_d.gif","","","","","9","simple_dissimilar","images/stimuli/spore_stims/simple_04_A_d.gif","middle","","","","",""
"","null","html-keyboard-response","172","403377","0.0-35.0-0.1","SS1613081908596","","","null","","","","","<p><img src= images/blank.png width =""200"" height = ""200"" style = ""float:right""></p><p><img src=images/blank.png width =""800"" height = ""200""></p>","","","","","","","","","","","",""
"","2232.8850000012317","sequential-stimulus-presentation","173","406435","0.0-35.0-1.1","SS1613081908596","trial","","40","800","3032.8850000012317","images/stimuli/spore_stims/simple_03_B_a.gif","images/stimuli/spore_stims/simple_04_A_d.gif","","","","","9","simple_dissimilar","images/stimuli/spore_stims/simple_04_A_d.gif","middle","","","","",""
"","null","html-keyboard-response","174","407311","0.0-35.0-0.2","SS1613081908596","","","null","","","","","<p><img src= images/blank.png width =""200"" height = ""200"" style = ""float:right""></p><p><img src=images/blank.png width =""800"" height = ""200""></p>","","","","","","","","","","","",""
"","55.93500000034692","sequential-stimulus-presentation","175","408194","0.0-35.0-1.2","SS1613081908596","trial","","40","800","855.9350000003469","images/stimuli/spore_stims/simple_03_B_a.gif","images/stimuli/spore_stims/simple_04_A_d.gif","","","","","9","simple_dissimilar","images/stimuli/spore_stims/simple_03_B_a.gif","right","","","","",""
"","null","html-keyboard-response","176","409090","0.0-35.0-0.3","SS1613081908596","","","null","","","","","<p><img src= images/blank.png width =""200"" height = ""200"" style = ""float:right""></p><p><img src=images/blank.png width =""800"" height = ""200""></p>","","","","","","","","","","","",""
"","36.954999999608845","sequential-stimulus-presentation","177","409946","0.0-35.0-1.3","SS1613081908596","trial","","40","800","836.9549999996088","images/stimuli/spore_stims/simple_03_B_a.gif","images/stimuli/spore_stims/simple_04_A_d.gif","","","","","9","simple_dissimilar","images/stimuli/spore_stims/simple_04_A_d.gif","middle","","","","",""
"","null","html-keyboard-response","178","410927","0.0-35.0-0.4","SS1613081908596","","","null","","","","","<p><img src= images/blank.png width =""200"" height = ""200"" style = ""float:right""></p><p><img src=images/blank.png width =""800"" height = ""200""></p>","","","","","","","","","","","",""
"","279.1700000016135","sequential-stimulus-presentation","179","412033","0.0-35.0-1.4","SS1613081908596","trial","","40","800","1079.1700000016135","images/stimuli/spore_stims/simple_03_B_a.gif","images/stimuli/spore_stims/simple_04_A_d.gif","","","","","9","simple_dissimilar","images/stimuli/spore_stims/simple_04_A_d.gif","middle","","","","",""
"","null","html-keyboard-response","180","412946","0.0-35.0-0.5","SS1613081908596","","","null","","","","","<p><img src= images/blank.png width =""200"" height = ""200"" style = ""float:right""></p><p><img src=images/blank.png width =""800"" height = ""200""></p>","","","","","","","","","","","",""
"","959.6099999981234","sequential-stimulus-presentation","181","414729","0.0-35.0-1.5","SS1613081908596","trial","","40","800","1759.6099999981234","images/stimuli/spore_stims/simple_03_B_a.gif","images/stimuli/spore_stims/simple_04_A_d.gif","","","","","9","simple_dissimilar","images/stimuli/spore_stims/simple_04_A_d.gif","middle","","","","",""
"","null","html-keyboard-response","182","415866","0.0-35.0-0.6","SS1613081908596","","","null","","","","","<p><img src= images/blank.png width =""200"" height = ""200"" style = ""float:right""></p><p><img src=images/blank.png width =""800"" height = ""200""></p>","","","","","","","","","","","",""
"","1055.38499999966","sequential-stimulus-presentation","183","417737","0.0-35.0-1.6","SS1613081908596","trial","","40","800","1855.38499999966","images/stimuli/spore_stims/simple_03_B_a.gif","images/stimuli/spore_stims/simple_04_A_d.gif","","","","","9","simple_dissimilar","images/stimuli/spore_stims/simple_04_A_d.gif","middle","","","","",""
"","null","html-keyboard-response","184","418555","0.0-35.0-0.7","SS1613081908596","","","null","","","","","<p><img src= images/blank.png width =""200"" height = ""200"" style = ""float:right""></p><p><img src=images/blank.png width =""800"" height = ""200""></p>","","","","","","","","","","","",""
"","959.9099999977043","sequential-stimulus-presentation","185","420360","0.0-35.0-1.7","SS1613081908596","trial","","40","800","1759.9099999977043","images/stimuli/spore_stims/simple_03_B_a.gif","images/stimuli/spore_stims/simple_04_A_d.gif","","","","","9","simple_dissimilar","images/stimuli/spore_stims/simple_04_A_d.gif","middle","","","","",""
"","2693.169999998645","html-keyboard-response","186","423081","0.0-36.0","SS1613081908596","pref_question","","97","","","","","<video width ='960' height = '540' style='padding-top:8%' autoplay muted><source src='images/stimuli/wall_pref.mp4' type='video/mp4'></video>","1","left","25%","9","","","","","","","",""
"","146.76500000135275","sequential-stimulus-presentation","187","424055","0.0-37.0","SS1613081908596","pref_reveal","","40","800","946.7650000013527","null","null","","","","","9","","","","novel","","","",""
"","null","html-keyboard-response","188","425140","0.0-38.0-0.0","SS1613081908596","","","null","","","","","<p><img src= images/blank.png width =""200"" height = ""200"" style = ""float:right""></p><p><img src=images/blank.png width =""800"" height = ""200""></p>","","","","","","","","","","","",""
"","343.90500000154134","sequential-stimulus-presentation","189","426303","0.0-38.0-1.0","SS1613081908596","trial","","40","800","1143.9050000015413","images/stimuli/spore_stims/simple_13_A_a.gif","images/stimuli/spore_stims/simple_13_B_a.gif","","","","","10","simple_similar","images/stimuli/spore_stims/simple_13_B_a.gif","left","","","","",""
"","null","html-keyboard-response","190","427575","0.0-38.0-0.1","SS1613081908596","","","null","","","","","<p><img src= images/blank.png width =""200"" height = ""200"" style = ""float:right""></p><p><img src=images/blank.png width =""800"" height = ""200""></p>","","","","","","","","","","","",""
"","493.50000000046566","sequential-stimulus-presentation","191","428896","0.0-38.0-1.1","SS1613081908596","trial","","40","800","1293.5000000004657","images/stimuli/spore_stims/simple_13_A_a.gif","images/stimuli/spore_stims/simple_13_B_a.gif","","","","","10","simple_similar","images/stimuli/spore_stims/simple_13_B_a.gif","left","","","","",""
"","null","html-keyboard-response","192","429837","0.0-38.0-0.2","SS1613081908596","","","null","","","","","<p><img src= images/blank.png width =""200"" height = ""200"" style = ""float:right""></p><p><img src=images/blank.png width =""800"" height = ""200""></p>","","","","","","","","","","","",""
"","215.99999999668216","sequential-stimulus-presentation","193","430878","0.0-38.0-1.2","SS1613081908596","trial","","40","800","1015.9999999966822","images/stimuli/spore_stims/simple_13_A_a.gif","images/stimuli/spore_stims/simple_13_B_a.gif","","","","","10","simple_similar","images/stimuli/spore_stims/simple_13_B_a.gif","left","","","","",""
"","null","html-keyboard-response","194","432188","0.0-38.0-0.3","SS1613081908596","","","null","","","","","<p><img src= images/blank.png width =""200"" height = ""200"" style = ""float:right""></p><p><img src=images/blank.png width =""800"" height = ""200""></p>","","","","","","","","","","","",""
"","116.18499999900814","sequential-stimulus-presentation","195","433133","0.0-38.0-1.3","SS1613081908596","trial","","40","800","916.1849999990081","images/stimuli/spore_stims/simple_13_A_a.gif","images/stimuli/spore_stims/simple_13_B_a.gif","","","","","10","simple_similar","images/stimuli/spore_stims/simple_13_B_a.gif","left","","","","",""
"","null","html-keyboard-response","196","434362","0.0-38.0-0.4","SS1613081908596","","","null","","","","","<p><img src= images/blank.png width =""200"" height = ""200"" style = ""float:right""></p><p><img src=images/blank.png width =""800"" height = ""200""></p>","","","","","","","","","","","",""
"","1176.6250000000582","sequential-stimulus-presentation","197","436365","0.0-38.0-1.4","SS1613081908596","trial","","40","800","1976.6250000000582","images/stimuli/spore_stims/simple_13_A_a.gif","images/stimuli/spore_stims/simple_13_B_a.gif","","","","","10","simple_similar","images/stimuli/spore_stims/simple_13_A_a.gif","right","","","","",""
"","null","html-keyboard-response","198","437588","0.0-38.0-0.5","SS1613081908596","","","null","","","","","<p><img src= images/blank.png width =""200"" height = ""200"" style = ""float:right""></p><p><img src=images/blank.png width =""800"" height = ""200""></p>","","","","","","","","","","","",""
"","1202.9650000003749","sequential-stimulus-presentation","199","439620","0.0-38.0-1.5","SS1613081908596","trial","","40","800","2002.9650000003749","images/stimuli/spore_stims/simple_13_A_a.gif","images/stimuli/spore_stims/simple_13_B_a.gif","","","","","10","simple_similar","images/stimuli/spore_stims/simple_13_B_a.gif","left","","","","",""
"","null","html-keyboard-response","200","440539","0.0-38.0-0.6","SS1613081908596","","","null","","","","","<p><img src= images/blank.png width =""200"" height = ""200"" style = ""float:right""></p><p><img src=images/blank.png width =""800"" height = ""200""></p>","","","","","","","","","","","",""
"","1333.4450000002398","sequential-stimulus-presentation","201","442700","0.0-38.0-1.6","SS1613081908596","trial","","40","800","2133.44500000024","images/stimuli/spore_stims/simple_13_A_a.gif","images/stimuli/spore_stims/simple_13_B_a.gif","","","","","10","simple_similar","images/stimuli/spore_stims/simple_13_B_a.gif","left","","","","",""
"","null","html-keyboard-response","202","443972","0.0-38.0-0.7","SS1613081908596","","","null","","","","","<p><img src= images/blank.png width =""200"" height = ""200"" style = ""float:right""></p><p><img src=images/blank.png width =""800"" height = ""200""></p>","","","","","","","","","","","",""
"","67.36499999900116","sequential-stimulus-presentation","203","444868","0.0-38.0-1.7","SS1613081908596","trial","","40","800","867.3649999990012","images/stimuli/spore_stims/simple_13_A_a.gif","images/stimuli/spore_stims/simple_13_B_a.gif","","","","","10","simple_similar","images/stimuli/spore_stims/simple_13_B_a.gif","left","","","","",""
"","1807.9649999999674","html-keyboard-response","204","446715","0.0-39.0","SS1613081908596","pref_question","","98","","","","","<video width ='960' height = '540' style='padding-top:8%' autoplay muted><source src='images/stimuli/wall_pref.mp4' type='video/mp4'></video>","2","middle","45%","10","","","","","","","",""
"","2908.9600000006612","sequential-stimulus-presentation","205","450442","0.0-40.0","SS1613081908596","pref_reveal","","40","800","3708.9600000006612","null","null","","","","","10","","","","novel","","","",""
"","null","html-keyboard-response","206","451509","0.0-41.0-0.0","SS1613081908596","","","null","","","","","<p><img src= images/blank.png width =""200"" height = ""200"" style = ""float:right""></p><p><img src=images/blank.png width =""800"" height = ""200""></p>","","","","","","","","","","","",""
"","438.285000000149","sequential-stimulus-presentation","207","452795","0.0-41.0-1.0","SS1613081908596","trial","","40","800","1238.285000000149","images/stimuli/spore_stims/simple_08_A_c.gif","images/stimuli/spore_stims/simple_01_A_d.gif","","","","","11","simple_dissimilar","images/stimuli/spore_stims/simple_01_A_d.gif","right","","","","",""
"","null","html-keyboard-response","208","454071","0.0-41.0-0.1","SS1613081908596","","","null","","","","","<p><img src= images/blank.png width =""200"" height = ""200"" style = ""float:right""></p><p><img src=images/blank.png width =""800"" height = ""200""></p>","","","","","","","","","","","",""
"","86.15000000281725","sequential-stimulus-presentation","209","454988","0.0-41.0-1.1","SS1613081908596","trial","","40","800","886.1500000028173","images/stimuli/spore_stims/simple_08_A_c.gif","images/stimuli/spore_stims/simple_01_A_d.gif","","","","","11","simple_dissimilar","images/stimuli/spore_stims/simple_01_A_d.gif","right","","","","",""
"","null","html-keyboard-response","210","455856","0.0-41.0-0.2","SS1613081908596","","","null","","","","","<p><img src= images/blank.png width =""200"" height = ""200"" style = ""float:right""></p><p><img src=images/blank.png width =""800"" height = ""200""></p>","","","","","","","","","","","",""
"","230.5999999989872","sequential-stimulus-presentation","211","456907","0.0-41.0-1.2","SS1613081908596","trial","","40","800","1030.5999999989872","images/stimuli/spore_stims/simple_08_A_c.gif","images/stimuli/spore_stims/simple_01_A_d.gif","","","","","11","simple_dissimilar","images/stimuli/spore_stims/simple_08_A_c.gif","middle","","","","",""
"","null","html-keyboard-response","212","457800","0.0-41.0-0.3","SS1613081908596","","","null","","","","","<p><img src= images/blank.png width =""200"" height = ""200"" style = ""float:right""></p><p><img src=images/blank.png width =""800"" height = ""200""></p>","","","","","","","","","","","",""
"","1638.2599999997183","sequential-stimulus-presentation","213","460267","0.0-41.0-1.3","SS1613081908596","trial","","40","800","2438.2599999997183","images/stimuli/spore_stims/simple_08_A_c.gif","images/stimuli/spore_stims/simple_01_A_d.gif","","","","","11","simple_dissimilar","images/stimuli/spore_stims/simple_01_A_d.gif","right","","","","",""
"","null","html-keyboard-response","214","461520","0.0-41.0-0.4","SS1613081908596","","","null","","","","","<p><img src= images/blank.png width =""200"" height = ""200"" style = ""float:right""></p><p><img src=images/blank.png width =""800"" height = ""200""></p>","","","","","","","","","","","",""
"","1430.1500000001397","sequential-stimulus-presentation","215","463778","0.0-41.0-1.4","SS1613081908596","trial","","40","800","2230.1500000001397","images/stimuli/spore_stims/simple_08_A_c.gif","images/stimuli/spore_stims/simple_01_A_d.gif","","","","","11","simple_dissimilar","images/stimuli/spore_stims/simple_01_A_d.gif","right","","","","",""
"","null","html-keyboard-response","216","464785","0.0-41.0-0.5","SS1613081908596","","","null","","","","","<p><img src= images/blank.png width =""200"" height = ""200"" style = ""float:right""></p><p><img src=images/blank.png width =""800"" height = ""200""></p>","","","","","","","","","","","",""
"","475.99500000069384","sequential-stimulus-presentation","217","466090","0.0-41.0-1.5","SS1613081908596","trial","","40","800","1275.9950000006938","images/stimuli/spore_stims/simple_08_A_c.gif","images/stimuli/spore_stims/simple_01_A_d.gif","","","","","11","simple_dissimilar","images/stimuli/spore_stims/simple_01_A_d.gif","right","","","","",""
"","null","html-keyboard-response","218","467358","0.0-41.0-0.6","SS1613081908596","","","null","","","","","<p><img src= images/blank.png width =""200"" height = ""200"" style = ""float:right""></p><p><img src=images/blank.png width =""800"" height = ""200""></p>","","","","","","","","","","","",""
"","791.2649999998393","sequential-stimulus-presentation","219","468977","0.0-41.0-1.6","SS1613081908596","trial","","40","800","1591.2649999998393","images/stimuli/spore_stims/simple_08_A_c.gif","images/stimuli/spore_stims/simple_01_A_d.gif","","","","","11","simple_dissimilar","images/stimuli/spore_stims/simple_01_A_d.gif","right","","","","",""
"","null","html-keyboard-response","220","470133","0.0-41.0-0.7","SS1613081908596","","","null","","","","","<p><img src= images/blank.png width =""200"" height = ""200"" style = ""float:right""></p><p><img src=images/blank.png width =""800"" height = ""200""></p>","","","","","","","","","","","",""
"","2001.5550000026124","sequential-stimulus-presentation","221","472961","0.0-41.0-1.7","SS1613081908596","trial","","40","800","2801.5550000026124","images/stimuli/spore_stims/simple_08_A_c.gif","images/stimuli/spore_stims/simple_01_A_d.gif","","","","","11","simple_dissimilar","images/stimuli/spore_stims/simple_01_A_d.gif","right","","","","",""
"","7739.495000001625","html-keyboard-response","222","480730","0.0-42.0","SS1613081908596","pref_question","","98","","","","","<video width ='960' height = '540' style='padding-top:8%' autoplay muted><source src='images/stimuli/wall_pref.mp4' type='video/mp4'></video>","2","middle","45%","11","","","","","","","",""
"","507.6749999971362","sequential-stimulus-presentation","223","482071","0.0-43.0","SS1613081908596","pref_reveal","","40","800","1307.6749999971362","null","null","","","","","11","","","","deviant","","","",""
"","null","html-keyboard-response","224","482907","0.0-44.0-0.0","SS1613081908596","","","null","","","","","<p><img src= images/blank.png width =""200"" height = ""200"" style = ""float:right""></p><p><img src=images/blank.png width =""800"" height = ""200""></p>","","","","","","","","","","","",""
"","513.3950000017649","sequential-stimulus-presentation","225","484247","0.0-44.0-1.0","SS1613081908596","trial","","40","800","1313.3950000017649","images/stimuli/spore_stims/complex_17_A_b.gif","images/stimuli/spore_stims/complex_17_B_b.gif","","","","","12","complex_similar","images/stimuli/spore_stims/complex_17_B_b.gif","left","","","","",""
"","null","html-keyboard-response","226","485507","0.0-44.0-0.1","SS1613081908596","","","null","","","","","<p><img src= images/blank.png width =""200"" height = ""200"" style = ""float:right""></p><p><img src=images/blank.png width =""800"" height = ""200""></p>","","","","","","","","","","","",""
"","712.9050000002608","sequential-stimulus-presentation","227","487038","0.0-44.0-1.1","SS1613081908596","trial","","40","800","1512.9050000002608","images/stimuli/spore_stims/complex_17_A_b.gif","images/stimuli/spore_stims/complex_17_B_b.gif","","","","","12","complex_similar","images/stimuli/spore_stims/complex_17_B_b.gif","left","","","","",""
"","null","html-keyboard-response","228","487900","0.0-44.0-0.2","SS1613081908596","","","null","","","","","<p><img src= images/blank.png width =""200"" height = ""200"" style = ""float:right""></p><p><img src=images/blank.png width =""800"" height = ""200""></p>","","","","","","","","","","","",""
"","2301.145000001183","sequential-stimulus-presentation","229","491029","0.0-44.0-1.2","SS1613081908596","trial","","40","800","3101.145000001183","images/stimuli/spore_stims/complex_17_A_b.gif","images/stimuli/spore_stims/complex_17_B_b.gif","","","","","12","complex_similar","images/stimuli/spore_stims/complex_17_B_b.gif","left","","","","",""
"","null","html-keyboard-response","230","492303","0.0-44.0-0.3","SS1613081908596","","","null","","","","","<p><img src= images/blank.png width =""200"" height = ""200"" style = ""float:right""></p><p><img src=images/blank.png width =""800"" height = ""200""></p>","","","","","","","","","","","",""
"","25.62500000197906","sequential-stimulus-presentation","231","493158","0.0-44.0-1.3","SS1613081908596","trial","","40","800","825.6250000019791","images/stimuli/spore_stims/complex_17_A_b.gif","images/stimuli/spore_stims/complex_17_B_b.gif","","","","","12","complex_similar","images/stimuli/spore_stims/complex_17_B_b.gif","left","","","","",""
"","null","html-keyboard-response","232","493999","0.0-44.0-0.4","SS1613081908596","","","null","","","","","<p><img src= images/blank.png width =""200"" height = ""200"" style = ""float:right""></p><p><img src=images/blank.png width =""800"" height = ""200""></p>","","","","","","","","","","","",""
"","159.75500000058673","sequential-stimulus-presentation","233","494989","0.0-44.0-1.4","SS1613081908596","trial","","40","800","959.7550000005867","images/stimuli/spore_stims/complex_17_A_b.gif","images/stimuli/spore_stims/complex_17_B_b.gif","","","","","12","complex_similar","images/stimuli/spore_stims/complex_17_A_b.gif","right","","","","",""
"","null","html-keyboard-response","234","496078","0.0-44.0-0.5","SS1613081908596","","","null","","","","","<p><img src= images/blank.png width =""200"" height = ""200"" style = ""float:right""></p><p><img src=images/blank.png width =""800"" height = ""200""></p>","","","","","","","","","","","",""
"","503.55499999935273","sequential-stimulus-presentation","235","497412","0.0-44.0-1.5","SS1613081908596","trial","","40","800","1303.5549999993527","images/stimuli/spore_stims/complex_17_A_b.gif","images/stimuli/spore_stims/complex_17_B_b.gif","","","","","12","complex_similar","images/stimuli/spore_stims/complex_17_B_b.gif","left","","","","",""
"","null","html-keyboard-response","236","498453","0.0-44.0-0.6","SS1613081908596","","","null","","","","","<p><img src= images/blank.png width =""200"" height = ""200"" style = ""float:right""></p><p><img src=images/blank.png width =""800"" height = ""200""></p>","","","","","","","","","","","",""
"","63.40500000084285","sequential-stimulus-presentation","237","499348","0.0-44.0-1.6","SS1613081908596","trial","","40","800","863.4050000008428","images/stimuli/spore_stims/complex_17_A_b.gif","images/stimuli/spore_stims/complex_17_B_b.gif","","","","","12","complex_similar","images/stimuli/spore_stims/complex_17_B_b.gif","left","","","","",""
"","null","html-keyboard-response","238","500463","0.0-44.0-0.7","SS1613081908596","","","null","","","","","<p><img src= images/blank.png width =""200"" height = ""200"" style = ""float:right""></p><p><img src=images/blank.png width =""800"" height = ""200""></p>","","","","","","","","","","","",""
"","254.23500000033528","sequential-stimulus-presentation","239","501548","0.0-44.0-1.7","SS1613081908596","trial","","40","800","1054.2350000003353","images/stimuli/spore_stims/complex_17_A_b.gif","images/stimuli/spore_stims/complex_17_B_b.gif","","","","","12","complex_similar","images/stimuli/spore_stims/complex_17_B_b.gif","left","","","","",""
"","3982.8699999997625","html-keyboard-response","240","505564","0.0-45.0","SS1613081908596","pref_question","","99","","","","","<video width ='960' height = '540' style='padding-top:8%' autoplay muted><source src='images/stimuli/wall_pref.mp4' type='video/mp4'></video>","3","right","66%","12","","","","","","","",""
"","86.43999999912921","sequential-stimulus-presentation","241","506483","0.0-46.0","SS1613081908596","pref_reveal","","40","800","886.4399999991292","null","null","","","","","12","","","","deviant","","","",""
"","null","html-keyboard-response","242","507409","0.0-47.0-0.0","SS1613081908596","","","null","","","","","<p><img src= images/blank.png width =""200"" height = ""200"" style = ""float:right""></p><p><img src=images/blank.png width =""800"" height = ""200""></p>","","","","","","","","","","","",""
"","49.69999999960419","sequential-stimulus-presentation","243","508290","0.0-47.0-1.0","SS1613081908596","trial","","40","800","849.6999999996042","images/stimuli/spore_stims/complex_20_B_d.gif","images/stimuli/spore_stims/complex_20_A_d.gif","","","","","13","complex_similar","images/stimuli/spore_stims/complex_20_A_d.gif","middle","","","","",""
"","null","html-keyboard-response","244","509607","0.0-47.0-0.1","SS1613081908596","","","null","","","","","<p><img src= images/blank.png width =""200"" height = ""200"" style = ""float:right""></p><p><img src=images/blank.png width =""800"" height = ""200""></p>","","","","","","","","","","","",""
"","155.19500000297558","sequential-stimulus-presentation","245","510593","0.0-47.0-1.1","SS1613081908596","trial","","40","800","955.1950000029756","images/stimuli/spore_stims/complex_20_B_d.gif","images/stimuli/spore_stims/complex_20_A_d.gif","","","","","13","complex_similar","images/stimuli/spore_stims/complex_20_A_d.gif","middle","","","","",""
"","null","html-keyboard-response","246","511547","0.0-47.0-0.2","SS1613081908596","","","null","","","","","<p><img src= images/blank.png width =""200"" height = ""200"" style = ""float:right""></p><p><img src=images/blank.png width =""800"" height = ""200""></p>","","","","","","","","","","","",""
"","391.1000000006752","sequential-stimulus-presentation","247","512770","0.0-47.0-1.2","SS1613081908596","trial","","40","800","1191.1000000006752","images/stimuli/spore_stims/complex_20_B_d.gif","images/stimuli/spore_stims/complex_20_A_d.gif","","","","","13","complex_similar","images/stimuli/spore_stims/complex_20_A_d.gif","middle","","","","",""
"","null","html-keyboard-response","248","513661","0.0-47.0-0.3","SS1613081908596","","","null","","","","","<p><img src= images/blank.png width =""200"" height = ""200"" style = ""float:right""></p><p><img src=images/blank.png width =""800"" height = ""200""></p>","","","","","","","","","","","",""
"","167.40500000026077","sequential-stimulus-presentation","249","514667","0.0-47.0-1.3","SS1613081908596","trial","","40","800","967.4050000002608","images/stimuli/spore_stims/complex_20_B_d.gif","images/stimuli/spore_stims/complex_20_A_d.gif","","","","","13","complex_similar","images/stimuli/spore_stims/complex_20_A_d.gif","middle","","","","",""
"","null","html-keyboard-response","250","515561","0.0-47.0-0.4","SS1613081908596","","","null","","","","","<p><img src= images/blank.png width =""200"" height = ""200"" style = ""float:right""></p><p><img src=images/blank.png width =""800"" height = ""200""></p>","","","","","","","","","","","",""
"","2.5399999977089465","sequential-stimulus-presentation","251","516396","0.0-47.0-1.4","SS1613081908596","trial","","40","800","802.539999997709","images/stimuli/spore_stims/complex_20_B_d.gif","images/stimuli/spore_stims/complex_20_A_d.gif","","","","","13","complex_similar","images/stimuli/spore_stims/complex_20_B_d.gif","right","","","","",""
"","null","html-keyboard-response","252","517513","0.0-47.0-0.5","SS1613081908596","","","null","","","","","<p><img src= images/blank.png width =""200"" height = ""200"" style = ""float:right""></p><p><img src=images/blank.png width =""800"" height = ""200""></p>","","","","","","","","","","","",""
"","258.2799999981653","sequential-stimulus-presentation","253","518588","0.0-47.0-1.5","SS1613081908596","trial","","40","800","1058.2799999981653","images/stimuli/spore_stims/complex_20_B_d.gif","images/stimuli/spore_stims/complex_20_A_d.gif","","","","","13","complex_similar","images/stimuli/spore_stims/complex_20_A_d.gif","middle","","","","",""
"","null","html-keyboard-response","254","519609","0.0-47.0-0.6","SS1613081908596","","","null","","","","","<p><img src= images/blank.png width =""200"" height = ""200"" style = ""float:right""></p><p><img src=images/blank.png width =""800"" height = ""200""></p>","","","","","","","","","","","",""
"","1486.4049999996787","sequential-stimulus-presentation","255","521931","0.0-47.0-1.6","SS1613081908596","trial","","40","800","2286.4049999996787","images/stimuli/spore_stims/complex_20_B_d.gif","images/stimuli/spore_stims/complex_20_A_d.gif","","","","","13","complex_similar","images/stimuli/spore_stims/complex_20_A_d.gif","middle","","","","",""
"","null","html-keyboard-response","256","522795","0.0-47.0-0.7","SS1613081908596","","","null","","","","","<p><img src= images/blank.png width =""200"" height = ""200"" style = ""float:right""></p><p><img src=images/blank.png width =""800"" height = ""200""></p>","","","","","","","","","","","",""
"","1767.6550000032876","sequential-stimulus-presentation","257","525395","0.0-47.0-1.7","SS1613081908596","trial","","40","800","2567.6550000032876","images/stimuli/spore_stims/complex_20_B_d.gif","images/stimuli/spore_stims/complex_20_A_d.gif","","","","","13","complex_similar","images/stimuli/spore_stims/complex_20_A_d.gif","middle","","","","",""
"","1711.889999998617","html-keyboard-response","258","527155","0.0-48.0","SS1613081908596","pref_question","","98","","","","","<video width ='960' height = '540' style='padding-top:8%' autoplay muted><source src='images/stimuli/wall_pref.mp4' type='video/mp4'></video>","2","middle","45%","13","","","","","","","",""
"","273.21500000101514","sequential-stimulus-presentation","259","528259","0.0-49.0","SS1613081908596","pref_reveal","","40","800","1073.2150000010151","null","null","","","","","13","","","","background","","","",""
"","null","html-keyboard-response","260","529245","0.0-50.0-0.0","SS1613081908596","","","null","","","","","<p><img src= images/blank.png width =""200"" height = ""200"" style = ""float:right""></p><p><img src=images/blank.png width =""800"" height = ""200""></p>","","","","","","","","","","","",""
"","165.580000000773","sequential-stimulus-presentation","261","530241","0.0-50.0-1.0","SS1613081908596","trial","","40","800","965.580000000773","images/stimuli/spore_stims/complex_02_A_b.gif","images/stimuli/spore_stims/complex_11_A_d.gif","","","","","14","complex_dissimilar","images/stimuli/spore_stims/complex_11_A_d.gif","left","","","","",""
"","null","html-keyboard-response","262","531221","0.0-50.0-0.1","SS1613081908596","","","null","","","","","<p><img src= images/blank.png width =""200"" height = ""200"" style = ""float:right""></p><p><img src=images/blank.png width =""800"" height = ""200""></p>","","","","","","","","","","","",""
"","718.010000000475","sequential-stimulus-presentation","263","532769","0.0-50.0-1.1","SS1613081908596","trial","","40","800","1518.010000000475","images/stimuli/spore_stims/complex_02_A_b.gif","images/stimuli/spore_stims/complex_11_A_d.gif","","","","","14","complex_dissimilar","images/stimuli/spore_stims/complex_11_A_d.gif","left","","","","",""
"","null","html-keyboard-response","264","533803","0.0-50.0-0.2","SS1613081908596","","","null","","","","","<p><img src= images/blank.png width =""200"" height = ""200"" style = ""float:right""></p><p><img src=images/blank.png width =""800"" height = ""200""></p>","","","","","","","","","","","",""
"","5.359999999171123","sequential-stimulus-presentation","265","534639","0.0-50.0-1.2","SS1613081908596","trial","","40","800","805.3599999991711","images/stimuli/spore_stims/complex_02_A_b.gif","images/stimuli/spore_stims/complex_11_A_d.gif","","","","","14","complex_dissimilar","images/stimuli/spore_stims/complex_11_A_d.gif","left","","","","",""
"","null","html-keyboard-response","266","535568","0.0-50.0-0.3","SS1613081908596","","","null","","","","","<p><img src= images/blank.png width =""200"" height = ""200"" style = ""float:right""></p><p><img src=images/blank.png width =""800"" height = ""200""></p>","","","","","","","","","","","",""
"","107.07000000192784","sequential-stimulus-presentation","267","536504","0.0-50.0-1.3","SS1613081908596","trial","","40","800","907.0700000019278","images/stimuli/spore_stims/complex_02_A_b.gif","images/stimuli/spore_stims/complex_11_A_d.gif","","","","","14","complex_dissimilar","images/stimuli/spore_stims/complex_02_A_b.gif","right","","","","",""
"","null","html-keyboard-response","268","537662","0.0-50.0-0.4","SS1613081908596","","","null","","","","","<p><img src= images/blank.png width =""200"" height = ""200"" style = ""float:right""></p><p><img src=images/blank.png width =""800"" height = ""200""></p>","","","","","","","","","","","",""
"","204.30499999923632","sequential-stimulus-presentation","269","538696","0.0-50.0-1.4","SS1613081908596","trial","","40","800","1004.3049999992363","images/stimuli/spore_stims/complex_02_A_b.gif","images/stimuli/spore_stims/complex_11_A_d.gif","","","","","14","complex_dissimilar","images/stimuli/spore_stims/complex_11_A_d.gif","left","","","","",""
"","null","html-keyboard-response","270","539679","0.0-50.0-0.5","SS1613081908596","","","null","","","","","<p><img src= images/blank.png width =""200"" height = ""200"" style = ""float:right""></p><p><img src=images/blank.png width =""800"" height = ""200""></p>","","","","","","","","","","","",""
"","162.77500000072177","sequential-stimulus-presentation","271","540671","0.0-50.0-1.5","SS1613081908596","trial","","40","800","962.7750000007218","images/stimuli/spore_stims/complex_02_A_b.gif","images/stimuli/spore_stims/complex_11_A_d.gif","","","","","14","complex_dissimilar","images/stimuli/spore_stims/complex_11_A_d.gif","left","","","","",""
"","null","html-keyboard-response","272","541565","0.0-50.0-0.6","SS1613081908596","","","null","","","","","<p><img src= images/blank.png width =""200"" height = ""200"" style = ""float:right""></p><p><img src=images/blank.png width =""800"" height = ""200""></p>","","","","","","","","","","","",""
"","898.0899999988033","sequential-stimulus-presentation","273","543295","0.0-50.0-1.6","SS1613081908596","trial","","40","800","1698.0899999988033","images/stimuli/spore_stims/complex_02_A_b.gif","images/stimuli/spore_stims/complex_11_A_d.gif","","","","","14","complex_dissimilar","images/stimuli/spore_stims/complex_11_A_d.gif","left","","","","",""
"","null","html-keyboard-response","274","544231","0.0-50.0-0.7","SS1613081908596","","","null","","","","","<p><img src= images/blank.png width =""200"" height = ""200"" style = ""float:right""></p><p><img src=images/blank.png width =""800"" height = ""200""></p>","","","","","","","","","","","",""
"","167.8699999974342","sequential-stimulus-presentation","275","545231","0.0-50.0-1.7","SS1613081908596","trial","","40","800","967.8699999974342","images/stimuli/spore_stims/complex_02_A_b.gif","images/stimuli/spore_stims/complex_11_A_d.gif","","","","","14","complex_dissimilar","images/stimuli/spore_stims/complex_11_A_d.gif","left","","","","",""
"","2321.089999997639","html-keyboard-response","276","547584","0.0-51.0","SS1613081908596","pref_question","","98","","","","","<video width ='960' height = '540' style='padding-top:8%' autoplay muted><source src='images/stimuli/wall_pref.mp4' type='video/mp4'></video>","2","middle","45%","14","","","","","","","",""
"","8567.419999999343","sequential-stimulus-presentation","277","556981","0.0-52.0","SS1613081908596","pref_reveal","","40","800","9367.419999999343","null","null","","","","","14","","","","novel","","","",""
"","null","html-keyboard-response","278","558231","0.0-53.0-0.0","SS1613081908596","","","null","","","","","<p><img src= images/blank.png width =""200"" height = ""200"" style = ""float:right""></p><p><img src=images/blank.png width =""800"" height = ""200""></p>","","","","","","","","","","","",""
"","652.9800000025425","sequential-stimulus-presentation","279","559716","0.0-53.0-1.0","SS1613081908596","trial","","40","800","1452.9800000025425","images/stimuli/spore_stims/simple_20_A_b.gif","images/stimuli/spore_stims/simple_15_A_c.gif","","","","","15","simple_dissimilar","images/stimuli/spore_stims/simple_15_A_c.gif","left","","","","",""
"","null","html-keyboard-response","280","560999","0.0-53.0-0.1","SS1613081908596","","","null","","","","","<p><img src= images/blank.png width =""200"" height = ""200"" style = ""float:right""></p><p><img src=images/blank.png width =""800"" height = ""200""></p>","","","","","","","","","","","",""
"","427.84499999834225","sequential-stimulus-presentation","281","562260","0.0-53.0-1.1","SS1613081908596","trial","","40","800","1227.8449999983422","images/stimuli/spore_stims/simple_20_A_b.gif","images/stimuli/spore_stims/simple_15_A_c.gif","","","","","15","simple_dissimilar","images/stimuli/spore_stims/simple_15_A_c.gif","left","","","","",""
"","null","html-keyboard-response","282","563583","0.0-53.0-0.2","SS1613081908596","","","null","","","","","<p><img src= images/blank.png width =""200"" height = ""200"" style = ""float:right""></p><p><img src=images/blank.png width =""800"" height = ""200""></p>","","","","","","","","","","","",""
"","482.7049999985611","sequential-stimulus-presentation","283","564898","0.0-53.0-1.2","SS1613081908596","trial","","40","800","1282.704999998561","images/stimuli/spore_stims/simple_20_A_b.gif","images/stimuli/spore_stims/simple_15_A_c.gif","","","","","15","simple_dissimilar","images/stimuli/spore_stims/simple_15_A_c.gif","left","","","","",""
"","null","html-keyboard-response","284","566106","0.0-53.0-0.3","SS1613081908596","","","null","","","","","<p><img src= images/blank.png width =""200"" height = ""200"" style = ""float:right""></p><p><img src=images/blank.png width =""800"" height = ""200""></p>","","","","","","","","","","","",""
"","1338.335000000312","sequential-stimulus-presentation","285","568278","0.0-53.0-1.3","SS1613081908596","trial","","40","800","2138.335000000312","images/stimuli/spore_stims/simple_20_A_b.gif","images/stimuli/spore_stims/simple_15_A_c.gif","","","","","15","simple_dissimilar","images/stimuli/spore_stims/simple_20_A_b.gif","middle","","","","",""
"","null","html-keyboard-response","286","569357","0.0-53.0-0.4","SS1613081908596","","","null","","","","","<p><img src= images/blank.png width =""200"" height = ""200"" style = ""float:right""></p><p><img src=images/blank.png width =""800"" height = ""200""></p>","","","","","","","","","","","",""
"","356.1200000003446","sequential-stimulus-presentation","287","570547","0.0-53.0-1.4","SS1613081908596","trial","","40","800","1156.1200000003446","images/stimuli/spore_stims/simple_20_A_b.gif","images/stimuli/spore_stims/simple_15_A_c.gif","","","","","15","simple_dissimilar","images/stimuli/spore_stims/simple_15_A_c.gif","left","","","","",""
"","null","html-keyboard-response","288","571514","0.0-53.0-0.5","SS1613081908596","","","null","","","","","<p><img src= images/blank.png width =""200"" height = ""200"" style = ""float:right""></p><p><img src=images/blank.png width =""800"" height = ""200""></p>","","","","","","","","","","","",""
"","3.645000000600703","sequential-stimulus-presentation","289","572346","0.0-53.0-1.5","SS1613081908596","trial","","40","800","803.6450000006007","images/stimuli/spore_stims/simple_20_A_b.gif","images/stimuli/spore_stims/simple_15_A_c.gif","","","","","15","simple_dissimilar","images/stimuli/spore_stims/simple_15_A_c.gif","left","","","","",""
"","null","html-keyboard-response","290","573580","0.0-53.0-0.6","SS1613081908596","","","null","","","","","<p><img src= images/blank.png width =""200"" height = ""200"" style = ""float:right""></p><p><img src=images/blank.png width =""800"" height = ""200""></p>","","","","","","","","","","","",""
"","929.9000000029337","sequential-stimulus-presentation","291","575348","0.0-53.0-1.6","SS1613081908596","trial","","40","800","1729.9000000029337","images/stimuli/spore_stims/simple_20_A_b.gif","images/stimuli/spore_stims/simple_15_A_c.gif","","","","","15","simple_dissimilar","images/stimuli/spore_stims/simple_15_A_c.gif","left","","","","",""
"","null","html-keyboard-response","292","576656","0.0-53.0-0.7","SS1613081908596","","","null","","","","","<p><img src= images/blank.png width =""200"" height = ""200"" style = ""float:right""></p><p><img src=images/blank.png width =""800"" height = ""200""></p>","","","","","","","","","","","",""
"","570.5999999991618","sequential-stimulus-presentation","293","578043","0.0-53.0-1.7","SS1613081908596","trial","","40","800","1370.5999999991618","images/stimuli/spore_stims/simple_20_A_b.gif","images/stimuli/spore_stims/simple_15_A_c.gif","","","","","15","simple_dissimilar","images/stimuli/spore_stims/simple_15_A_c.gif","left","","","","",""
"","4774.219999999274","html-keyboard-response","294","582851","0.0-54.0","SS1613081908596","pref_question","","98","","","","","<video width ='960' height = '540' style='padding-top:8%' autoplay muted><source src='images/stimuli/wall_pref.mp4' type='video/mp4'></video>","2","middle","45%","15","","","","","","","",""
"","471.48999999987427","sequential-stimulus-presentation","295","584147","0.0-55.0","SS1613081908596","pref_reveal","","40","800","1271.4899999998743","null","null","","","","","15","","","","deviant","","","",""
"","null","html-keyboard-response","296","585062","0.0-56.0-0.0","SS1613081908596","","","null","","","","","<p><img src= images/blank.png width =""200"" height = ""200"" style = ""float:right""></p><p><img src=images/blank.png width =""800"" height = ""200""></p>","","","","","","","","","","","",""
"","1001.0099999998929","sequential-stimulus-presentation","297","586922","0.0-56.0-1.0","SS1613081908596","trial","","40","800","1801.009999999893","images/stimuli/spore_stims/complex_02_B_d.gif","images/stimuli/spore_stims/complex_01_B_d.gif","","","","","16","complex_dissimilar","images/stimuli/spore_stims/complex_01_B_d.gif","left","","","","",""
"","null","html-keyboard-response","298","588075","0.0-56.0-0.1","SS1613081908596","","","null","","","","","<p><img src= images/blank.png width =""200"" height = ""200"" style = ""float:right""></p><p><img src=images/blank.png width =""800"" height = ""200""></p>","","","","","","","","","","","",""
"","6634.014999999665","sequential-stimulus-presentation","299","595545","0.0-56.0-1.1","SS1613081908596","trial","","40","800","7434.014999999665","images/stimuli/spore_stims/complex_02_B_d.gif","images/stimuli/spore_stims/complex_01_B_d.gif","","","","","16","complex_dissimilar","images/stimuli/spore_stims/complex_01_B_d.gif","left","","","","",""
"","null","html-keyboard-response","300","596512","0.0-56.0-0.2","SS1613081908596","","","null","","","","","<p><img src= images/blank.png width =""200"" height = ""200"" style = ""float:right""></p><p><img src=images/blank.png width =""800"" height = ""200""></p>","","","","","","","","","","","",""
"","1324.6500000023516","sequential-stimulus-presentation","301","598672","0.0-56.0-1.2","SS1613081908596","trial","","40","800","2124.6500000023516","images/stimuli/spore_stims/complex_02_B_d.gif","images/stimuli/spore_stims/complex_01_B_d.gif","","","","","16","complex_dissimilar","images/stimuli/spore_stims/complex_01_B_d.gif","left","","","","",""
"","null","html-keyboard-response","302","599969","0.0-56.0-0.3","SS1613081908596","","","null","","","","","<p><img src= images/blank.png width =""200"" height = ""200"" style = ""float:right""></p><p><img src=images/blank.png width =""800"" height = ""200""></p>","","","","","","","","","","","",""
"","530.7900000007357","sequential-stimulus-presentation","303","601335","0.0-56.0-1.3","SS1613081908596","trial","","40","800","1330.7900000007357","images/stimuli/spore_stims/complex_02_B_d.gif","images/stimuli/spore_stims/complex_01_B_d.gif","","","","","16","complex_dissimilar","images/stimuli/spore_stims/complex_01_B_d.gif","left","","","","",""
"","null","html-keyboard-response","304","602377","0.0-56.0-0.4","SS1613081908596","","","null","","","","","<p><img src= images/blank.png width =""200"" height = ""200"" style = ""float:right""></p><p><img src=images/blank.png width =""800"" height = ""200""></p>","","","","","","","","","","","",""
"","21.4300000006333","sequential-stimulus-presentation","305","603223","0.0-56.0-1.4","SS1613081908596","trial","","40","800","821.4300000006333","images/stimuli/spore_stims/complex_02_B_d.gif","images/stimuli/spore_stims/complex_01_B_d.gif","","","","","16","complex_dissimilar","images/stimuli/spore_stims/complex_02_B_d.gif","right","","","","",""
"","null","html-keyboard-response","306","604391","0.0-56.0-0.5","SS1613081908596","","","null","","","","","<p><img src= images/blank.png width =""200"" height = ""200"" style = ""float:right""></p><p><img src=images/blank.png width =""800"" height = ""200""></p>","","","","","","","","","","","",""
"","379.9600000020582","sequential-stimulus-presentation","307","605608","0.0-56.0-1.5","SS1613081908596","trial","","40","800","1179.9600000020582","images/stimuli/spore_stims/complex_02_B_d.gif","images/stimuli/spore_stims/complex_01_B_d.gif","","","","","16","complex_dissimilar","images/stimuli/spore_stims/complex_01_B_d.gif","left","","","","",""
"","null","html-keyboard-response","308","606927","0.0-56.0-0.6","SS1613081908596","","","null","","","","","<p><img src= images/blank.png width =""200"" height = ""200"" style = ""float:right""></p><p><img src=images/blank.png width =""800"" height = ""200""></p>","","","","","","","","","","","",""
"","226.79500000237022","sequential-stimulus-presentation","309","607974","0.0-56.0-1.6","SS1613081908596","trial","","40","800","1026.7950000023702","images/stimuli/spore_stims/complex_02_B_d.gif","images/stimuli/spore_stims/complex_01_B_d.gif","","","","","16","complex_dissimilar","images/stimuli/spore_stims/complex_01_B_d.gif","left","","","","",""
"","null","html-keyboard-response","310","608961","0.0-56.0-0.7","SS1613081908596","","","null","","","","","<p><img src= images/blank.png width =""200"" height = ""200"" style = ""float:right""></p><p><img src=images/blank.png width =""800"" height = ""200""></p>","","","","","","","","","","","",""
"","2005.1849999981932","sequential-stimulus-presentation","311","611797","0.0-56.0-1.7","SS1613081908596","trial","","40","800","2805.1849999981932","images/stimuli/spore_stims/complex_02_B_d.gif","images/stimuli/spore_stims/complex_01_B_d.gif","","","","","16","complex_dissimilar","images/stimuli/spore_stims/complex_01_B_d.gif","left","","","","",""
"","4799.9500000005355","html-keyboard-response","312","616629","0.0-57.0","SS1613081908596","pref_question","","98","","","","","<video width ='960' height = '540' style='padding-top:8%' autoplay muted><source src='images/stimuli/wall_pref.mp4' type='video/mp4'></video>","2","middle","45%","16","","","","","","","",""
