"view_history","rt","trial_type","trial_index","time_elapsed","internal_node_id","subject","stimulus_type","trial_stimulus","key_press","minimum_viewing_duration","trial_looking_time","block_deviant","block_background","stimulus","wall_pref","location","location_percent","block_number","block_type","stimulus_displayed","position_displayed","stim_type_selected","responses","question_order","stimulus_left","stimulus_right"
"[{""page_index"":0,""viewing_time"":20582.97000033781}]","20584.05000017956","instructions","0","20586","0.0-0.0","SS1613079962034","","","","","","","","","","","","","","","","","","","",""
"[{""page_index"":0,""viewing_time"":15706.135000102222},{""page_index"":1,""viewing_time"":10581.319999881089}]","26287.800000049174","instructions","1","48878","0.0-1.0","SS1613079962034","instructions","","","","","","","","","","","","","","","","","","",""
"","14127.044999971986","sequential-stimulus-presentation","2","63829","0.0-2.0","SS1613079962034","","","40","800","14927.044999971986","null","null","","","","","","","","","","","","",""
"","2027.7050002478063","sequential-stimulus-presentation","3","66663","0.0-3.0","SS1613079962034","","","40","800","2827.7050002478063","null","null","","","","","","","","","","","","",""
"[{""page_index"":0,""viewing_time"":10495.125000365078}]","10495.515000075102","instructions","4","77160","0.0-4.0","SS1613079962034","instructions","","","","","","","","","","","","","","","","","","",""
"","23670.96500005573","html-keyboard-response","5","100836","0.0-5.0","SS1613079962034","instructions","","97","","","","","<video width ='960' height = '540' autoplay muted><source src='images/stimuli/wall_pref.mp4' type='video/mp4'></video>","1","left","25%","","","","","","","","",""
"","3545.3200000338256","sequential-stimulus-presentation","6","105188","0.0-6.0","SS1613079962034","pref_reveal","","40","800","4345.320000033826","null","null","","","","","","","","","","","","",""
"[{""page_index"":0,""viewing_time"":8866.009999997914},{""page_index"":1,""viewing_time"":7031.9699998945},{""page_index"":2,""viewing_time"":3143.835000228137},{""page_index"":1,""viewing_time"":1272.499999962747},{""page_index"":2,""viewing_time"":655.8799999766052},{""page_index"":3,""viewing_time"":1543.8600000925362}]","22514.44000005722","instructions","7","127704","0.0-7.0","SS1613079962034","instructions","","","","","","","","","","","","","","","","","","",""
"","null","html-keyboard-response","8","128559","0.0-8.0-0.0","SS1613079962034","","","null","","","","","<p><img src= images/blank.png width =""200"" height = ""200"" style = ""float:right""></p><p><img src=images/blank.png width =""800"" height = ""200""></p>","","","","","","","","","","","",""
"","2554.8600000329316","sequential-stimulus-presentation","9","131925","0.0-8.0-1.0","SS1613079962034","trial","","40","800","3354.8600000329316","images/stimuli/spore_stims/complex_17_A_d.gif","images/stimuli/spore_stims/complex_08_B_b.gif","","","","","0","complex_dissimilar","images/stimuli/spore_stims/complex_08_B_b.gif","middle","","","","",""
"","null","html-keyboard-response","10","132893","0.0-8.0-0.1","SS1613079962034","","","null","","","","","<p><img src= images/blank.png width =""200"" height = ""200"" style = ""float:right""></p><p><img src=images/blank.png width =""800"" height = ""200""></p>","","","","","","","","","","","",""
"","3858.1699999049306","sequential-stimulus-presentation","11","137564","0.0-8.0-1.1","SS1613079962034","trial","","40","800","4658.169999904931","images/stimuli/spore_stims/complex_17_A_d.gif","images/stimuli/spore_stims/complex_08_B_b.gif","","","","","0","complex_dissimilar","images/stimuli/spore_stims/complex_08_B_b.gif","middle","","","","",""
"","null","html-keyboard-response","12","138721","0.0-8.0-0.2","SS1613079962034","","","null","","","","","<p><img src= images/blank.png width =""200"" height = ""200"" style = ""float:right""></p><p><img src=images/blank.png width =""800"" height = ""200""></p>","","","","","","","","","","","",""
"","1941.7150001972914","sequential-stimulus-presentation","13","141476","0.0-8.0-1.2","SS1613079962034","trial","","40","800","2741.7150001972914","images/stimuli/spore_stims/complex_17_A_d.gif","images/stimuli/spore_stims/complex_08_B_b.gif","","","","","0","complex_dissimilar","images/stimuli/spore_stims/complex_08_B_b.gif","middle","","","","",""
"","null","html-keyboard-response","14","142567","0.0-8.0-0.3","SS1613079962034","","","null","","","","","<p><img src= images/blank.png width =""200"" height = ""200"" style = ""float:right""></p><p><img src=images/blank.png width =""800"" height = ""200""></p>","","","","","","","","","","","",""
"","789.4000001251698","sequential-stimulus-presentation","15","144204","0.0-8.0-1.3","SS1613079962034","trial","","40","800","1589.4000001251698","images/stimuli/spore_stims/complex_17_A_d.gif","images/stimuli/spore_stims/complex_08_B_b.gif","","","","","0","complex_dissimilar","images/stimuli/spore_stims/complex_08_B_b.gif","middle","","","","",""
"","null","html-keyboard-response","16","145456","0.0-8.0-0.4","SS1613079962034","","","null","","","","","<p><img src= images/blank.png width =""200"" height = ""200"" style = ""float:right""></p><p><img src=images/blank.png width =""800"" height = ""200""></p>","","","","","","","","","","","",""
"","2108.0849999561906","sequential-stimulus-presentation","17","148380","0.0-8.0-1.4","SS1613079962034","trial","","40","800","2908.0849999561906","images/stimuli/spore_stims/complex_17_A_d.gif","images/stimuli/spore_stims/complex_08_B_b.gif","","","","","0","complex_dissimilar","images/stimuli/spore_stims/complex_08_B_b.gif","middle","","","","",""
"","null","html-keyboard-response","18","149314","0.0-8.0-0.5","SS1613079962034","","","null","","","","","<p><img src= images/blank.png width =""200"" height = ""200"" style = ""float:right""></p><p><img src=images/blank.png width =""800"" height = ""200""></p>","","","","","","","","","","","",""
"","1996.7749998904765","sequential-stimulus-presentation","19","152124","0.0-8.0-1.5","SS1613079962034","trial","","40","800","2796.7749998904765","images/stimuli/spore_stims/complex_17_A_d.gif","images/stimuli/spore_stims/complex_08_B_b.gif","","","","","0","complex_dissimilar","images/stimuli/spore_stims/complex_17_A_d.gif","left","","","","",""
"","null","html-keyboard-response","20","153170","0.0-8.0-0.6","SS1613079962034","","","null","","","","","<p><img src= images/blank.png width =""200"" height = ""200"" style = ""float:right""></p><p><img src=images/blank.png width =""800"" height = ""200""></p>","","","","","","","","","","","",""
"","1424.4949999265373","sequential-stimulus-presentation","21","155411","0.0-8.0-1.6","SS1613079962034","trial","","40","800","2224.4949999265373","images/stimuli/spore_stims/complex_17_A_d.gif","images/stimuli/spore_stims/complex_08_B_b.gif","","","","","0","complex_dissimilar","images/stimuli/spore_stims/complex_08_B_b.gif","middle","","","","",""
"","null","html-keyboard-response","22","156335","0.0-8.0-0.7","SS1613079962034","","","null","","","","","<p><img src= images/blank.png width =""200"" height = ""200"" style = ""float:right""></p><p><img src=images/blank.png width =""800"" height = ""200""></p>","","","","","","","","","","","",""
"","1680.2949998527765","sequential-stimulus-presentation","23","158827","0.0-8.0-1.7","SS1613079962034","trial","","40","800","2480.2949998527765","images/stimuli/spore_stims/complex_17_A_d.gif","images/stimuli/spore_stims/complex_08_B_b.gif","","","","","0","complex_dissimilar","images/stimuli/spore_stims/complex_08_B_b.gif","middle","","","","",""
"","1751.384999603033","html-keyboard-response","24","160604","0.0-9.0","SS1613079962034","pref_question","","99","","","","","<video width ='960' height = '540' style='padding-top:8%' autoplay muted><source src='images/stimuli/wall_pref.mp4' type='video/mp4'></video>","3","right","66%","0","","","","","","","",""
"","1291.9349996373057","sequential-stimulus-presentation","25","162707","0.0-10.0","SS1613079962034","pref_reveal","","40","800","2091.9349996373057","null","null","","","","","0","","","","novel","","","",""
"","null","html-keyboard-response","26","163596","0.0-11.0-0.0","SS1613079962034","","","null","","","","","<p><img src= images/blank.png width =""200"" height = ""200"" style = ""float:right""></p><p><img src=images/blank.png width =""800"" height = ""200""></p>","","","","","","","","","","","",""
"","1732.9350002110004","sequential-stimulus-presentation","27","166141","0.0-11.0-1.0","SS1613079962034","trial","","40","800","2532.9350002110004","images/stimuli/spore_stims/simple_19_B_d.gif","images/stimuli/spore_stims/simple_08_B_c.gif","","","","","1","simple_dissimilar","images/stimuli/spore_stims/simple_08_B_c.gif","middle","","","","",""
"","null","html-keyboard-response","28","166966","0.0-11.0-0.1","SS1613079962034","","","null","","","","","<p><img src= images/blank.png width =""200"" height = ""200"" style = ""float:right""></p><p><img src=images/blank.png width =""800"" height = ""200""></p>","","","","","","","","","","","",""
"","1008.8450000621378","sequential-stimulus-presentation","29","168803","0.0-11.0-1.1","SS1613079962034","trial","","40","800","1808.8450000621378","images/stimuli/spore_stims/simple_19_B_d.gif","images/stimuli/spore_stims/simple_08_B_c.gif","","","","","1","simple_dissimilar","images/stimuli/spore_stims/simple_08_B_c.gif","middle","","","","",""
"","null","html-keyboard-response","30","169871","0.0-11.0-0.2","SS1613079962034","","","null","","","","","<p><img src= images/blank.png width =""200"" height = ""200"" style = ""float:right""></p><p><img src=images/blank.png width =""800"" height = ""200""></p>","","","","","","","","","","","",""
"","1659.165000077337","sequential-stimulus-presentation","31","172339","0.0-11.0-1.2","SS1613079962034","trial","","40","800","2459.165000077337","images/stimuli/spore_stims/simple_19_B_d.gif","images/stimuli/spore_stims/simple_08_B_c.gif","","","","","1","simple_dissimilar","images/stimuli/spore_stims/simple_08_B_c.gif","middle","","","","",""
"","null","html-keyboard-response","32","173493","0.0-11.0-0.3","SS1613079962034","","","null","","","","","<p><img src= images/blank.png width =""200"" height = ""200"" style = ""float:right""></p><p><img src=images/blank.png width =""800"" height = ""200""></p>","","","","","","","","","","","",""
"","1891.1999999545515","sequential-stimulus-presentation","33","176219","0.0-11.0-1.3","SS1613079962034","trial","","40","800","2691.1999999545515","images/stimuli/spore_stims/simple_19_B_d.gif","images/stimuli/spore_stims/simple_08_B_c.gif","","","","","1","simple_dissimilar","images/stimuli/spore_stims/simple_08_B_c.gif","middle","","","","",""
"","null","html-keyboard-response","34","177442","0.0-11.0-0.4","SS1613079962034","","","null","","","","","<p><img src= images/blank.png width =""200"" height = ""200"" style = ""float:right""></p><p><img src=images/blank.png width =""800"" height = ""200""></p>","","","","","","","","","","","",""
"","2305.2400001324713","sequential-stimulus-presentation","35","180555","0.0-11.0-1.4","SS1613079962034","trial","","40","800","3105.2400001324713","images/stimuli/spore_stims/simple_19_B_d.gif","images/stimuli/spore_stims/simple_08_B_c.gif","","","","","1","simple_dissimilar","images/stimuli/spore_stims/simple_08_B_c.gif","middle","","","","",""
"","null","html-keyboard-response","36","181649","0.0-11.0-0.5","SS1613079962034","","","null","","","","","<p><img src= images/blank.png width =""200"" height = ""200"" style = ""float:right""></p><p><img src=images/blank.png width =""800"" height = ""200""></p>","","","","","","","","","","","",""
"","3262.2299999929965","sequential-stimulus-presentation","37","185724","0.0-11.0-1.5","SS1613079962034","trial","","40","800","4062.2299999929965","images/stimuli/spore_stims/simple_19_B_d.gif","images/stimuli/spore_stims/simple_08_B_c.gif","","","","","1","simple_dissimilar","images/stimuli/spore_stims/simple_19_B_d.gif","right","","","","",""
"","null","html-keyboard-response","38","186799","0.0-11.0-0.6","SS1613079962034","","","null","","","","","<p><img src= images/blank.png width =""200"" height = ""200"" style = ""float:right""></p><p><img src=images/blank.png width =""800"" height = ""200""></p>","","","","","","","","","","","",""
"","2544.830000028014","sequential-stimulus-presentation","39","190183","0.0-11.0-1.6","SS1613079962034","trial","","40","800","3344.830000028014","images/stimuli/spore_stims/simple_19_B_d.gif","images/stimuli/spore_stims/simple_08_B_c.gif","","","","","1","simple_dissimilar","images/stimuli/spore_stims/simple_08_B_c.gif","middle","","","","",""
"","null","html-keyboard-response","40","190989","0.0-11.0-0.7","SS1613079962034","","","null","","","","","<p><img src= images/blank.png width =""200"" height = ""200"" style = ""float:right""></p><p><img src=images/blank.png width =""800"" height = ""200""></p>","","","","","","","","","","","",""
"","3624.3300000205636","sequential-stimulus-presentation","41","195427","0.0-11.0-1.7","SS1613079962034","trial","","40","800","4424.330000020564","images/stimuli/spore_stims/simple_19_B_d.gif","images/stimuli/spore_stims/simple_08_B_c.gif","","","","","1","simple_dissimilar","images/stimuli/spore_stims/simple_08_B_c.gif","middle","","","","",""
"","1475.90500023216","html-keyboard-response","42","196907","0.0-12.0","SS1613079962034","pref_question","","97","","","","","<video width ='960' height = '540' style='padding-top:8%' autoplay muted><source src='images/stimuli/wall_pref.mp4' type='video/mp4'></video>","1","left","25%","1","","","","","","","",""
"","472.06499986350536","sequential-stimulus-presentation","43","198188","0.0-13.0","SS1613079962034","pref_reveal","","40","800","1272.0649998635054","null","null","","","","","1","","","","novel","","","",""
"","null","html-keyboard-response","44","199186","0.0-14.0-0.0","SS1613079962034","","","null","","","","","<p><img src= images/blank.png width =""200"" height = ""200"" style = ""float:right""></p><p><img src=images/blank.png width =""800"" height = ""200""></p>","","","","","","","","","","","",""
"","1661.2949999980628","sequential-stimulus-presentation","45","201659","0.0-14.0-1.0","SS1613079962034","trial","","40","800","2461.294999998063","images/stimuli/spore_stims/simple_12_A_c.gif","images/stimuli/spore_stims/simple_18_A_c.gif","","","","","2","simple_dissimilar","images/stimuli/spore_stims/simple_18_A_c.gif","middle","","","","",""
"","null","html-keyboard-response","46","202463","0.0-14.0-0.1","SS1613079962034","","","null","","","","","<p><img src= images/blank.png width =""200"" height = ""200"" style = ""float:right""></p><p><img src=images/blank.png width =""800"" height = ""200""></p>","","","","","","","","","","","",""
"","2074.50499990955","sequential-stimulus-presentation","47","205347","0.0-14.0-1.1","SS1613079962034","trial","","40","800","2874.50499990955","images/stimuli/spore_stims/simple_12_A_c.gif","images/stimuli/spore_stims/simple_18_A_c.gif","","","","","2","simple_dissimilar","images/stimuli/spore_stims/simple_18_A_c.gif","middle","","","","",""
"","null","html-keyboard-response","48","206627","0.0-14.0-0.2","SS1613079962034","","","null","","","","","<p><img src= images/blank.png width =""200"" height = ""200"" style = ""float:right""></p><p><img src=images/blank.png width =""800"" height = ""200""></p>","","","","","","","","","","","",""
"","4498.100000433624","sequential-stimulus-presentation","49","211931","0.0-14.0-1.2","SS1613079962034","trial","","40","800","5298.100000433624","images/stimuli/spore_stims/simple_12_A_c.gif","images/stimuli/spore_stims/simple_18_A_c.gif","","","","","2","simple_dissimilar","images/stimuli/spore_stims/simple_18_A_c.gif","middle","","","","",""
"","null","html-keyboard-response","50","213022","0.0-14.0-0.3","SS1613079962034","","","null","","","","","<p><img src= images/blank.png width =""200"" height = ""200"" style = ""float:right""></p><p><img src=images/blank.png width =""800"" height = ""200""></p>","","","","","","","","","","","",""
"","2928.4399999305606","sequential-stimulus-presentation","51","216763","0.0-14.0-1.3","SS1613079962034","trial","","40","800","3728.4399999305606","images/stimuli/spore_stims/simple_12_A_c.gif","images/stimuli/spore_stims/simple_18_A_c.gif","","","","","2","simple_dissimilar","images/stimuli/spore_stims/simple_12_A_c.gif","left","","","","",""
"","null","html-keyboard-response","52","217900","0.0-14.0-0.4","SS1613079962034","","","null","","","","","<p><img src= images/blank.png width =""200"" height = ""200"" style = ""float:right""></p><p><img src=images/blank.png width =""800"" height = ""200""></p>","","","","","","","","","","","",""
"","18.174999859184027","sequential-stimulus-presentation","53","218739","0.0-14.0-1.4","SS1613079962034","trial","","40","800","818.174999859184","images/stimuli/spore_stims/simple_12_A_c.gif","images/stimuli/spore_stims/simple_18_A_c.gif","","","","","2","simple_dissimilar","images/stimuli/spore_stims/simple_18_A_c.gif","middle","","","","",""
"","null","html-keyboard-response","54","220037","0.0-14.0-0.5","SS1613079962034","","","null","","","","","<p><img src= images/blank.png width =""200"" height = ""200"" style = ""float:right""></p><p><img src=images/blank.png width =""800"" height = ""200""></p>","","","","","","","","","","","",""
"","11.384999845176935","sequential-stimulus-presentation","55","220859","0.0-14.0-1.5","SS1613079962034","trial","","40","800","811.3849998451769","images/stimuli/spore_stims/simple_12_A_c.gif","images/stimuli/spore_stims/simple_18_A_c.gif","","","","","2","simple_dissimilar","images/stimuli/spore_stims/simple_18_A_c.gif","middle","","","","",""
"","null","html-keyboard-response","56","222023","0.0-14.0-0.6","SS1613079962034","","","null","","","","","<p><img src= images/blank.png width =""200"" height = ""200"" style = ""float:right""></p><p><img src=images/blank.png width =""800"" height = ""200""></p>","","","","","","","","","","","",""
"","6.364999804645777","sequential-stimulus-presentation","57","222843","0.0-14.0-1.6","SS1613079962034","trial","","40","800","806.3649998046458","images/stimuli/spore_stims/simple_12_A_c.gif","images/stimuli/spore_stims/simple_18_A_c.gif","","","","","2","simple_dissimilar","images/stimuli/spore_stims/simple_18_A_c.gif","middle","","","","",""
"","null","html-keyboard-response","58","224096","0.0-14.0-0.7","SS1613079962034","","","null","","","","","<p><img src= images/blank.png width =""200"" height = ""200"" style = ""float:right""></p><p><img src=images/blank.png width =""800"" height = ""200""></p>","","","","","","","","","","","",""
"","4698.730000294745","sequential-stimulus-presentation","59","229634","0.0-14.0-1.7","SS1613079962034","trial","","40","800","5498.730000294745","images/stimuli/spore_stims/simple_12_A_c.gif","images/stimuli/spore_stims/simple_18_A_c.gif","","","","","2","simple_dissimilar","images/stimuli/spore_stims/simple_18_A_c.gif","middle","","","","",""
"","1844.6800000965595","html-keyboard-response","60","231483","0.0-15.0","SS1613079962034","pref_question","","98","","","","","<video width ='960' height = '540' style='padding-top:8%' autoplay muted><source src='images/stimuli/wall_pref.mp4' type='video/mp4'></video>","2","middle","45%","2","","","","","","","",""
"","587.7699996344745","sequential-stimulus-presentation","61","232883","0.0-16.0","SS1613079962034","pref_reveal","","40","800","1387.7699996344745","null","null","","","","","2","","","","background","","","",""
"","null","html-keyboard-response","62","234105","0.0-17.0-0.0","SS1613079962034","","","null","","","","","<p><img src= images/blank.png width =""200"" height = ""200"" style = ""float:right""></p><p><img src=images/blank.png width =""800"" height = ""200""></p>","","","","","","","","","","","",""
"","2170.6250002607703","sequential-stimulus-presentation","63","237093","0.0-17.0-1.0","SS1613079962034","trial","","40","800","2970.6250002607703","images/stimuli/spore_stims/complex_11_A_a.gif","images/stimuli/spore_stims/complex_10_B_b.gif","","","","","3","complex_dissimilar","images/stimuli/spore_stims/complex_10_B_b.gif","right","","","","",""
"","null","html-keyboard-response","64","237940","0.0-17.0-0.1","SS1613079962034","","","null","","","","","<p><img src= images/blank.png width =""200"" height = ""200"" style = ""float:right""></p><p><img src=images/blank.png width =""800"" height = ""200""></p>","","","","","","","","","","","",""
"","1717.9950000718236","sequential-stimulus-presentation","65","240467","0.0-17.0-1.1","SS1613079962034","trial","","40","800","2517.9950000718236","images/stimuli/spore_stims/complex_11_A_a.gif","images/stimuli/spore_stims/complex_10_B_b.gif","","","","","3","complex_dissimilar","images/stimuli/spore_stims/complex_10_B_b.gif","right","","","","",""
"","null","html-keyboard-response","66","241508","0.0-17.0-0.2","SS1613079962034","","","null","","","","","<p><img src= images/blank.png width =""200"" height = ""200"" style = ""float:right""></p><p><img src=images/blank.png width =""800"" height = ""200""></p>","","","","","","","","","","","",""
"","1252.4049999192357","sequential-stimulus-presentation","67","243578","0.0-17.0-1.2","SS1613079962034","trial","","40","800","2052.4049999192357","images/stimuli/spore_stims/complex_11_A_a.gif","images/stimuli/spore_stims/complex_10_B_b.gif","","","","","3","complex_dissimilar","images/stimuli/spore_stims/complex_11_A_a.gif","left","","","","",""
"","null","html-keyboard-response","68","244518","0.0-17.0-0.3","SS1613079962034","","","null","","","","","<p><img src= images/blank.png width =""200"" height = ""200"" style = ""float:right""></p><p><img src=images/blank.png width =""800"" height = ""200""></p>","","","","","","","","","","","",""
"","1331.145000178367","sequential-stimulus-presentation","69","246666","0.0-17.0-1.3","SS1613079962034","trial","","40","800","2131.145000178367","images/stimuli/spore_stims/complex_11_A_a.gif","images/stimuli/spore_stims/complex_10_B_b.gif","","","","","3","complex_dissimilar","images/stimuli/spore_stims/complex_10_B_b.gif","right","","","","",""
"","null","html-keyboard-response","70","247776","0.0-17.0-0.4","SS1613079962034","","","null","","","","","<p><img src= images/blank.png width =""200"" height = ""200"" style = ""float:right""></p><p><img src=images/blank.png width =""800"" height = ""200""></p>","","","","","","","","","","","",""
"","11.9100003503263","sequential-stimulus-presentation","71","248603","0.0-17.0-1.4","SS1613079962034","trial","","40","800","811.9100003503263","images/stimuli/spore_stims/complex_11_A_a.gif","images/stimuli/spore_stims/complex_10_B_b.gif","","","","","3","complex_dissimilar","images/stimuli/spore_stims/complex_10_B_b.gif","right","","","","",""
"","null","html-keyboard-response","72","249482","0.0-17.0-0.5","SS1613079962034","","","null","","","","","<p><img src= images/blank.png width =""200"" height = ""200"" style = ""float:right""></p><p><img src=images/blank.png width =""800"" height = ""200""></p>","","","","","","","","","","","",""
"","439.17000014334917","sequential-stimulus-presentation","73","250802","0.0-17.0-1.5","SS1613079962034","trial","","40","800","1239.1700001433492","images/stimuli/spore_stims/complex_11_A_a.gif","images/stimuli/spore_stims/complex_10_B_b.gif","","","","","3","complex_dissimilar","images/stimuli/spore_stims/complex_10_B_b.gif","right","","","","",""
"","null","html-keyboard-response","74","251633","0.0-17.0-0.6","SS1613079962034","","","null","","","","","<p><img src= images/blank.png width =""200"" height = ""200"" style = ""float:right""></p><p><img src=images/blank.png width =""800"" height = ""200""></p>","","","","","","","","","","","",""
"","459.68500012531877","sequential-stimulus-presentation","75","252906","0.0-17.0-1.6","SS1613079962034","trial","","40","800","1259.6850001253188","images/stimuli/spore_stims/complex_11_A_a.gif","images/stimuli/spore_stims/complex_10_B_b.gif","","","","","3","complex_dissimilar","images/stimuli/spore_stims/complex_10_B_b.gif","right","","","","",""
"","null","html-keyboard-response","76","254074","0.0-17.0-0.7","SS1613079962034","","","null","","","","","<p><img src= images/blank.png width =""200"" height = ""200"" style = ""float:right""></p><p><img src=images/blank.png width =""800"" height = ""200""></p>","","","","","","","","","","","",""
"","687.6599998213351","sequential-stimulus-presentation","77","255578","0.0-17.0-1.7","SS1613079962034","trial","","40","800","1487.659999821335","images/stimuli/spore_stims/complex_11_A_a.gif","images/stimuli/spore_stims/complex_10_B_b.gif","","","","","3","complex_dissimilar","images/stimuli/spore_stims/complex_10_B_b.gif","right","","","","",""
"","1467.5649995915592","html-keyboard-response","78","257051","0.0-18.0","SS1613079962034","pref_question","","98","","","","","<video width ='960' height = '540' style='padding-top:8%' autoplay muted><source src='images/stimuli/wall_pref.mp4' type='video/mp4'></video>","2","middle","45%","3","","","","","","","",""
"","270.8299998193979","sequential-stimulus-presentation","79","258138","0.0-19.0","SS1613079962034","pref_reveal","","40","800","1070.829999819398","null","null","","","","","3","","","","novel","","","",""
"","null","html-keyboard-response","80","259390","0.0-20.0-0.0","SS1613079962034","","","null","","","","","<p><img src= images/blank.png width =""200"" height = ""200"" style = ""float:right""></p><p><img src=images/blank.png width =""800"" height = ""200""></p>","","","","","","","","","","","",""
"","527.1250000223517","sequential-stimulus-presentation","81","260802","0.0-20.0-1.0","SS1613079962034","trial","","40","800","1327.1250000223517","images/stimuli/spore_stims/simple_02_B_c.gif","images/stimuli/spore_stims/simple_02_A_c.gif","","","","","4","simple_similar","images/stimuli/spore_stims/simple_02_A_c.gif","right","","","","",""
"","null","html-keyboard-response","82","262008","0.0-20.0-0.1","SS1613079962034","","","null","","","","","<p><img src= images/blank.png width =""200"" height = ""200"" style = ""float:right""></p><p><img src=images/blank.png width =""800"" height = ""200""></p>","","","","","","","","","","","",""
"","1475.3450001589954","sequential-stimulus-presentation","83","264354","0.0-20.0-1.1","SS1613079962034","trial","","40","800","2275.3450001589954","images/stimuli/spore_stims/simple_02_B_c.gif","images/stimuli/spore_stims/simple_02_A_c.gif","","","","","4","simple_similar","images/stimuli/spore_stims/simple_02_A_c.gif","right","","","","",""
"","null","html-keyboard-response","84","265496","0.0-20.0-0.2","SS1613079962034","","","null","","","","","<p><img src= images/blank.png width =""200"" height = ""200"" style = ""float:right""></p><p><img src=images/blank.png width =""800"" height = ""200""></p>","","","","","","","","","","","",""
"","604.5349999330938","sequential-stimulus-presentation","85","266916","0.0-20.0-1.2","SS1613079962034","trial","","40","800","1404.5349999330938","images/stimuli/spore_stims/simple_02_B_c.gif","images/stimuli/spore_stims/simple_02_A_c.gif","","","","","4","simple_similar","images/stimuli/spore_stims/simple_02_A_c.gif","right","","","","",""
"","null","html-keyboard-response","86","268188","0.0-20.0-0.3","SS1613079962034","","","null","","","","","<p><img src= images/blank.png width =""200"" height = ""200"" style = ""float:right""></p><p><img src=images/blank.png width =""800"" height = ""200""></p>","","","","","","","","","","","",""
"","109.46500021964312","sequential-stimulus-presentation","87","269114","0.0-20.0-1.3","SS1613079962034","trial","","40","800","909.4650002196431","images/stimuli/spore_stims/simple_02_B_c.gif","images/stimuli/spore_stims/simple_02_A_c.gif","","","","","4","simple_similar","images/stimuli/spore_stims/simple_02_A_c.gif","right","","","","",""
"","null","html-keyboard-response","88","270097","0.0-20.0-0.4","SS1613079962034","","","null","","","","","<p><img src= images/blank.png width =""200"" height = ""200"" style = ""float:right""></p><p><img src=images/blank.png width =""800"" height = ""200""></p>","","","","","","","","","","","",""
"","210.4750000871718","sequential-stimulus-presentation","89","271130","0.0-20.0-1.4","SS1613079962034","trial","","40","800","1010.4750000871718","images/stimuli/spore_stims/simple_02_B_c.gif","images/stimuli/spore_stims/simple_02_A_c.gif","","","","","4","simple_similar","images/stimuli/spore_stims/simple_02_A_c.gif","right","","","","",""
"","null","html-keyboard-response","90","272181","0.0-20.0-0.5","SS1613079962034","","","null","","","","","<p><img src= images/blank.png width =""200"" height = ""200"" style = ""float:right""></p><p><img src=images/blank.png width =""800"" height = ""200""></p>","","","","","","","","","","","",""
"","178.1649999320507","sequential-stimulus-presentation","91","273178","0.0-20.0-1.5","SS1613079962034","trial","","40","800","978.1649999320507","images/stimuli/spore_stims/simple_02_B_c.gif","images/stimuli/spore_stims/simple_02_A_c.gif","","","","","4","simple_similar","images/stimuli/spore_stims/simple_02_A_c.gif","right","","","","",""
"","null","html-keyboard-response","92","274325","0.0-20.0-0.6","SS1613079962034","","","null","","","","","<p><img src= images/blank.png width =""200"" height = ""200"" style = ""float:right""></p><p><img src=images/blank.png width =""800"" height = ""200""></p>","","","","","","","","","","","",""
"","298.549999948591","sequential-stimulus-presentation","93","275450","0.0-20.0-1.6","SS1613079962034","trial","","40","800","1098.549999948591","images/stimuli/spore_stims/simple_02_B_c.gif","images/stimuli/spore_stims/simple_02_A_c.gif","","","","","4","simple_similar","images/stimuli/spore_stims/simple_02_B_c.gif","left","","","","",""
"","null","html-keyboard-response","94","276541","0.0-20.0-0.7","SS1613079962034","","","null","","","","","<p><img src= images/blank.png width =""200"" height = ""200"" style = ""float:right""></p><p><img src=images/blank.png width =""800"" height = ""200""></p>","","","","","","","","","","","",""
"","292.3150002025068","sequential-stimulus-presentation","95","277650","0.0-20.0-1.7","SS1613079962034","trial","","40","800","1092.3150002025068","images/stimuli/spore_stims/simple_02_B_c.gif","images/stimuli/spore_stims/simple_02_A_c.gif","","","","","4","simple_similar","images/stimuli/spore_stims/simple_02_A_c.gif","right","","","","",""
"","1706.650000065565","html-keyboard-response","96","279362","0.0-21.0","SS1613079962034","pref_question","","98","","","","","<video width ='960' height = '540' style='padding-top:8%' autoplay muted><source src='images/stimuli/wall_pref.mp4' type='video/mp4'></video>","2","middle","45%","4","","","","","","","",""
"","261.5800001658499","sequential-stimulus-presentation","97","280435","0.0-22.0","SS1613079962034","pref_reveal","","40","800","1061.58000016585","null","null","","","","","4","","","","novel","","","",""
"","null","html-keyboard-response","98","281450","0.0-23.0-0.0","SS1613079962034","","","null","","","","","<p><img src= images/blank.png width =""200"" height = ""200"" style = ""float:right""></p><p><img src=images/blank.png width =""800"" height = ""200""></p>","","","","","","","","","","","",""
"","1076.0400001890957","sequential-stimulus-presentation","99","283345","0.0-23.0-1.0","SS1613079962034","trial","","40","800","1876.0400001890957","images/stimuli/spore_stims/complex_02_A_c.gif","images/stimuli/spore_stims/complex_02_B_c.gif","","","","","5","complex_similar","images/stimuli/spore_stims/complex_02_B_c.gif","middle","","","","",""
"","null","html-keyboard-response","100","284439","0.0-23.0-0.1","SS1613079962034","","","null","","","","","<p><img src= images/blank.png width =""200"" height = ""200"" style = ""float:right""></p><p><img src=images/blank.png width =""800"" height = ""200""></p>","","","","","","","","","","","",""
"","367.66500025987625","sequential-stimulus-presentation","101","285626","0.0-23.0-1.1","SS1613079962034","trial","","40","800","1167.6650002598763","images/stimuli/spore_stims/complex_02_A_c.gif","images/stimuli/spore_stims/complex_02_B_c.gif","","","","","5","complex_similar","images/stimuli/spore_stims/complex_02_B_c.gif","middle","","","","",""
"","null","html-keyboard-response","102","286706","0.0-23.0-0.2","SS1613079962034","","","null","","","","","<p><img src= images/blank.png width =""200"" height = ""200"" style = ""float:right""></p><p><img src=images/blank.png width =""800"" height = ""200""></p>","","","","","","","","","","","",""
"","344.2600001581013","sequential-stimulus-presentation","103","287866","0.0-23.0-1.2","SS1613079962034","trial","","40","800","1144.2600001581013","images/stimuli/spore_stims/complex_02_A_c.gif","images/stimuli/spore_stims/complex_02_B_c.gif","","","","","5","complex_similar","images/stimuli/spore_stims/complex_02_B_c.gif","middle","","","","",""
"","null","html-keyboard-response","104","289095","0.0-23.0-0.3","SS1613079962034","","","null","","","","","<p><img src= images/blank.png width =""200"" height = ""200"" style = ""float:right""></p><p><img src=images/blank.png width =""800"" height = ""200""></p>","","","","","","","","","","","",""
"","306.9699998013675","sequential-stimulus-presentation","105","290274","0.0-23.0-1.3","SS1613079962034","trial","","40","800","1106.9699998013675","images/stimuli/spore_stims/complex_02_A_c.gif","images/stimuli/spore_stims/complex_02_B_c.gif","","","","","5","complex_similar","images/stimuli/spore_stims/complex_02_A_c.gif","right","","","","",""
"","null","html-keyboard-response","106","291081","0.0-23.0-0.4","SS1613079962034","","","null","","","","","<p><img src= images/blank.png width =""200"" height = ""200"" style = ""float:right""></p><p><img src=images/blank.png width =""800"" height = ""200""></p>","","","","","","","","","","","",""
"","112.29000007733703","sequential-stimulus-presentation","107","292002","0.0-23.0-1.4","SS1613079962034","trial","","40","800","912.290000077337","images/stimuli/spore_stims/complex_02_A_c.gif","images/stimuli/spore_stims/complex_02_B_c.gif","","","","","5","complex_similar","images/stimuli/spore_stims/complex_02_B_c.gif","middle","","","","",""
"","null","html-keyboard-response","108","293261","0.0-23.0-0.5","SS1613079962034","","","null","","","","","<p><img src= images/blank.png width =""200"" height = ""200"" style = ""float:right""></p><p><img src=images/blank.png width =""800"" height = ""200""></p>","","","","","","","","","","","",""
"","66.50999980047345","sequential-stimulus-presentation","109","294146","0.0-23.0-1.5","SS1613079962034","trial","","40","800","866.5099998004735","images/stimuli/spore_stims/complex_02_A_c.gif","images/stimuli/spore_stims/complex_02_B_c.gif","","","","","5","complex_similar","images/stimuli/spore_stims/complex_02_B_c.gif","middle","","","","",""
"","null","html-keyboard-response","110","295428","0.0-23.0-0.6","SS1613079962034","","","null","","","","","<p><img src= images/blank.png width =""200"" height = ""200"" style = ""float:right""></p><p><img src=images/blank.png width =""800"" height = ""200""></p>","","","","","","","","","","","",""
"","216.25499986112118","sequential-stimulus-presentation","111","296459","0.0-23.0-1.6","SS1613079962034","trial","","40","800","1016.2549998611212","images/stimuli/spore_stims/complex_02_A_c.gif","images/stimuli/spore_stims/complex_02_B_c.gif","","","","","5","complex_similar","images/stimuli/spore_stims/complex_02_B_c.gif","middle","","","","",""
"","null","html-keyboard-response","112","297685","0.0-23.0-0.7","SS1613079962034","","","null","","","","","<p><img src= images/blank.png width =""200"" height = ""200"" style = ""float:right""></p><p><img src=images/blank.png width =""800"" height = ""200""></p>","","","","","","","","","","","",""
"","659.5250000245869","sequential-stimulus-presentation","113","299179","0.0-23.0-1.7","SS1613079962034","trial","","40","800","1459.525000024587","images/stimuli/spore_stims/complex_02_A_c.gif","images/stimuli/spore_stims/complex_02_B_c.gif","","","","","5","complex_similar","images/stimuli/spore_stims/complex_02_B_c.gif","middle","","","","",""
"","1747.2399999387562","html-keyboard-response","114","300987","0.0-24.0","SS1613079962034","pref_question","","99","","","","","<video width ='960' height = '540' style='padding-top:8%' autoplay muted><source src='images/stimuli/wall_pref.mp4' type='video/mp4'></video>","3","right","66%","5","","","","","","","",""
"","176.4899999834597","sequential-stimulus-presentation","115","301970","0.0-25.0","SS1613079962034","pref_reveal","","40","800","976.4899999834597","null","null","","","","","5","","","","deviant","","","",""
"","null","html-keyboard-response","116","303074","0.0-26.0-0.0","SS1613079962034","","","null","","","","","<p><img src= images/blank.png width =""200"" height = ""200"" style = ""float:right""></p><p><img src=images/blank.png width =""800"" height = ""200""></p>","","","","","","","","","","","",""
"","225.89999996125698","sequential-stimulus-presentation","117","304109","0.0-26.0-1.0","SS1613079962034","trial","","40","800","1025.899999961257","images/stimuli/spore_stims/complex_16_A_d.gif","images/stimuli/spore_stims/complex_16_B_d.gif","","","","","6","complex_similar","images/stimuli/spore_stims/complex_16_B_d.gif","middle","","","","",""
"","null","html-keyboard-response","118","305381","0.0-26.0-0.1","SS1613079962034","","","null","","","","","<p><img src= images/blank.png width =""200"" height = ""200"" style = ""float:right""></p><p><img src=images/blank.png width =""800"" height = ""200""></p>","","","","","","","","","","","",""
"","498.18999972194433","sequential-stimulus-presentation","119","306706","0.0-26.0-1.1","SS1613079962034","trial","","40","800","1298.1899997219443","images/stimuli/spore_stims/complex_16_A_d.gif","images/stimuli/spore_stims/complex_16_B_d.gif","","","","","6","complex_similar","images/stimuli/spore_stims/complex_16_B_d.gif","middle","","","","",""
"","null","html-keyboard-response","120","307671","0.0-26.0-0.2","SS1613079962034","","","null","","","","","<p><img src= images/blank.png width =""200"" height = ""200"" style = ""float:right""></p><p><img src=images/blank.png width =""800"" height = ""200""></p>","","","","","","","","","","","",""
"","781.7199998535216","sequential-stimulus-presentation","121","309307","0.0-26.0-1.2","SS1613079962034","trial","","40","800","1581.7199998535216","images/stimuli/spore_stims/complex_16_A_d.gif","images/stimuli/spore_stims/complex_16_B_d.gif","","","","","6","complex_similar","images/stimuli/spore_stims/complex_16_B_d.gif","middle","","","","",""
"","null","html-keyboard-response","122","310193","0.0-26.0-0.3","SS1613079962034","","","null","","","","","<p><img src= images/blank.png width =""200"" height = ""200"" style = ""float:right""></p><p><img src=images/blank.png width =""800"" height = ""200""></p>","","","","","","","","","","","",""
"","642.5200002267957","sequential-stimulus-presentation","123","311658","0.0-26.0-1.3","SS1613079962034","trial","","40","800","1442.5200002267957","images/stimuli/spore_stims/complex_16_A_d.gif","images/stimuli/spore_stims/complex_16_B_d.gif","","","","","6","complex_similar","images/stimuli/spore_stims/complex_16_B_d.gif","middle","","","","",""
"","null","html-keyboard-response","124","312955","0.0-26.0-0.4","SS1613079962034","","","null","","","","","<p><img src= images/blank.png width =""200"" height = ""200"" style = ""float:right""></p><p><img src=images/blank.png width =""800"" height = ""200""></p>","","","","","","","","","","","",""
"","1135.2050001733005","sequential-stimulus-presentation","125","314898","0.0-26.0-1.4","SS1613079962034","trial","","40","800","1935.2050001733005","images/stimuli/spore_stims/complex_16_A_d.gif","images/stimuli/spore_stims/complex_16_B_d.gif","","","","","6","complex_similar","images/stimuli/spore_stims/complex_16_B_d.gif","middle","","","","",""
"","null","html-keyboard-response","126","315859","0.0-26.0-0.5","SS1613079962034","","","null","","","","","<p><img src= images/blank.png width =""200"" height = ""200"" style = ""float:right""></p><p><img src=images/blank.png width =""800"" height = ""200""></p>","","","","","","","","","","","",""
"","289.4699997268617","sequential-stimulus-presentation","127","316962","0.0-26.0-1.5","SS1613079962034","trial","","40","800","1089.4699997268617","images/stimuli/spore_stims/complex_16_A_d.gif","images/stimuli/spore_stims/complex_16_B_d.gif","","","","","6","complex_similar","images/stimuli/spore_stims/complex_16_B_d.gif","middle","","","","",""
"","null","html-keyboard-response","128","317770","0.0-26.0-0.6","SS1613079962034","","","null","","","","","<p><img src= images/blank.png width =""200"" height = ""200"" style = ""float:right""></p><p><img src=images/blank.png width =""800"" height = ""200""></p>","","","","","","","","","","","",""
"","1171.6350000351667","sequential-stimulus-presentation","129","319774","0.0-26.0-1.6","SS1613079962034","trial","","40","800","1971.6350000351667","images/stimuli/spore_stims/complex_16_A_d.gif","images/stimuli/spore_stims/complex_16_B_d.gif","","","","","6","complex_similar","images/stimuli/spore_stims/complex_16_A_d.gif","right","","","","",""
"","null","html-keyboard-response","130","320832","0.0-26.0-0.7","SS1613079962034","","","null","","","","","<p><img src= images/blank.png width =""200"" height = ""200"" style = ""float:right""></p><p><img src=images/blank.png width =""800"" height = ""200""></p>","","","","","","","","","","","",""
"","1073.534999974072","sequential-stimulus-presentation","131","322718","0.0-26.0-1.7","SS1613079962034","trial","","40","800","1873.534999974072","images/stimuli/spore_stims/complex_16_A_d.gif","images/stimuli/spore_stims/complex_16_B_d.gif","","","","","6","complex_similar","images/stimuli/spore_stims/complex_16_B_d.gif","middle","","","","",""
"","2461.939999833703","html-keyboard-response","132","325186","0.0-27.0","SS1613079962034","pref_question","","99","","","","","<video width ='960' height = '540' style='padding-top:8%' autoplay muted><source src='images/stimuli/wall_pref.mp4' type='video/mp4'></video>","3","right","66%","6","","","","","","","",""
"","320.48500003293157","sequential-stimulus-presentation","133","326315","0.0-28.0","SS1613079962034","pref_reveal","","40","800","1120.4850000329316","null","null","","","","","6","","","","deviant","","","",""
"","null","html-keyboard-response","134","327171","0.0-29.0-0.0","SS1613079962034","","","null","","","","","<p><img src= images/blank.png width =""200"" height = ""200"" style = ""float:right""></p><p><img src=images/blank.png width =""800"" height = ""200""></p>","","","","","","","","","","","",""
"","4557.450000196695","sequential-stimulus-presentation","135","332547","0.0-29.0-1.0","SS1613079962034","trial","","40","800","5357.450000196695","images/stimuli/spore_stims/simple_15_B_c.gif","images/stimuli/spore_stims/simple_11_A_d.gif","","","","","7","simple_dissimilar","images/stimuli/spore_stims/simple_11_A_d.gif","left","","","","",""
"","null","html-keyboard-response","136","333551","0.0-29.0-0.1","SS1613079962034","","","null","","","","","<p><img src= images/blank.png width =""200"" height = ""200"" style = ""float:right""></p><p><img src=images/blank.png width =""800"" height = ""200""></p>","","","","","","","","","","","",""
"","1313.6950000189245","sequential-stimulus-presentation","137","335674","0.0-29.0-1.1","SS1613079962034","trial","","40","800","2113.6950000189245","images/stimuli/spore_stims/simple_15_B_c.gif","images/stimuli/spore_stims/simple_11_A_d.gif","","","","","7","simple_dissimilar","images/stimuli/spore_stims/simple_11_A_d.gif","left","","","","",""
"","null","html-keyboard-response","138","336562","0.0-29.0-0.2","SS1613079962034","","","null","","","","","<p><img src= images/blank.png width =""200"" height = ""200"" style = ""float:right""></p><p><img src=images/blank.png width =""800"" height = ""200""></p>","","","","","","","","","","","",""
"","947.999999858439","sequential-stimulus-presentation","139","338323","0.0-29.0-1.2","SS1613079962034","trial","","40","800","1747.999999858439","images/stimuli/spore_stims/simple_15_B_c.gif","images/stimuli/spore_stims/simple_11_A_d.gif","","","","","7","simple_dissimilar","images/stimuli/spore_stims/simple_11_A_d.gif","left","","","","",""
"","null","html-keyboard-response","140","339234","0.0-29.0-0.3","SS1613079962034","","","null","","","","","<p><img src= images/blank.png width =""200"" height = ""200"" style = ""float:right""></p><p><img src=images/blank.png width =""800"" height = ""200""></p>","","","","","","","","","","","",""
"","891.2200001068413","sequential-stimulus-presentation","141","340954","0.0-29.0-1.3","SS1613079962034","trial","","40","800","1691.2200001068413","images/stimuli/spore_stims/simple_15_B_c.gif","images/stimuli/spore_stims/simple_11_A_d.gif","","","","","7","simple_dissimilar","images/stimuli/spore_stims/simple_11_A_d.gif","left","","","","",""
"","null","html-keyboard-response","142","342234","0.0-29.0-0.4","SS1613079962034","","","null","","","","","<p><img src= images/blank.png width =""200"" height = ""200"" style = ""float:right""></p><p><img src=images/blank.png width =""800"" height = ""200""></p>","","","","","","","","","","","",""
"","956.6300003789365","sequential-stimulus-presentation","143","344019","0.0-29.0-1.4","SS1613079962034","trial","","40","800","1756.6300003789365","images/stimuli/spore_stims/simple_15_B_c.gif","images/stimuli/spore_stims/simple_11_A_d.gif","","","","","7","simple_dissimilar","images/stimuli/spore_stims/simple_11_A_d.gif","left","","","","",""
"","null","html-keyboard-response","144","345037","0.0-29.0-0.5","SS1613079962034","","","null","","","","","<p><img src= images/blank.png width =""200"" height = ""200"" style = ""float:right""></p><p><img src=images/blank.png width =""800"" height = ""200""></p>","","","","","","","","","","","",""
"","915.3650002554059","sequential-stimulus-presentation","145","346770","0.0-29.0-1.5","SS1613079962034","trial","","40","800","1715.365000255406","images/stimuli/spore_stims/simple_15_B_c.gif","images/stimuli/spore_stims/simple_11_A_d.gif","","","","","7","simple_dissimilar","images/stimuli/spore_stims/simple_11_A_d.gif","left","","","","",""
"","null","html-keyboard-response","146","348069","0.0-29.0-0.6","SS1613079962034","","","null","","","","","<p><img src= images/blank.png width =""200"" height = ""200"" style = ""float:right""></p><p><img src=images/blank.png width =""800"" height = ""200""></p>","","","","","","","","","","","",""
"","354.9299999140203","sequential-stimulus-presentation","147","349250","0.0-29.0-1.6","SS1613079962034","trial","","40","800","1154.9299999140203","images/stimuli/spore_stims/simple_15_B_c.gif","images/stimuli/spore_stims/simple_11_A_d.gif","","","","","7","simple_dissimilar","images/stimuli/spore_stims/simple_15_B_c.gif","middle","","","","",""
"","null","html-keyboard-response","148","350516","0.0-29.0-0.7","SS1613079962034","","","null","","","","","<p><img src= images/blank.png width =""200"" height = ""200"" style = ""float:right""></p><p><img src=images/blank.png width =""800"" height = ""200""></p>","","","","","","","","","","","",""
"","545.709999743849","sequential-stimulus-presentation","149","351930","0.0-29.0-1.7","SS1613079962034","trial","","40","800","1345.709999743849","images/stimuli/spore_stims/simple_15_B_c.gif","images/stimuli/spore_stims/simple_11_A_d.gif","","","","","7","simple_dissimilar","images/stimuli/spore_stims/simple_11_A_d.gif","left","","","","",""
"","1827.7000002563","html-keyboard-response","150","353763","0.0-30.0","SS1613079962034","pref_question","","99","","","","","<video width ='960' height = '540' style='padding-top:8%' autoplay muted><source src='images/stimuli/wall_pref.mp4' type='video/mp4'></video>","3","right","66%","7","","","","","","","",""
"","207.47500006109476","sequential-stimulus-presentation","151","354787","0.0-31.0","SS1613079962034","pref_reveal","","40","800","1007.4750000610948","null","null","","","","","7","","","","novel","","","",""
"","null","html-keyboard-response","152","356053","0.0-32.0-0.0","SS1613079962034","","","null","","","","","<p><img src= images/blank.png width =""200"" height = ""200"" style = ""float:right""></p><p><img src=images/blank.png width =""800"" height = ""200""></p>","","","","","","","","","","","",""
"","67.79000023379922","sequential-stimulus-presentation","153","356937","0.0-32.0-1.0","SS1613079962034","trial","","40","800","867.7900002337992","images/stimuli/spore_stims/simple_17_A_b.gif","images/stimuli/spore_stims/simple_17_B_b.gif","","","","","8","simple_similar","images/stimuli/spore_stims/simple_17_B_b.gif","middle","","","","",""
"","null","html-keyboard-response","154","357802","0.0-32.0-0.1","SS1613079962034","","","null","","","","","<p><img src= images/blank.png width =""200"" height = ""200"" style = ""float:right""></p><p><img src=images/blank.png width =""800"" height = ""200""></p>","","","","","","","","","","","",""
"","233.1449999473989","sequential-stimulus-presentation","155","358851","0.0-32.0-1.1","SS1613079962034","trial","","40","800","1033.144999947399","images/stimuli/spore_stims/simple_17_A_b.gif","images/stimuli/spore_stims/simple_17_B_b.gif","","","","","8","simple_similar","images/stimuli/spore_stims/simple_17_B_b.gif","middle","","","","",""
"","null","html-keyboard-response","156","359667","0.0-32.0-0.2","SS1613079962034","","","null","","","","","<p><img src= images/blank.png width =""200"" height = ""200"" style = ""float:right""></p><p><img src=images/blank.png width =""800"" height = ""200""></p>","","","","","","","","","","","",""
"","18.540000077337027","sequential-stimulus-presentation","157","360545","0.0-32.0-1.2","SS1613079962034","trial","","40","800","818.540000077337","images/stimuli/spore_stims/simple_17_A_b.gif","images/stimuli/spore_stims/simple_17_B_b.gif","","","","","8","simple_similar","images/stimuli/spore_stims/simple_17_B_b.gif","middle","","","","",""
"","null","html-keyboard-response","158","361653","0.0-32.0-0.3","SS1613079962034","","","null","","","","","<p><img src= images/blank.png width =""200"" height = ""200"" style = ""float:right""></p><p><img src=images/blank.png width =""800"" height = ""200""></p>","","","","","","","","","","","",""
"","458.39499961584806","sequential-stimulus-presentation","159","362930","0.0-32.0-1.3","SS1613079962034","trial","","40","800","1258.394999615848","images/stimuli/spore_stims/simple_17_A_b.gif","images/stimuli/spore_stims/simple_17_B_b.gif","","","","","8","simple_similar","images/stimuli/spore_stims/simple_17_A_b.gif","right","","","","",""
"","null","html-keyboard-response","160","363952","0.0-32.0-0.4","SS1613079962034","","","null","","","","","<p><img src= images/blank.png width =""200"" height = ""200"" style = ""float:right""></p><p><img src=images/blank.png width =""800"" height = ""200""></p>","","","","","","","","","","","",""
"","1723.4900002367795","sequential-stimulus-presentation","161","366489","0.0-32.0-1.4","SS1613079962034","trial","","40","800","2523.4900002367795","images/stimuli/spore_stims/simple_17_A_b.gif","images/stimuli/spore_stims/simple_17_B_b.gif","","","","","8","simple_similar","images/stimuli/spore_stims/simple_17_B_b.gif","middle","","","","",""
"","null","html-keyboard-response","162","367537","0.0-32.0-0.5","SS1613079962034","","","null","","","","","<p><img src= images/blank.png width =""200"" height = ""200"" style = ""float:right""></p><p><img src=images/blank.png width =""800"" height = ""200""></p>","","","","","","","","","","","",""
"","744.5600000210106","sequential-stimulus-presentation","163","369097","0.0-32.0-1.5","SS1613079962034","trial","","40","800","1544.5600000210106","images/stimuli/spore_stims/simple_17_A_b.gif","images/stimuli/spore_stims/simple_17_B_b.gif","","","","","8","simple_similar","images/stimuli/spore_stims/simple_17_B_b.gif","middle","","","","",""
"","null","html-keyboard-response","164","370385","0.0-32.0-0.6","SS1613079962034","","","null","","","","","<p><img src= images/blank.png width =""200"" height = ""200"" style = ""float:right""></p><p><img src=images/blank.png width =""800"" height = ""200""></p>","","","","","","","","","","","",""
"","403.0100000090897","sequential-stimulus-presentation","165","371617","0.0-32.0-1.6","SS1613079962034","trial","","40","800","1203.0100000090897","images/stimuli/spore_stims/simple_17_A_b.gif","images/stimuli/spore_stims/simple_17_B_b.gif","","","","","8","simple_similar","images/stimuli/spore_stims/simple_17_B_b.gif","middle","","","","",""
"","null","html-keyboard-response","166","372527","0.0-32.0-0.7","SS1613079962034","","","null","","","","","<p><img src= images/blank.png width =""200"" height = ""200"" style = ""float:right""></p><p><img src=images/blank.png width =""800"" height = ""200""></p>","","","","","","","","","","","",""
"","515.0150000117719","sequential-stimulus-presentation","167","373849","0.0-32.0-1.7","SS1613079962034","trial","","40","800","1315.015000011772","images/stimuli/spore_stims/simple_17_A_b.gif","images/stimuli/spore_stims/simple_17_B_b.gif","","","","","8","simple_similar","images/stimuli/spore_stims/simple_17_B_b.gif","middle","","","","",""
"","1642.760000191629","html-keyboard-response","168","375499","0.0-33.0","SS1613079962034","pref_question","","98","","","","","<video width ='960' height = '540' style='padding-top:8%' autoplay muted><source src='images/stimuli/wall_pref.mp4' type='video/mp4'></video>","2","middle","45%","8","","","","","","","",""
"","601.9600001163781","sequential-stimulus-presentation","169","376914","0.0-34.0","SS1613079962034","pref_reveal","","40","800","1401.960000116378","null","null","","","","","8","","","","background","","","",""
"","null","html-keyboard-response","170","378041","0.0-35.0-0.0","SS1613079962034","","","null","","","","","<p><img src= images/blank.png width =""200"" height = ""200"" style = ""float:right""></p><p><img src=images/blank.png width =""800"" height = ""200""></p>","","","","","","","","","","","",""
"","534.1100003570318","sequential-stimulus-presentation","171","379401","0.0-35.0-1.0","SS1613079962034","trial","","40","800","1334.1100003570318","images/stimuli/spore_stims/complex_09_B_d.gif","images/stimuli/spore_stims/complex_09_A_d.gif","","","","","9","complex_similar","images/stimuli/spore_stims/complex_09_A_d.gif","middle","","","","",""
"","null","html-keyboard-response","172","380254","0.0-35.0-0.1","SS1613079962034","","","null","","","","","<p><img src= images/blank.png width =""200"" height = ""200"" style = ""float:right""></p><p><img src=images/blank.png width =""800"" height = ""200""></p>","","","","","","","","","","","",""
"","40.90500017628074","sequential-stimulus-presentation","173","381105","0.0-35.0-1.1","SS1613079962034","trial","","40","800","840.9050001762807","images/stimuli/spore_stims/complex_09_B_d.gif","images/stimuli/spore_stims/complex_09_A_d.gif","","","","","9","complex_similar","images/stimuli/spore_stims/complex_09_A_d.gif","middle","","","","",""
"","null","html-keyboard-response","174","381913","0.0-35.0-0.2","SS1613079962034","","","null","","","","","<p><img src= images/blank.png width =""200"" height = ""200"" style = ""float:right""></p><p><img src=images/blank.png width =""800"" height = ""200""></p>","","","","","","","","","","","",""
"","882.4350000359118","sequential-stimulus-presentation","175","383610","0.0-35.0-1.2","SS1613079962034","trial","","40","800","1682.4350000359118","images/stimuli/spore_stims/complex_09_B_d.gif","images/stimuli/spore_stims/complex_09_A_d.gif","","","","","9","complex_similar","images/stimuli/spore_stims/complex_09_B_d.gif","right","","","","",""
"","null","html-keyboard-response","176","384586","0.0-35.0-0.3","SS1613079962034","","","null","","","","","<p><img src= images/blank.png width =""200"" height = ""200"" style = ""float:right""></p><p><img src=images/blank.png width =""800"" height = ""200""></p>","","","","","","","","","","","",""
"","40.45000020414591","sequential-stimulus-presentation","177","385442","0.0-35.0-1.3","SS1613079962034","trial","","40","800","840.4500002041459","images/stimuli/spore_stims/complex_09_B_d.gif","images/stimuli/spore_stims/complex_09_A_d.gif","","","","","9","complex_similar","images/stimuli/spore_stims/complex_09_A_d.gif","middle","","","","",""
"","null","html-keyboard-response","178","386373","0.0-35.0-0.4","SS1613079962034","","","null","","","","","<p><img src= images/blank.png width =""200"" height = ""200"" style = ""float:right""></p><p><img src=images/blank.png width =""800"" height = ""200""></p>","","","","","","","","","","","",""
"","71.32499990984797","sequential-stimulus-presentation","179","387292","0.0-35.0-1.4","SS1613079962034","trial","","40","800","871.324999909848","images/stimuli/spore_stims/complex_09_B_d.gif","images/stimuli/spore_stims/complex_09_A_d.gif","","","","","9","complex_similar","images/stimuli/spore_stims/complex_09_A_d.gif","middle","","","","",""
"","null","html-keyboard-response","180","388549","0.0-35.0-0.5","SS1613079962034","","","null","","","","","<p><img src= images/blank.png width =""200"" height = ""200"" style = ""float:right""></p><p><img src=images/blank.png width =""800"" height = ""200""></p>","","","","","","","","","","","",""
"","481.00999975576997","sequential-stimulus-presentation","181","389849","0.0-35.0-1.5","SS1613079962034","trial","","40","800","1281.00999975577","images/stimuli/spore_stims/complex_09_B_d.gif","images/stimuli/spore_stims/complex_09_A_d.gif","","","","","9","complex_similar","images/stimuli/spore_stims/complex_09_A_d.gif","middle","","","","",""
"","null","html-keyboard-response","182","390709","0.0-35.0-0.6","SS1613079962034","","","null","","","","","<p><img src= images/blank.png width =""200"" height = ""200"" style = ""float:right""></p><p><img src=images/blank.png width =""800"" height = ""200""></p>","","","","","","","","","","","",""
"","248.7149997614324","sequential-stimulus-presentation","183","391770","0.0-35.0-1.6","SS1613079962034","trial","","40","800","1048.7149997614324","images/stimuli/spore_stims/complex_09_B_d.gif","images/stimuli/spore_stims/complex_09_A_d.gif","","","","","9","complex_similar","images/stimuli/spore_stims/complex_09_A_d.gif","middle","","","","",""
"","null","html-keyboard-response","184","392640","0.0-35.0-0.7","SS1613079962034","","","null","","","","","<p><img src= images/blank.png width =""200"" height = ""200"" style = ""float:right""></p><p><img src=images/blank.png width =""800"" height = ""200""></p>","","","","","","","","","","","",""
"","334.6649999730289","sequential-stimulus-presentation","185","393833","0.0-35.0-1.7","SS1613079962034","trial","","40","800","1134.664999973029","images/stimuli/spore_stims/complex_09_B_d.gif","images/stimuli/spore_stims/complex_09_A_d.gif","","","","","9","complex_similar","images/stimuli/spore_stims/complex_09_A_d.gif","middle","","","","",""
"","1338.2199998013675","html-keyboard-response","186","395178","0.0-36.0","SS1613079962034","pref_question","","99","","","","","<video width ='960' height = '540' style='padding-top:8%' autoplay muted><source src='images/stimuli/wall_pref.mp4' type='video/mp4'></video>","3","right","66%","9","","","","","","","",""
"","49.21999992802739","sequential-stimulus-presentation","187","396073","0.0-37.0","SS1613079962034","pref_reveal","","40","800","849.2199999280274","null","null","","","","","9","","","","deviant","","","",""
"","null","html-keyboard-response","188","396915","0.0-38.0-0.0","SS1613079962034","","","null","","","","","<p><img src= images/blank.png width =""200"" height = ""200"" style = ""float:right""></p><p><img src=images/blank.png width =""800"" height = ""200""></p>","","","","","","","","","","","",""
"","427.87500005215406","sequential-stimulus-presentation","189","398155","0.0-38.0-1.0","SS1613079962034","trial","","40","800","1227.875000052154","images/stimuli/spore_stims/complex_19_B_d.gif","images/stimuli/spore_stims/complex_19_A_d.gif","","","","","10","complex_similar","images/stimuli/spore_stims/complex_19_A_d.gif","left","","","","",""
"","null","html-keyboard-response","190","399091","0.0-38.0-0.1","SS1613079962034","","","null","","","","","<p><img src= images/blank.png width =""200"" height = ""200"" style = ""float:right""></p><p><img src=images/blank.png width =""800"" height = ""200""></p>","","","","","","","","","","","",""
"","138.28499987721443","sequential-stimulus-presentation","191","400057","0.0-38.0-1.1","SS1613079962034","trial","","40","800","938.2849998772144","images/stimuli/spore_stims/complex_19_B_d.gif","images/stimuli/spore_stims/complex_19_A_d.gif","","","","","10","complex_similar","images/stimuli/spore_stims/complex_19_A_d.gif","left","","","","",""
"","null","html-keyboard-response","192","401035","0.0-38.0-0.2","SS1613079962034","","","null","","","","","<p><img src= images/blank.png width =""200"" height = ""200"" style = ""float:right""></p><p><img src=images/blank.png width =""800"" height = ""200""></p>","","","","","","","","","","","",""
"","598.1850000098348","sequential-stimulus-presentation","193","402449","0.0-38.0-1.2","SS1613079962034","trial","","40","800","1398.1850000098348","images/stimuli/spore_stims/complex_19_B_d.gif","images/stimuli/spore_stims/complex_19_A_d.gif","","","","","10","complex_similar","images/stimuli/spore_stims/complex_19_A_d.gif","left","","","","",""
"","null","html-keyboard-response","194","403520","0.0-38.0-0.3","SS1613079962034","","","null","","","","","<p><img src= images/blank.png width =""200"" height = ""200"" style = ""float:right""></p><p><img src=images/blank.png width =""800"" height = ""200""></p>","","","","","","","","","","","",""
"","383.4999999962747","sequential-stimulus-presentation","195","404721","0.0-38.0-1.3","SS1613079962034","trial","","40","800","1183.4999999962747","images/stimuli/spore_stims/complex_19_B_d.gif","images/stimuli/spore_stims/complex_19_A_d.gif","","","","","10","complex_similar","images/stimuli/spore_stims/complex_19_A_d.gif","left","","","","",""
"","null","html-keyboard-response","196","405778","0.0-38.0-0.4","SS1613079962034","","","null","","","","","<p><img src= images/blank.png width =""200"" height = ""200"" style = ""float:right""></p><p><img src=images/blank.png width =""800"" height = ""200""></p>","","","","","","","","","","","",""
"","114.1850003041327","sequential-stimulus-presentation","197","406705","0.0-38.0-1.4","SS1613079962034","trial","","40","800","914.1850003041327","images/stimuli/spore_stims/complex_19_B_d.gif","images/stimuli/spore_stims/complex_19_A_d.gif","","","","","10","complex_similar","images/stimuli/spore_stims/complex_19_A_d.gif","left","","","","",""
"","null","html-keyboard-response","198","407690","0.0-38.0-0.5","SS1613079962034","","","null","","","","","<p><img src= images/blank.png width =""200"" height = ""200"" style = ""float:right""></p><p><img src=images/blank.png width =""800"" height = ""200""></p>","","","","","","","","","","","",""
"","9.254999924451113","sequential-stimulus-presentation","199","408556","0.0-38.0-1.5","SS1613079962034","trial","","40","800","809.2549999244511","images/stimuli/spore_stims/complex_19_B_d.gif","images/stimuli/spore_stims/complex_19_A_d.gif","","","","","10","complex_similar","images/stimuli/spore_stims/complex_19_A_d.gif","left","","","","",""
"","null","html-keyboard-response","200","409538","0.0-38.0-0.6","SS1613079962034","","","null","","","","","<p><img src= images/blank.png width =""200"" height = ""200"" style = ""float:right""></p><p><img src=images/blank.png width =""800"" height = ""200""></p>","","","","","","","","","","","",""
"","423.0750002898276","sequential-stimulus-presentation","201","410770","0.0-38.0-1.6","SS1613079962034","trial","","40","800","1223.0750002898276","images/stimuli/spore_stims/complex_19_B_d.gif","images/stimuli/spore_stims/complex_19_A_d.gif","","","","","10","complex_similar","images/stimuli/spore_stims/complex_19_B_d.gif","right","","","","",""
"","null","html-keyboard-response","202","411662","0.0-38.0-0.7","SS1613079962034","","","null","","","","","<p><img src= images/blank.png width =""200"" height = ""200"" style = ""float:right""></p><p><img src=images/blank.png width =""800"" height = ""200""></p>","","","","","","","","","","","",""
"","129.5549999922514","sequential-stimulus-presentation","203","412601","0.0-38.0-1.7","SS1613079962034","trial","","40","800","929.5549999922514","images/stimuli/spore_stims/complex_19_B_d.gif","images/stimuli/spore_stims/complex_19_A_d.gif","","","","","10","complex_similar","images/stimuli/spore_stims/complex_19_A_d.gif","left","","","","",""
"","3028.8949999958277","html-keyboard-response","204","415641","0.0-39.0","SS1613079962034","pref_question","","97","","","","","<video width ='960' height = '540' style='padding-top:8%' autoplay muted><source src='images/stimuli/wall_pref.mp4' type='video/mp4'></video>","1","left","25%","10","","","","","","","",""
"","27.60499995201826","sequential-stimulus-presentation","205","416489","0.0-40.0","SS1613079962034","pref_reveal","","40","800","827.6049999520183","null","null","","","","","10","","","","background","","","",""
"","null","html-keyboard-response","206","417633","0.0-41.0-0.0","SS1613079962034","","","null","","","","","<p><img src= images/blank.png width =""200"" height = ""200"" style = ""float:right""></p><p><img src=images/blank.png width =""800"" height = ""200""></p>","","","","","","","","","","","",""
"","1081.8000002764165","sequential-stimulus-presentation","207","419529","0.0-41.0-1.0","SS1613079962034","trial","","40","800","1881.8000002764165","images/stimuli/spore_stims/simple_13_A_a.gif","images/stimuli/spore_stims/simple_13_B_a.gif","","","","","11","simple_similar","images/stimuli/spore_stims/simple_13_B_a.gif","left","","","","",""
"","null","html-keyboard-response","208","420448","0.0-41.0-0.1","SS1613079962034","","","null","","","","","<p><img src= images/blank.png width =""200"" height = ""200"" style = ""float:right""></p><p><img src=images/blank.png width =""800"" height = ""200""></p>","","","","","","","","","","","",""
"","108.93999971449375","sequential-stimulus-presentation","209","421384","0.0-41.0-1.1","SS1613079962034","trial","","40","800","908.9399997144938","images/stimuli/spore_stims/simple_13_A_a.gif","images/stimuli/spore_stims/simple_13_B_a.gif","","","","","11","simple_similar","images/stimuli/spore_stims/simple_13_B_a.gif","left","","","","",""
"","null","html-keyboard-response","210","422528","0.0-41.0-0.2","SS1613079962034","","","null","","","","","<p><img src= images/blank.png width =""200"" height = ""200"" style = ""float:right""></p><p><img src=images/blank.png width =""800"" height = ""200""></p>","","","","","","","","","","","",""
"","315.5999998562038","sequential-stimulus-presentation","211","423656","0.0-41.0-1.2","SS1613079962034","trial","","40","800","1115.5999998562038","images/stimuli/spore_stims/simple_13_A_a.gif","images/stimuli/spore_stims/simple_13_B_a.gif","","","","","11","simple_similar","images/stimuli/spore_stims/simple_13_B_a.gif","left","","","","",""
"","null","html-keyboard-response","212","424704","0.0-41.0-0.3","SS1613079962034","","","null","","","","","<p><img src= images/blank.png width =""200"" height = ""200"" style = ""float:right""></p><p><img src=images/blank.png width =""800"" height = ""200""></p>","","","","","","","","","","","",""
"","35.8599997125566","sequential-stimulus-presentation","213","425560","0.0-41.0-1.3","SS1613079962034","trial","","40","800","835.8599997125566","images/stimuli/spore_stims/simple_13_A_a.gif","images/stimuli/spore_stims/simple_13_B_a.gif","","","","","11","simple_similar","images/stimuli/spore_stims/simple_13_B_a.gif","left","","","","",""
"","null","html-keyboard-response","214","426848","0.0-41.0-0.4","SS1613079962034","","","null","","","","","<p><img src= images/blank.png width =""200"" height = ""200"" style = ""float:right""></p><p><img src=images/blank.png width =""800"" height = ""200""></p>","","","","","","","","","","","",""
"","41.57999996095896","sequential-stimulus-presentation","215","427720","0.0-41.0-1.4","SS1613079962034","trial","","40","800","841.579999960959","images/stimuli/spore_stims/simple_13_A_a.gif","images/stimuli/spore_stims/simple_13_B_a.gif","","","","","11","simple_similar","images/stimuli/spore_stims/simple_13_B_a.gif","left","","","","",""
"","null","html-keyboard-response","216","428903","0.0-41.0-0.5","SS1613079962034","","","null","","","","","<p><img src= images/blank.png width =""200"" height = ""200"" style = ""float:right""></p><p><img src=images/blank.png width =""800"" height = ""200""></p>","","","","","","","","","","","",""
"","363.9299999922514","sequential-stimulus-presentation","217","430088","0.0-41.0-1.5","SS1613079962034","trial","","40","800","1163.9299999922514","images/stimuli/spore_stims/simple_13_A_a.gif","images/stimuli/spore_stims/simple_13_B_a.gif","","","","","11","simple_similar","images/stimuli/spore_stims/simple_13_A_a.gif","right","","","","",""
"","null","html-keyboard-response","218","430912","0.0-41.0-0.6","SS1613079962034","","","null","","","","","<p><img src= images/blank.png width =""200"" height = ""200"" style = ""float:right""></p><p><img src=images/blank.png width =""800"" height = ""200""></p>","","","","","","","","","","","",""
"","351.4100001193583","sequential-stimulus-presentation","219","432121","0.0-41.0-1.6","SS1613079962034","trial","","40","800","1151.4100001193583","images/stimuli/spore_stims/simple_13_A_a.gif","images/stimuli/spore_stims/simple_13_B_a.gif","","","","","11","simple_similar","images/stimuli/spore_stims/simple_13_B_a.gif","left","","","","",""
"","null","html-keyboard-response","220","433036","0.0-41.0-0.7","SS1613079962034","","","null","","","","","<p><img src= images/blank.png width =""200"" height = ""200"" style = ""float:right""></p><p><img src=images/blank.png width =""800"" height = ""200""></p>","","","","","","","","","","","",""
"","259.6800001338124","sequential-stimulus-presentation","221","434112","0.0-41.0-1.7","SS1613079962034","trial","","40","800","1059.6800001338124","images/stimuli/spore_stims/simple_13_A_a.gif","images/stimuli/spore_stims/simple_13_B_a.gif","","","","","11","simple_similar","images/stimuli/spore_stims/simple_13_B_a.gif","left","","","","",""
"","2394.1250001080334","html-keyboard-response","222","436513","0.0-42.0","SS1613079962034","pref_question","","99","","","","","<video width ='960' height = '540' style='padding-top:8%' autoplay muted><source src='images/stimuli/wall_pref.mp4' type='video/mp4'></video>","3","right","66%","11","","","","","","","",""
"","93.86000037193298","sequential-stimulus-presentation","223","437416","0.0-43.0","SS1613079962034","pref_reveal","","40","800","893.860000371933","null","null","","","","","11","","","","deviant","","","",""
"","null","html-keyboard-response","224","438635","0.0-44.0-0.0","SS1613079962034","","","null","","","","","<p><img src= images/blank.png width =""200"" height = ""200"" style = ""float:right""></p><p><img src=images/blank.png width =""800"" height = ""200""></p>","","","","","","","","","","","",""
"","1308.5949998348951","sequential-stimulus-presentation","225","440761","0.0-44.0-1.0","SS1613079962034","trial","","40","800","2108.594999834895","images/stimuli/spore_stims/simple_20_A_c.gif","images/stimuli/spore_stims/simple_01_A_d.gif","","","","","12","simple_dissimilar","images/stimuli/spore_stims/simple_01_A_d.gif","left","","","","",""
"","null","html-keyboard-response","226","441864","0.0-44.0-0.1","SS1613079962034","","","null","","","","","<p><img src= images/blank.png width =""200"" height = ""200"" style = ""float:right""></p><p><img src=images/blank.png width =""800"" height = ""200""></p>","","","","","","","","","","","",""
"","332.4649999849498","sequential-stimulus-presentation","227","443009","0.0-44.0-1.1","SS1613079962034","trial","","40","800","1132.4649999849498","images/stimuli/spore_stims/simple_20_A_c.gif","images/stimuli/spore_stims/simple_01_A_d.gif","","","","","12","simple_dissimilar","images/stimuli/spore_stims/simple_01_A_d.gif","left","","","","",""
"","null","html-keyboard-response","228","444177","0.0-44.0-0.2","SS1613079962034","","","null","","","","","<p><img src= images/blank.png width =""200"" height = ""200"" style = ""float:right""></p><p><img src=images/blank.png width =""800"" height = ""200""></p>","","","","","","","","","","","",""
"","416.0950002260506","sequential-stimulus-presentation","229","445401","0.0-44.0-1.2","SS1613079962034","trial","","40","800","1216.0950002260506","images/stimuli/spore_stims/simple_20_A_c.gif","images/stimuli/spore_stims/simple_01_A_d.gif","","","","","12","simple_dissimilar","images/stimuli/spore_stims/simple_01_A_d.gif","left","","","","",""
"","null","html-keyboard-response","230","446494","0.0-44.0-0.3","SS1613079962034","","","null","","","","","<p><img src= images/blank.png width =""200"" height = ""200"" style = ""float:right""></p><p><img src=images/blank.png width =""800"" height = ""200""></p>","","","","","","","","","","","",""
"","361.8299998342991","sequential-stimulus-presentation","231","447680","0.0-44.0-1.3","SS1613079962034","trial","","40","800","1161.829999834299","images/stimuli/spore_stims/simple_20_A_c.gif","images/stimuli/spore_stims/simple_01_A_d.gif","","","","","12","simple_dissimilar","images/stimuli/spore_stims/simple_20_A_c.gif","middle","","","","",""
"","null","html-keyboard-response","232","448686","0.0-44.0-0.4","SS1613079962034","","","null","","","","","<p><img src= images/blank.png width =""200"" height = ""200"" style = ""float:right""></p><p><img src=images/blank.png width =""800"" height = ""200""></p>","","","","","","","","","","","",""
"","313.91499983146787","sequential-stimulus-presentation","233","449856","0.0-44.0-1.4","SS1613079962034","trial","","40","800","1113.9149998314679","images/stimuli/spore_stims/simple_20_A_c.gif","images/stimuli/spore_stims/simple_01_A_d.gif","","","","","12","simple_dissimilar","images/stimuli/spore_stims/simple_01_A_d.gif","left","","","","",""
"","null","html-keyboard-response","234","451053","0.0-44.0-0.5","SS1613079962034","","","null","","","","","<p><img src= images/blank.png width =""200"" height = ""200"" style = ""float:right""></p><p><img src=images/blank.png width =""800"" height = ""200""></p>","","","","","","","","","","","",""
"","122.19500029459596","sequential-stimulus-presentation","235","452000","0.0-44.0-1.5","SS1613079962034","trial","","40","800","922.195000294596","images/stimuli/spore_stims/simple_20_A_c.gif","images/stimuli/spore_stims/simple_01_A_d.gif","","","","","12","simple_dissimilar","images/stimuli/spore_stims/simple_01_A_d.gif","left","","","","",""
"","null","html-keyboard-response","236","452941","0.0-44.0-0.6","SS1613079962034","","","null","","","","","<p><img src= images/blank.png width =""200"" height = ""200"" style = ""float:right""></p><p><img src=images/blank.png width =""800"" height = ""200""></p>","","","","","","","","","","","",""
"","303.72999981045723","sequential-stimulus-presentation","237","454066","0.0-44.0-1.6","SS1613079962034","trial","","40","800","1103.7299998104572","images/stimuli/spore_stims/simple_20_A_c.gif","images/stimuli/spore_stims/simple_01_A_d.gif","","","","","12","simple_dissimilar","images/stimuli/spore_stims/simple_01_A_d.gif","left","","","","",""
"","null","html-keyboard-response","238","455199","0.0-44.0-0.7","SS1613079962034","","","null","","","","","<p><img src= images/blank.png width =""200"" height = ""200"" style = ""float:right""></p><p><img src=images/blank.png width =""800"" height = ""200""></p>","","","","","","","","","","","",""
"","395.7650000229478","sequential-stimulus-presentation","239","456408","0.0-44.0-1.7","SS1613079962034","trial","","40","800","1195.7650000229478","images/stimuli/spore_stims/simple_20_A_c.gif","images/stimuli/spore_stims/simple_01_A_d.gif","","","","","12","simple_dissimilar","images/stimuli/spore_stims/simple_01_A_d.gif","left","","","","",""
"","1512.885000091046","html-keyboard-response","240","457928","0.0-45.0","SS1613079962034","pref_question","","98","","","","","<video width ='960' height = '540' style='padding-top:8%' autoplay muted><source src='images/stimuli/wall_pref.mp4' type='video/mp4'></video>","2","middle","45%","12","","","","","","","",""
"","74.29999997839332","sequential-stimulus-presentation","241","458817","0.0-46.0","SS1613079962034","pref_reveal","","40","800","874.2999999783933","null","null","","","","","12","","","","deviant","","","",""
"","null","html-keyboard-response","242","459778","0.0-47.0-0.0","SS1613079962034","","","null","","","","","<p><img src= images/blank.png width =""200"" height = ""200"" style = ""float:right""></p><p><img src=images/blank.png width =""800"" height = ""200""></p>","","","","","","","","","","","",""
"","625.4150001332164","sequential-stimulus-presentation","243","461232","0.0-47.0-1.0","SS1613079962034","trial","","40","800","1425.4150001332164","images/stimuli/spore_stims/simple_04_A_b.gif","images/stimuli/spore_stims/simple_04_B_b.gif","","","","","13","simple_similar","images/stimuli/spore_stims/simple_04_B_b.gif","left","","","","",""
"","null","html-keyboard-response","244","462425","0.0-47.0-0.1","SS1613079962034","","","null","","","","","<p><img src= images/blank.png width =""200"" height = ""200"" style = ""float:right""></p><p><img src=images/blank.png width =""800"" height = ""200""></p>","","","","","","","","","","","",""
"","521.269999910146","sequential-stimulus-presentation","245","463761","0.0-47.0-1.1","SS1613079962034","trial","","40","800","1321.269999910146","images/stimuli/spore_stims/simple_04_A_b.gif","images/stimuli/spore_stims/simple_04_B_b.gif","","","","","13","simple_similar","images/stimuli/spore_stims/simple_04_B_b.gif","left","","","","",""
"","null","html-keyboard-response","246","464971","0.0-47.0-0.2","SS1613079962034","","","null","","","","","<p><img src= images/blank.png width =""200"" height = ""200"" style = ""float:right""></p><p><img src=images/blank.png width =""800"" height = ""200""></p>","","","","","","","","","","","",""
"","406.5350000746548","sequential-stimulus-presentation","247","466200","0.0-47.0-1.2","SS1613079962034","trial","","40","800","1206.5350000746548","images/stimuli/spore_stims/simple_04_A_b.gif","images/stimuli/spore_stims/simple_04_B_b.gif","","","","","13","simple_similar","images/stimuli/spore_stims/simple_04_B_b.gif","left","","","","",""
"","null","html-keyboard-response","248","467122","0.0-47.0-0.3","SS1613079962034","","","null","","","","","<p><img src= images/blank.png width =""200"" height = ""200"" style = ""float:right""></p><p><img src=images/blank.png width =""800"" height = ""200""></p>","","","","","","","","","","","",""
"","381.0999998822808","sequential-stimulus-presentation","249","468345","0.0-47.0-1.3","SS1613079962034","trial","","40","800","1181.0999998822808","images/stimuli/spore_stims/simple_04_A_b.gif","images/stimuli/spore_stims/simple_04_B_b.gif","","","","","13","simple_similar","images/stimuli/spore_stims/simple_04_B_b.gif","left","","","","",""
"","null","html-keyboard-response","250","469235","0.0-47.0-0.4","SS1613079962034","","","null","","","","","<p><img src= images/blank.png width =""200"" height = ""200"" style = ""float:right""></p><p><img src=images/blank.png width =""800"" height = ""200""></p>","","","","","","","","","","","",""
"","488.2849999703467","sequential-stimulus-presentation","251","470536","0.0-47.0-1.4","SS1613079962034","trial","","40","800","1288.2849999703467","images/stimuli/spore_stims/simple_04_A_b.gif","images/stimuli/spore_stims/simple_04_B_b.gif","","","","","13","simple_similar","images/stimuli/spore_stims/simple_04_A_b.gif","middle","","","","",""
"","null","html-keyboard-response","252","471721","0.0-47.0-0.5","SS1613079962034","","","null","","","","","<p><img src= images/blank.png width =""200"" height = ""200"" style = ""float:right""></p><p><img src=images/blank.png width =""800"" height = ""200""></p>","","","","","","","","","","","",""
"","511.4899999462068","sequential-stimulus-presentation","253","473042","0.0-47.0-1.5","SS1613079962034","trial","","40","800","1311.4899999462068","images/stimuli/spore_stims/simple_04_A_b.gif","images/stimuli/spore_stims/simple_04_B_b.gif","","","","","13","simple_similar","images/stimuli/spore_stims/simple_04_B_b.gif","left","","","","",""
"","null","html-keyboard-response","254","474060","0.0-47.0-0.6","SS1613079962034","","","null","","","","","<p><img src= images/blank.png width =""200"" height = ""200"" style = ""float:right""></p><p><img src=images/blank.png width =""800"" height = ""200""></p>","","","","","","","","","","","",""
"","466.5199997834861","sequential-stimulus-presentation","255","475368","0.0-47.0-1.6","SS1613079962034","trial","","40","800","1266.5199997834861","images/stimuli/spore_stims/simple_04_A_b.gif","images/stimuli/spore_stims/simple_04_B_b.gif","","","","","13","simple_similar","images/stimuli/spore_stims/simple_04_B_b.gif","left","","","","",""
"","null","html-keyboard-response","256","476259","0.0-47.0-0.7","SS1613079962034","","","null","","","","","<p><img src= images/blank.png width =""200"" height = ""200"" style = ""float:right""></p><p><img src=images/blank.png width =""800"" height = ""200""></p>","","","","","","","","","","","",""
"","353.33000030368567","sequential-stimulus-presentation","257","477434","0.0-47.0-1.7","SS1613079962034","trial","","40","800","1153.3300003036857","images/stimuli/spore_stims/simple_04_A_b.gif","images/stimuli/spore_stims/simple_04_B_b.gif","","","","","13","simple_similar","images/stimuli/spore_stims/simple_04_B_b.gif","left","","","","",""
"","1647.3699999041855","html-keyboard-response","258","479089","0.0-48.0","SS1613079962034","pref_question","","99","","","","","<video width ='960' height = '540' style='padding-top:8%' autoplay muted><source src='images/stimuli/wall_pref.mp4' type='video/mp4'></video>","3","right","66%","13","","","","","","","",""
"","1193.3900001458824","sequential-stimulus-presentation","259","481091","0.0-49.0","SS1613079962034","pref_reveal","","40","800","1993.3900001458824","null","null","","","","","13","","","","novel","","","",""
"","null","html-keyboard-response","260","482203","0.0-50.0-0.0","SS1613079962034","","","null","","","","","<p><img src= images/blank.png width =""200"" height = ""200"" style = ""float:right""></p><p><img src=images/blank.png width =""800"" height = ""200""></p>","","","","","","","","","","","",""
"","331.1450001783669","sequential-stimulus-presentation","261","483361","0.0-50.0-1.0","SS1613079962034","trial","","40","800","1131.145000178367","images/stimuli/spore_stims/simple_14_B_d.gif","images/stimuli/spore_stims/simple_07_A_d.gif","","","","","14","simple_dissimilar","images/stimuli/spore_stims/simple_07_A_d.gif","right","","","","",""
"","null","html-keyboard-response","262","484351","0.0-50.0-0.1","SS1613079962034","","","null","","","","","<p><img src= images/blank.png width =""200"" height = ""200"" style = ""float:right""></p><p><img src=images/blank.png width =""800"" height = ""200""></p>","","","","","","","","","","","",""
"","393.68500001728535","sequential-stimulus-presentation","263","485561","0.0-50.0-1.1","SS1613079962034","trial","","40","800","1193.6850000172853","images/stimuli/spore_stims/simple_14_B_d.gif","images/stimuli/spore_stims/simple_07_A_d.gif","","","","","14","simple_dissimilar","images/stimuli/spore_stims/simple_07_A_d.gif","right","","","","",""
"","null","html-keyboard-response","264","486693","0.0-50.0-0.2","SS1613079962034","","","null","","","","","<p><img src= images/blank.png width =""200"" height = ""200"" style = ""float:right""></p><p><img src=images/blank.png width =""800"" height = ""200""></p>","","","","","","","","","","","",""
"","430.47500029206276","sequential-stimulus-presentation","265","487937","0.0-50.0-1.2","SS1613079962034","trial","","40","800","1230.4750002920628","images/stimuli/spore_stims/simple_14_B_d.gif","images/stimuli/spore_stims/simple_07_A_d.gif","","","","","14","simple_dissimilar","images/stimuli/spore_stims/simple_07_A_d.gif","right","","","","",""
"","null","html-keyboard-response","266","489144","0.0-50.0-0.3","SS1613079962034","","","null","","","","","<p><img src= images/blank.png width =""200"" height = ""200"" style = ""float:right""></p><p><img src=images/blank.png width =""800"" height = ""200""></p>","","","","","","","","","","","",""
"","345.6549998372793","sequential-stimulus-presentation","267","490304","0.0-50.0-1.3","SS1613079962034","trial","","40","800","1145.6549998372793","images/stimuli/spore_stims/simple_14_B_d.gif","images/stimuli/spore_stims/simple_07_A_d.gif","","","","","14","simple_dissimilar","images/stimuli/spore_stims/simple_07_A_d.gif","right","","","","",""
"","null","html-keyboard-response","268","491348","0.0-50.0-0.4","SS1613079962034","","","null","","","","","<p><img src= images/blank.png width =""200"" height = ""200"" style = ""float:right""></p><p><img src=images/blank.png width =""800"" height = ""200""></p>","","","","","","","","","","","",""
"","402.3299999535084","sequential-stimulus-presentation","269","492560","0.0-50.0-1.4","SS1613079962034","trial","","40","800","1202.3299999535084","images/stimuli/spore_stims/simple_14_B_d.gif","images/stimuli/spore_stims/simple_07_A_d.gif","","","","","14","simple_dissimilar","images/stimuli/spore_stims/simple_07_A_d.gif","right","","","","",""
"","null","html-keyboard-response","270","493506","0.0-50.0-0.5","SS1613079962034","","","null","","","","","<p><img src= images/blank.png width =""200"" height = ""200"" style = ""float:right""></p><p><img src=images/blank.png width =""800"" height = ""200""></p>","","","","","","","","","","","",""
"","437.2449996881187","sequential-stimulus-presentation","271","494753","0.0-50.0-1.5","SS1613079962034","trial","","40","800","1237.2449996881187","images/stimuli/spore_stims/simple_14_B_d.gif","images/stimuli/spore_stims/simple_07_A_d.gif","","","","","14","simple_dissimilar","images/stimuli/spore_stims/simple_07_A_d.gif","right","","","","",""
"","null","html-keyboard-response","272","495930","0.0-50.0-0.6","SS1613079962034","","","null","","","","","<p><img src= images/blank.png width =""200"" height = ""200"" style = ""float:right""></p><p><img src=images/blank.png width =""800"" height = ""200""></p>","","","","","","","","","","","",""
"","510.0050000473857","sequential-stimulus-presentation","273","497248","0.0-50.0-1.6","SS1613079962034","trial","","40","800","1310.0050000473857","images/stimuli/spore_stims/simple_14_B_d.gif","images/stimuli/spore_stims/simple_07_A_d.gif","","","","","14","simple_dissimilar","images/stimuli/spore_stims/simple_14_B_d.gif","middle","","","","",""
"","null","html-keyboard-response","274","498498","0.0-50.0-0.7","SS1613079962034","","","null","","","","","<p><img src= images/blank.png width =""200"" height = ""200"" style = ""float:right""></p><p><img src=images/blank.png width =""800"" height = ""200""></p>","","","","","","","","","","","",""
"","258.75999964773655","sequential-stimulus-presentation","275","499569","0.0-50.0-1.7","SS1613079962034","trial","","40","800","1058.7599996477365","images/stimuli/spore_stims/simple_14_B_d.gif","images/stimuli/spore_stims/simple_07_A_d.gif","","","","","14","simple_dissimilar","images/stimuli/spore_stims/simple_07_A_d.gif","right","","","","",""
"","2031.8200001493096","html-keyboard-response","276","501608","0.0-51.0","SS1613079962034","pref_question","","98","","","","","<video width ='960' height = '540' style='padding-top:8%' autoplay muted><source src='images/stimuli/wall_pref.mp4' type='video/mp4'></video>","2","middle","45%","14","","","","","","","",""
"","330.96500020474195","sequential-stimulus-presentation","277","502753","0.0-52.0","SS1613079962034","pref_reveal","","40","800","1130.965000204742","null","null","","","","","14","","","","deviant","","","",""
"","null","html-keyboard-response","278","503641","0.0-53.0-0.0","SS1613079962034","","","null","","","","","<p><img src= images/blank.png width =""200"" height = ""200"" style = ""float:right""></p><p><img src=images/blank.png width =""800"" height = ""200""></p>","","","","","","","","","","","",""
"","122.57499992847443","sequential-stimulus-presentation","279","504584","0.0-53.0-1.0","SS1613079962034","trial","","40","800","922.5749999284744","images/stimuli/spore_stims/complex_12_B_a.gif","images/stimuli/spore_stims/complex_12_A_a.gif","","","","","15","complex_similar","images/stimuli/spore_stims/complex_12_A_a.gif","right","","","","",""
"","null","html-keyboard-response","280","505513","0.0-53.0-0.1","SS1613079962034","","","null","","","","","<p><img src= images/blank.png width =""200"" height = ""200"" style = ""float:right""></p><p><img src=images/blank.png width =""800"" height = ""200""></p>","","","","","","","","","","","",""
"","485.0499997846782","sequential-stimulus-presentation","281","506856","0.0-53.0-1.1","SS1613079962034","trial","","40","800","1285.0499997846782","images/stimuli/spore_stims/complex_12_B_a.gif","images/stimuli/spore_stims/complex_12_A_a.gif","","","","","15","complex_similar","images/stimuli/spore_stims/complex_12_A_a.gif","right","","","","",""
"","null","html-keyboard-response","282","507684","0.0-53.0-0.2","SS1613079962034","","","null","","","","","<p><img src= images/blank.png width =""200"" height = ""200"" style = ""float:right""></p><p><img src=images/blank.png width =""800"" height = ""200""></p>","","","","","","","","","","","",""
"","251.18500040844083","sequential-stimulus-presentation","283","508760","0.0-53.0-1.2","SS1613079962034","trial","","40","800","1051.1850004084408","images/stimuli/spore_stims/complex_12_B_a.gif","images/stimuli/spore_stims/complex_12_A_a.gif","","","","","15","complex_similar","images/stimuli/spore_stims/complex_12_B_a.gif","middle","","","","",""
"","null","html-keyboard-response","284","510021","0.0-53.0-0.3","SS1613079962034","","","null","","","","","<p><img src= images/blank.png width =""200"" height = ""200"" style = ""float:right""></p><p><img src=images/blank.png width =""800"" height = ""200""></p>","","","","","","","","","","","",""
"","213.020000141114","sequential-stimulus-presentation","285","511056","0.0-53.0-1.3","SS1613079962034","trial","","40","800","1013.020000141114","images/stimuli/spore_stims/complex_12_B_a.gif","images/stimuli/spore_stims/complex_12_A_a.gif","","","","","15","complex_similar","images/stimuli/spore_stims/complex_12_A_a.gif","right","","","","",""
"","null","html-keyboard-response","286","512074","0.0-53.0-0.4","SS1613079962034","","","null","","","","","<p><img src= images/blank.png width =""200"" height = ""200"" style = ""float:right""></p><p><img src=images/blank.png width =""800"" height = ""200""></p>","","","","","","","","","","","",""
"","935.2549999020994","sequential-stimulus-presentation","287","513829","0.0-53.0-1.4","SS1613079962034","trial","","40","800","1735.2549999020994","images/stimuli/spore_stims/complex_12_B_a.gif","images/stimuli/spore_stims/complex_12_A_a.gif","","","","","15","complex_similar","images/stimuli/spore_stims/complex_12_A_a.gif","right","","","","",""
"","null","html-keyboard-response","288","514760","0.0-53.0-0.5","SS1613079962034","","","null","","","","","<p><img src= images/blank.png width =""200"" height = ""200"" style = ""float:right""></p><p><img src=images/blank.png width =""800"" height = ""200""></p>","","","","","","","","","","","",""
"","261.935000307858","sequential-stimulus-presentation","289","515833","0.0-53.0-1.5","SS1613079962034","trial","","40","800","1061.935000307858","images/stimuli/spore_stims/complex_12_B_a.gif","images/stimuli/spore_stims/complex_12_A_a.gif","","","","","15","complex_similar","images/stimuli/spore_stims/complex_12_A_a.gif","right","","","","",""
"","null","html-keyboard-response","290","517002","0.0-53.0-0.6","SS1613079962034","","","null","","","","","<p><img src= images/blank.png width =""200"" height = ""200"" style = ""float:right""></p><p><img src=images/blank.png width =""800"" height = ""200""></p>","","","","","","","","","","","",""
"","246.4250000193715","sequential-stimulus-presentation","291","518064","0.0-53.0-1.6","SS1613079962034","trial","","40","800","1046.4250000193715","images/stimuli/spore_stims/complex_12_B_a.gif","images/stimuli/spore_stims/complex_12_A_a.gif","","","","","15","complex_similar","images/stimuli/spore_stims/complex_12_A_a.gif","right","","","","",""
"","null","html-keyboard-response","292","519188","0.0-53.0-0.7","SS1613079962034","","","null","","","","","<p><img src= images/blank.png width =""200"" height = ""200"" style = ""float:right""></p><p><img src=images/blank.png width =""800"" height = ""200""></p>","","","","","","","","","","","",""
"","238.9299999922514","sequential-stimulus-presentation","293","520288","0.0-53.0-1.7","SS1613079962034","trial","","40","800","1038.9299999922514","images/stimuli/spore_stims/complex_12_B_a.gif","images/stimuli/spore_stims/complex_12_A_a.gif","","","","","15","complex_similar","images/stimuli/spore_stims/complex_12_A_a.gif","right","","","","",""
"","1920.6550000235438","html-keyboard-response","294","522217","0.0-54.0","SS1613079962034","pref_question","","98","","","","","<video width ='960' height = '540' style='padding-top:8%' autoplay muted><source src='images/stimuli/wall_pref.mp4' type='video/mp4'></video>","2","middle","45%","15","","","","","","","",""
"","393.5950002633035","sequential-stimulus-presentation","295","523420","0.0-55.0","SS1613079962034","pref_reveal","","40","800","1193.5950002633035","null","null","","","","","15","","","","deviant","","","",""
"","null","html-keyboard-response","296","524242","0.0-56.0-0.0","SS1613079962034","","","null","","","","","<p><img src= images/blank.png width =""200"" height = ""200"" style = ""float:right""></p><p><img src=images/blank.png width =""800"" height = ""200""></p>","","","","","","","","","","","",""
"","184.22499997541308","sequential-stimulus-presentation","297","525248","0.0-56.0-1.0","SS1613079962034","trial","","40","800","984.2249999754131","images/stimuli/spore_stims/complex_03_A_c.gif","images/stimuli/spore_stims/complex_18_A_a.gif","","","","","16","complex_dissimilar","images/stimuli/spore_stims/complex_18_A_a.gif","right","","","","",""
"","null","html-keyboard-response","298","526362","0.0-56.0-0.1","SS1613079962034","","","null","","","","","<p><img src= images/blank.png width =""200"" height = ""200"" style = ""float:right""></p><p><img src=images/blank.png width =""800"" height = ""200""></p>","","","","","","","","","","","",""
"","109.78000005707145","sequential-stimulus-presentation","299","527328","0.0-56.0-1.1","SS1613079962034","trial","","40","800","909.7800000570714","images/stimuli/spore_stims/complex_03_A_c.gif","images/stimuli/spore_stims/complex_18_A_a.gif","","","","","16","complex_dissimilar","images/stimuli/spore_stims/complex_18_A_a.gif","right","","","","",""
"","null","html-keyboard-response","300","528183","0.0-56.0-0.2","SS1613079962034","","","null","","","","","<p><img src= images/blank.png width =""200"" height = ""200"" style = ""float:right""></p><p><img src=images/blank.png width =""800"" height = ""200""></p>","","","","","","","","","","","",""
"","870.7349998876452","sequential-stimulus-presentation","301","529881","0.0-56.0-1.2","SS1613079962034","trial","","40","800","1670.7349998876452","images/stimuli/spore_stims/complex_03_A_c.gif","images/stimuli/spore_stims/complex_18_A_a.gif","","","","","16","complex_dissimilar","images/stimuli/spore_stims/complex_18_A_a.gif","right","","","","",""
"","null","html-keyboard-response","302","530894","0.0-56.0-0.3","SS1613079962034","","","null","","","","","<p><img src= images/blank.png width =""200"" height = ""200"" style = ""float:right""></p><p><img src=images/blank.png width =""800"" height = ""200""></p>","","","","","","","","","","","",""
"","448.5750002786517","sequential-stimulus-presentation","303","532160","0.0-56.0-1.3","SS1613079962034","trial","","40","800","1248.5750002786517","images/stimuli/spore_stims/complex_03_A_c.gif","images/stimuli/spore_stims/complex_18_A_a.gif","","","","","16","complex_dissimilar","images/stimuli/spore_stims/complex_03_A_c.gif","left","","","","",""
"","null","html-keyboard-response","304","533459","0.0-56.0-0.4","SS1613079962034","","","null","","","","","<p><img src= images/blank.png width =""200"" height = ""200"" style = ""float:right""></p><p><img src=images/blank.png width =""800"" height = ""200""></p>","","","","","","","","","","","",""
"","41.03499976918101","sequential-stimulus-presentation","305","534345","0.0-56.0-1.4","SS1613079962034","trial","","40","800","841.034999769181","images/stimuli/spore_stims/complex_03_A_c.gif","images/stimuli/spore_stims/complex_18_A_a.gif","","","","","16","complex_dissimilar","images/stimuli/spore_stims/complex_18_A_a.gif","right","","","","",""
"","null","html-keyboard-response","306","535472","0.0-56.0-0.5","SS1613079962034","","","null","","","","","<p><img src= images/blank.png width =""200"" height = ""200"" style = ""float:right""></p><p><img src=images/blank.png width =""800"" height = ""200""></p>","","","","","","","","","","","",""
"","142.8849999792874","sequential-stimulus-presentation","307","536425","0.0-56.0-1.5","SS1613079962034","trial","","40","800","942.8849999792874","images/stimuli/spore_stims/complex_03_A_c.gif","images/stimuli/spore_stims/complex_18_A_a.gif","","","","","16","complex_dissimilar","images/stimuli/spore_stims/complex_18_A_a.gif","right","","","","",""
"","null","html-keyboard-response","308","537463","0.0-56.0-0.6","SS1613079962034","","","null","","","","","<p><img src= images/blank.png width =""200"" height = ""200"" style = ""float:right""></p><p><img src=images/blank.png width =""800"" height = ""200""></p>","","","","","","","","","","","",""
"","291.13500006496906","sequential-stimulus-presentation","309","538592","0.0-56.0-1.6","SS1613079962034","trial","","40","800","1091.135000064969","images/stimuli/spore_stims/complex_03_A_c.gif","images/stimuli/spore_stims/complex_18_A_a.gif","","","","","16","complex_dissimilar","images/stimuli/spore_stims/complex_18_A_a.gif","right","","","","",""
"","null","html-keyboard-response","310","539540","0.0-56.0-0.7","SS1613079962034","","","null","","","","","<p><img src= images/blank.png width =""200"" height = ""200"" style = ""float:right""></p><p><img src=images/blank.png width =""800"" height = ""200""></p>","","","","","","","","","","","",""
"","194.19499998912215","sequential-stimulus-presentation","311","540561","0.0-56.0-1.7","SS1613079962034","trial","","40","800","994.1949999891222","images/stimuli/spore_stims/complex_03_A_c.gif","images/stimuli/spore_stims/complex_18_A_a.gif","","","","","16","complex_dissimilar","images/stimuli/spore_stims/complex_18_A_a.gif","right","","","","",""
