"view_history","rt","trial_type","trial_index","time_elapsed","internal_node_id","subject","stimulus_type","trial_stimulus","key_press","minimum_viewing_duration","trial_looking_time","block_deviant","block_background","stimulus","wall_pref","location","location_percent","block_number","block_type","stimulus_displayed","position_displayed","stim_type_selected","responses","question_order","stimulus_left","stimulus_right"
"[{""page_index"":0,""viewing_time"":8418.899999989662}]","8420.039999997243","instructions","0","8422","0.0-0.0","SS1613138250876","","","","","","","","","","","","","","","","","","","",""
"[{""page_index"":0,""viewing_time"":7601.974999997765},{""page_index"":1,""viewing_time"":59995.63499999931}]","67598.14000001643","instructions","1","78023","0.0-1.0","SS1613138250876","instructions","","","","","","","","","","","","","","","","","","",""
"","39682.319999992615","sequential-stimulus-presentation","2","118515","0.0-2.0","SS1613138250876","","","40","800","40482.319999992615","null","null","","","","","","","","","","","","",""
"","9835.414999979548","sequential-stimulus-presentation","3","129157","0.0-3.0","SS1613138250876","","","40","800","10635.414999979548","null","null","","","","","","","","","","","","",""
"[{""page_index"":0,""viewing_time"":2664.164999994682}]","2664.7999999986496","instructions","4","131825","0.0-4.0","SS1613138250876","instructions","","","","","","","","","","","","","","","","","","",""
"","5891.379999986384","html-keyboard-response","5","137724","0.0-5.0","SS1613138250876","instructions","","50","","","","","<video width ='960' height = '540' autoplay muted><source src='images/stimuli/wall_pref.mp4' type='video/mp4'></video>","2","middle","45%","","","","","","","","",""
"","2436.9299999962095","sequential-stimulus-presentation","6","140975","0.0-6.0","SS1613138250876","pref_reveal","","40","800","3236.9299999962095","null","null","","","","","","","","","","","","",""
"[{""page_index"":0,""viewing_time"":2492.690000013681},{""page_index"":1,""viewing_time"":1638.9849999977741},{""page_index"":2,""viewing_time"":1458.760000008624},{""page_index"":3,""viewing_time"":1718.5499999905005}]","7309.460000018589","instructions","7","148286","0.0-7.0","SS1613138250876","instructions","","","","","","","","","","","","","","","","","","",""
"","null","html-keyboard-response","8","149250","0.0-8.0-0.0","SS1613138250876","","","null","","","","","<p><img src= images/blank.png width =""200"" height = ""200"" style = ""float:right""></p><p><img src=images/blank.png width =""800"" height = ""200""></p>","","","","","","","","","","","",""
"","6616.89999999362","sequential-stimulus-presentation","9","156683","0.0-8.0-1.0","SS1613138250876","trial","","40","800","7416.89999999362","images/stimuli/spore_stims/simple_19_B_a.gif","images/stimuli/spore_stims/simple_19_A_a.gif","","","","","0","simple_similar","images/stimuli/spore_stims/simple_19_A_a.gif","right","","","","",""
"","null","html-keyboard-response","10","157715","0.0-8.0-0.1","SS1613138250876","","","null","","","","","<p><img src= images/blank.png width =""200"" height = ""200"" style = ""float:right""></p><p><img src=images/blank.png width =""800"" height = ""200""></p>","","","","","","","","","","","",""
"","806.6499999840744","sequential-stimulus-presentation","11","159333","0.0-8.0-1.1","SS1613138250876","trial","","40","800","1606.6499999840744","images/stimuli/spore_stims/simple_19_B_a.gif","images/stimuli/spore_stims/simple_19_A_a.gif","","","","","0","simple_similar","images/stimuli/spore_stims/simple_19_A_a.gif","right","","","","",""
"","null","html-keyboard-response","12","160476","0.0-8.0-0.2","SS1613138250876","","","null","","","","","<p><img src= images/blank.png width =""200"" height = ""200"" style = ""float:right""></p><p><img src=images/blank.png width =""800"" height = ""200""></p>","","","","","","","","","","","",""
"","3810.1150000002235","sequential-stimulus-presentation","13","165100","0.0-8.0-1.2","SS1613138250876","trial","","40","800","4610.1150000002235","images/stimuli/spore_stims/simple_19_B_a.gif","images/stimuli/spore_stims/simple_19_A_a.gif","","","","","0","simple_similar","images/stimuli/spore_stims/simple_19_A_a.gif","right","","","","",""
"","null","html-keyboard-response","14","166139","0.0-8.0-0.3","SS1613138250876","","","null","","","","","<p><img src= images/blank.png width =""200"" height = ""200"" style = ""float:right""></p><p><img src=images/blank.png width =""800"" height = ""200""></p>","","","","","","","","","","","",""
"","706.0399999900255","sequential-stimulus-presentation","15","167668","0.0-8.0-1.3","SS1613138250876","trial","","40","800","1506.0399999900255","images/stimuli/spore_stims/simple_19_B_a.gif","images/stimuli/spore_stims/simple_19_A_a.gif","","","","","0","simple_similar","images/stimuli/spore_stims/simple_19_A_a.gif","right","","","","",""
"","null","html-keyboard-response","16","168669","0.0-8.0-0.4","SS1613138250876","","","null","","","","","<p><img src= images/blank.png width =""200"" height = ""200"" style = ""float:right""></p><p><img src=images/blank.png width =""800"" height = ""200""></p>","","","","","","","","","","","",""
"","174.0550000104122","sequential-stimulus-presentation","17","169659","0.0-8.0-1.4","SS1613138250876","trial","","40","800","974.0550000104122","images/stimuli/spore_stims/simple_19_B_a.gif","images/stimuli/spore_stims/simple_19_A_a.gif","","","","","0","simple_similar","images/stimuli/spore_stims/simple_19_A_a.gif","right","","","","",""
"","null","html-keyboard-response","18","170907","0.0-8.0-0.5","SS1613138250876","","","null","","","","","<p><img src= images/blank.png width =""200"" height = ""200"" style = ""float:right""></p><p><img src=images/blank.png width =""800"" height = ""200""></p>","","","","","","","","","","","",""
"","2809.724999999162","sequential-stimulus-presentation","19","174524","0.0-8.0-1.5","SS1613138250876","trial","","40","800","3609.724999999162","images/stimuli/spore_stims/simple_19_B_a.gif","images/stimuli/spore_stims/simple_19_A_a.gif","","","","","0","simple_similar","images/stimuli/spore_stims/simple_19_A_a.gif","right","","","","",""
"","null","html-keyboard-response","20","175625","0.0-8.0-0.6","SS1613138250876","","","null","","","","","<p><img src= images/blank.png width =""200"" height = ""200"" style = ""float:right""></p><p><img src=images/blank.png width =""800"" height = ""200""></p>","","","","","","","","","","","",""
"","1961.7350000189617","sequential-stimulus-presentation","21","178499","0.0-8.0-1.6","SS1613138250876","trial","","40","800","2761.7350000189617","images/stimuli/spore_stims/simple_19_B_a.gif","images/stimuli/spore_stims/simple_19_A_a.gif","","","","","0","simple_similar","images/stimuli/spore_stims/simple_19_A_a.gif","right","","","","",""
"","null","html-keyboard-response","22","179627","0.0-8.0-0.7","SS1613138250876","","","null","","","","","<p><img src= images/blank.png width =""200"" height = ""200"" style = ""float:right""></p><p><img src=images/blank.png width =""800"" height = ""200""></p>","","","","","","","","","","","",""
"","1921.1700000159908","sequential-stimulus-presentation","23","182361","0.0-8.0-1.7","SS1613138250876","trial","","40","800","2721.170000015991","images/stimuli/spore_stims/simple_19_B_a.gif","images/stimuli/spore_stims/simple_19_A_a.gif","","","","","0","simple_similar","images/stimuli/spore_stims/simple_19_B_a.gif","middle","","","","",""
"","1805.8300000266172","html-keyboard-response","24","184171","0.0-9.0","SS1613138250876","pref_question","","51","","","","","<video width ='960' height = '540' style='padding-top:8%' autoplay muted><source src='images/stimuli/wall_pref.mp4' type='video/mp4'></video>","3","right","66%","0","","","","","","","",""
"","112.79999997350387","sequential-stimulus-presentation","25","185092","0.0-10.0","SS1613138250876","pref_reveal","","40","800","912.7999999735039","null","null","","","","","0","","","","background","","","",""
"","null","html-keyboard-response","26","186374","0.0-11.0-0.0","SS1613138250876","","","null","","","","","<p><img src= images/blank.png width =""200"" height = ""200"" style = ""float:right""></p><p><img src=images/blank.png width =""800"" height = ""200""></p>","","","","","","","","","","","",""
"","1386.7000000027474","sequential-stimulus-presentation","27","188579","0.0-11.0-1.0","SS1613138250876","trial","","40","800","2186.7000000027474","images/stimuli/spore_stims/simple_13_A_a.gif","images/stimuli/spore_stims/simple_13_B_a.gif","","","","","1","simple_similar","images/stimuli/spore_stims/simple_13_B_a.gif","right","","","","",""
"","null","html-keyboard-response","28","189397","0.0-11.0-0.1","SS1613138250876","","","null","","","","","<p><img src= images/blank.png width =""200"" height = ""200"" style = ""float:right""></p><p><img src=images/blank.png width =""800"" height = ""200""></p>","","","","","","","","","","","",""
"","331.53999998467043","sequential-stimulus-presentation","29","190540","0.0-11.0-1.1","SS1613138250876","trial","","40","800","1131.5399999846704","images/stimuli/spore_stims/simple_13_A_a.gif","images/stimuli/spore_stims/simple_13_B_a.gif","","","","","1","simple_similar","images/stimuli/spore_stims/simple_13_B_a.gif","right","","","","",""
"","null","html-keyboard-response","30","191419","0.0-11.0-0.2","SS1613138250876","","","null","","","","","<p><img src= images/blank.png width =""200"" height = ""200"" style = ""float:right""></p><p><img src=images/blank.png width =""800"" height = ""200""></p>","","","","","","","","","","","",""
"","84.95499999844469","sequential-stimulus-presentation","31","192315","0.0-11.0-1.2","SS1613138250876","trial","","40","800","884.9549999984447","images/stimuli/spore_stims/simple_13_A_a.gif","images/stimuli/spore_stims/simple_13_B_a.gif","","","","","1","simple_similar","images/stimuli/spore_stims/simple_13_B_a.gif","right","","","","",""
"","null","html-keyboard-response","32","193432","0.0-11.0-0.3","SS1613138250876","","","null","","","","","<p><img src= images/blank.png width =""200"" height = ""200"" style = ""float:right""></p><p><img src=images/blank.png width =""800"" height = ""200""></p>","","","","","","","","","","","",""
"","528.4599999722559","sequential-stimulus-presentation","33","194788","0.0-11.0-1.3","SS1613138250876","trial","","40","800","1328.459999972256","images/stimuli/spore_stims/simple_13_A_a.gif","images/stimuli/spore_stims/simple_13_B_a.gif","","","","","1","simple_similar","images/stimuli/spore_stims/simple_13_B_a.gif","right","","","","",""
"","null","html-keyboard-response","34","195833","0.0-11.0-0.4","SS1613138250876","","","null","","","","","<p><img src= images/blank.png width =""200"" height = ""200"" style = ""float:right""></p><p><img src=images/blank.png width =""800"" height = ""200""></p>","","","","","","","","","","","",""
"","605.2849999978207","sequential-stimulus-presentation","35","197256","0.0-11.0-1.4","SS1613138250876","trial","","40","800","1405.2849999978207","images/stimuli/spore_stims/simple_13_A_a.gif","images/stimuli/spore_stims/simple_13_B_a.gif","","","","","1","simple_similar","images/stimuli/spore_stims/simple_13_A_a.gif","middle","","","","",""
"","null","html-keyboard-response","36","198098","0.0-11.0-0.5","SS1613138250876","","","null","","","","","<p><img src= images/blank.png width =""200"" height = ""200"" style = ""float:right""></p><p><img src=images/blank.png width =""800"" height = ""200""></p>","","","","","","","","","","","",""
"","2066.5849999932107","sequential-stimulus-presentation","37","200976","0.0-11.0-1.5","SS1613138250876","trial","","40","800","2866.5849999932107","images/stimuli/spore_stims/simple_13_A_a.gif","images/stimuli/spore_stims/simple_13_B_a.gif","","","","","1","simple_similar","images/stimuli/spore_stims/simple_13_B_a.gif","right","","","","",""
"","null","html-keyboard-response","38","202232","0.0-11.0-0.6","SS1613138250876","","","null","","","","","<p><img src= images/blank.png width =""200"" height = ""200"" style = ""float:right""></p><p><img src=images/blank.png width =""800"" height = ""200""></p>","","","","","","","","","","","",""
"","3697.96999997925","sequential-stimulus-presentation","39","206748","0.0-11.0-1.6","SS1613138250876","trial","","40","800","4497.96999997925","images/stimuli/spore_stims/simple_13_A_a.gif","images/stimuli/spore_stims/simple_13_B_a.gif","","","","","1","simple_similar","images/stimuli/spore_stims/simple_13_B_a.gif","right","","","","",""
"","null","html-keyboard-response","40","207821","0.0-11.0-0.7","SS1613138250876","","","null","","","","","<p><img src= images/blank.png width =""200"" height = ""200"" style = ""float:right""></p><p><img src=images/blank.png width =""800"" height = ""200""></p>","","","","","","","","","","","",""
"","1802.5799999886658","sequential-stimulus-presentation","41","210445","0.0-11.0-1.7","SS1613138250876","trial","","40","800","2602.579999988666","images/stimuli/spore_stims/simple_13_A_a.gif","images/stimuli/spore_stims/simple_13_B_a.gif","","","","","1","simple_similar","images/stimuli/spore_stims/simple_13_B_a.gif","right","","","","",""
"","451.26999999047257","html-keyboard-response","42","210901","0.0-12.0","SS1613138250876","pref_question","","50","","","","","<video width ='960' height = '540' style='padding-top:8%' autoplay muted><source src='images/stimuli/wall_pref.mp4' type='video/mp4'></video>","2","middle","45%","1","","","","","","","",""
"","1247.769999987213","sequential-stimulus-presentation","43","212957","0.0-13.0","SS1613138250876","pref_reveal","","40","800","2047.769999987213","null","null","","","","","1","","","","deviant","","","",""
"","null","html-keyboard-response","44","214235","0.0-14.0-0.0","SS1613138250876","","","null","","","","","<p><img src= images/blank.png width =""200"" height = ""200"" style = ""float:right""></p><p><img src=images/blank.png width =""800"" height = ""200""></p>","","","","","","","","","","","",""
"","1470.0700000103097","sequential-stimulus-presentation","45","216597","0.0-14.0-1.0","SS1613138250876","trial","","40","800","2270.0700000103097","images/stimuli/spore_stims/simple_10_A_b.gif","images/stimuli/spore_stims/simple_03_A_d.gif","","","","","2","simple_dissimilar","images/stimuli/spore_stims/simple_03_A_d.gif","left","","","","",""
"","null","html-keyboard-response","46","217571","0.0-14.0-0.1","SS1613138250876","","","null","","","","","<p><img src= images/blank.png width =""200"" height = ""200"" style = ""float:right""></p><p><img src=images/blank.png width =""800"" height = ""200""></p>","","","","","","","","","","","",""
"","590.2599999972153","sequential-stimulus-presentation","47","218971","0.0-14.0-1.1","SS1613138250876","trial","","40","800","1390.2599999972153","images/stimuli/spore_stims/simple_10_A_b.gif","images/stimuli/spore_stims/simple_03_A_d.gif","","","","","2","simple_dissimilar","images/stimuli/spore_stims/simple_03_A_d.gif","left","","","","",""
"","null","html-keyboard-response","48","219992","0.0-14.0-0.2","SS1613138250876","","","null","","","","","<p><img src= images/blank.png width =""200"" height = ""200"" style = ""float:right""></p><p><img src=images/blank.png width =""800"" height = ""200""></p>","","","","","","","","","","","",""
"","280.31499998178333","sequential-stimulus-presentation","49","221084","0.0-14.0-1.2","SS1613138250876","trial","","40","800","1080.3149999817833","images/stimuli/spore_stims/simple_10_A_b.gif","images/stimuli/spore_stims/simple_03_A_d.gif","","","","","2","simple_dissimilar","images/stimuli/spore_stims/simple_03_A_d.gif","left","","","","",""
"","null","html-keyboard-response","50","222030","0.0-14.0-0.3","SS1613138250876","","","null","","","","","<p><img src= images/blank.png width =""200"" height = ""200"" style = ""float:right""></p><p><img src=images/blank.png width =""800"" height = ""200""></p>","","","","","","","","","","","",""
"","200.27999999001622","sequential-stimulus-presentation","51","223040","0.0-14.0-1.3","SS1613138250876","trial","","40","800","1000.2799999900162","images/stimuli/spore_stims/simple_10_A_b.gif","images/stimuli/spore_stims/simple_03_A_d.gif","","","","","2","simple_dissimilar","images/stimuli/spore_stims/simple_03_A_d.gif","left","","","","",""
"","null","html-keyboard-response","52","224134","0.0-14.0-0.4","SS1613138250876","","","null","","","","","<p><img src= images/blank.png width =""200"" height = ""200"" style = ""float:right""></p><p><img src=images/blank.png width =""800"" height = ""200""></p>","","","","","","","","","","","",""
"","422.4349999858532","sequential-stimulus-presentation","53","225372","0.0-14.0-1.4","SS1613138250876","trial","","40","800","1222.4349999858532","images/stimuli/spore_stims/simple_10_A_b.gif","images/stimuli/spore_stims/simple_03_A_d.gif","","","","","2","simple_dissimilar","images/stimuli/spore_stims/simple_03_A_d.gif","left","","","","",""
"","null","html-keyboard-response","54","226240","0.0-14.0-0.5","SS1613138250876","","","null","","","","","<p><img src= images/blank.png width =""200"" height = ""200"" style = ""float:right""></p><p><img src=images/blank.png width =""800"" height = ""200""></p>","","","","","","","","","","","",""
"","1792.7449999842793","sequential-stimulus-presentation","55","228852","0.0-14.0-1.5","SS1613138250876","trial","","40","800","2592.7449999842793","images/stimuli/spore_stims/simple_10_A_b.gif","images/stimuli/spore_stims/simple_03_A_d.gif","","","","","2","simple_dissimilar","images/stimuli/spore_stims/simple_10_A_b.gif","middle","","","","",""
"","null","html-keyboard-response","56","229762","0.0-14.0-0.6","SS1613138250876","","","null","","","","","<p><img src= images/blank.png width =""200"" height = ""200"" style = ""float:right""></p><p><img src=images/blank.png width =""800"" height = ""200""></p>","","","","","","","","","","","",""
"","324.76499999756925","sequential-stimulus-presentation","57","230901","0.0-14.0-1.6","SS1613138250876","trial","","40","800","1124.7649999975692","images/stimuli/spore_stims/simple_10_A_b.gif","images/stimuli/spore_stims/simple_03_A_d.gif","","","","","2","simple_dissimilar","images/stimuli/spore_stims/simple_03_A_d.gif","left","","","","",""
"","null","html-keyboard-response","58","231712","0.0-14.0-0.7","SS1613138250876","","","null","","","","","<p><img src= images/blank.png width =""200"" height = ""200"" style = ""float:right""></p><p><img src=images/blank.png width =""800"" height = ""200""></p>","","","","","","","","","","","",""
"","153.05500000249594","sequential-stimulus-presentation","59","232747","0.0-14.0-1.7","SS1613138250876","trial","","40","800","953.055000002496","images/stimuli/spore_stims/simple_10_A_b.gif","images/stimuli/spore_stims/simple_03_A_d.gif","","","","","2","simple_dissimilar","images/stimuli/spore_stims/simple_03_A_d.gif","left","","","","",""
"","736.6549999860581","html-keyboard-response","60","233489","0.0-15.0","SS1613138250876","pref_question","","49","","","","","<video width ='960' height = '540' style='padding-top:8%' autoplay muted><source src='images/stimuli/wall_pref.mp4' type='video/mp4'></video>","1","left","25%","2","","","","","","","",""
"","347.94000000692904","sequential-stimulus-presentation","61","234644","0.0-16.0","SS1613138250876","pref_reveal","","40","800","1147.940000006929","null","null","","","","","2","","","","background","","","",""
"","null","html-keyboard-response","62","235729","0.0-17.0-0.0","SS1613138250876","","","null","","","","","<p><img src= images/blank.png width =""200"" height = ""200"" style = ""float:right""></p><p><img src=images/blank.png width =""800"" height = ""200""></p>","","","","","","","","","","","",""
"","43.4149999928195","sequential-stimulus-presentation","63","236598","0.0-17.0-1.0","SS1613138250876","trial","","40","800","843.4149999928195","images/stimuli/spore_stims/complex_20_A_c.gif","images/stimuli/spore_stims/complex_20_B_c.gif","","","","","3","complex_similar","images/stimuli/spore_stims/complex_20_B_c.gif","right","","","","",""
"","null","html-keyboard-response","64","237566","0.0-17.0-0.1","SS1613138250876","","","null","","","","","<p><img src= images/blank.png width =""200"" height = ""200"" style = ""float:right""></p><p><img src=images/blank.png width =""800"" height = ""200""></p>","","","","","","","","","","","",""
"","228.42500000842847","sequential-stimulus-presentation","65","238653","0.0-17.0-1.1","SS1613138250876","trial","","40","800","1028.4250000084285","images/stimuli/spore_stims/complex_20_A_c.gif","images/stimuli/spore_stims/complex_20_B_c.gif","","","","","3","complex_similar","images/stimuli/spore_stims/complex_20_B_c.gif","right","","","","",""
"","null","html-keyboard-response","66","239813","0.0-17.0-0.2","SS1613138250876","","","null","","","","","<p><img src= images/blank.png width =""200"" height = ""200"" style = ""float:right""></p><p><img src=images/blank.png width =""800"" height = ""200""></p>","","","","","","","","","","","",""
"","354.49499997776","sequential-stimulus-presentation","67","240984","0.0-17.0-1.2","SS1613138250876","trial","","40","800","1154.49499997776","images/stimuli/spore_stims/complex_20_A_c.gif","images/stimuli/spore_stims/complex_20_B_c.gif","","","","","3","complex_similar","images/stimuli/spore_stims/complex_20_B_c.gif","right","","","","",""
"","null","html-keyboard-response","68","241933","0.0-17.0-0.3","SS1613138250876","","","null","","","","","<p><img src= images/blank.png width =""200"" height = ""200"" style = ""float:right""></p><p><img src=images/blank.png width =""800"" height = ""200""></p>","","","","","","","","","","","",""
"","572.0900000014808","sequential-stimulus-presentation","69","243329","0.0-17.0-1.3","SS1613138250876","trial","","40","800","1372.0900000014808","images/stimuli/spore_stims/complex_20_A_c.gif","images/stimuli/spore_stims/complex_20_B_c.gif","","","","","3","complex_similar","images/stimuli/spore_stims/complex_20_A_c.gif","left","","","","",""
"","null","html-keyboard-response","70","244552","0.0-17.0-0.4","SS1613138250876","","","null","","","","","<p><img src= images/blank.png width =""200"" height = ""200"" style = ""float:right""></p><p><img src=images/blank.png width =""800"" height = ""200""></p>","","","","","","","","","","","",""
"","33.77000000909902","sequential-stimulus-presentation","71","245397","0.0-17.0-1.4","SS1613138250876","trial","","40","800","833.770000009099","images/stimuli/spore_stims/complex_20_A_c.gif","images/stimuli/spore_stims/complex_20_B_c.gif","","","","","3","complex_similar","images/stimuli/spore_stims/complex_20_B_c.gif","right","","","","",""
"","null","html-keyboard-response","72","246432","0.0-17.0-0.5","SS1613138250876","","","null","","","","","<p><img src= images/blank.png width =""200"" height = ""200"" style = ""float:right""></p><p><img src=images/blank.png width =""800"" height = ""200""></p>","","","","","","","","","","","",""
"","238.95500000799075","sequential-stimulus-presentation","73","247480","0.0-17.0-1.5","SS1613138250876","trial","","40","800","1038.9550000079907","images/stimuli/spore_stims/complex_20_A_c.gif","images/stimuli/spore_stims/complex_20_B_c.gif","","","","","3","complex_similar","images/stimuli/spore_stims/complex_20_B_c.gif","right","","","","",""
"","null","html-keyboard-response","74","248609","0.0-17.0-0.6","SS1613138250876","","","null","","","","","<p><img src= images/blank.png width =""200"" height = ""200"" style = ""float:right""></p><p><img src=images/blank.png width =""800"" height = ""200""></p>","","","","","","","","","","","",""
"","325.4050000105053","sequential-stimulus-presentation","75","249751","0.0-17.0-1.6","SS1613138250876","trial","","40","800","1125.4050000105053","images/stimuli/spore_stims/complex_20_A_c.gif","images/stimuli/spore_stims/complex_20_B_c.gif","","","","","3","complex_similar","images/stimuli/spore_stims/complex_20_B_c.gif","right","","","","",""
"","null","html-keyboard-response","76","250814","0.0-17.0-0.7","SS1613138250876","","","null","","","","","<p><img src= images/blank.png width =""200"" height = ""200"" style = ""float:right""></p><p><img src=images/blank.png width =""800"" height = ""200""></p>","","","","","","","","","","","",""
"","334.55500000854954","sequential-stimulus-presentation","77","251965","0.0-17.0-1.7","SS1613138250876","trial","","40","800","1134.5550000085495","images/stimuli/spore_stims/complex_20_A_c.gif","images/stimuli/spore_stims/complex_20_B_c.gif","","","","","3","complex_similar","images/stimuli/spore_stims/complex_20_B_c.gif","right","","","","",""
"","127.0350000122562","html-keyboard-response","78","252098","0.0-18.0","SS1613138250876","pref_question","","51","","","","","<video width ='960' height = '540' style='padding-top:8%' autoplay muted><source src='images/stimuli/wall_pref.mp4' type='video/mp4'></video>","3","right","66%","3","","","","","","","",""
"","297.355000016978","sequential-stimulus-presentation","79","253204","0.0-19.0","SS1613138250876","pref_reveal","","40","800","1097.355000016978","null","null","","","","","3","","","","background","","","",""
"","null","html-keyboard-response","80","254293","0.0-20.0-0.0","SS1613138250876","","","null","","","","","<p><img src= images/blank.png width =""200"" height = ""200"" style = ""float:right""></p><p><img src=images/blank.png width =""800"" height = ""200""></p>","","","","","","","","","","","",""
"","17.740000010235235","sequential-stimulus-presentation","81","255132","0.0-20.0-1.0","SS1613138250876","trial","","40","800","817.7400000102352","images/stimuli/spore_stims/simple_17_A_c.gif","images/stimuli/spore_stims/simple_17_B_c.gif","","","","","4","simple_similar","images/stimuli/spore_stims/simple_17_B_c.gif","right","","","","",""
"","null","html-keyboard-response","82","256390","0.0-20.0-0.1","SS1613138250876","","","null","","","","","<p><img src= images/blank.png width =""200"" height = ""200"" style = ""float:right""></p><p><img src=images/blank.png width =""800"" height = ""200""></p>","","","","","","","","","","","",""
"","2030.609999987064","sequential-stimulus-presentation","83","259239","0.0-20.0-1.1","SS1613138250876","trial","","40","800","2830.609999987064","images/stimuli/spore_stims/simple_17_A_c.gif","images/stimuli/spore_stims/simple_17_B_c.gif","","","","","4","simple_similar","images/stimuli/spore_stims/simple_17_B_c.gif","right","","","","",""
"","null","html-keyboard-response","84","260164","0.0-20.0-0.2","SS1613138250876","","","null","","","","","<p><img src= images/blank.png width =""200"" height = ""200"" style = ""float:right""></p><p><img src=images/blank.png width =""800"" height = ""200""></p>","","","","","","","","","","","",""
"","453.09500000439584","sequential-stimulus-presentation","85","261429","0.0-20.0-1.2","SS1613138250876","trial","","40","800","1253.0950000043958","images/stimuli/spore_stims/simple_17_A_c.gif","images/stimuli/spore_stims/simple_17_B_c.gif","","","","","4","simple_similar","images/stimuli/spore_stims/simple_17_B_c.gif","right","","","","",""
"","null","html-keyboard-response","86","262678","0.0-20.0-0.3","SS1613138250876","","","null","","","","","<p><img src= images/blank.png width =""200"" height = ""200"" style = ""float:right""></p><p><img src=images/blank.png width =""800"" height = ""200""></p>","","","","","","","","","","","",""
"","406.9199999794364","sequential-stimulus-presentation","87","263901","0.0-20.0-1.3","SS1613138250876","trial","","40","800","1206.9199999794364","images/stimuli/spore_stims/simple_17_A_c.gif","images/stimuli/spore_stims/simple_17_B_c.gif","","","","","4","simple_similar","images/stimuli/spore_stims/simple_17_B_c.gif","right","","","","",""
"","null","html-keyboard-response","88","264721","0.0-20.0-0.4","SS1613138250876","","","null","","","","","<p><img src= images/blank.png width =""200"" height = ""200"" style = ""float:right""></p><p><img src=images/blank.png width =""800"" height = ""200""></p>","","","","","","","","","","","",""
"","536.2049999821465","sequential-stimulus-presentation","89","266068","0.0-20.0-1.4","SS1613138250876","trial","","40","800","1336.2049999821465","images/stimuli/spore_stims/simple_17_A_c.gif","images/stimuli/spore_stims/simple_17_B_c.gif","","","","","4","simple_similar","images/stimuli/spore_stims/simple_17_B_c.gif","right","","","","",""
"","null","html-keyboard-response","90","267305","0.0-20.0-0.5","SS1613138250876","","","null","","","","","<p><img src= images/blank.png width =""200"" height = ""200"" style = ""float:right""></p><p><img src=images/blank.png width =""800"" height = ""200""></p>","","","","","","","","","","","",""
"","2176.934999995865","sequential-stimulus-presentation","91","270300","0.0-20.0-1.5","SS1613138250876","trial","","40","800","2976.934999995865","images/stimuli/spore_stims/simple_17_A_c.gif","images/stimuli/spore_stims/simple_17_B_c.gif","","","","","4","simple_similar","images/stimuli/spore_stims/simple_17_B_c.gif","right","","","","",""
"","null","html-keyboard-response","92","271344","0.0-20.0-0.6","SS1613138250876","","","null","","","","","<p><img src= images/blank.png width =""200"" height = ""200"" style = ""float:right""></p><p><img src=images/blank.png width =""800"" height = ""200""></p>","","","","","","","","","","","",""
"","11565.759999997681","sequential-stimulus-presentation","93","283725","0.0-20.0-1.6","SS1613138250876","trial","","40","800","12365.759999997681","images/stimuli/spore_stims/simple_17_A_c.gif","images/stimuli/spore_stims/simple_17_B_c.gif","","","","","4","simple_similar","images/stimuli/spore_stims/simple_17_A_c.gif","left","","","","",""
"","null","html-keyboard-response","94","284727","0.0-20.0-0.7","SS1613138250876","","","null","","","","","<p><img src= images/blank.png width =""200"" height = ""200"" style = ""float:right""></p><p><img src=images/blank.png width =""800"" height = ""200""></p>","","","","","","","","","","","",""
"","1327.0999999949709","sequential-stimulus-presentation","95","286870","0.0-20.0-1.7","SS1613138250876","trial","","40","800","2127.099999994971","images/stimuli/spore_stims/simple_17_A_c.gif","images/stimuli/spore_stims/simple_17_B_c.gif","","","","","4","simple_similar","images/stimuli/spore_stims/simple_17_B_c.gif","right","","","","",""
"","1864.065000001574","html-keyboard-response","96","288741","0.0-21.0","SS1613138250876","pref_question","","49","","","","","<video width ='960' height = '540' style='padding-top:8%' autoplay muted><source src='images/stimuli/wall_pref.mp4' type='video/mp4'></video>","1","left","25%","4","","","","","","","",""
"","1506.2399999878835","sequential-stimulus-presentation","97","291061","0.0-22.0","SS1613138250876","pref_reveal","","40","800","2306.2399999878835","null","null","","","","","4","","","","deviant","","","",""
"","null","html-keyboard-response","98","291877","0.0-23.0-0.0","SS1613138250876","","","null","","","","","<p><img src= images/blank.png width =""200"" height = ""200"" style = ""float:right""></p><p><img src=images/blank.png width =""800"" height = ""200""></p>","","","","","","","","","","","",""
"","2068.570000003092","sequential-stimulus-presentation","99","294775","0.0-23.0-1.0","SS1613138250876","trial","","40","800","2868.570000003092","images/stimuli/spore_stims/complex_18_B_d.gif","images/stimuli/spore_stims/complex_18_A_d.gif","","","","","5","complex_similar","images/stimuli/spore_stims/complex_18_A_d.gif","middle","","","","",""
"","null","html-keyboard-response","100","295855","0.0-23.0-0.1","SS1613138250876","","","null","","","","","<p><img src= images/blank.png width =""200"" height = ""200"" style = ""float:right""></p><p><img src=images/blank.png width =""800"" height = ""200""></p>","","","","","","","","","","","",""
"","173.13999999896623","sequential-stimulus-presentation","101","296853","0.0-23.0-1.1","SS1613138250876","trial","","40","800","973.1399999989662","images/stimuli/spore_stims/complex_18_B_d.gif","images/stimuli/spore_stims/complex_18_A_d.gif","","","","","5","complex_similar","images/stimuli/spore_stims/complex_18_A_d.gif","middle","","","","",""
"","null","html-keyboard-response","102","297712","0.0-23.0-0.2","SS1613138250876","","","null","","","","","<p><img src= images/blank.png width =""200"" height = ""200"" style = ""float:right""></p><p><img src=images/blank.png width =""800"" height = ""200""></p>","","","","","","","","","","","",""
"","1214.4649999972899","sequential-stimulus-presentation","103","299774","0.0-23.0-1.2","SS1613138250876","trial","","40","800","2014.4649999972899","images/stimuli/spore_stims/complex_18_B_d.gif","images/stimuli/spore_stims/complex_18_A_d.gif","","","","","5","complex_similar","images/stimuli/spore_stims/complex_18_B_d.gif","left","","","","",""
"","null","html-keyboard-response","104","301021","0.0-23.0-0.3","SS1613138250876","","","null","","","","","<p><img src= images/blank.png width =""200"" height = ""200"" style = ""float:right""></p><p><img src=images/blank.png width =""800"" height = ""200""></p>","","","","","","","","","","","",""
"","1009.8799999977928","sequential-stimulus-presentation","105","302846","0.0-23.0-1.3","SS1613138250876","trial","","40","800","1809.8799999977928","images/stimuli/spore_stims/complex_18_B_d.gif","images/stimuli/spore_stims/complex_18_A_d.gif","","","","","5","complex_similar","images/stimuli/spore_stims/complex_18_A_d.gif","middle","","","","",""
"","null","html-keyboard-response","106","303683","0.0-23.0-0.4","SS1613138250876","","","null","","","","","<p><img src= images/blank.png width =""200"" height = ""200"" style = ""float:right""></p><p><img src=images/blank.png width =""800"" height = ""200""></p>","","","","","","","","","","","",""
"","1819.0400000021327","sequential-stimulus-presentation","107","306323","0.0-23.0-1.4","SS1613138250876","trial","","40","800","2619.0400000021327","images/stimuli/spore_stims/complex_18_B_d.gif","images/stimuli/spore_stims/complex_18_A_d.gif","","","","","5","complex_similar","images/stimuli/spore_stims/complex_18_A_d.gif","middle","","","","",""
"","null","html-keyboard-response","108","307280","0.0-23.0-0.5","SS1613138250876","","","null","","","","","<p><img src= images/blank.png width =""200"" height = ""200"" style = ""float:right""></p><p><img src=images/blank.png width =""800"" height = ""200""></p>","","","","","","","","","","","",""
"","2862.6600000134204","sequential-stimulus-presentation","109","310958","0.0-23.0-1.5","SS1613138250876","trial","","40","800","3662.6600000134204","images/stimuli/spore_stims/complex_18_B_d.gif","images/stimuli/spore_stims/complex_18_A_d.gif","","","","","5","complex_similar","images/stimuli/spore_stims/complex_18_A_d.gif","middle","","","","",""
"","null","html-keyboard-response","110","311957","0.0-23.0-0.6","SS1613138250876","","","null","","","","","<p><img src= images/blank.png width =""200"" height = ""200"" style = ""float:right""></p><p><img src=images/blank.png width =""800"" height = ""200""></p>","","","","","","","","","","","",""
"","1976.0050000040792","sequential-stimulus-presentation","111","314745","0.0-23.0-1.6","SS1613138250876","trial","","40","800","2776.005000004079","images/stimuli/spore_stims/complex_18_B_d.gif","images/stimuli/spore_stims/complex_18_A_d.gif","","","","","5","complex_similar","images/stimuli/spore_stims/complex_18_A_d.gif","middle","","","","",""
"","null","html-keyboard-response","112","315590","0.0-23.0-0.7","SS1613138250876","","","null","","","","","<p><img src= images/blank.png width =""200"" height = ""200"" style = ""float:right""></p><p><img src=images/blank.png width =""800"" height = ""200""></p>","","","","","","","","","","","",""
"","1691.8950000253972","sequential-stimulus-presentation","113","318198","0.0-23.0-1.7","SS1613138250876","trial","","40","800","2491.895000025397","images/stimuli/spore_stims/complex_18_B_d.gif","images/stimuli/spore_stims/complex_18_A_d.gif","","","","","5","complex_similar","images/stimuli/spore_stims/complex_18_A_d.gif","middle","","","","",""
"","978.2399999967311","html-keyboard-response","114","319182","0.0-24.0","SS1613138250876","pref_question","","49","","","","","<video width ='960' height = '540' style='padding-top:8%' autoplay muted><source src='images/stimuli/wall_pref.mp4' type='video/mp4'></video>","1","left","25%","5","","","","","","","",""
"","511.65499998023733","sequential-stimulus-presentation","115","320504","0.0-25.0","SS1613138250876","pref_reveal","","40","800","1311.6549999802373","null","null","","","","","5","","","","deviant","","","",""
"","null","html-keyboard-response","116","321592","0.0-26.0-0.0","SS1613138250876","","","null","","","","","<p><img src= images/blank.png width =""200"" height = ""200"" style = ""float:right""></p><p><img src=images/blank.png width =""800"" height = ""200""></p>","","","","","","","","","","","",""
"","759.1350000002421","sequential-stimulus-presentation","117","323167","0.0-26.0-1.0","SS1613138250876","trial","","40","800","1559.1350000002421","images/stimuli/spore_stims/simple_15_A_d.gif","images/stimuli/spore_stims/simple_18_B_c.gif","","","","","6","simple_dissimilar","images/stimuli/spore_stims/simple_18_B_c.gif","right","","","","",""
"","null","html-keyboard-response","118","324215","0.0-26.0-0.1","SS1613138250876","","","null","","","","","<p><img src= images/blank.png width =""200"" height = ""200"" style = ""float:right""></p><p><img src=images/blank.png width =""800"" height = ""200""></p>","","","","","","","","","","","",""
"","636.659999989206","sequential-stimulus-presentation","119","325670","0.0-26.0-1.1","SS1613138250876","trial","","40","800","1436.659999989206","images/stimuli/spore_stims/simple_15_A_d.gif","images/stimuli/spore_stims/simple_18_B_c.gif","","","","","6","simple_dissimilar","images/stimuli/spore_stims/simple_18_B_c.gif","right","","","","",""
"","null","html-keyboard-response","120","326914","0.0-26.0-0.2","SS1613138250876","","","null","","","","","<p><img src= images/blank.png width =""200"" height = ""200"" style = ""float:right""></p><p><img src=images/blank.png width =""800"" height = ""200""></p>","","","","","","","","","","","",""
"","442.06000000122003","sequential-stimulus-presentation","121","328170","0.0-26.0-1.2","SS1613138250876","trial","","40","800","1242.06000000122","images/stimuli/spore_stims/simple_15_A_d.gif","images/stimuli/spore_stims/simple_18_B_c.gif","","","","","6","simple_dissimilar","images/stimuli/spore_stims/simple_18_B_c.gif","right","","","","",""
"","null","html-keyboard-response","122","329322","0.0-26.0-0.3","SS1613138250876","","","null","","","","","<p><img src= images/blank.png width =""200"" height = ""200"" style = ""float:right""></p><p><img src=images/blank.png width =""800"" height = ""200""></p>","","","","","","","","","","","",""
"","188.464999984717","sequential-stimulus-presentation","123","330341","0.0-26.0-1.3","SS1613138250876","trial","","40","800","988.464999984717","images/stimuli/spore_stims/simple_15_A_d.gif","images/stimuli/spore_stims/simple_18_B_c.gif","","","","","6","simple_dissimilar","images/stimuli/spore_stims/simple_18_B_c.gif","right","","","","",""
"","null","html-keyboard-response","124","331410","0.0-26.0-0.4","SS1613138250876","","","null","","","","","<p><img src= images/blank.png width =""200"" height = ""200"" style = ""float:right""></p><p><img src=images/blank.png width =""800"" height = ""200""></p>","","","","","","","","","","","",""
"","129.03000001097098","sequential-stimulus-presentation","125","332374","0.0-26.0-1.4","SS1613138250876","trial","","40","800","929.030000010971","images/stimuli/spore_stims/simple_15_A_d.gif","images/stimuli/spore_stims/simple_18_B_c.gif","","","","","6","simple_dissimilar","images/stimuli/spore_stims/simple_18_B_c.gif","right","","","","",""
"","null","html-keyboard-response","126","333596","0.0-26.0-0.5","SS1613138250876","","","null","","","","","<p><img src= images/blank.png width =""200"" height = ""200"" style = ""float:right""></p><p><img src=images/blank.png width =""800"" height = ""200""></p>","","","","","","","","","","","",""
"","109.66000001644716","sequential-stimulus-presentation","127","334518","0.0-26.0-1.5","SS1613138250876","trial","","40","800","909.6600000164472","images/stimuli/spore_stims/simple_15_A_d.gif","images/stimuli/spore_stims/simple_18_B_c.gif","","","","","6","simple_dissimilar","images/stimuli/spore_stims/simple_15_A_d.gif","left","","","","",""
"","null","html-keyboard-response","128","335581","0.0-26.0-0.6","SS1613138250876","","","null","","","","","<p><img src= images/blank.png width =""200"" height = ""200"" style = ""float:right""></p><p><img src=images/blank.png width =""800"" height = ""200""></p>","","","","","","","","","","","",""
"","147.30000001145527","sequential-stimulus-presentation","129","336561","0.0-26.0-1.6","SS1613138250876","trial","","40","800","947.3000000114553","images/stimuli/spore_stims/simple_15_A_d.gif","images/stimuli/spore_stims/simple_18_B_c.gif","","","","","6","simple_dissimilar","images/stimuli/spore_stims/simple_18_B_c.gif","right","","","","",""
"","null","html-keyboard-response","130","337620","0.0-26.0-0.7","SS1613138250876","","","null","","","","","<p><img src= images/blank.png width =""200"" height = ""200"" style = ""float:right""></p><p><img src=images/blank.png width =""800"" height = ""200""></p>","","","","","","","","","","","",""
"","278.70500000426546","sequential-stimulus-presentation","131","338720","0.0-26.0-1.7","SS1613138250876","trial","","40","800","1078.7050000042655","images/stimuli/spore_stims/simple_15_A_d.gif","images/stimuli/spore_stims/simple_18_B_c.gif","","","","","6","simple_dissimilar","images/stimuli/spore_stims/simple_18_B_c.gif","right","","","","",""
"","131.7599999892991","html-keyboard-response","132","338857","0.0-27.0","SS1613138250876","pref_question","","49","","","","","<video width ='960' height = '540' style='padding-top:8%' autoplay muted><source src='images/stimuli/wall_pref.mp4' type='video/mp4'></video>","1","left","25%","6","","","","","","","",""
"","152.19499997328967","sequential-stimulus-presentation","133","339839","0.0-28.0","SS1613138250876","pref_reveal","","40","800","952.1949999732897","null","null","","","","","6","","","","deviant","","","",""
"","null","html-keyboard-response","134","341096","0.0-29.0-0.0","SS1613138250876","","","null","","","","","<p><img src= images/blank.png width =""200"" height = ""200"" style = ""float:right""></p><p><img src=images/blank.png width =""800"" height = ""200""></p>","","","","","","","","","","","",""
"","139.7700000088662","sequential-stimulus-presentation","135","342050","0.0-29.0-1.0","SS1613138250876","trial","","40","800","939.7700000088662","images/stimuli/spore_stims/complex_07_A_a.gif","images/stimuli/spore_stims/complex_07_B_a.gif","","","","","7","complex_similar","images/stimuli/spore_stims/complex_07_B_a.gif","left","","","","",""
"","null","html-keyboard-response","136","342953","0.0-29.0-0.1","SS1613138250876","","","null","","","","","<p><img src= images/blank.png width =""200"" height = ""200"" style = ""float:right""></p><p><img src=images/blank.png width =""800"" height = ""200""></p>","","","","","","","","","","","",""
"","241.47000000812113","sequential-stimulus-presentation","137","344006","0.0-29.0-1.1","SS1613138250876","trial","","40","800","1041.4700000081211","images/stimuli/spore_stims/complex_07_A_a.gif","images/stimuli/spore_stims/complex_07_B_a.gif","","","","","7","complex_similar","images/stimuli/spore_stims/complex_07_B_a.gif","left","","","","",""
"","null","html-keyboard-response","138","344886","0.0-29.0-0.2","SS1613138250876","","","null","","","","","<p><img src= images/blank.png width =""200"" height = ""200"" style = ""float:right""></p><p><img src=images/blank.png width =""800"" height = ""200""></p>","","","","","","","","","","","",""
"","166.58999997889623","sequential-stimulus-presentation","139","345889","0.0-29.0-1.2","SS1613138250876","trial","","40","800","966.5899999788962","images/stimuli/spore_stims/complex_07_A_a.gif","images/stimuli/spore_stims/complex_07_B_a.gif","","","","","7","complex_similar","images/stimuli/spore_stims/complex_07_B_a.gif","left","","","","",""
"","null","html-keyboard-response","140","347004","0.0-29.0-0.3","SS1613138250876","","","null","","","","","<p><img src= images/blank.png width =""200"" height = ""200"" style = ""float:right""></p><p><img src=images/blank.png width =""800"" height = ""200""></p>","","","","","","","","","","","",""
"","162.5800000037998","sequential-stimulus-presentation","141","347983","0.0-29.0-1.3","SS1613138250876","trial","","40","800","962.5800000037998","images/stimuli/spore_stims/complex_07_A_a.gif","images/stimuli/spore_stims/complex_07_B_a.gif","","","","","7","complex_similar","images/stimuli/spore_stims/complex_07_B_a.gif","left","","","","",""
"","null","html-keyboard-response","142","349250","0.0-29.0-0.4","SS1613138250876","","","null","","","","","<p><img src= images/blank.png width =""200"" height = ""200"" style = ""float:right""></p><p><img src=images/blank.png width =""800"" height = ""200""></p>","","","","","","","","","","","",""
"","306.429999996908","sequential-stimulus-presentation","143","350371","0.0-29.0-1.4","SS1613138250876","trial","","40","800","1106.429999996908","images/stimuli/spore_stims/complex_07_A_a.gif","images/stimuli/spore_stims/complex_07_B_a.gif","","","","","7","complex_similar","images/stimuli/spore_stims/complex_07_A_a.gif","middle","","","","",""
"","null","html-keyboard-response","144","351363","0.0-29.0-0.5","SS1613138250876","","","null","","","","","<p><img src= images/blank.png width =""200"" height = ""200"" style = ""float:right""></p><p><img src=images/blank.png width =""800"" height = ""200""></p>","","","","","","","","","","","",""
"","92.71999998600222","sequential-stimulus-presentation","145","352272","0.0-29.0-1.5","SS1613138250876","trial","","40","800","892.7199999860022","images/stimuli/spore_stims/complex_07_A_a.gif","images/stimuli/spore_stims/complex_07_B_a.gif","","","","","7","complex_similar","images/stimuli/spore_stims/complex_07_B_a.gif","left","","","","",""
"","null","html-keyboard-response","146","353341","0.0-29.0-0.6","SS1613138250876","","","null","","","","","<p><img src= images/blank.png width =""200"" height = ""200"" style = ""float:right""></p><p><img src=images/blank.png width =""800"" height = ""200""></p>","","","","","","","","","","","",""
"","258.6850000079721","sequential-stimulus-presentation","147","354470","0.0-29.0-1.6","SS1613138250876","trial","","40","800","1058.6850000079721","images/stimuli/spore_stims/complex_07_A_a.gif","images/stimuli/spore_stims/complex_07_B_a.gif","","","","","7","complex_similar","images/stimuli/spore_stims/complex_07_B_a.gif","left","","","","",""
"","null","html-keyboard-response","148","355418","0.0-29.0-0.7","SS1613138250876","","","null","","","","","<p><img src= images/blank.png width =""200"" height = ""200"" style = ""float:right""></p><p><img src=images/blank.png width =""800"" height = ""200""></p>","","","","","","","","","","","",""
"","194.98999998904765","sequential-stimulus-presentation","149","356423","0.0-29.0-1.7","SS1613138250876","trial","","40","800","994.9899999890476","images/stimuli/spore_stims/complex_07_A_a.gif","images/stimuli/spore_stims/complex_07_B_a.gif","","","","","7","complex_similar","images/stimuli/spore_stims/complex_07_B_a.gif","left","","","","",""
"","44.41000000224449","html-keyboard-response","150","356476","0.0-30.0","SS1613138250876","pref_question","","50","","","","","<video width ='960' height = '540' style='padding-top:8%' autoplay muted><source src='images/stimuli/wall_pref.mp4' type='video/mp4'></video>","2","middle","45%","7","","","","","","","",""
"","238.86499999207444","sequential-stimulus-presentation","151","357530","0.0-31.0","SS1613138250876","pref_reveal","","40","800","1038.8649999920744","null","null","","","","","7","","","","deviant","","","",""
"","null","html-keyboard-response","152","358582","0.0-32.0-0.0","SS1613138250876","","","null","","","","","<p><img src= images/blank.png width =""200"" height = ""200"" style = ""float:right""></p><p><img src=images/blank.png width =""800"" height = ""200""></p>","","","","","","","","","","","",""
"","10.444999992614612","sequential-stimulus-presentation","153","359406","0.0-32.0-1.0","SS1613138250876","trial","","40","800","810.4449999926146","images/stimuli/spore_stims/complex_04_B_a.gif","images/stimuli/spore_stims/complex_15_B_b.gif","","","","","8","complex_dissimilar","images/stimuli/spore_stims/complex_15_B_b.gif","right","","","","",""
"","null","html-keyboard-response","154","360217","0.0-32.0-0.1","SS1613138250876","","","null","","","","","<p><img src= images/blank.png width =""200"" height = ""200"" style = ""float:right""></p><p><img src=images/blank.png width =""800"" height = ""200""></p>","","","","","","","","","","","",""
"","235.47499999403954","sequential-stimulus-presentation","155","361266","0.0-32.0-1.1","SS1613138250876","trial","","40","800","1035.4749999940395","images/stimuli/spore_stims/complex_04_B_a.gif","images/stimuli/spore_stims/complex_15_B_b.gif","","","","","8","complex_dissimilar","images/stimuli/spore_stims/complex_15_B_b.gif","right","","","","",""
"","null","html-keyboard-response","156","362323","0.0-32.0-0.2","SS1613138250876","","","null","","","","","<p><img src= images/blank.png width =""200"" height = ""200"" style = ""float:right""></p><p><img src=images/blank.png width =""800"" height = ""200""></p>","","","","","","","","","","","",""
"","232.21000001649372","sequential-stimulus-presentation","157","363373","0.0-32.0-1.2","SS1613138250876","trial","","40","800","1032.2100000164937","images/stimuli/spore_stims/complex_04_B_a.gif","images/stimuli/spore_stims/complex_15_B_b.gif","","","","","8","complex_dissimilar","images/stimuli/spore_stims/complex_15_B_b.gif","right","","","","",""
"","null","html-keyboard-response","158","364482","0.0-32.0-0.3","SS1613138250876","","","null","","","","","<p><img src= images/blank.png width =""200"" height = ""200"" style = ""float:right""></p><p><img src=images/blank.png width =""800"" height = ""200""></p>","","","","","","","","","","","",""
"","83.50000000791624","sequential-stimulus-presentation","159","365375","0.0-32.0-1.3","SS1613138250876","trial","","40","800","883.5000000079162","images/stimuli/spore_stims/complex_04_B_a.gif","images/stimuli/spore_stims/complex_15_B_b.gif","","","","","8","complex_dissimilar","images/stimuli/spore_stims/complex_15_B_b.gif","right","","","","",""
"","null","html-keyboard-response","160","366247","0.0-32.0-0.4","SS1613138250876","","","null","","","","","<p><img src= images/blank.png width =""200"" height = ""200"" style = ""float:right""></p><p><img src=images/blank.png width =""800"" height = ""200""></p>","","","","","","","","","","","",""
"","1057.8399999940302","sequential-stimulus-presentation","161","368119","0.0-32.0-1.4","SS1613138250876","trial","","40","800","1857.8399999940302","images/stimuli/spore_stims/complex_04_B_a.gif","images/stimuli/spore_stims/complex_15_B_b.gif","","","","","8","complex_dissimilar","images/stimuli/spore_stims/complex_15_B_b.gif","right","","","","",""
"","null","html-keyboard-response","162","369164","0.0-32.0-0.5","SS1613138250876","","","null","","","","","<p><img src= images/blank.png width =""200"" height = ""200"" style = ""float:right""></p><p><img src=images/blank.png width =""800"" height = ""200""></p>","","","","","","","","","","","",""
"","24314.389999984996","sequential-stimulus-presentation","163","394303","0.0-32.0-1.5","SS1613138250876","trial","","40","800","25114.389999984996","images/stimuli/spore_stims/complex_04_B_a.gif","images/stimuli/spore_stims/complex_15_B_b.gif","","","","","8","complex_dissimilar","images/stimuli/spore_stims/complex_15_B_b.gif","right","","","","",""
"","null","html-keyboard-response","164","395369","0.0-32.0-0.6","SS1613138250876","","","null","","","","","<p><img src= images/blank.png width =""200"" height = ""200"" style = ""float:right""></p><p><img src=images/blank.png width =""800"" height = ""200""></p>","","","","","","","","","","","",""
"","96.67500000796281","sequential-stimulus-presentation","165","396280","0.0-32.0-1.6","SS1613138250876","trial","","40","800","896.6750000079628","images/stimuli/spore_stims/complex_04_B_a.gif","images/stimuli/spore_stims/complex_15_B_b.gif","","","","","8","complex_dissimilar","images/stimuli/spore_stims/complex_04_B_a.gif","middle","","","","",""
"","null","html-keyboard-response","166","397540","0.0-32.0-0.7","SS1613138250876","","","null","","","","","<p><img src= images/blank.png width =""200"" height = ""200"" style = ""float:right""></p><p><img src=images/blank.png width =""800"" height = ""200""></p>","","","","","","","","","","","",""
"","166.92499999771826","sequential-stimulus-presentation","167","398534","0.0-32.0-1.7","SS1613138250876","trial","","40","800","966.9249999977183","images/stimuli/spore_stims/complex_04_B_a.gif","images/stimuli/spore_stims/complex_15_B_b.gif","","","","","8","complex_dissimilar","images/stimuli/spore_stims/complex_15_B_b.gif","right","","","","",""
"","6052.215000003343","html-keyboard-response","168","404592","0.0-33.0","SS1613138250876","pref_question","","49","","","","","<video width ='960' height = '540' style='padding-top:8%' autoplay muted><source src='images/stimuli/wall_pref.mp4' type='video/mp4'></video>","1","left","25%","8","","","","","","","",""
"","324.00500000221655","sequential-stimulus-presentation","169","405728","0.0-34.0","SS1613138250876","pref_reveal","","40","800","1124.0050000022165","null","null","","","","","8","","","","novel","","","",""
"","null","html-keyboard-response","170","406671","0.0-35.0-0.0","SS1613138250876","","","null","","","","","<p><img src= images/blank.png width =""200"" height = ""200"" style = ""float:right""></p><p><img src=images/blank.png width =""800"" height = ""200""></p>","","","","","","","","","","","",""
"","22.759999992558733","sequential-stimulus-presentation","171","407511","0.0-35.0-1.0","SS1613138250876","trial","","40","800","822.7599999925587","images/stimuli/spore_stims/complex_15_A_d.gif","images/stimuli/spore_stims/complex_14_B_b.gif","","","","","9","complex_dissimilar","images/stimuli/spore_stims/complex_14_B_b.gif","middle","","","","",""
"","null","html-keyboard-response","172","408818","0.0-35.0-0.1","SS1613138250876","","","null","","","","","<p><img src= images/blank.png width =""200"" height = ""200"" style = ""float:right""></p><p><img src=images/blank.png width =""800"" height = ""200""></p>","","","","","","","","","","","",""
"","2.3199999995995313","sequential-stimulus-presentation","173","409743","0.0-35.0-1.1","SS1613138250876","trial","","40","800","802.3199999995995","images/stimuli/spore_stims/complex_15_A_d.gif","images/stimuli/spore_stims/complex_14_B_b.gif","","","","","9","complex_dissimilar","images/stimuli/spore_stims/complex_14_B_b.gif","middle","","","","",""
"","null","html-keyboard-response","174","411028","0.0-35.0-0.2","SS1613138250876","","","null","","","","","<p><img src= images/blank.png width =""200"" height = ""200"" style = ""float:right""></p><p><img src=images/blank.png width =""800"" height = ""200""></p>","","","","","","","","","","","",""
"","14.1050000092946","sequential-stimulus-presentation","175","411851","0.0-35.0-1.2","SS1613138250876","trial","","40","800","814.1050000092946","images/stimuli/spore_stims/complex_15_A_d.gif","images/stimuli/spore_stims/complex_14_B_b.gif","","","","","9","complex_dissimilar","images/stimuli/spore_stims/complex_14_B_b.gif","middle","","","","",""
"","null","html-keyboard-response","176","413124","0.0-35.0-0.3","SS1613138250876","","","null","","","","","<p><img src= images/blank.png width =""200"" height = ""200"" style = ""float:right""></p><p><img src=images/blank.png width =""800"" height = ""200""></p>","","","","","","","","","","","",""
"","191.25000000349246","sequential-stimulus-presentation","177","414128","0.0-35.0-1.3","SS1613138250876","trial","","40","800","991.2500000034925","images/stimuli/spore_stims/complex_15_A_d.gif","images/stimuli/spore_stims/complex_14_B_b.gif","","","","","9","complex_dissimilar","images/stimuli/spore_stims/complex_15_A_d.gif","left","","","","",""
"","null","html-keyboard-response","178","415362","0.0-35.0-0.4","SS1613138250876","","","null","","","","","<p><img src= images/blank.png width =""200"" height = ""200"" style = ""float:right""></p><p><img src=images/blank.png width =""800"" height = ""200""></p>","","","","","","","","","","","",""
"","749.1600000066683","sequential-stimulus-presentation","179","416927","0.0-35.0-1.4","SS1613138250876","trial","","40","800","1549.1600000066683","images/stimuli/spore_stims/complex_15_A_d.gif","images/stimuli/spore_stims/complex_14_B_b.gif","","","","","9","complex_dissimilar","images/stimuli/spore_stims/complex_14_B_b.gif","middle","","","","",""
"","null","html-keyboard-response","180","418092","0.0-35.0-0.5","SS1613138250876","","","null","","","","","<p><img src= images/blank.png width =""200"" height = ""200"" style = ""float:right""></p><p><img src=images/blank.png width =""800"" height = ""200""></p>","","","","","","","","","","","",""
"","139.49499998125248","sequential-stimulus-presentation","181","419055","0.0-35.0-1.5","SS1613138250876","trial","","40","800","939.4949999812525","images/stimuli/spore_stims/complex_15_A_d.gif","images/stimuli/spore_stims/complex_14_B_b.gif","","","","","9","complex_dissimilar","images/stimuli/spore_stims/complex_14_B_b.gif","middle","","","","",""
"","null","html-keyboard-response","182","420351","0.0-35.0-0.6","SS1613138250876","","","null","","","","","<p><img src= images/blank.png width =""200"" height = ""200"" style = ""float:right""></p><p><img src=images/blank.png width =""800"" height = ""200""></p>","","","","","","","","","","","",""
"","419.0599999856204","sequential-stimulus-presentation","183","421593","0.0-35.0-1.6","SS1613138250876","trial","","40","800","1219.0599999856204","images/stimuli/spore_stims/complex_15_A_d.gif","images/stimuli/spore_stims/complex_14_B_b.gif","","","","","9","complex_dissimilar","images/stimuli/spore_stims/complex_14_B_b.gif","middle","","","","",""
"","null","html-keyboard-response","184","422513","0.0-35.0-0.7","SS1613138250876","","","null","","","","","<p><img src= images/blank.png width =""200"" height = ""200"" style = ""float:right""></p><p><img src=images/blank.png width =""800"" height = ""200""></p>","","","","","","","","","","","",""
"","63.86000002385117","sequential-stimulus-presentation","185","423393","0.0-35.0-1.7","SS1613138250876","trial","","40","800","863.8600000238512","images/stimuli/spore_stims/complex_15_A_d.gif","images/stimuli/spore_stims/complex_14_B_b.gif","","","","","9","complex_dissimilar","images/stimuli/spore_stims/complex_14_B_b.gif","middle","","","","",""
"","174.9050000216812","html-keyboard-response","186","423589","0.0-36.0","SS1613138250876","pref_question","","51","","","","","<video width ='960' height = '540' style='padding-top:8%' autoplay muted><source src='images/stimuli/wall_pref.mp4' type='video/mp4'></video>","3","right","66%","9","","","","","","","",""
"","963.900000002468","sequential-stimulus-presentation","187","425379","0.0-37.0","SS1613138250876","pref_reveal","","40","800","1763.900000002468","null","null","","","","","9","","","","novel","","","",""
"","null","html-keyboard-response","188","426214","0.0-38.0-0.0","SS1613138250876","","","null","","","","","<p><img src= images/blank.png width =""200"" height = ""200"" style = ""float:right""></p><p><img src=images/blank.png width =""800"" height = ""200""></p>","","","","","","","","","","","",""
"","89.37999999034218","sequential-stimulus-presentation","189","427120","0.0-38.0-1.0","SS1613138250876","trial","","40","800","889.3799999903422","images/stimuli/spore_stims/simple_07_B_b.gif","images/stimuli/spore_stims/simple_08_B_a.gif","","","","","10","simple_dissimilar","images/stimuli/spore_stims/simple_08_B_a.gif","left","","","","",""
"","null","html-keyboard-response","190","428322","0.0-38.0-0.1","SS1613138250876","","","null","","","","","<p><img src= images/blank.png width =""200"" height = ""200"" style = ""float:right""></p><p><img src=images/blank.png width =""800"" height = ""200""></p>","","","","","","","","","","","",""
"","0.6649999995715916","sequential-stimulus-presentation","191","429139","0.0-38.0-1.1","SS1613138250876","trial","","40","800","800.6649999995716","images/stimuli/spore_stims/simple_07_B_b.gif","images/stimuli/spore_stims/simple_08_B_a.gif","","","","","10","simple_dissimilar","images/stimuli/spore_stims/simple_08_B_a.gif","left","","","","",""
"","null","html-keyboard-response","192","430293","0.0-38.0-0.2","SS1613138250876","","","null","","","","","<p><img src= images/blank.png width =""200"" height = ""200"" style = ""float:right""></p><p><img src=images/blank.png width =""800"" height = ""200""></p>","","","","","","","","","","","",""
"","95.10500001488253","sequential-stimulus-presentation","193","431257","0.0-38.0-1.2","SS1613138250876","trial","","40","800","895.1050000148825","images/stimuli/spore_stims/simple_07_B_b.gif","images/stimuli/spore_stims/simple_08_B_a.gif","","","","","10","simple_dissimilar","images/stimuli/spore_stims/simple_08_B_a.gif","left","","","","",""
"","null","html-keyboard-response","194","432543","0.0-38.0-0.3","SS1613138250876","","","null","","","","","<p><img src= images/blank.png width =""200"" height = ""200"" style = ""float:right""></p><p><img src=images/blank.png width =""800"" height = ""200""></p>","","","","","","","","","","","",""
"","144.61499999742955","sequential-stimulus-presentation","195","433519","0.0-38.0-1.3","SS1613138250876","trial","","40","800","944.6149999974295","images/stimuli/spore_stims/simple_07_B_b.gif","images/stimuli/spore_stims/simple_08_B_a.gif","","","","","10","simple_dissimilar","images/stimuli/spore_stims/simple_08_B_a.gif","left","","","","",""
"","null","html-keyboard-response","196","434793","0.0-38.0-0.4","SS1613138250876","","","null","","","","","<p><img src= images/blank.png width =""200"" height = ""200"" style = ""float:right""></p><p><img src=images/blank.png width =""800"" height = ""200""></p>","","","","","","","","","","","",""
"","31.579999980749562","sequential-stimulus-presentation","197","435644","0.0-38.0-1.4","SS1613138250876","trial","","40","800","831.5799999807496","images/stimuli/spore_stims/simple_07_B_b.gif","images/stimuli/spore_stims/simple_08_B_a.gif","","","","","10","simple_dissimilar","images/stimuli/spore_stims/simple_08_B_a.gif","left","","","","",""
"","null","html-keyboard-response","198","436890","0.0-38.0-0.5","SS1613138250876","","","null","","","","","<p><img src= images/blank.png width =""200"" height = ""200"" style = ""float:right""></p><p><img src=images/blank.png width =""800"" height = ""200""></p>","","","","","","","","","","","",""
"","78.53999998769723","sequential-stimulus-presentation","199","437789","0.0-38.0-1.5","SS1613138250876","trial","","40","800","878.5399999876972","images/stimuli/spore_stims/simple_07_B_b.gif","images/stimuli/spore_stims/simple_08_B_a.gif","","","","","10","simple_dissimilar","images/stimuli/spore_stims/simple_07_B_b.gif","right","","","","",""
"","null","html-keyboard-response","200","439006","0.0-38.0-0.6","SS1613138250876","","","null","","","","","<p><img src= images/blank.png width =""200"" height = ""200"" style = ""float:right""></p><p><img src=images/blank.png width =""800"" height = ""200""></p>","","","","","","","","","","","",""
"","161.14999999990687","sequential-stimulus-presentation","201","440039","0.0-38.0-1.6","SS1613138250876","trial","","40","800","961.1499999999069","images/stimuli/spore_stims/simple_07_B_b.gif","images/stimuli/spore_stims/simple_08_B_a.gif","","","","","10","simple_dissimilar","images/stimuli/spore_stims/simple_08_B_a.gif","left","","","","",""
"","null","html-keyboard-response","202","441150","0.0-38.0-0.7","SS1613138250876","","","null","","","","","<p><img src= images/blank.png width =""200"" height = ""200"" style = ""float:right""></p><p><img src=images/blank.png width =""800"" height = ""200""></p>","","","","","","","","","","","",""
"","539.6199999959208","sequential-stimulus-presentation","203","442511","0.0-38.0-1.7","SS1613138250876","trial","","40","800","1339.6199999959208","images/stimuli/spore_stims/simple_07_B_b.gif","images/stimuli/spore_stims/simple_08_B_a.gif","","","","","10","simple_dissimilar","images/stimuli/spore_stims/simple_08_B_a.gif","left","","","","",""
"","1328.6049999878742","html-keyboard-response","204","443847","0.0-39.0","SS1613138250876","pref_question","","49","","","","","<video width ='960' height = '540' style='padding-top:8%' autoplay muted><source src='images/stimuli/wall_pref.mp4' type='video/mp4'></video>","1","left","25%","10","","","","","","","",""
"","6.7399999825283885","sequential-stimulus-presentation","205","444665","0.0-40.0","SS1613138250876","pref_reveal","","40","800","806.7399999825284","null","null","","","","","10","","","","background","","","",""
"","null","html-keyboard-response","206","445758","0.0-41.0-0.0","SS1613138250876","","","null","","","","","<p><img src= images/blank.png width =""200"" height = ""200"" style = ""float:right""></p><p><img src=images/blank.png width =""800"" height = ""200""></p>","","","","","","","","","","","",""
"","197.87999999243766","sequential-stimulus-presentation","207","446770","0.0-41.0-1.0","SS1613138250876","trial","","40","800","997.8799999924377","images/stimuli/spore_stims/complex_03_A_a.gif","images/stimuli/spore_stims/complex_16_A_c.gif","","","","","11","complex_dissimilar","images/stimuli/spore_stims/complex_16_A_c.gif","left","","","","",""
"","null","html-keyboard-response","208","447815","0.0-41.0-0.1","SS1613138250876","","","null","","","","","<p><img src= images/blank.png width =""200"" height = ""200"" style = ""float:right""></p><p><img src=images/blank.png width =""800"" height = ""200""></p>","","","","","","","","","","","",""
"","311.4449999993667","sequential-stimulus-presentation","209","448992","0.0-41.0-1.1","SS1613138250876","trial","","40","800","1111.4449999993667","images/stimuli/spore_stims/complex_03_A_a.gif","images/stimuli/spore_stims/complex_16_A_c.gif","","","","","11","complex_dissimilar","images/stimuli/spore_stims/complex_16_A_c.gif","left","","","","",""
"","null","html-keyboard-response","210","450264","0.0-41.0-0.2","SS1613138250876","","","null","","","","","<p><img src= images/blank.png width =""200"" height = ""200"" style = ""float:right""></p><p><img src=images/blank.png width =""800"" height = ""200""></p>","","","","","","","","","","","",""
"","248.56999999610707","sequential-stimulus-presentation","211","451327","0.0-41.0-1.2","SS1613138250876","trial","","40","800","1048.569999996107","images/stimuli/spore_stims/complex_03_A_a.gif","images/stimuli/spore_stims/complex_16_A_c.gif","","","","","11","complex_dissimilar","images/stimuli/spore_stims/complex_16_A_c.gif","left","","","","",""
"","null","html-keyboard-response","212","452623","0.0-41.0-0.3","SS1613138250876","","","null","","","","","<p><img src= images/blank.png width =""200"" height = ""200"" style = ""float:right""></p><p><img src=images/blank.png width =""800"" height = ""200""></p>","","","","","","","","","","","",""
"","10.985000000800937","sequential-stimulus-presentation","213","453453","0.0-41.0-1.3","SS1613138250876","trial","","40","800","810.9850000008009","images/stimuli/spore_stims/complex_03_A_a.gif","images/stimuli/spore_stims/complex_16_A_c.gif","","","","","11","complex_dissimilar","images/stimuli/spore_stims/complex_16_A_c.gif","left","","","","",""
"","null","html-keyboard-response","214","454684","0.0-41.0-0.4","SS1613138250876","","","null","","","","","<p><img src= images/blank.png width =""200"" height = ""200"" style = ""float:right""></p><p><img src=images/blank.png width =""800"" height = ""200""></p>","","","","","","","","","","","",""
"","127.08999999449588","sequential-stimulus-presentation","215","455633","0.0-41.0-1.4","SS1613138250876","trial","","40","800","927.0899999944959","images/stimuli/spore_stims/complex_03_A_a.gif","images/stimuli/spore_stims/complex_16_A_c.gif","","","","","11","complex_dissimilar","images/stimuli/spore_stims/complex_16_A_c.gif","left","","","","",""
"","null","html-keyboard-response","216","456859","0.0-41.0-0.5","SS1613138250876","","","null","","","","","<p><img src= images/blank.png width =""200"" height = ""200"" style = ""float:right""></p><p><img src=images/blank.png width =""800"" height = ""200""></p>","","","","","","","","","","","",""
"","95.87000001920387","sequential-stimulus-presentation","217","457767","0.0-41.0-1.5","SS1613138250876","trial","","40","800","895.8700000192039","images/stimuli/spore_stims/complex_03_A_a.gif","images/stimuli/spore_stims/complex_16_A_c.gif","","","","","11","complex_dissimilar","images/stimuli/spore_stims/complex_16_A_c.gif","left","","","","",""
"","null","html-keyboard-response","218","458809","0.0-41.0-0.6","SS1613138250876","","","null","","","","","<p><img src= images/blank.png width =""200"" height = ""200"" style = ""float:right""></p><p><img src=images/blank.png width =""800"" height = ""200""></p>","","","","","","","","","","","",""
"","37.21499998937361","sequential-stimulus-presentation","219","459712","0.0-41.0-1.6","SS1613138250876","trial","","40","800","837.2149999893736","images/stimuli/spore_stims/complex_03_A_a.gif","images/stimuli/spore_stims/complex_16_A_c.gif","","","","","11","complex_dissimilar","images/stimuli/spore_stims/complex_03_A_a.gif","right","","","","",""
"","null","html-keyboard-response","220","460535","0.0-41.0-0.7","SS1613138250876","","","null","","","","","<p><img src= images/blank.png width =""200"" height = ""200"" style = ""float:right""></p><p><img src=images/blank.png width =""800"" height = ""200""></p>","","","","","","","","","","","",""
"","15.675000002374873","sequential-stimulus-presentation","221","461365","0.0-41.0-1.7","SS1613138250876","trial","","40","800","815.6750000023749","images/stimuli/spore_stims/complex_03_A_a.gif","images/stimuli/spore_stims/complex_16_A_c.gif","","","","","11","complex_dissimilar","images/stimuli/spore_stims/complex_16_A_c.gif","left","","","","",""
"","737.4799999815878","html-keyboard-response","222","462110","0.0-42.0","SS1613138250876","pref_question","","49","","","","","<video width ='960' height = '540' style='padding-top:8%' autoplay muted><source src='images/stimuli/wall_pref.mp4' type='video/mp4'></video>","1","left","25%","11","","","","","","","",""
"","258.7749999947846","sequential-stimulus-presentation","223","463193","0.0-43.0","SS1613138250876","pref_reveal","","40","800","1058.7749999947846","null","null","","","","","11","","","","background","","","",""
"","null","html-keyboard-response","224","464299","0.0-44.0-0.0","SS1613138250876","","","null","","","","","<p><img src= images/blank.png width =""200"" height = ""200"" style = ""float:right""></p><p><img src=images/blank.png width =""800"" height = ""200""></p>","","","","","","","","","","","",""
"","326.13999999011867","sequential-stimulus-presentation","225","465448","0.0-44.0-1.0","SS1613138250876","trial","","40","800","1126.1399999901187","images/stimuli/spore_stims/complex_11_B_a.gif","images/stimuli/spore_stims/complex_11_A_a.gif","","","","","12","complex_similar","images/stimuli/spore_stims/complex_11_A_a.gif","middle","","","","",""
"","null","html-keyboard-response","226","466730","0.0-44.0-0.1","SS1613138250876","","","null","","","","","<p><img src= images/blank.png width =""200"" height = ""200"" style = ""float:right""></p><p><img src=images/blank.png width =""800"" height = ""200""></p>","","","","","","","","","","","",""
"","119.19500000658445","sequential-stimulus-presentation","227","467666","0.0-44.0-1.1","SS1613138250876","trial","","40","800","919.1950000065845","images/stimuli/spore_stims/complex_11_B_a.gif","images/stimuli/spore_stims/complex_11_A_a.gif","","","","","12","complex_similar","images/stimuli/spore_stims/complex_11_A_a.gif","middle","","","","",""
"","null","html-keyboard-response","228","468640","0.0-44.0-0.2","SS1613138250876","","","null","","","","","<p><img src= images/blank.png width =""200"" height = ""200"" style = ""float:right""></p><p><img src=images/blank.png width =""800"" height = ""200""></p>","","","","","","","","","","","",""
"","465.7699999806937","sequential-stimulus-presentation","229","469917","0.0-44.0-1.2","SS1613138250876","trial","","40","800","1265.7699999806937","images/stimuli/spore_stims/complex_11_B_a.gif","images/stimuli/spore_stims/complex_11_A_a.gif","","","","","12","complex_similar","images/stimuli/spore_stims/complex_11_A_a.gif","middle","","","","",""
"","null","html-keyboard-response","230","471210","0.0-44.0-0.3","SS1613138250876","","","null","","","","","<p><img src= images/blank.png width =""200"" height = ""200"" style = ""float:right""></p><p><img src=images/blank.png width =""800"" height = ""200""></p>","","","","","","","","","","","",""
"","401.8250000081025","sequential-stimulus-presentation","231","472465","0.0-44.0-1.3","SS1613138250876","trial","","40","800","1201.8250000081025","images/stimuli/spore_stims/complex_11_B_a.gif","images/stimuli/spore_stims/complex_11_A_a.gif","","","","","12","complex_similar","images/stimuli/spore_stims/complex_11_B_a.gif","left","","","","",""
"","null","html-keyboard-response","232","473395","0.0-44.0-0.4","SS1613138250876","","","null","","","","","<p><img src= images/blank.png width =""200"" height = ""200"" style = ""float:right""></p><p><img src=images/blank.png width =""800"" height = ""200""></p>","","","","","","","","","","","",""
"","525.0949999899603","sequential-stimulus-presentation","233","474743","0.0-44.0-1.4","SS1613138250876","trial","","40","800","1325.0949999899603","images/stimuli/spore_stims/complex_11_B_a.gif","images/stimuli/spore_stims/complex_11_A_a.gif","","","","","12","complex_similar","images/stimuli/spore_stims/complex_11_A_a.gif","middle","","","","",""
"","null","html-keyboard-response","234","475704","0.0-44.0-0.5","SS1613138250876","","","null","","","","","<p><img src= images/blank.png width =""200"" height = ""200"" style = ""float:right""></p><p><img src=images/blank.png width =""800"" height = ""200""></p>","","","","","","","","","","","",""
"","224.92999999667518","sequential-stimulus-presentation","235","476764","0.0-44.0-1.5","SS1613138250876","trial","","40","800","1024.9299999966752","images/stimuli/spore_stims/complex_11_B_a.gif","images/stimuli/spore_stims/complex_11_A_a.gif","","","","","12","complex_similar","images/stimuli/spore_stims/complex_11_A_a.gif","middle","","","","",""
"","null","html-keyboard-response","236","477671","0.0-44.0-0.6","SS1613138250876","","","null","","","","","<p><img src= images/blank.png width =""200"" height = ""200"" style = ""float:right""></p><p><img src=images/blank.png width =""800"" height = ""200""></p>","","","","","","","","","","","",""
"","384.7750000131782","sequential-stimulus-presentation","237","478872","0.0-44.0-1.6","SS1613138250876","trial","","40","800","1184.7750000131782","images/stimuli/spore_stims/complex_11_B_a.gif","images/stimuli/spore_stims/complex_11_A_a.gif","","","","","12","complex_similar","images/stimuli/spore_stims/complex_11_A_a.gif","middle","","","","",""
"","null","html-keyboard-response","238","479986","0.0-44.0-0.7","SS1613138250876","","","null","","","","","<p><img src= images/blank.png width =""200"" height = ""200"" style = ""float:right""></p><p><img src=images/blank.png width =""800"" height = ""200""></p>","","","","","","","","","","","",""
"","93.15000000060536","sequential-stimulus-presentation","239","480957","0.0-44.0-1.7","SS1613138250876","trial","","40","800","893.1500000006054","images/stimuli/spore_stims/complex_11_B_a.gif","images/stimuli/spore_stims/complex_11_A_a.gif","","","","","12","complex_similar","images/stimuli/spore_stims/complex_11_A_a.gif","middle","","","","",""
"","2204.1599999938626","html-keyboard-response","240","483170","0.0-45.0","SS1613138250876","pref_question","","50","","","","","<video width ='960' height = '540' style='padding-top:8%' autoplay muted><source src='images/stimuli/wall_pref.mp4' type='video/mp4'></video>","2","middle","45%","12","","","","","","","",""
"","553.1450000125915","sequential-stimulus-presentation","241","484545","0.0-46.0","SS1613138250876","pref_reveal","","40","800","1353.1450000125915","null","null","","","","","12","","","","background","","","",""
"","null","html-keyboard-response","242","485743","0.0-47.0-0.0","SS1613138250876","","","null","","","","","<p><img src= images/blank.png width =""200"" height = ""200"" style = ""float:right""></p><p><img src=images/blank.png width =""800"" height = ""200""></p>","","","","","","","","","","","",""
"","274.8399999982212","sequential-stimulus-presentation","243","486841","0.0-47.0-1.0","SS1613138250876","trial","","40","800","1074.8399999982212","images/stimuli/spore_stims/simple_18_A_d.gif","images/stimuli/spore_stims/simple_06_B_a.gif","","","","","13","simple_dissimilar","images/stimuli/spore_stims/simple_06_B_a.gif","right","","","","",""
"","null","html-keyboard-response","244","487708","0.0-47.0-0.1","SS1613138250876","","","null","","","","","<p><img src= images/blank.png width =""200"" height = ""200"" style = ""float:right""></p><p><img src=images/blank.png width =""800"" height = ""200""></p>","","","","","","","","","","","",""
"","377.5949999981094","sequential-stimulus-presentation","245","488896","0.0-47.0-1.1","SS1613138250876","trial","","40","800","1177.5949999981094","images/stimuli/spore_stims/simple_18_A_d.gif","images/stimuli/spore_stims/simple_06_B_a.gif","","","","","13","simple_dissimilar","images/stimuli/spore_stims/simple_06_B_a.gif","right","","","","",""
"","null","html-keyboard-response","246","489795","0.0-47.0-0.2","SS1613138250876","","","null","","","","","<p><img src= images/blank.png width =""200"" height = ""200"" style = ""float:right""></p><p><img src=images/blank.png width =""800"" height = ""200""></p>","","","","","","","","","","","",""
"","240.46499998075888","sequential-stimulus-presentation","247","490865","0.0-47.0-1.2","SS1613138250876","trial","","40","800","1040.4649999807589","images/stimuli/spore_stims/simple_18_A_d.gif","images/stimuli/spore_stims/simple_06_B_a.gif","","","","","13","simple_dissimilar","images/stimuli/spore_stims/simple_06_B_a.gif","right","","","","",""
"","null","html-keyboard-response","248","492175","0.0-47.0-0.3","SS1613138250876","","","null","","","","","<p><img src= images/blank.png width =""200"" height = ""200"" style = ""float:right""></p><p><img src=images/blank.png width =""800"" height = ""200""></p>","","","","","","","","","","","",""
"","218.6000000219792","sequential-stimulus-presentation","249","493216","0.0-47.0-1.3","SS1613138250876","trial","","40","800","1018.6000000219792","images/stimuli/spore_stims/simple_18_A_d.gif","images/stimuli/spore_stims/simple_06_B_a.gif","","","","","13","simple_dissimilar","images/stimuli/spore_stims/simple_06_B_a.gif","right","","","","",""
"","null","html-keyboard-response","250","494100","0.0-47.0-0.4","SS1613138250876","","","null","","","","","<p><img src= images/blank.png width =""200"" height = ""200"" style = ""float:right""></p><p><img src=images/blank.png width =""800"" height = ""200""></p>","","","","","","","","","","","",""
"","3923.9399999787565","sequential-stimulus-presentation","251","498933","0.0-47.0-1.4","SS1613138250876","trial","","40","800","4723.9399999787565","images/stimuli/spore_stims/simple_18_A_d.gif","images/stimuli/spore_stims/simple_06_B_a.gif","","","","","13","simple_dissimilar","images/stimuli/spore_stims/simple_06_B_a.gif","right","","","","",""
"","null","html-keyboard-response","252","500186","0.0-47.0-0.5","SS1613138250876","","","null","","","","","<p><img src= images/blank.png width =""200"" height = ""200"" style = ""float:right""></p><p><img src=images/blank.png width =""800"" height = ""200""></p>","","","","","","","","","","","",""
"","144.61000001756474","sequential-stimulus-presentation","253","501154","0.0-47.0-1.5","SS1613138250876","trial","","40","800","944.6100000175647","images/stimuli/spore_stims/simple_18_A_d.gif","images/stimuli/spore_stims/simple_06_B_a.gif","","","","","13","simple_dissimilar","images/stimuli/spore_stims/simple_06_B_a.gif","right","","","","",""
"","null","html-keyboard-response","254","502299","0.0-47.0-0.6","SS1613138250876","","","null","","","","","<p><img src= images/blank.png width =""200"" height = ""200"" style = ""float:right""></p><p><img src=images/blank.png width =""800"" height = ""200""></p>","","","","","","","","","","","",""
"","109.83000000123866","sequential-stimulus-presentation","255","503226","0.0-47.0-1.6","SS1613138250876","trial","","40","800","909.8300000012387","images/stimuli/spore_stims/simple_18_A_d.gif","images/stimuli/spore_stims/simple_06_B_a.gif","","","","","13","simple_dissimilar","images/stimuli/spore_stims/simple_06_B_a.gif","right","","","","",""
"","null","html-keyboard-response","256","504271","0.0-47.0-0.7","SS1613138250876","","","null","","","","","<p><img src= images/blank.png width =""200"" height = ""200"" style = ""float:right""></p><p><img src=images/blank.png width =""800"" height = ""200""></p>","","","","","","","","","","","",""
"","140.16500001889654","sequential-stimulus-presentation","257","505224","0.0-47.0-1.7","SS1613138250876","trial","","40","800","940.1650000188965","images/stimuli/spore_stims/simple_18_A_d.gif","images/stimuli/spore_stims/simple_06_B_a.gif","","","","","13","simple_dissimilar","images/stimuli/spore_stims/simple_18_A_d.gif","left","","","","",""
"","3886.6500000003725","html-keyboard-response","258","509121","0.0-48.0","SS1613138250876","pref_question","","51","","","","","<video width ='960' height = '540' style='padding-top:8%' autoplay muted><source src='images/stimuli/wall_pref.mp4' type='video/mp4'></video>","3","right","66%","13","","","","","","","",""
"","4774.855000025127","sequential-stimulus-presentation","259","514710","0.0-49.0","SS1613138250876","pref_reveal","","40","800","5574.855000025127","null","null","","","","","13","","","","background","","","",""
"","null","html-keyboard-response","260","515533","0.0-50.0-0.0","SS1613138250876","","","null","","","","","<p><img src= images/blank.png width =""200"" height = ""200"" style = ""float:right""></p><p><img src=images/blank.png width =""800"" height = ""200""></p>","","","","","","","","","","","",""
"","200.3499999991618","sequential-stimulus-presentation","261","516639","0.0-50.0-1.0","SS1613138250876","trial","","40","800","1000.3499999991618","images/stimuli/spore_stims/simple_20_A_a.gif","images/stimuli/spore_stims/simple_20_B_a.gif","","","","","14","simple_similar","images/stimuli/spore_stims/simple_20_B_a.gif","left","","","","",""
"","null","html-keyboard-response","262","517581","0.0-50.0-0.1","SS1613138250876","","","null","","","","","<p><img src= images/blank.png width =""200"" height = ""200"" style = ""float:right""></p><p><img src=images/blank.png width =""800"" height = ""200""></p>","","","","","","","","","","","",""
"","71591.95999999065","sequential-stimulus-presentation","263","589986","0.0-50.0-1.1","SS1613138250876","trial","","40","800","72391.95999999065","images/stimuli/spore_stims/simple_20_A_a.gif","images/stimuli/spore_stims/simple_20_B_a.gif","","","","","14","simple_similar","images/stimuli/spore_stims/simple_20_B_a.gif","left","","","","",""
"","null","html-keyboard-response","264","590898","0.0-50.0-0.2","SS1613138250876","","","null","","","","","<p><img src= images/blank.png width =""200"" height = ""200"" style = ""float:right""></p><p><img src=images/blank.png width =""800"" height = ""200""></p>","","","","","","","","","","","",""
"","45.66500001237728","sequential-stimulus-presentation","265","591769","0.0-50.0-1.2","SS1613138250876","trial","","40","800","845.6650000123773","images/stimuli/spore_stims/simple_20_A_a.gif","images/stimuli/spore_stims/simple_20_B_a.gif","","","","","14","simple_similar","images/stimuli/spore_stims/simple_20_B_a.gif","left","","","","",""
"","null","html-keyboard-response","266","592699","0.0-50.0-0.3","SS1613138250876","","","null","","","","","<p><img src= images/blank.png width =""200"" height = ""200"" style = ""float:right""></p><p><img src=images/blank.png width =""800"" height = ""200""></p>","","","","","","","","","","","",""
"","156.25500000896864","sequential-stimulus-presentation","267","593680","0.0-50.0-1.3","SS1613138250876","trial","","40","800","956.2550000089686","images/stimuli/spore_stims/simple_20_A_a.gif","images/stimuli/spore_stims/simple_20_B_a.gif","","","","","14","simple_similar","images/stimuli/spore_stims/simple_20_A_a.gif","middle","","","","",""
"","null","html-keyboard-response","268","594534","0.0-50.0-0.4","SS1613138250876","","","null","","","","","<p><img src= images/blank.png width =""200"" height = ""200"" style = ""float:right""></p><p><img src=images/blank.png width =""800"" height = ""200""></p>","","","","","","","","","","","",""
"","96.56000000541098","sequential-stimulus-presentation","269","595441","0.0-50.0-1.4","SS1613138250876","trial","","40","800","896.560000005411","images/stimuli/spore_stims/simple_20_A_a.gif","images/stimuli/spore_stims/simple_20_B_a.gif","","","","","14","simple_similar","images/stimuli/spore_stims/simple_20_B_a.gif","left","","","","",""
"","null","html-keyboard-response","270","596597","0.0-50.0-0.5","SS1613138250876","","","null","","","","","<p><img src= images/blank.png width =""200"" height = ""200"" style = ""float:right""></p><p><img src=images/blank.png width =""800"" height = ""200""></p>","","","","","","","","","","","",""
"","118.335000006482","sequential-stimulus-presentation","271","597529","0.0-50.0-1.5","SS1613138250876","trial","","40","800","918.335000006482","images/stimuli/spore_stims/simple_20_A_a.gif","images/stimuli/spore_stims/simple_20_B_a.gif","","","","","14","simple_similar","images/stimuli/spore_stims/simple_20_B_a.gif","left","","","","",""
"","null","html-keyboard-response","272","598784","0.0-50.0-0.6","SS1613138250876","","","null","","","","","<p><img src= images/blank.png width =""200"" height = ""200"" style = ""float:right""></p><p><img src=images/blank.png width =""800"" height = ""200""></p>","","","","","","","","","","","",""
"","28792.500000010477","sequential-stimulus-presentation","273","628457","0.0-50.0-1.6","SS1613138250876","trial","","40","800","29592.500000010477","images/stimuli/spore_stims/simple_20_A_a.gif","images/stimuli/spore_stims/simple_20_B_a.gif","","","","","14","simple_similar","images/stimuli/spore_stims/simple_20_B_a.gif","left","","","","",""
"","null","html-keyboard-response","274","629617","0.0-50.0-0.7","SS1613138250876","","","null","","","","","<p><img src= images/blank.png width =""200"" height = ""200"" style = ""float:right""></p><p><img src=images/blank.png width =""800"" height = ""200""></p>","","","","","","","","","","","",""
"","1863.2550000038464","sequential-stimulus-presentation","275","632297","0.0-50.0-1.7","SS1613138250876","trial","","40","800","2663.2550000038464","images/stimuli/spore_stims/simple_20_A_a.gif","images/stimuli/spore_stims/simple_20_B_a.gif","","","","","14","simple_similar","images/stimuli/spore_stims/simple_20_B_a.gif","left","","","","",""
"","1498.5499999893364","html-keyboard-response","276","633805","0.0-51.0","SS1613138250876","pref_question","","50","","","","","<video width ='960' height = '540' style='padding-top:8%' autoplay muted><source src='images/stimuli/wall_pref.mp4' type='video/mp4'></video>","2","middle","45%","14","","","","","","","",""
"","2805.6700000015553","sequential-stimulus-presentation","277","637425","0.0-52.0","SS1613138250876","pref_reveal","","40","800","3605.6700000015553","null","null","","","","","14","","","","deviant","","","",""
"","null","html-keyboard-response","278","638484","0.0-53.0-0.0","SS1613138250876","","","null","","","","","<p><img src= images/blank.png width =""200"" height = ""200"" style = ""float:right""></p><p><img src=images/blank.png width =""800"" height = ""200""></p>","","","","","","","","","","","",""
"","280.60999998706393","sequential-stimulus-presentation","279","639586","0.0-53.0-1.0","SS1613138250876","trial","","40","800","1080.609999987064","images/stimuli/spore_stims/simple_11_B_c.gif","images/stimuli/spore_stims/simple_11_A_c.gif","","","","","15","simple_similar","images/stimuli/spore_stims/simple_11_A_c.gif","right","","","","",""
"","null","html-keyboard-response","280","640697","0.0-53.0-0.1","SS1613138250876","","","null","","","","","<p><img src= images/blank.png width =""200"" height = ""200"" style = ""float:right""></p><p><img src=images/blank.png width =""800"" height = ""200""></p>","","","","","","","","","","","",""
"","357.0449999824632","sequential-stimulus-presentation","281","641891","0.0-53.0-1.1","SS1613138250876","trial","","40","800","1157.0449999824632","images/stimuli/spore_stims/simple_11_B_c.gif","images/stimuli/spore_stims/simple_11_A_c.gif","","","","","15","simple_similar","images/stimuli/spore_stims/simple_11_A_c.gif","right","","","","",""
"","null","html-keyboard-response","282","642941","0.0-53.0-0.2","SS1613138250876","","","null","","","","","<p><img src= images/blank.png width =""200"" height = ""200"" style = ""float:right""></p><p><img src=images/blank.png width =""800"" height = ""200""></p>","","","","","","","","","","","",""
"","366.00999999791384","sequential-stimulus-presentation","283","644122","0.0-53.0-1.2","SS1613138250876","trial","","40","800","1166.0099999979138","images/stimuli/spore_stims/simple_11_B_c.gif","images/stimuli/spore_stims/simple_11_A_c.gif","","","","","15","simple_similar","images/stimuli/spore_stims/simple_11_A_c.gif","right","","","","",""
"","null","html-keyboard-response","284","644931","0.0-53.0-0.3","SS1613138250876","","","null","","","","","<p><img src= images/blank.png width =""200"" height = ""200"" style = ""float:right""></p><p><img src=images/blank.png width =""800"" height = ""200""></p>","","","","","","","","","","","",""
"","156.1550000042189","sequential-stimulus-presentation","285","645906","0.0-53.0-1.3","SS1613138250876","trial","","40","800","956.1550000042189","images/stimuli/spore_stims/simple_11_B_c.gif","images/stimuli/spore_stims/simple_11_A_c.gif","","","","","15","simple_similar","images/stimuli/spore_stims/simple_11_A_c.gif","right","","","","",""
"","null","html-keyboard-response","286","646978","0.0-53.0-0.4","SS1613138250876","","","null","","","","","<p><img src= images/blank.png width =""200"" height = ""200"" style = ""float:right""></p><p><img src=images/blank.png width =""800"" height = ""200""></p>","","","","","","","","","","","",""
"","97.9700000025332","sequential-stimulus-presentation","287","647897","0.0-53.0-1.4","SS1613138250876","trial","","40","800","897.9700000025332","images/stimuli/spore_stims/simple_11_B_c.gif","images/stimuli/spore_stims/simple_11_A_c.gif","","","","","15","simple_similar","images/stimuli/spore_stims/simple_11_A_c.gif","right","","","","",""
"","null","html-keyboard-response","288","649087","0.0-53.0-0.5","SS1613138250876","","","null","","","","","<p><img src= images/blank.png width =""200"" height = ""200"" style = ""float:right""></p><p><img src=images/blank.png width =""800"" height = ""200""></p>","","","","","","","","","","","",""
"","874.5300000009593","sequential-stimulus-presentation","289","650795","0.0-53.0-1.5","SS1613138250876","trial","","40","800","1674.5300000009593","images/stimuli/spore_stims/simple_11_B_c.gif","images/stimuli/spore_stims/simple_11_A_c.gif","","","","","15","simple_similar","images/stimuli/spore_stims/simple_11_B_c.gif","left","","","","",""
"","null","html-keyboard-response","290","651994","0.0-53.0-0.6","SS1613138250876","","","null","","","","","<p><img src= images/blank.png width =""200"" height = ""200"" style = ""float:right""></p><p><img src=images/blank.png width =""800"" height = ""200""></p>","","","","","","","","","","","",""
"","152.7899999928195","sequential-stimulus-presentation","291","652970","0.0-53.0-1.6","SS1613138250876","trial","","40","800","952.7899999928195","images/stimuli/spore_stims/simple_11_B_c.gif","images/stimuli/spore_stims/simple_11_A_c.gif","","","","","15","simple_similar","images/stimuli/spore_stims/simple_11_A_c.gif","right","","","","",""
"","null","html-keyboard-response","292","653831","0.0-53.0-0.7","SS1613138250876","","","null","","","","","<p><img src= images/blank.png width =""200"" height = ""200"" style = ""float:right""></p><p><img src=images/blank.png width =""800"" height = ""200""></p>","","","","","","","","","","","",""
"","196.43000001087785","sequential-stimulus-presentation","293","654850","0.0-53.0-1.7","SS1613138250876","trial","","40","800","996.4300000108778","images/stimuli/spore_stims/simple_11_B_c.gif","images/stimuli/spore_stims/simple_11_A_c.gif","","","","","15","simple_similar","images/stimuli/spore_stims/simple_11_A_c.gif","right","","","","",""
"","1087.9449999774806","html-keyboard-response","294","655970","0.0-54.0","SS1613138250876","pref_question","","49","","","","","<video width ='960' height = '540' style='padding-top:8%' autoplay muted><source src='images/stimuli/wall_pref.mp4' type='video/mp4'></video>","1","left","25%","15","","","","","","","",""
"","677.1650000009686","sequential-stimulus-presentation","295","657459","0.0-55.0","SS1613138250876","pref_reveal","","40","800","1477.1650000009686","null","null","","","","","15","","","","deviant","","","",""
"","null","html-keyboard-response","296","658418","0.0-56.0-0.0","SS1613138250876","","","null","","","","","<p><img src= images/blank.png width =""200"" height = ""200"" style = ""float:right""></p><p><img src=images/blank.png width =""800"" height = ""200""></p>","","","","","","","","","","","",""
"","562.8500000166241","sequential-stimulus-presentation","297","659804","0.0-56.0-1.0","SS1613138250876","trial","","40","800","1362.850000016624","images/stimuli/spore_stims/complex_05_A_d.gif","images/stimuli/spore_stims/complex_02_B_a.gif","","","","","16","complex_dissimilar","images/stimuli/spore_stims/complex_02_B_a.gif","left","","","","",""
"","null","html-keyboard-response","298","660620","0.0-56.0-0.1","SS1613138250876","","","null","","","","","<p><img src= images/blank.png width =""200"" height = ""200"" style = ""float:right""></p><p><img src=images/blank.png width =""800"" height = ""200""></p>","","","","","","","","","","","",""
"","501.4499999815598","sequential-stimulus-presentation","299","661946","0.0-56.0-1.1","SS1613138250876","trial","","40","800","1301.4499999815598","images/stimuli/spore_stims/complex_05_A_d.gif","images/stimuli/spore_stims/complex_02_B_a.gif","","","","","16","complex_dissimilar","images/stimuli/spore_stims/complex_02_B_a.gif","left","","","","",""
"","null","html-keyboard-response","300","662789","0.0-56.0-0.2","SS1613138250876","","","null","","","","","<p><img src= images/blank.png width =""200"" height = ""200"" style = ""float:right""></p><p><img src=images/blank.png width =""800"" height = ""200""></p>","","","","","","","","","","","",""
"","519.5550000062212","sequential-stimulus-presentation","301","664147","0.0-56.0-1.2","SS1613138250876","trial","","40","800","1319.5550000062212","images/stimuli/spore_stims/complex_05_A_d.gif","images/stimuli/spore_stims/complex_02_B_a.gif","","","","","16","complex_dissimilar","images/stimuli/spore_stims/complex_02_B_a.gif","left","","","","",""
"","null","html-keyboard-response","302","665379","0.0-56.0-0.3","SS1613138250876","","","null","","","","","<p><img src= images/blank.png width =""200"" height = ""200"" style = ""float:right""></p><p><img src=images/blank.png width =""800"" height = ""200""></p>","","","","","","","","","","","",""
"","267.44500000495464","sequential-stimulus-presentation","303","666460","0.0-56.0-1.3","SS1613138250876","trial","","40","800","1067.4450000049546","images/stimuli/spore_stims/complex_05_A_d.gif","images/stimuli/spore_stims/complex_02_B_a.gif","","","","","16","complex_dissimilar","images/stimuli/spore_stims/complex_02_B_a.gif","left","","","","",""
"","null","html-keyboard-response","304","667435","0.0-56.0-0.4","SS1613138250876","","","null","","","","","<p><img src= images/blank.png width =""200"" height = ""200"" style = ""float:right""></p><p><img src=images/blank.png width =""800"" height = ""200""></p>","","","","","","","","","","","",""
"","571.8200000119396","sequential-stimulus-presentation","305","668827","0.0-56.0-1.4","SS1613138250876","trial","","40","800","1371.8200000119396","images/stimuli/spore_stims/complex_05_A_d.gif","images/stimuli/spore_stims/complex_02_B_a.gif","","","","","16","complex_dissimilar","images/stimuli/spore_stims/complex_02_B_a.gif","left","","","","",""
"","null","html-keyboard-response","306","670014","0.0-56.0-0.5","SS1613138250876","","","null","","","","","<p><img src= images/blank.png width =""200"" height = ""200"" style = ""float:right""></p><p><img src=images/blank.png width =""800"" height = ""200""></p>","","","","","","","","","","","",""
"","395.18500000122003","sequential-stimulus-presentation","307","671226","0.0-56.0-1.5","SS1613138250876","trial","","40","800","1195.18500000122","images/stimuli/spore_stims/complex_05_A_d.gif","images/stimuli/spore_stims/complex_02_B_a.gif","","","","","16","complex_dissimilar","images/stimuli/spore_stims/complex_05_A_d.gif","middle","","","","",""
"","null","html-keyboard-response","308","672154","0.0-56.0-0.6","SS1613138250876","","","null","","","","","<p><img src= images/blank.png width =""200"" height = ""200"" style = ""float:right""></p><p><img src=images/blank.png width =""800"" height = ""200""></p>","","","","","","","","","","","",""
"","256.1449999921024","sequential-stimulus-presentation","309","673244","0.0-56.0-1.6","SS1613138250876","trial","","40","800","1056.1449999921024","images/stimuli/spore_stims/complex_05_A_d.gif","images/stimuli/spore_stims/complex_02_B_a.gif","","","","","16","complex_dissimilar","images/stimuli/spore_stims/complex_02_B_a.gif","left","","","","",""
"","null","html-keyboard-response","310","674270","0.0-56.0-0.7","SS1613138250876","","","null","","","","","<p><img src= images/blank.png width =""200"" height = ""200"" style = ""float:right""></p><p><img src=images/blank.png width =""800"" height = ""200""></p>","","","","","","","","","","","",""
"","436.25499997870065","sequential-stimulus-presentation","311","675517","0.0-56.0-1.7","SS1613138250876","trial","","40","800","1236.2549999787007","images/stimuli/spore_stims/complex_05_A_d.gif","images/stimuli/spore_stims/complex_02_B_a.gif","","","","","16","complex_dissimilar","images/stimuli/spore_stims/complex_02_B_a.gif","left","","","","",""
"","980.9299999906216","html-keyboard-response","312","676506","0.0-57.0","SS1613138250876","pref_question","","49","","","","","<video width ='960' height = '540' style='padding-top:8%' autoplay muted><source src='images/stimuli/wall_pref.mp4' type='video/mp4'></video>","1","left","25%","16","","","","","","","",""
