"view_history","rt","trial_type","trial_index","time_elapsed","internal_node_id","subject","stimulus_type","trial_stimulus","key_press","minimum_viewing_duration","trial_looking_time","block_deviant","block_background","stimulus","wall_pref","location","location_percent","block_number","block_type","stimulus_displayed","position_displayed","stim_type_selected","responses","question_order","stimulus_left","stimulus_right"
"[{""page_index"":0,""viewing_time"":1726.7399999982445}]","1727.149999991525","instructions","0","1730","0.0-0.0","SS1613169335133","","","","","","","","","","","","","","","","","","","",""
"[{""page_index"":0,""viewing_time"":1233.76499999722},{""page_index"":1,""viewing_time"":7653.0950000014855}]","8887.089999989257","instructions","1","12620","0.0-1.0","SS1613169335133","instructions","","","","","","","","","","","","","","","","","","",""
"","250.96500001382083","sequential-stimulus-presentation","2","13685","0.0-2.0","SS1613169335133","","","40","800","1050.9650000138208","null","null","","","","","","","","","","","","",""
"","324.93000000249594","sequential-stimulus-presentation","3","14822","0.0-3.0","SS1613169335133","","","40","800","1124.930000002496","null","null","","","","","","","","","","","","",""
"[{""page_index"":0,""viewing_time"":2803.685000006226}]","2803.8400000077672","instructions","4","17627","0.0-4.0","SS1613169335133","instructions","","","","","","","","","","","","","","","","","","",""
"","1692.6949999906356","html-keyboard-response","5","19325","0.0-5.0","SS1613169335133","instructions","","98","","","","","<video width ='960' height = '540' autoplay muted><source src='images/stimuli/wall_pref.mp4' type='video/mp4'></video>","2","middle","45%","","","","","","","","",""
"","51.07499999576248","sequential-stimulus-presentation","6","20182","0.0-6.0","SS1613169335133","pref_reveal","","40","800","851.0749999957625","null","null","","","","","","","","","","","","",""
"[{""page_index"":0,""viewing_time"":1293.3699999994133},{""page_index"":1,""viewing_time"":700.5099999951199},{""page_index"":2,""viewing_time"":565.4599999979837},{""page_index"":3,""viewing_time"":434.34000000706874}]","2993.894999992335","instructions","7","23178","0.0-7.0","SS1613169335133","instructions","","","","","","","","","","","","","","","","","","",""
"","null","html-keyboard-response","8","24395","0.0-8.0-0.0","SS1613169335133","","","null","","","","","<p><img src= images/blank.png width =""200"" height = ""200"" style = ""float:right""></p><p><img src=images/blank.png width =""800"" height = ""200""></p>","","","","","","","","","","","",""
"","106.44000000320375","sequential-stimulus-presentation","9","25309","0.0-8.0-1.0","SS1613169335133","trial","","40","800","906.4400000032037","images/stimuli/spore_stims/simple_01_B_c.gif","images/stimuli/spore_stims/simple_01_A_c.gif","","","","","0","simple_similar","images/stimuli/spore_stims/simple_01_A_c.gif","middle","","","","",""
"","null","html-keyboard-response","10","26261","0.0-8.0-0.1","SS1613169335133","","","null","","","","","<p><img src= images/blank.png width =""200"" height = ""200"" style = ""float:right""></p><p><img src=images/blank.png width =""800"" height = ""200""></p>","","","","","","","","","","","",""
"","788.1699999998091","sequential-stimulus-presentation","11","27855","0.0-8.0-1.1","SS1613169335133","trial","","40","800","1588.169999999809","images/stimuli/spore_stims/simple_01_B_c.gif","images/stimuli/spore_stims/simple_01_A_c.gif","","","","","0","simple_similar","images/stimuli/spore_stims/simple_01_A_c.gif","middle","","","","",""
"","null","html-keyboard-response","12","28865","0.0-8.0-0.2","SS1613169335133","","","null","","","","","<p><img src= images/blank.png width =""200"" height = ""200"" style = ""float:right""></p><p><img src=images/blank.png width =""800"" height = ""200""></p>","","","","","","","","","","","",""
"","174.06999999366235","sequential-stimulus-presentation","13","29854","0.0-8.0-1.2","SS1613169335133","trial","","40","800","974.0699999936623","images/stimuli/spore_stims/simple_01_B_c.gif","images/stimuli/spore_stims/simple_01_A_c.gif","","","","","0","simple_similar","images/stimuli/spore_stims/simple_01_A_c.gif","middle","","","","",""
"","null","html-keyboard-response","14","30757","0.0-8.0-0.3","SS1613169335133","","","null","","","","","<p><img src= images/blank.png width =""200"" height = ""200"" style = ""float:right""></p><p><img src=images/blank.png width =""800"" height = ""200""></p>","","","","","","","","","","","",""
"","441.3300000014715","sequential-stimulus-presentation","15","32008","0.0-8.0-1.3","SS1613169335133","trial","","40","800","1241.3300000014715","images/stimuli/spore_stims/simple_01_B_c.gif","images/stimuli/spore_stims/simple_01_A_c.gif","","","","","0","simple_similar","images/stimuli/spore_stims/simple_01_A_c.gif","middle","","","","",""
"","null","html-keyboard-response","16","33323","0.0-8.0-0.4","SS1613169335133","","","null","","","","","<p><img src= images/blank.png width =""200"" height = ""200"" style = ""float:right""></p><p><img src=images/blank.png width =""800"" height = ""200""></p>","","","","","","","","","","","",""
"","321.7149999982212","sequential-stimulus-presentation","17","34457","0.0-8.0-1.4","SS1613169335133","trial","","40","800","1121.7149999982212","images/stimuli/spore_stims/simple_01_B_c.gif","images/stimuli/spore_stims/simple_01_A_c.gif","","","","","0","simple_similar","images/stimuli/spore_stims/simple_01_A_c.gif","middle","","","","",""
"","null","html-keyboard-response","18","35719","0.0-8.0-0.5","SS1613169335133","","","null","","","","","<p><img src= images/blank.png width =""200"" height = ""200"" style = ""float:right""></p><p><img src=images/blank.png width =""800"" height = ""200""></p>","","","","","","","","","","","",""
"","160.92500000377186","sequential-stimulus-presentation","19","36698","0.0-8.0-1.5","SS1613169335133","trial","","40","800","960.9250000037719","images/stimuli/spore_stims/simple_01_B_c.gif","images/stimuli/spore_stims/simple_01_A_c.gif","","","","","0","simple_similar","images/stimuli/spore_stims/simple_01_A_c.gif","middle","","","","",""
"","null","html-keyboard-response","20","37512","0.0-8.0-0.6","SS1613169335133","","","null","","","","","<p><img src= images/blank.png width =""200"" height = ""200"" style = ""float:right""></p><p><img src=images/blank.png width =""800"" height = ""200""></p>","","","","","","","","","","","",""
"","57.475000008707866","sequential-stimulus-presentation","21","38393","0.0-8.0-1.6","SS1613169335133","trial","","40","800","857.4750000087079","images/stimuli/spore_stims/simple_01_B_c.gif","images/stimuli/spore_stims/simple_01_A_c.gif","","","","","0","simple_similar","images/stimuli/spore_stims/simple_01_B_c.gif","left","","","","",""
"","null","html-keyboard-response","22","39311","0.0-8.0-0.7","SS1613169335133","","","null","","","","","<p><img src= images/blank.png width =""200"" height = ""200"" style = ""float:right""></p><p><img src=images/blank.png width =""800"" height = ""200""></p>","","","","","","","","","","","",""
"","3572.325000001001","sequential-stimulus-presentation","23","43696","0.0-8.0-1.7","SS1613169335133","trial","","40","800","4372.325000001001","images/stimuli/spore_stims/simple_01_B_c.gif","images/stimuli/spore_stims/simple_01_A_c.gif","","","","","0","simple_similar","images/stimuli/spore_stims/simple_01_A_c.gif","middle","","","","",""
"","1317.2249999915948","html-keyboard-response","24","45022","0.0-9.0","SS1613169335133","pref_question","","98","","","","","<video width ='960' height = '540' style='padding-top:8%' autoplay muted><source src='images/stimuli/wall_pref.mp4' type='video/mp4'></video>","2","middle","45%","0","","","","","","","",""
"","449.0749999968102","sequential-stimulus-presentation","25","46288","0.0-10.0","SS1613169335133","pref_reveal","","40","800","1249.0749999968102","null","null","","","","","0","","","","background","","","",""
"","null","html-keyboard-response","26","47314","0.0-11.0-0.0","SS1613169335133","","","null","","","","","<p><img src= images/blank.png width =""200"" height = ""200"" style = ""float:right""></p><p><img src=images/blank.png width =""800"" height = ""200""></p>","","","","","","","","","","","",""
"","23.535000000265427","sequential-stimulus-presentation","27","48164","0.0-11.0-1.0","SS1613169335133","trial","","40","800","823.5350000002654","images/stimuli/spore_stims/simple_10_A_d.gif","images/stimuli/spore_stims/simple_10_B_d.gif","","","","","1","simple_similar","images/stimuli/spore_stims/simple_10_B_d.gif","left","","","","",""
"","null","html-keyboard-response","28","49453","0.0-11.0-0.1","SS1613169335133","","","null","","","","","<p><img src= images/blank.png width =""200"" height = ""200"" style = ""float:right""></p><p><img src=images/blank.png width =""800"" height = ""200""></p>","","","","","","","","","","","",""
"","119.80000000039581","sequential-stimulus-presentation","29","50385","0.0-11.0-1.1","SS1613169335133","trial","","40","800","919.8000000003958","images/stimuli/spore_stims/simple_10_A_d.gif","images/stimuli/spore_stims/simple_10_B_d.gif","","","","","1","simple_similar","images/stimuli/spore_stims/simple_10_B_d.gif","left","","","","",""
"","null","html-keyboard-response","30","51662","0.0-11.0-0.2","SS1613169335133","","","null","","","","","<p><img src= images/blank.png width =""200"" height = ""200"" style = ""float:right""></p><p><img src=images/blank.png width =""800"" height = ""200""></p>","","","","","","","","","","","",""
"","128.01000000035856","sequential-stimulus-presentation","31","52588","0.0-11.0-1.2","SS1613169335133","trial","","40","800","928.0100000003586","images/stimuli/spore_stims/simple_10_A_d.gif","images/stimuli/spore_stims/simple_10_B_d.gif","","","","","1","simple_similar","images/stimuli/spore_stims/simple_10_B_d.gif","left","","","","",""
"","null","html-keyboard-response","32","53777","0.0-11.0-0.3","SS1613169335133","","","null","","","","","<p><img src= images/blank.png width =""200"" height = ""200"" style = ""float:right""></p><p><img src=images/blank.png width =""800"" height = ""200""></p>","","","","","","","","","","","",""
"","176.0199999989709","sequential-stimulus-presentation","33","54763","0.0-11.0-1.3","SS1613169335133","trial","","40","800","976.0199999989709","images/stimuli/spore_stims/simple_10_A_d.gif","images/stimuli/spore_stims/simple_10_B_d.gif","","","","","1","simple_similar","images/stimuli/spore_stims/simple_10_B_d.gif","left","","","","",""
"","null","html-keyboard-response","34","55776","0.0-11.0-0.4","SS1613169335133","","","null","","","","","<p><img src= images/blank.png width =""200"" height = ""200"" style = ""float:right""></p><p><img src=images/blank.png width =""800"" height = ""200""></p>","","","","","","","","","","","",""
"","187.10000001010485","sequential-stimulus-presentation","35","56777","0.0-11.0-1.4","SS1613169335133","trial","","40","800","987.1000000101048","images/stimuli/spore_stims/simple_10_A_d.gif","images/stimuli/spore_stims/simple_10_B_d.gif","","","","","1","simple_similar","images/stimuli/spore_stims/simple_10_B_d.gif","left","","","","",""
"","null","html-keyboard-response","36","58019","0.0-11.0-0.5","SS1613169335133","","","null","","","","","<p><img src= images/blank.png width =""200"" height = ""200"" style = ""float:right""></p><p><img src=images/blank.png width =""800"" height = ""200""></p>","","","","","","","","","","","",""
"","320.2149999997346","sequential-stimulus-presentation","37","59151","0.0-11.0-1.5","SS1613169335133","trial","","40","800","1120.2149999997346","images/stimuli/spore_stims/simple_10_A_d.gif","images/stimuli/spore_stims/simple_10_B_d.gif","","","","","1","simple_similar","images/stimuli/spore_stims/simple_10_B_d.gif","left","","","","",""
"","null","html-keyboard-response","38","60456","0.0-11.0-0.6","SS1613169335133","","","null","","","","","<p><img src= images/blank.png width =""200"" height = ""200"" style = ""float:right""></p><p><img src=images/blank.png width =""800"" height = ""200""></p>","","","","","","","","","","","",""
"","440.0549999991199","sequential-stimulus-presentation","39","61717","0.0-11.0-1.6","SS1613169335133","trial","","40","800","1240.05499999912","images/stimuli/spore_stims/simple_10_A_d.gif","images/stimuli/spore_stims/simple_10_B_d.gif","","","","","1","simple_similar","images/stimuli/spore_stims/simple_10_A_d.gif","right","","","","",""
"","null","html-keyboard-response","40","62638","0.0-11.0-0.7","SS1613169335133","","","null","","","","","<p><img src= images/blank.png width =""200"" height = ""200"" style = ""float:right""></p><p><img src=images/blank.png width =""800"" height = ""200""></p>","","","","","","","","","","","",""
"","57.33499999041669","sequential-stimulus-presentation","41","63507","0.0-11.0-1.7","SS1613169335133","trial","","40","800","857.3349999904167","images/stimuli/spore_stims/simple_10_A_d.gif","images/stimuli/spore_stims/simple_10_B_d.gif","","","","","1","simple_similar","images/stimuli/spore_stims/simple_10_B_d.gif","left","","","","",""
"","1419.9299999891082","html-keyboard-response","42","64935","0.0-12.0","SS1613169335133","pref_question","","98","","","","","<video width ='960' height = '540' style='padding-top:8%' autoplay muted><source src='images/stimuli/wall_pref.mp4' type='video/mp4'></video>","2","middle","45%","1","","","","","","","",""
"","458.33499998843763","sequential-stimulus-presentation","43","66211","0.0-13.0","SS1613169335133","pref_reveal","","40","800","1258.3349999884376","null","null","","","","","1","","","","novel","","","",""
"","null","html-keyboard-response","44","67054","0.0-14.0-0.0","SS1613169335133","","","null","","","","","<p><img src= images/blank.png width =""200"" height = ""200"" style = ""float:right""></p><p><img src=images/blank.png width =""800"" height = ""200""></p>","","","","","","","","","","","",""
"","210.04499999980908","sequential-stimulus-presentation","45","68075","0.0-14.0-1.0","SS1613169335133","trial","","40","800","1010.0449999998091","images/stimuli/spore_stims/simple_17_B_b.gif","images/stimuli/spore_stims/simple_17_A_b.gif","","","","","2","simple_similar","images/stimuli/spore_stims/simple_17_A_b.gif","right","","","","",""
"","null","html-keyboard-response","46","69312","0.0-14.0-0.1","SS1613169335133","","","null","","","","","<p><img src= images/blank.png width =""200"" height = ""200"" style = ""float:right""></p><p><img src=images/blank.png width =""800"" height = ""200""></p>","","","","","","","","","","","",""
"","104.93000000133179","sequential-stimulus-presentation","47","70226","0.0-14.0-1.1","SS1613169335133","trial","","40","800","904.9300000013318","images/stimuli/spore_stims/simple_17_B_b.gif","images/stimuli/spore_stims/simple_17_A_b.gif","","","","","2","simple_similar","images/stimuli/spore_stims/simple_17_A_b.gif","right","","","","",""
"","null","html-keyboard-response","48","71173","0.0-14.0-0.2","SS1613169335133","","","null","","","","","<p><img src= images/blank.png width =""200"" height = ""200"" style = ""float:right""></p><p><img src=images/blank.png width =""800"" height = ""200""></p>","","","","","","","","","","","",""
"","93.94000000611413","sequential-stimulus-presentation","49","72088","0.0-14.0-1.2","SS1613169335133","trial","","40","800","893.9400000061141","images/stimuli/spore_stims/simple_17_B_b.gif","images/stimuli/spore_stims/simple_17_A_b.gif","","","","","2","simple_similar","images/stimuli/spore_stims/simple_17_A_b.gif","right","","","","",""
"","null","html-keyboard-response","50","73240","0.0-14.0-0.3","SS1613169335133","","","null","","","","","<p><img src= images/blank.png width =""200"" height = ""200"" style = ""float:right""></p><p><img src=images/blank.png width =""800"" height = ""200""></p>","","","","","","","","","","","",""
"","101.92000000097323","sequential-stimulus-presentation","51","74162","0.0-14.0-1.3","SS1613169335133","trial","","40","800","901.9200000009732","images/stimuli/spore_stims/simple_17_B_b.gif","images/stimuli/spore_stims/simple_17_A_b.gif","","","","","2","simple_similar","images/stimuli/spore_stims/simple_17_B_b.gif","left","","","","",""
"","null","html-keyboard-response","52","75009","0.0-14.0-0.4","SS1613169335133","","","null","","","","","<p><img src= images/blank.png width =""200"" height = ""200"" style = ""float:right""></p><p><img src=images/blank.png width =""800"" height = ""200""></p>","","","","","","","","","","","",""
"","742.9549999942537","sequential-stimulus-presentation","53","76576","0.0-14.0-1.4","SS1613169335133","trial","","40","800","1542.9549999942537","images/stimuli/spore_stims/simple_17_B_b.gif","images/stimuli/spore_stims/simple_17_A_b.gif","","","","","2","simple_similar","images/stimuli/spore_stims/simple_17_A_b.gif","right","","","","",""
"","null","html-keyboard-response","54","77401","0.0-14.0-0.5","SS1613169335133","","","null","","","","","<p><img src= images/blank.png width =""200"" height = ""200"" style = ""float:right""></p><p><img src=images/blank.png width =""800"" height = ""200""></p>","","","","","","","","","","","",""
"","148.0100000044331","sequential-stimulus-presentation","55","78363","0.0-14.0-1.5","SS1613169335133","trial","","40","800","948.0100000044331","images/stimuli/spore_stims/simple_17_B_b.gif","images/stimuli/spore_stims/simple_17_A_b.gif","","","","","2","simple_similar","images/stimuli/spore_stims/simple_17_A_b.gif","right","","","","",""
"","null","html-keyboard-response","56","79355","0.0-14.0-0.6","SS1613169335133","","","null","","","","","<p><img src= images/blank.png width =""200"" height = ""200"" style = ""float:right""></p><p><img src=images/blank.png width =""800"" height = ""200""></p>","","","","","","","","","","","",""
"","107.65499999979511","sequential-stimulus-presentation","57","80286","0.0-14.0-1.6","SS1613169335133","trial","","40","800","907.6549999997951","images/stimuli/spore_stims/simple_17_B_b.gif","images/stimuli/spore_stims/simple_17_A_b.gif","","","","","2","simple_similar","images/stimuli/spore_stims/simple_17_A_b.gif","right","","","","",""
"","null","html-keyboard-response","58","81492","0.0-14.0-0.7","SS1613169335133","","","null","","","","","<p><img src= images/blank.png width =""200"" height = ""200"" style = ""float:right""></p><p><img src=images/blank.png width =""800"" height = ""200""></p>","","","","","","","","","","","",""
"","350.90499999932945","sequential-stimulus-presentation","59","82667","0.0-14.0-1.7","SS1613169335133","trial","","40","800","1150.9049999993294","images/stimuli/spore_stims/simple_17_B_b.gif","images/stimuli/spore_stims/simple_17_A_b.gif","","","","","2","simple_similar","images/stimuli/spore_stims/simple_17_A_b.gif","right","","","","",""
"","1229.8999999911757","html-keyboard-response","60","83906","0.0-15.0","SS1613169335133","pref_question","","98","","","","","<video width ='960' height = '540' style='padding-top:8%' autoplay muted><source src='images/stimuli/wall_pref.mp4' type='video/mp4'></video>","2","middle","45%","2","","","","","","","",""
"","388.4800000087125","sequential-stimulus-presentation","61","85107","0.0-16.0","SS1613169335133","pref_reveal","","40","800","1188.4800000087125","null","null","","","","","2","","","","novel","","","",""
"","null","html-keyboard-response","62","86071","0.0-17.0-0.0","SS1613169335133","","","null","","","","","<p><img src= images/blank.png width =""200"" height = ""200"" style = ""float:right""></p><p><img src=images/blank.png width =""800"" height = ""200""></p>","","","","","","","","","","","",""
"","74.254999999539","sequential-stimulus-presentation","63","86962","0.0-17.0-1.0","SS1613169335133","trial","","40","800","874.254999999539","images/stimuli/spore_stims/complex_12_A_d.gif","images/stimuli/spore_stims/complex_12_B_d.gif","","","","","3","complex_similar","images/stimuli/spore_stims/complex_12_B_d.gif","middle","","","","",""
"","null","html-keyboard-response","64","87995","0.0-17.0-0.1","SS1613169335133","","","null","","","","","<p><img src= images/blank.png width =""200"" height = ""200"" style = ""float:right""></p><p><img src=images/blank.png width =""800"" height = ""200""></p>","","","","","","","","","","","",""
"","18.614999993587844","sequential-stimulus-presentation","65","88833","0.0-17.0-1.1","SS1613169335133","trial","","40","800","818.6149999935878","images/stimuli/spore_stims/complex_12_A_d.gif","images/stimuli/spore_stims/complex_12_B_d.gif","","","","","3","complex_similar","images/stimuli/spore_stims/complex_12_B_d.gif","middle","","","","",""
"","null","html-keyboard-response","66","90155","0.0-17.0-0.2","SS1613169335133","","","null","","","","","<p><img src= images/blank.png width =""200"" height = ""200"" style = ""float:right""></p><p><img src=images/blank.png width =""800"" height = ""200""></p>","","","","","","","","","","","",""
"","105.50000000512227","sequential-stimulus-presentation","67","91072","0.0-17.0-1.2","SS1613169335133","trial","","40","800","905.5000000051223","images/stimuli/spore_stims/complex_12_A_d.gif","images/stimuli/spore_stims/complex_12_B_d.gif","","","","","3","complex_similar","images/stimuli/spore_stims/complex_12_B_d.gif","middle","","","","",""
"","null","html-keyboard-response","68","92070","0.0-17.0-0.3","SS1613169335133","","","null","","","","","<p><img src= images/blank.png width =""200"" height = ""200"" style = ""float:right""></p><p><img src=images/blank.png width =""800"" height = ""200""></p>","","","","","","","","","","","",""
"","176.80500001006294","sequential-stimulus-presentation","69","93072","0.0-17.0-1.3","SS1613169335133","trial","","40","800","976.8050000100629","images/stimuli/spore_stims/complex_12_A_d.gif","images/stimuli/spore_stims/complex_12_B_d.gif","","","","","3","complex_similar","images/stimuli/spore_stims/complex_12_B_d.gif","middle","","","","",""
"","null","html-keyboard-response","70","93900","0.0-17.0-0.4","SS1613169335133","","","null","","","","","<p><img src= images/blank.png width =""200"" height = ""200"" style = ""float:right""></p><p><img src=images/blank.png width =""800"" height = ""200""></p>","","","","","","","","","","","",""
"","266.82000000437256","sequential-stimulus-presentation","71","94984","0.0-17.0-1.4","SS1613169335133","trial","","40","800","1066.8200000043726","images/stimuli/spore_stims/complex_12_A_d.gif","images/stimuli/spore_stims/complex_12_B_d.gif","","","","","3","complex_similar","images/stimuli/spore_stims/complex_12_B_d.gif","middle","","","","",""
"","null","html-keyboard-response","72","96147","0.0-17.0-0.5","SS1613169335133","","","null","","","","","<p><img src= images/blank.png width =""200"" height = ""200"" style = ""float:right""></p><p><img src=images/blank.png width =""800"" height = ""200""></p>","","","","","","","","","","","",""
"","89.70500000577886","sequential-stimulus-presentation","73","97048","0.0-17.0-1.5","SS1613169335133","trial","","40","800","889.7050000057789","images/stimuli/spore_stims/complex_12_A_d.gif","images/stimuli/spore_stims/complex_12_B_d.gif","","","","","3","complex_similar","images/stimuli/spore_stims/complex_12_B_d.gif","middle","","","","",""
"","null","html-keyboard-response","74","97887","0.0-17.0-0.6","SS1613169335133","","","null","","","","","<p><img src= images/blank.png width =""200"" height = ""200"" style = ""float:right""></p><p><img src=images/blank.png width =""800"" height = ""200""></p>","","","","","","","","","","","",""
"","217.75999999954365","sequential-stimulus-presentation","75","98930","0.0-17.0-1.6","SS1613169335133","trial","","40","800","1017.7599999995437","images/stimuli/spore_stims/complex_12_A_d.gif","images/stimuli/spore_stims/complex_12_B_d.gif","","","","","3","complex_similar","images/stimuli/spore_stims/complex_12_B_d.gif","middle","","","","",""
"","null","html-keyboard-response","76","100041","0.0-17.0-0.7","SS1613169335133","","","null","","","","","<p><img src= images/blank.png width =""200"" height = ""200"" style = ""float:right""></p><p><img src=images/blank.png width =""800"" height = ""200""></p>","","","","","","","","","","","",""
"","223.49499999836553","sequential-stimulus-presentation","77","101090","0.0-17.0-1.7","SS1613169335133","trial","","40","800","1023.4949999983655","images/stimuli/spore_stims/complex_12_A_d.gif","images/stimuli/spore_stims/complex_12_B_d.gif","","","","","3","complex_similar","images/stimuli/spore_stims/complex_12_A_d.gif","left","","","","",""
"","989.2700000054901","html-keyboard-response","78","102090","0.0-18.0","SS1613169335133","pref_question","","98","","","","","<video width ='960' height = '540' style='padding-top:8%' autoplay muted><source src='images/stimuli/wall_pref.mp4' type='video/mp4'></video>","2","middle","45%","3","","","","","","","",""
"","120.2049999992596","sequential-stimulus-presentation","79","103024","0.0-19.0","SS1613169335133","pref_reveal","","40","800","920.2049999992596","null","null","","","","","3","","","","background","","","",""
"","null","html-keyboard-response","80","104298","0.0-20.0-0.0","SS1613169335133","","","null","","","","","<p><img src= images/blank.png width =""200"" height = ""200"" style = ""float:right""></p><p><img src=images/blank.png width =""800"" height = ""200""></p>","","","","","","","","","","","",""
"","248.13500000163913","sequential-stimulus-presentation","81","105364","0.0-20.0-1.0","SS1613169335133","trial","","40","800","1048.1350000016391","images/stimuli/spore_stims/simple_11_B_a.gif","images/stimuli/spore_stims/simple_11_A_a.gif","","","","","4","simple_similar","images/stimuli/spore_stims/simple_11_A_a.gif","middle","","","","",""
"","null","html-keyboard-response","82","106647","0.0-20.0-0.1","SS1613169335133","","","null","","","","","<p><img src= images/blank.png width =""200"" height = ""200"" style = ""float:right""></p><p><img src=images/blank.png width =""800"" height = ""200""></p>","","","","","","","","","","","",""
"","111.10999999800697","sequential-stimulus-presentation","83","107574","0.0-20.0-1.1","SS1613169335133","trial","","40","800","911.109999998007","images/stimuli/spore_stims/simple_11_B_a.gif","images/stimuli/spore_stims/simple_11_A_a.gif","","","","","4","simple_similar","images/stimuli/spore_stims/simple_11_A_a.gif","middle","","","","",""
"","null","html-keyboard-response","84","108538","0.0-20.0-0.2","SS1613169335133","","","null","","","","","<p><img src= images/blank.png width =""200"" height = ""200"" style = ""float:right""></p><p><img src=images/blank.png width =""800"" height = ""200""></p>","","","","","","","","","","","",""
"","173.09499999100808","sequential-stimulus-presentation","85","109541","0.0-20.0-1.2","SS1613169335133","trial","","40","800","973.0949999910081","images/stimuli/spore_stims/simple_11_B_a.gif","images/stimuli/spore_stims/simple_11_A_a.gif","","","","","4","simple_similar","images/stimuli/spore_stims/simple_11_A_a.gif","middle","","","","",""
"","null","html-keyboard-response","86","110519","0.0-20.0-0.3","SS1613169335133","","","null","","","","","<p><img src= images/blank.png width =""200"" height = ""200"" style = ""float:right""></p><p><img src=images/blank.png width =""800"" height = ""200""></p>","","","","","","","","","","","",""
"","144.4000000046799","sequential-stimulus-presentation","87","111478","0.0-20.0-1.3","SS1613169335133","trial","","40","800","944.4000000046799","images/stimuli/spore_stims/simple_11_B_a.gif","images/stimuli/spore_stims/simple_11_A_a.gif","","","","","4","simple_similar","images/stimuli/spore_stims/simple_11_A_a.gif","middle","","","","",""
"","null","html-keyboard-response","88","112655","0.0-20.0-0.4","SS1613169335133","","","null","","","","","<p><img src= images/blank.png width =""200"" height = ""200"" style = ""float:right""></p><p><img src=images/blank.png width =""800"" height = ""200""></p>","","","","","","","","","","","",""
"","601.6499999968801","sequential-stimulus-presentation","89","114085","0.0-20.0-1.4","SS1613169335133","trial","","40","800","1401.64999999688","images/stimuli/spore_stims/simple_11_B_a.gif","images/stimuli/spore_stims/simple_11_A_a.gif","","","","","4","simple_similar","images/stimuli/spore_stims/simple_11_B_a.gif","right","","","","",""
"","null","html-keyboard-response","90","114907","0.0-20.0-0.5","SS1613169335133","","","null","","","","","<p><img src= images/blank.png width =""200"" height = ""200"" style = ""float:right""></p><p><img src=images/blank.png width =""800"" height = ""200""></p>","","","","","","","","","","","",""
"","25.664999993750826","sequential-stimulus-presentation","91","115758","0.0-20.0-1.5","SS1613169335133","trial","","40","800","825.6649999937508","images/stimuli/spore_stims/simple_11_B_a.gif","images/stimuli/spore_stims/simple_11_A_a.gif","","","","","4","simple_similar","images/stimuli/spore_stims/simple_11_A_a.gif","middle","","","","",""
"","null","html-keyboard-response","92","116627","0.0-20.0-0.6","SS1613169335133","","","null","","","","","<p><img src= images/blank.png width =""200"" height = ""200"" style = ""float:right""></p><p><img src=images/blank.png width =""800"" height = ""200""></p>","","","","","","","","","","","",""
"","1278.0150000035064","sequential-stimulus-presentation","93","118728","0.0-20.0-1.6","SS1613169335133","trial","","40","800","2078.0150000035064","images/stimuli/spore_stims/simple_11_B_a.gif","images/stimuli/spore_stims/simple_11_A_a.gif","","","","","4","simple_similar","images/stimuli/spore_stims/simple_11_A_a.gif","middle","","","","",""
"","null","html-keyboard-response","94","119863","0.0-20.0-0.7","SS1613169335133","","","null","","","","","<p><img src= images/blank.png width =""200"" height = ""200"" style = ""float:right""></p><p><img src=images/blank.png width =""800"" height = ""200""></p>","","","","","","","","","","","",""
"","445.9550000028685","sequential-stimulus-presentation","95","121136","0.0-20.0-1.7","SS1613169335133","trial","","40","800","1245.9550000028685","images/stimuli/spore_stims/simple_11_B_a.gif","images/stimuli/spore_stims/simple_11_A_a.gif","","","","","4","simple_similar","images/stimuli/spore_stims/simple_11_A_a.gif","middle","","","","",""
"","786.3399999914691","html-keyboard-response","96","121941","0.0-21.0","SS1613169335133","pref_question","","98","","","","","<video width ='960' height = '540' style='padding-top:8%' autoplay muted><source src='images/stimuli/wall_pref.mp4' type='video/mp4'></video>","2","middle","45%","4","","","","","","","",""
"","122.26499999815132","sequential-stimulus-presentation","97","122879","0.0-22.0","SS1613169335133","pref_reveal","","40","800","922.2649999981513","null","null","","","","","4","","","","background","","","",""
"","null","html-keyboard-response","98","124021","0.0-23.0-0.0","SS1613169335133","","","null","","","","","<p><img src= images/blank.png width =""200"" height = ""200"" style = ""float:right""></p><p><img src=images/blank.png width =""800"" height = ""200""></p>","","","","","","","","","","","",""
"","124.54499999876134","sequential-stimulus-presentation","99","124973","0.0-23.0-1.0","SS1613169335133","trial","","40","800","924.5449999987613","images/stimuli/spore_stims/complex_16_A_c.gif","images/stimuli/spore_stims/complex_16_B_c.gif","","","","","5","complex_similar","images/stimuli/spore_stims/complex_16_B_c.gif","left","","","","",""
"","null","html-keyboard-response","100","126251","0.0-23.0-0.1","SS1613169335133","","","null","","","","","<p><img src= images/blank.png width =""200"" height = ""200"" style = ""float:right""></p><p><img src=images/blank.png width =""800"" height = ""200""></p>","","","","","","","","","","","",""
"","427.60499998985324","sequential-stimulus-presentation","101","127502","0.0-23.0-1.1","SS1613169335133","trial","","40","800","1227.6049999898532","images/stimuli/spore_stims/complex_16_A_c.gif","images/stimuli/spore_stims/complex_16_B_c.gif","","","","","5","complex_similar","images/stimuli/spore_stims/complex_16_B_c.gif","left","","","","",""
"","null","html-keyboard-response","102","128676","0.0-23.0-0.2","SS1613169335133","","","null","","","","","<p><img src= images/blank.png width =""200"" height = ""200"" style = ""float:right""></p><p><img src=images/blank.png width =""800"" height = ""200""></p>","","","","","","","","","","","",""
"","220.85500000684988","sequential-stimulus-presentation","103","129718","0.0-23.0-1.2","SS1613169335133","trial","","40","800","1020.8550000068499","images/stimuli/spore_stims/complex_16_A_c.gif","images/stimuli/spore_stims/complex_16_B_c.gif","","","","","5","complex_similar","images/stimuli/spore_stims/complex_16_B_c.gif","left","","","","",""
"","null","html-keyboard-response","104","130754","0.0-23.0-0.3","SS1613169335133","","","null","","","","","<p><img src= images/blank.png width =""200"" height = ""200"" style = ""float:right""></p><p><img src=images/blank.png width =""800"" height = ""200""></p>","","","","","","","","","","","",""
"","51.63499999616761","sequential-stimulus-presentation","105","131624","0.0-23.0-1.3","SS1613169335133","trial","","40","800","851.6349999961676","images/stimuli/spore_stims/complex_16_A_c.gif","images/stimuli/spore_stims/complex_16_B_c.gif","","","","","5","complex_similar","images/stimuli/spore_stims/complex_16_A_c.gif","middle","","","","",""
"","null","html-keyboard-response","106","132730","0.0-23.0-0.4","SS1613169335133","","","null","","","","","<p><img src= images/blank.png width =""200"" height = ""200"" style = ""float:right""></p><p><img src=images/blank.png width =""800"" height = ""200""></p>","","","","","","","","","","","",""
"","187.33000000065658","sequential-stimulus-presentation","107","133736","0.0-23.0-1.4","SS1613169335133","trial","","40","800","987.3300000006566","images/stimuli/spore_stims/complex_16_A_c.gif","images/stimuli/spore_stims/complex_16_B_c.gif","","","","","5","complex_similar","images/stimuli/spore_stims/complex_16_B_c.gif","left","","","","",""
"","null","html-keyboard-response","108","134658","0.0-23.0-0.5","SS1613169335133","","","null","","","","","<p><img src= images/blank.png width =""200"" height = ""200"" style = ""float:right""></p><p><img src=images/blank.png width =""800"" height = ""200""></p>","","","","","","","","","","","",""
"","96.33000000030734","sequential-stimulus-presentation","109","135582","0.0-23.0-1.5","SS1613169335133","trial","","40","800","896.3300000003073","images/stimuli/spore_stims/complex_16_A_c.gif","images/stimuli/spore_stims/complex_16_B_c.gif","","","","","5","complex_similar","images/stimuli/spore_stims/complex_16_B_c.gif","left","","","","",""
"","null","html-keyboard-response","110","136809","0.0-23.0-0.6","SS1613169335133","","","null","","","","","<p><img src= images/blank.png width =""200"" height = ""200"" style = ""float:right""></p><p><img src=images/blank.png width =""800"" height = ""200""></p>","","","","","","","","","","","",""
"","91.27000000444241","sequential-stimulus-presentation","111","137725","0.0-23.0-1.6","SS1613169335133","trial","","40","800","891.2700000044424","images/stimuli/spore_stims/complex_16_A_c.gif","images/stimuli/spore_stims/complex_16_B_c.gif","","","","","5","complex_similar","images/stimuli/spore_stims/complex_16_B_c.gif","left","","","","",""
"","null","html-keyboard-response","112","139022","0.0-23.0-0.7","SS1613169335133","","","null","","","","","<p><img src= images/blank.png width =""200"" height = ""200"" style = ""float:right""></p><p><img src=images/blank.png width =""800"" height = ""200""></p>","","","","","","","","","","","",""
"","18.830000000889413","sequential-stimulus-presentation","113","139861","0.0-23.0-1.7","SS1613169335133","trial","","40","800","818.8300000008894","images/stimuli/spore_stims/complex_16_A_c.gif","images/stimuli/spore_stims/complex_16_B_c.gif","","","","","5","complex_similar","images/stimuli/spore_stims/complex_16_B_c.gif","left","","","","",""
"","927.2950000013225","html-keyboard-response","114","140803","0.0-24.0","SS1613169335133","pref_question","","99","","","","","<video width ='960' height = '540' style='padding-top:8%' autoplay muted><source src='images/stimuli/wall_pref.mp4' type='video/mp4'></video>","3","right","66%","5","","","","","","","",""
"","258.4250000072643","sequential-stimulus-presentation","115","141882","0.0-25.0","SS1613169335133","pref_reveal","","40","800","1058.4250000072643","null","null","","","","","5","","","","novel","","","",""
"","null","html-keyboard-response","116","143137","0.0-26.0-0.0","SS1613169335133","","","null","","","","","<p><img src= images/blank.png width =""200"" height = ""200"" style = ""float:right""></p><p><img src=images/blank.png width =""800"" height = ""200""></p>","","","","","","","","","","","",""
"","140.9600000042701","sequential-stimulus-presentation","117","144110","0.0-26.0-1.0","SS1613169335133","trial","","40","800","940.9600000042701","images/stimuli/spore_stims/complex_18_B_c.gif","images/stimuli/spore_stims/complex_02_A_a.gif","","","","","6","complex_dissimilar","images/stimuli/spore_stims/complex_02_A_a.gif","left","","","","",""
"","null","html-keyboard-response","118","145169","0.0-26.0-0.1","SS1613169335133","","","null","","","","","<p><img src= images/blank.png width =""200"" height = ""200"" style = ""float:right""></p><p><img src=images/blank.png width =""800"" height = ""200""></p>","","","","","","","","","","","",""
"","212.85500000522006","sequential-stimulus-presentation","119","146203","0.0-26.0-1.1","SS1613169335133","trial","","40","800","1012.8550000052201","images/stimuli/spore_stims/complex_18_B_c.gif","images/stimuli/spore_stims/complex_02_A_a.gif","","","","","6","complex_dissimilar","images/stimuli/spore_stims/complex_02_A_a.gif","left","","","","",""
"","null","html-keyboard-response","120","147370","0.0-26.0-0.2","SS1613169335133","","","null","","","","","<p><img src= images/blank.png width =""200"" height = ""200"" style = ""float:right""></p><p><img src=images/blank.png width =""800"" height = ""200""></p>","","","","","","","","","","","",""
"","32.03499999654014","sequential-stimulus-presentation","121","148231","0.0-26.0-1.2","SS1613169335133","trial","","40","800","832.0349999965401","images/stimuli/spore_stims/complex_18_B_c.gif","images/stimuli/spore_stims/complex_02_A_a.gif","","","","","6","complex_dissimilar","images/stimuli/spore_stims/complex_02_A_a.gif","left","","","","",""
"","null","html-keyboard-response","122","149132","0.0-26.0-0.3","SS1613169335133","","","null","","","","","<p><img src= images/blank.png width =""200"" height = ""200"" style = ""float:right""></p><p><img src=images/blank.png width =""800"" height = ""200""></p>","","","","","","","","","","","",""
"","121.24999999650754","sequential-stimulus-presentation","123","150080","0.0-26.0-1.3","SS1613169335133","trial","","40","800","921.2499999965075","images/stimuli/spore_stims/complex_18_B_c.gif","images/stimuli/spore_stims/complex_02_A_a.gif","","","","","6","complex_dissimilar","images/stimuli/spore_stims/complex_02_A_a.gif","left","","","","",""
"","null","html-keyboard-response","124","151040","0.0-26.0-0.4","SS1613169335133","","","null","","","","","<p><img src= images/blank.png width =""200"" height = ""200"" style = ""float:right""></p><p><img src=images/blank.png width =""800"" height = ""200""></p>","","","","","","","","","","","",""
"","18.439999999827705","sequential-stimulus-presentation","125","151881","0.0-26.0-1.4","SS1613169335133","trial","","40","800","818.4399999998277","images/stimuli/spore_stims/complex_18_B_c.gif","images/stimuli/spore_stims/complex_02_A_a.gif","","","","","6","complex_dissimilar","images/stimuli/spore_stims/complex_02_A_a.gif","left","","","","",""
"","null","html-keyboard-response","126","153164","0.0-26.0-0.5","SS1613169335133","","","null","","","","","<p><img src= images/blank.png width =""200"" height = ""200"" style = ""float:right""></p><p><img src=images/blank.png width =""800"" height = ""200""></p>","","","","","","","","","","","",""
"","13.925000006565824","sequential-stimulus-presentation","127","154005","0.0-26.0-1.5","SS1613169335133","trial","","40","800","813.9250000065658","images/stimuli/spore_stims/complex_18_B_c.gif","images/stimuli/spore_stims/complex_02_A_a.gif","","","","","6","complex_dissimilar","images/stimuli/spore_stims/complex_02_A_a.gif","left","","","","",""
"","null","html-keyboard-response","128","155281","0.0-26.0-0.6","SS1613169335133","","","null","","","","","<p><img src= images/blank.png width =""200"" height = ""200"" style = ""float:right""></p><p><img src=images/blank.png width =""800"" height = ""200""></p>","","","","","","","","","","","",""
"","38.53999999410007","sequential-stimulus-presentation","129","156143","0.0-26.0-1.6","SS1613169335133","trial","","40","800","838.5399999941001","images/stimuli/spore_stims/complex_18_B_c.gif","images/stimuli/spore_stims/complex_02_A_a.gif","","","","","6","complex_dissimilar","images/stimuli/spore_stims/complex_18_B_c.gif","middle","","","","",""
"","null","html-keyboard-response","130","157319","0.0-26.0-0.7","SS1613169335133","","","null","","","","","<p><img src= images/blank.png width =""200"" height = ""200"" style = ""float:right""></p><p><img src=images/blank.png width =""800"" height = ""200""></p>","","","","","","","","","","","",""
"","158.25999999651685","sequential-stimulus-presentation","131","158306","0.0-26.0-1.7","SS1613169335133","trial","","40","800","958.2599999965169","images/stimuli/spore_stims/complex_18_B_c.gif","images/stimuli/spore_stims/complex_02_A_a.gif","","","","","6","complex_dissimilar","images/stimuli/spore_stims/complex_02_A_a.gif","left","","","","",""
"","851.81000000739","html-keyboard-response","132","159181","0.0-27.0","SS1613169335133","pref_question","","99","","","","","<video width ='960' height = '540' style='padding-top:8%' autoplay muted><source src='images/stimuli/wall_pref.mp4' type='video/mp4'></video>","3","right","66%","6","","","","","","","",""
"","320.2749999909429","sequential-stimulus-presentation","133","160319","0.0-28.0","SS1613169335133","pref_reveal","","40","800","1120.274999990943","null","null","","","","","6","","","","novel","","","",""
"","null","html-keyboard-response","134","161343","0.0-29.0-0.0","SS1613169335133","","","null","","","","","<p><img src= images/blank.png width =""200"" height = ""200"" style = ""float:right""></p><p><img src=images/blank.png width =""800"" height = ""200""></p>","","","","","","","","","","","",""
"","26.5849999996135","sequential-stimulus-presentation","135","162188","0.0-29.0-1.0","SS1613169335133","trial","","40","800","826.5849999996135","images/stimuli/spore_stims/complex_19_A_c.gif","images/stimuli/spore_stims/complex_19_B_c.gif","","","","","7","complex_similar","images/stimuli/spore_stims/complex_19_B_c.gif","right","","","","",""
"","null","html-keyboard-response","136","163336","0.0-29.0-0.1","SS1613169335133","","","null","","","","","<p><img src= images/blank.png width =""200"" height = ""200"" style = ""float:right""></p><p><img src=images/blank.png width =""800"" height = ""200""></p>","","","","","","","","","","","",""
"","76.48499999777414","sequential-stimulus-presentation","137","164236","0.0-29.0-1.1","SS1613169335133","trial","","40","800","876.4849999977741","images/stimuli/spore_stims/complex_19_A_c.gif","images/stimuli/spore_stims/complex_19_B_c.gif","","","","","7","complex_similar","images/stimuli/spore_stims/complex_19_B_c.gif","right","","","","",""
"","null","html-keyboard-response","138","165313","0.0-29.0-0.2","SS1613169335133","","","null","","","","","<p><img src= images/blank.png width =""200"" height = ""200"" style = ""float:right""></p><p><img src=images/blank.png width =""800"" height = ""200""></p>","","","","","","","","","","","",""
"","191.02999998722225","sequential-stimulus-presentation","139","166330","0.0-29.0-1.2","SS1613169335133","trial","","40","800","991.0299999872223","images/stimuli/spore_stims/complex_19_A_c.gif","images/stimuli/spore_stims/complex_19_B_c.gif","","","","","7","complex_similar","images/stimuli/spore_stims/complex_19_B_c.gif","right","","","","",""
"","null","html-keyboard-response","140","167490","0.0-29.0-0.3","SS1613169335133","","","null","","","","","<p><img src= images/blank.png width =""200"" height = ""200"" style = ""float:right""></p><p><img src=images/blank.png width =""800"" height = ""200""></p>","","","","","","","","","","","",""
"","96.20500000892207","sequential-stimulus-presentation","141","168426","0.0-29.0-1.3","SS1613169335133","trial","","40","800","896.2050000089221","images/stimuli/spore_stims/complex_19_A_c.gif","images/stimuli/spore_stims/complex_19_B_c.gif","","","","","7","complex_similar","images/stimuli/spore_stims/complex_19_B_c.gif","right","","","","",""
"","null","html-keyboard-response","142","169355","0.0-29.0-0.4","SS1613169335133","","","null","","","","","<p><img src= images/blank.png width =""200"" height = ""200"" style = ""float:right""></p><p><img src=images/blank.png width =""800"" height = ""200""></p>","","","","","","","","","","","",""
"","113.41499999980442","sequential-stimulus-presentation","143","170292","0.0-29.0-1.4","SS1613169335133","trial","","40","800","913.4149999998044","images/stimuli/spore_stims/complex_19_A_c.gif","images/stimuli/spore_stims/complex_19_B_c.gif","","","","","7","complex_similar","images/stimuli/spore_stims/complex_19_A_c.gif","middle","","","","",""
"","null","html-keyboard-response","144","171536","0.0-29.0-0.5","SS1613169335133","","","null","","","","","<p><img src= images/blank.png width =""200"" height = ""200"" style = ""float:right""></p><p><img src=images/blank.png width =""800"" height = ""200""></p>","","","","","","","","","","","",""
"","13.365000006160699","sequential-stimulus-presentation","145","172382","0.0-29.0-1.5","SS1613169335133","trial","","40","800","813.3650000061607","images/stimuli/spore_stims/complex_19_A_c.gif","images/stimuli/spore_stims/complex_19_B_c.gif","","","","","7","complex_similar","images/stimuli/spore_stims/complex_19_B_c.gif","right","","","","",""
"","null","html-keyboard-response","146","173414","0.0-29.0-0.6","SS1613169335133","","","null","","","","","<p><img src= images/blank.png width =""200"" height = ""200"" style = ""float:right""></p><p><img src=images/blank.png width =""800"" height = ""200""></p>","","","","","","","","","","","",""
"","159.92499999993015","sequential-stimulus-presentation","147","174408","0.0-29.0-1.6","SS1613169335133","trial","","40","800","959.9249999999302","images/stimuli/spore_stims/complex_19_A_c.gif","images/stimuli/spore_stims/complex_19_B_c.gif","","","","","7","complex_similar","images/stimuli/spore_stims/complex_19_B_c.gif","right","","","","",""
"","null","html-keyboard-response","148","175284","0.0-29.0-0.7","SS1613169335133","","","null","","","","","<p><img src= images/blank.png width =""200"" height = ""200"" style = ""float:right""></p><p><img src=images/blank.png width =""800"" height = ""200""></p>","","","","","","","","","","","",""
"","19.23000000533648","sequential-stimulus-presentation","149","176132","0.0-29.0-1.7","SS1613169335133","trial","","40","800","819.2300000053365","images/stimuli/spore_stims/complex_19_A_c.gif","images/stimuli/spore_stims/complex_19_B_c.gif","","","","","7","complex_similar","images/stimuli/spore_stims/complex_19_B_c.gif","right","","","","",""
"","905.0900000002002","html-keyboard-response","150","177062","0.0-30.0","SS1613169335133","pref_question","","99","","","","","<video width ='960' height = '540' style='padding-top:8%' autoplay muted><source src='images/stimuli/wall_pref.mp4' type='video/mp4'></video>","3","right","66%","7","","","","","","","",""
"","211.3099999987753","sequential-stimulus-presentation","151","178106","0.0-31.0","SS1613169335133","pref_reveal","","40","800","1011.3099999987753","null","null","","","","","7","","","","background","","","",""
"","null","html-keyboard-response","152","179401","0.0-32.0-0.0","SS1613169335133","","","null","","","","","<p><img src= images/blank.png width =""200"" height = ""200"" style = ""float:right""></p><p><img src=images/blank.png width =""800"" height = ""200""></p>","","","","","","","","","","","",""
"","21.730000007664785","sequential-stimulus-presentation","153","180258","0.0-32.0-1.0","SS1613169335133","trial","","40","800","821.7300000076648","images/stimuli/spore_stims/complex_04_A_c.gif","images/stimuli/spore_stims/complex_01_A_d.gif","","","","","8","complex_dissimilar","images/stimuli/spore_stims/complex_01_A_d.gif","right","","","","",""
"","null","html-keyboard-response","154","181562","0.0-32.0-0.1","SS1613169335133","","","null","","","","","<p><img src= images/blank.png width =""200"" height = ""200"" style = ""float:right""></p><p><img src=images/blank.png width =""800"" height = ""200""></p>","","","","","","","","","","","",""
"","294.12999999476597","sequential-stimulus-presentation","155","182688","0.0-32.0-1.1","SS1613169335133","trial","","40","800","1094.129999994766","images/stimuli/spore_stims/complex_04_A_c.gif","images/stimuli/spore_stims/complex_01_A_d.gif","","","","","8","complex_dissimilar","images/stimuli/spore_stims/complex_01_A_d.gif","right","","","","",""
"","null","html-keyboard-response","156","183607","0.0-32.0-0.2","SS1613169335133","","","null","","","","","<p><img src= images/blank.png width =""200"" height = ""200"" style = ""float:right""></p><p><img src=images/blank.png width =""800"" height = ""200""></p>","","","","","","","","","","","",""
"","188.39500000467524","sequential-stimulus-presentation","157","184626","0.0-32.0-1.2","SS1613169335133","trial","","40","800","988.3950000046752","images/stimuli/spore_stims/complex_04_A_c.gif","images/stimuli/spore_stims/complex_01_A_d.gif","","","","","8","complex_dissimilar","images/stimuli/spore_stims/complex_01_A_d.gif","right","","","","",""
"","null","html-keyboard-response","158","185705","0.0-32.0-0.3","SS1613169335133","","","null","","","","","<p><img src= images/blank.png width =""200"" height = ""200"" style = ""float:right""></p><p><img src=images/blank.png width =""800"" height = ""200""></p>","","","","","","","","","","","",""
"","186.25500000780448","sequential-stimulus-presentation","159","186721","0.0-32.0-1.3","SS1613169335133","trial","","40","800","986.2550000078045","images/stimuli/spore_stims/complex_04_A_c.gif","images/stimuli/spore_stims/complex_01_A_d.gif","","","","","8","complex_dissimilar","images/stimuli/spore_stims/complex_04_A_c.gif","middle","","","","",""
"","null","html-keyboard-response","160","187857","0.0-32.0-0.4","SS1613169335133","","","null","","","","","<p><img src= images/blank.png width =""200"" height = ""200"" style = ""float:right""></p><p><img src=images/blank.png width =""800"" height = ""200""></p>","","","","","","","","","","","",""
"","249.8500000074273","sequential-stimulus-presentation","161","188938","0.0-32.0-1.4","SS1613169335133","trial","","40","800","1049.8500000074273","images/stimuli/spore_stims/complex_04_A_c.gif","images/stimuli/spore_stims/complex_01_A_d.gif","","","","","8","complex_dissimilar","images/stimuli/spore_stims/complex_01_A_d.gif","right","","","","",""
"","null","html-keyboard-response","162","189962","0.0-32.0-0.5","SS1613169335133","","","null","","","","","<p><img src= images/blank.png width =""200"" height = ""200"" style = ""float:right""></p><p><img src=images/blank.png width =""800"" height = ""200""></p>","","","","","","","","","","","",""
"","283.66499999538064","sequential-stimulus-presentation","163","191068","0.0-32.0-1.5","SS1613169335133","trial","","40","800","1083.6649999953806","images/stimuli/spore_stims/complex_04_A_c.gif","images/stimuli/spore_stims/complex_01_A_d.gif","","","","","8","complex_dissimilar","images/stimuli/spore_stims/complex_01_A_d.gif","right","","","","",""
"","null","html-keyboard-response","164","192334","0.0-32.0-0.6","SS1613169335133","","","null","","","","","<p><img src= images/blank.png width =""200"" height = ""200"" style = ""float:right""></p><p><img src=images/blank.png width =""800"" height = ""200""></p>","","","","","","","","","","","",""
"","59.72499999916181","sequential-stimulus-presentation","165","193222","0.0-32.0-1.6","SS1613169335133","trial","","40","800","859.7249999991618","images/stimuli/spore_stims/complex_04_A_c.gif","images/stimuli/spore_stims/complex_01_A_d.gif","","","","","8","complex_dissimilar","images/stimuli/spore_stims/complex_01_A_d.gif","right","","","","",""
"","null","html-keyboard-response","166","194176","0.0-32.0-0.7","SS1613169335133","","","null","","","","","<p><img src= images/blank.png width =""200"" height = ""200"" style = ""float:right""></p><p><img src=images/blank.png width =""800"" height = ""200""></p>","","","","","","","","","","","",""
"","68.31500001135282","sequential-stimulus-presentation","167","195077","0.0-32.0-1.7","SS1613169335133","trial","","40","800","868.3150000113528","images/stimuli/spore_stims/complex_04_A_c.gif","images/stimuli/spore_stims/complex_01_A_d.gif","","","","","8","complex_dissimilar","images/stimuli/spore_stims/complex_01_A_d.gif","right","","","","",""
"","168.47999999299645","html-keyboard-response","168","195267","0.0-33.0","SS1613169335133","pref_question","","99","","","","","<video width ='960' height = '540' style='padding-top:8%' autoplay muted><source src='images/stimuli/wall_pref.mp4' type='video/mp4'></video>","3","right","66%","8","","","","","","","",""
"","42.564999996102415","sequential-stimulus-presentation","169","196142","0.0-34.0","SS1613169335133","pref_reveal","","40","800","842.5649999961024","null","null","","","","","8","","","","background","","","",""
"","null","html-keyboard-response","170","197274","0.0-35.0-0.0","SS1613169335133","","","null","","","","","<p><img src= images/blank.png width =""200"" height = ""200"" style = ""float:right""></p><p><img src=images/blank.png width =""800"" height = ""200""></p>","","","","","","","","","","","",""
"","155.5450000014389","sequential-stimulus-presentation","171","198256","0.0-35.0-1.0","SS1613169335133","trial","","40","800","955.5450000014389","images/stimuli/spore_stims/complex_03_A_b.gif","images/stimuli/spore_stims/complex_08_B_b.gif","","","","","9","complex_dissimilar","images/stimuli/spore_stims/complex_08_B_b.gif","middle","","","","",""
"","null","html-keyboard-response","172","199387","0.0-35.0-0.1","SS1613169335133","","","null","","","","","<p><img src= images/blank.png width =""200"" height = ""200"" style = ""float:right""></p><p><img src=images/blank.png width =""800"" height = ""200""></p>","","","","","","","","","","","",""
"","190.74999999429565","sequential-stimulus-presentation","173","200400","0.0-35.0-1.1","SS1613169335133","trial","","40","800","990.7499999942956","images/stimuli/spore_stims/complex_03_A_b.gif","images/stimuli/spore_stims/complex_08_B_b.gif","","","","","9","complex_dissimilar","images/stimuli/spore_stims/complex_08_B_b.gif","middle","","","","",""
"","null","html-keyboard-response","174","201424","0.0-35.0-0.2","SS1613169335133","","","null","","","","","<p><img src= images/blank.png width =""200"" height = ""200"" style = ""float:right""></p><p><img src=images/blank.png width =""800"" height = ""200""></p>","","","","","","","","","","","",""
"","2457.794999994803","sequential-stimulus-presentation","175","204705","0.0-35.0-1.2","SS1613169335133","trial","","40","800","3257.794999994803","images/stimuli/spore_stims/complex_03_A_b.gif","images/stimuli/spore_stims/complex_08_B_b.gif","","","","","9","complex_dissimilar","images/stimuli/spore_stims/complex_08_B_b.gif","middle","","","","",""
"","null","html-keyboard-response","176","205968","0.0-35.0-0.3","SS1613169335133","","","null","","","","","<p><img src= images/blank.png width =""200"" height = ""200"" style = ""float:right""></p><p><img src=images/blank.png width =""800"" height = ""200""></p>","","","","","","","","","","","",""
"","247.17999999120366","sequential-stimulus-presentation","177","207041","0.0-35.0-1.3","SS1613169335133","trial","","40","800","1047.1799999912037","images/stimuli/spore_stims/complex_03_A_b.gif","images/stimuli/spore_stims/complex_08_B_b.gif","","","","","9","complex_dissimilar","images/stimuli/spore_stims/complex_08_B_b.gif","middle","","","","",""
"","null","html-keyboard-response","178","208281","0.0-35.0-0.4","SS1613169335133","","","null","","","","","<p><img src= images/blank.png width =""200"" height = ""200"" style = ""float:right""></p><p><img src=images/blank.png width =""800"" height = ""200""></p>","","","","","","","","","","","",""
"","632.4650000024121","sequential-stimulus-presentation","179","209749","0.0-35.0-1.4","SS1613169335133","trial","","40","800","1432.4650000024121","images/stimuli/spore_stims/complex_03_A_b.gif","images/stimuli/spore_stims/complex_08_B_b.gif","","","","","9","complex_dissimilar","images/stimuli/spore_stims/complex_08_B_b.gif","middle","","","","",""
"","null","html-keyboard-response","180","210652","0.0-35.0-0.5","SS1613169335133","","","null","","","","","<p><img src= images/blank.png width =""200"" height = ""200"" style = ""float:right""></p><p><img src=images/blank.png width =""800"" height = ""200""></p>","","","","","","","","","","","",""
"","191.8500000028871","sequential-stimulus-presentation","181","211676","0.0-35.0-1.5","SS1613169335133","trial","","40","800","991.8500000028871","images/stimuli/spore_stims/complex_03_A_b.gif","images/stimuli/spore_stims/complex_08_B_b.gif","","","","","9","complex_dissimilar","images/stimuli/spore_stims/complex_08_B_b.gif","middle","","","","",""
"","null","html-keyboard-response","182","212638","0.0-35.0-0.6","SS1613169335133","","","null","","","","","<p><img src= images/blank.png width =""200"" height = ""200"" style = ""float:right""></p><p><img src=images/blank.png width =""800"" height = ""200""></p>","","","","","","","","","","","",""
"","318.5500000108732","sequential-stimulus-presentation","183","213782","0.0-35.0-1.6","SS1613169335133","trial","","40","800","1118.5500000108732","images/stimuli/spore_stims/complex_03_A_b.gif","images/stimuli/spore_stims/complex_08_B_b.gif","","","","","9","complex_dissimilar","images/stimuli/spore_stims/complex_03_A_b.gif","right","","","","",""
"","null","html-keyboard-response","184","215098","0.0-35.0-0.7","SS1613169335133","","","null","","","","","<p><img src= images/blank.png width =""200"" height = ""200"" style = ""float:right""></p><p><img src=images/blank.png width =""800"" height = ""200""></p>","","","","","","","","","","","",""
"","546.5150000090944","sequential-stimulus-presentation","185","216481","0.0-35.0-1.7","SS1613169335133","trial","","40","800","1346.5150000090944","images/stimuli/spore_stims/complex_03_A_b.gif","images/stimuli/spore_stims/complex_08_B_b.gif","","","","","9","complex_dissimilar","images/stimuli/spore_stims/complex_08_B_b.gif","middle","","","","",""
"","1.2349999888101593","html-keyboard-response","186","216510","0.0-36.0","SS1613169335133","pref_question","","99","","","","","<video width ='960' height = '540' style='padding-top:8%' autoplay muted><source src='images/stimuli/wall_pref.mp4' type='video/mp4'></video>","3","right","66%","9","","","","","","","",""
"","387.3500000045169","sequential-stimulus-presentation","187","217738","0.0-37.0","SS1613169335133","pref_reveal","","40","800","1187.350000004517","null","null","","","","","9","","","","deviant","","","",""
"","null","html-keyboard-response","188","218914","0.0-38.0-0.0","SS1613169335133","","","null","","","","","<p><img src= images/blank.png width =""200"" height = ""200"" style = ""float:right""></p><p><img src=images/blank.png width =""800"" height = ""200""></p>","","","","","","","","","","","",""
"","1898.0349999910686","sequential-stimulus-presentation","189","221635","0.0-38.0-1.0","SS1613169335133","trial","","40","800","2698.0349999910686","images/stimuli/spore_stims/complex_17_B_d.gif","images/stimuli/spore_stims/complex_17_A_d.gif","","","","","10","complex_similar","images/stimuli/spore_stims/complex_17_A_d.gif","middle","","","","",""
"","null","html-keyboard-response","190","222815","0.0-38.0-0.1","SS1613169335133","","","null","","","","","<p><img src= images/blank.png width =""200"" height = ""200"" style = ""float:right""></p><p><img src=images/blank.png width =""800"" height = ""200""></p>","","","","","","","","","","","",""
"","197.78000000223983","sequential-stimulus-presentation","191","223847","0.0-38.0-1.1","SS1613169335133","trial","","40","800","997.7800000022398","images/stimuli/spore_stims/complex_17_B_d.gif","images/stimuli/spore_stims/complex_17_A_d.gif","","","","","10","complex_similar","images/stimuli/spore_stims/complex_17_A_d.gif","middle","","","","",""
"","null","html-keyboard-response","192","225128","0.0-38.0-0.2","SS1613169335133","","","null","","","","","<p><img src= images/blank.png width =""200"" height = ""200"" style = ""float:right""></p><p><img src=images/blank.png width =""800"" height = ""200""></p>","","","","","","","","","","","",""
"","64.63999999687076","sequential-stimulus-presentation","193","226016","0.0-38.0-1.2","SS1613169335133","trial","","40","800","864.6399999968708","images/stimuli/spore_stims/complex_17_B_d.gif","images/stimuli/spore_stims/complex_17_A_d.gif","","","","","10","complex_similar","images/stimuli/spore_stims/complex_17_A_d.gif","middle","","","","",""
"","null","html-keyboard-response","194","227159","0.0-38.0-0.3","SS1613169335133","","","null","","","","","<p><img src= images/blank.png width =""200"" height = ""200"" style = ""float:right""></p><p><img src=images/blank.png width =""800"" height = ""200""></p>","","","","","","","","","","","",""
"","170.8949999883771","sequential-stimulus-presentation","195","228159","0.0-38.0-1.3","SS1613169335133","trial","","40","800","970.8949999883771","images/stimuli/spore_stims/complex_17_B_d.gif","images/stimuli/spore_stims/complex_17_A_d.gif","","","","","10","complex_similar","images/stimuli/spore_stims/complex_17_A_d.gif","middle","","","","",""
"","null","html-keyboard-response","196","229099","0.0-38.0-0.4","SS1613169335133","","","null","","","","","<p><img src= images/blank.png width =""200"" height = ""200"" style = ""float:right""></p><p><img src=images/blank.png width =""800"" height = ""200""></p>","","","","","","","","","","","",""
"","61.43499999598134","sequential-stimulus-presentation","197","229985","0.0-38.0-1.4","SS1613169335133","trial","","40","800","861.4349999959813","images/stimuli/spore_stims/complex_17_B_d.gif","images/stimuli/spore_stims/complex_17_A_d.gif","","","","","10","complex_similar","images/stimuli/spore_stims/complex_17_A_d.gif","middle","","","","",""
"","null","html-keyboard-response","198","231213","0.0-38.0-0.5","SS1613169335133","","","null","","","","","<p><img src= images/blank.png width =""200"" height = ""200"" style = ""float:right""></p><p><img src=images/blank.png width =""800"" height = ""200""></p>","","","","","","","","","","","",""
"","391.8999999877997","sequential-stimulus-presentation","199","232441","0.0-38.0-1.5","SS1613169335133","trial","","40","800","1191.8999999877997","images/stimuli/spore_stims/complex_17_B_d.gif","images/stimuli/spore_stims/complex_17_A_d.gif","","","","","10","complex_similar","images/stimuli/spore_stims/complex_17_A_d.gif","middle","","","","",""
"","null","html-keyboard-response","200","233434","0.0-38.0-0.6","SS1613169335133","","","null","","","","","<p><img src= images/blank.png width =""200"" height = ""200"" style = ""float:right""></p><p><img src=images/blank.png width =""800"" height = ""200""></p>","","","","","","","","","","","",""
"","350.0099999946542","sequential-stimulus-presentation","201","234616","0.0-38.0-1.6","SS1613169335133","trial","","40","800","1150.0099999946542","images/stimuli/spore_stims/complex_17_B_d.gif","images/stimuli/spore_stims/complex_17_A_d.gif","","","","","10","complex_similar","images/stimuli/spore_stims/complex_17_B_d.gif","right","","","","",""
"","null","html-keyboard-response","202","235454","0.0-38.0-0.7","SS1613169335133","","","null","","","","","<p><img src= images/blank.png width =""200"" height = ""200"" style = ""float:right""></p><p><img src=images/blank.png width =""800"" height = ""200""></p>","","","","","","","","","","","",""
"","166.50999999546912","sequential-stimulus-presentation","203","236456","0.0-38.0-1.7","SS1613169335133","trial","","40","800","966.5099999954691","images/stimuli/spore_stims/complex_17_B_d.gif","images/stimuli/spore_stims/complex_17_A_d.gif","","","","","10","complex_similar","images/stimuli/spore_stims/complex_17_A_d.gif","middle","","","","",""
"","8.459999997285195","html-keyboard-response","204","236488","0.0-39.0","SS1613169335133","pref_question","","97","","","","","<video width ='960' height = '540' style='padding-top:8%' autoplay muted><source src='images/stimuli/wall_pref.mp4' type='video/mp4'></video>","1","left","25%","10","","","","","","","",""
"","1.2149999965913594","sequential-stimulus-presentation","205","237331","0.0-40.0","SS1613169335133","pref_reveal","","40","800","801.2149999965914","null","null","","","","","10","","","","novel","","","",""
"","null","html-keyboard-response","206","238176","0.0-41.0-0.0","SS1613169335133","","","null","","","","","<p><img src= images/blank.png width =""200"" height = ""200"" style = ""float:right""></p><p><img src=images/blank.png width =""800"" height = ""200""></p>","","","","","","","","","","","",""
"","1204.3350000021746","sequential-stimulus-presentation","207","240212","0.0-41.0-1.0","SS1613169335133","trial","","40","800","2004.3350000021746","images/stimuli/spore_stims/simple_08_A_c.gif","images/stimuli/spore_stims/simple_15_A_a.gif","","","","","11","simple_dissimilar","images/stimuli/spore_stims/simple_15_A_a.gif","middle","","","","",""
"","null","html-keyboard-response","208","241444","0.0-41.0-0.1","SS1613169335133","","","null","","","","","<p><img src= images/blank.png width =""200"" height = ""200"" style = ""float:right""></p><p><img src=images/blank.png width =""800"" height = ""200""></p>","","","","","","","","","","","",""
"","83.5300000035204","sequential-stimulus-presentation","209","242357","0.0-41.0-1.1","SS1613169335133","trial","","40","800","883.5300000035204","images/stimuli/spore_stims/simple_08_A_c.gif","images/stimuli/spore_stims/simple_15_A_a.gif","","","","","11","simple_dissimilar","images/stimuli/spore_stims/simple_15_A_a.gif","middle","","","","",""
"","null","html-keyboard-response","210","243270","0.0-41.0-0.2","SS1613169335133","","","null","","","","","<p><img src= images/blank.png width =""200"" height = ""200"" style = ""float:right""></p><p><img src=images/blank.png width =""800"" height = ""200""></p>","","","","","","","","","","","",""
"","182.2600000014063","sequential-stimulus-presentation","211","244289","0.0-41.0-1.2","SS1613169335133","trial","","40","800","982.2600000014063","images/stimuli/spore_stims/simple_08_A_c.gif","images/stimuli/spore_stims/simple_15_A_a.gif","","","","","11","simple_dissimilar","images/stimuli/spore_stims/simple_15_A_a.gif","middle","","","","",""
"","null","html-keyboard-response","212","245290","0.0-41.0-0.3","SS1613169335133","","","null","","","","","<p><img src= images/blank.png width =""200"" height = ""200"" style = ""float:right""></p><p><img src=images/blank.png width =""800"" height = ""200""></p>","","","","","","","","","","","",""
"","159.94500000670087","sequential-stimulus-presentation","213","246274","0.0-41.0-1.3","SS1613169335133","trial","","40","800","959.9450000067009","images/stimuli/spore_stims/simple_08_A_c.gif","images/stimuli/spore_stims/simple_15_A_a.gif","","","","","11","simple_dissimilar","images/stimuli/spore_stims/simple_15_A_a.gif","middle","","","","",""
"","null","html-keyboard-response","214","247433","0.0-41.0-0.4","SS1613169335133","","","null","","","","","<p><img src= images/blank.png width =""200"" height = ""200"" style = ""float:right""></p><p><img src=images/blank.png width =""800"" height = ""200""></p>","","","","","","","","","","","",""
"","219.7699999960605","sequential-stimulus-presentation","215","248489","0.0-41.0-1.4","SS1613169335133","trial","","40","800","1019.7699999960605","images/stimuli/spore_stims/simple_08_A_c.gif","images/stimuli/spore_stims/simple_15_A_a.gif","","","","","11","simple_dissimilar","images/stimuli/spore_stims/simple_15_A_a.gif","middle","","","","",""
"","null","html-keyboard-response","216","249386","0.0-41.0-0.5","SS1613169335133","","","null","","","","","<p><img src= images/blank.png width =""200"" height = ""200"" style = ""float:right""></p><p><img src=images/blank.png width =""800"" height = ""200""></p>","","","","","","","","","","","",""
"","51.25500001304317","sequential-stimulus-presentation","217","250262","0.0-41.0-1.5","SS1613169335133","trial","","40","800","851.2550000130432","images/stimuli/spore_stims/simple_08_A_c.gif","images/stimuli/spore_stims/simple_15_A_a.gif","","","","","11","simple_dissimilar","images/stimuli/spore_stims/simple_08_A_c.gif","right","","","","",""
"","null","html-keyboard-response","218","251552","0.0-41.0-0.6","SS1613169335133","","","null","","","","","<p><img src= images/blank.png width =""200"" height = ""200"" style = ""float:right""></p><p><img src=images/blank.png width =""800"" height = ""200""></p>","","","","","","","","","","","",""
"","380.36499998997897","sequential-stimulus-presentation","219","252768","0.0-41.0-1.6","SS1613169335133","trial","","40","800","1180.364999989979","images/stimuli/spore_stims/simple_08_A_c.gif","images/stimuli/spore_stims/simple_15_A_a.gif","","","","","11","simple_dissimilar","images/stimuli/spore_stims/simple_15_A_a.gif","middle","","","","",""
"","null","html-keyboard-response","220","253666","0.0-41.0-0.7","SS1613169335133","","","null","","","","","<p><img src= images/blank.png width =""200"" height = ""200"" style = ""float:right""></p><p><img src=images/blank.png width =""800"" height = ""200""></p>","","","","","","","","","","","",""
"","159.86500000872184","sequential-stimulus-presentation","221","254654","0.0-41.0-1.7","SS1613169335133","trial","","40","800","959.8650000087218","images/stimuli/spore_stims/simple_08_A_c.gif","images/stimuli/spore_stims/simple_15_A_a.gif","","","","","11","simple_dissimilar","images/stimuli/spore_stims/simple_15_A_a.gif","middle","","","","",""
"","0.8250000100815669","html-keyboard-response","222","254679","0.0-42.0","SS1613169335133","pref_question","","97","","","","","<video width ='960' height = '540' style='padding-top:8%' autoplay muted><source src='images/stimuli/wall_pref.mp4' type='video/mp4'></video>","1","left","25%","11","","","","","","","",""
"","213.14500000153203","sequential-stimulus-presentation","223","255725","0.0-43.0","SS1613169335133","pref_reveal","","40","800","1013.145000001532","null","null","","","","","11","","","","novel","","","",""
"","null","html-keyboard-response","224","256805","0.0-44.0-0.0","SS1613169335133","","","null","","","","","<p><img src= images/blank.png width =""200"" height = ""200"" style = ""float:right""></p><p><img src=images/blank.png width =""800"" height = ""200""></p>","","","","","","","","","","","",""
"","335.25999999255873","sequential-stimulus-presentation","225","257975","0.0-44.0-1.0","SS1613169335133","trial","","40","800","1135.2599999925587","images/stimuli/spore_stims/simple_07_B_b.gif","images/stimuli/spore_stims/simple_04_B_b.gif","","","","","12","simple_dissimilar","images/stimuli/spore_stims/simple_04_B_b.gif","right","","","","",""
"","null","html-keyboard-response","226","259050","0.0-44.0-0.1","SS1613169335133","","","null","","","","","<p><img src= images/blank.png width =""200"" height = ""200"" style = ""float:right""></p><p><img src=images/blank.png width =""800"" height = ""200""></p>","","","","","","","","","","","",""
"","155.59500000381377","sequential-stimulus-presentation","227","260035","0.0-44.0-1.1","SS1613169335133","trial","","40","800","955.5950000038138","images/stimuli/spore_stims/simple_07_B_b.gif","images/stimuli/spore_stims/simple_04_B_b.gif","","","","","12","simple_dissimilar","images/stimuli/spore_stims/simple_04_B_b.gif","right","","","","",""
"","null","html-keyboard-response","228","261285","0.0-44.0-0.2","SS1613169335133","","","null","","","","","<p><img src= images/blank.png width =""200"" height = ""200"" style = ""float:right""></p><p><img src=images/blank.png width =""800"" height = ""200""></p>","","","","","","","","","","","",""
"","233.06999998749234","sequential-stimulus-presentation","229","262345","0.0-44.0-1.2","SS1613169335133","trial","","40","800","1033.0699999874923","images/stimuli/spore_stims/simple_07_B_b.gif","images/stimuli/spore_stims/simple_04_B_b.gif","","","","","12","simple_dissimilar","images/stimuli/spore_stims/simple_04_B_b.gif","right","","","","",""
"","null","html-keyboard-response","230","263536","0.0-44.0-0.3","SS1613169335133","","","null","","","","","<p><img src= images/blank.png width =""200"" height = ""200"" style = ""float:right""></p><p><img src=images/blank.png width =""800"" height = ""200""></p>","","","","","","","","","","","",""
"","167.34499999438412","sequential-stimulus-presentation","231","264539","0.0-44.0-1.3","SS1613169335133","trial","","40","800","967.3449999943841","images/stimuli/spore_stims/simple_07_B_b.gif","images/stimuli/spore_stims/simple_04_B_b.gif","","","","","12","simple_dissimilar","images/stimuli/spore_stims/simple_04_B_b.gif","right","","","","",""
"","null","html-keyboard-response","232","265499","0.0-44.0-0.4","SS1613169335133","","","null","","","","","<p><img src= images/blank.png width =""200"" height = ""200"" style = ""float:right""></p><p><img src=images/blank.png width =""800"" height = ""200""></p>","","","","","","","","","","","",""
"","7.6649999973597005","sequential-stimulus-presentation","233","266344","0.0-44.0-1.4","SS1613169335133","trial","","40","800","807.6649999973597","images/stimuli/spore_stims/simple_07_B_b.gif","images/stimuli/spore_stims/simple_04_B_b.gif","","","","","12","simple_dissimilar","images/stimuli/spore_stims/simple_04_B_b.gif","right","","","","",""
"","null","html-keyboard-response","234","267349","0.0-44.0-0.5","SS1613169335133","","","null","","","","","<p><img src= images/blank.png width =""200"" height = ""200"" style = ""float:right""></p><p><img src=images/blank.png width =""800"" height = ""200""></p>","","","","","","","","","","","",""
"","39.2299999948591","sequential-stimulus-presentation","235","268225","0.0-44.0-1.5","SS1613169335133","trial","","40","800","839.2299999948591","images/stimuli/spore_stims/simple_07_B_b.gif","images/stimuli/spore_stims/simple_04_B_b.gif","","","","","12","simple_dissimilar","images/stimuli/spore_stims/simple_07_B_b.gif","middle","","","","",""
"","null","html-keyboard-response","236","269191","0.0-44.0-0.6","SS1613169335133","","","null","","","","","<p><img src= images/blank.png width =""200"" height = ""200"" style = ""float:right""></p><p><img src=images/blank.png width =""800"" height = ""200""></p>","","","","","","","","","","","",""
"","30.8050000021467","sequential-stimulus-presentation","237","270069","0.0-44.0-1.6","SS1613169335133","trial","","40","800","830.8050000021467","images/stimuli/spore_stims/simple_07_B_b.gif","images/stimuli/spore_stims/simple_04_B_b.gif","","","","","12","simple_dissimilar","images/stimuli/spore_stims/simple_04_B_b.gif","right","","","","",""
"","null","html-keyboard-response","238","271274","0.0-44.0-0.7","SS1613169335133","","","null","","","","","<p><img src= images/blank.png width =""200"" height = ""200"" style = ""float:right""></p><p><img src=images/blank.png width =""800"" height = ""200""></p>","","","","","","","","","","","",""
"","78.99499998893589","sequential-stimulus-presentation","239","272190","0.0-44.0-1.7","SS1613169335133","trial","","40","800","878.9949999889359","images/stimuli/spore_stims/simple_07_B_b.gif","images/stimuli/spore_stims/simple_04_B_b.gif","","","","","12","simple_dissimilar","images/stimuli/spore_stims/simple_04_B_b.gif","right","","","","",""
"","181.43500000587665","html-keyboard-response","240","272402","0.0-45.0","SS1613169335133","pref_question","","97","","","","","<video width ='960' height = '540' style='padding-top:8%' autoplay muted><source src='images/stimuli/wall_pref.mp4' type='video/mp4'></video>","1","left","25%","12","","","","","","","",""
"","152.5499999988824","sequential-stimulus-presentation","241","273399","0.0-46.0","SS1613169335133","pref_reveal","","40","800","952.5499999988824","null","null","","","","","12","","","","novel","","","",""
"","null","html-keyboard-response","242","274486","0.0-47.0-0.0","SS1613169335133","","","null","","","","","<p><img src= images/blank.png width =""200"" height = ""200"" style = ""float:right""></p><p><img src=images/blank.png width =""800"" height = ""200""></p>","","","","","","","","","","","",""
"","33.94000000844244","sequential-stimulus-presentation","243","275351","0.0-47.0-1.0","SS1613169335133","trial","","40","800","833.9400000084424","images/stimuli/spore_stims/simple_16_A_d.gif","images/stimuli/spore_stims/simple_03_B_b.gif","","","","","13","simple_dissimilar","images/stimuli/spore_stims/simple_03_B_b.gif","right","","","","",""
"","null","html-keyboard-response","244","276192","0.0-47.0-0.1","SS1613169335133","","","null","","","","","<p><img src= images/blank.png width =""200"" height = ""200"" style = ""float:right""></p><p><img src=images/blank.png width =""800"" height = ""200""></p>","","","","","","","","","","","",""
"","77.70500000333413","sequential-stimulus-presentation","245","277095","0.0-47.0-1.1","SS1613169335133","trial","","40","800","877.7050000033341","images/stimuli/spore_stims/simple_16_A_d.gif","images/stimuli/spore_stims/simple_03_B_b.gif","","","","","13","simple_dissimilar","images/stimuli/spore_stims/simple_03_B_b.gif","right","","","","",""
"","null","html-keyboard-response","246","278388","0.0-47.0-0.2","SS1613169335133","","","null","","","","","<p><img src= images/blank.png width =""200"" height = ""200"" style = ""float:right""></p><p><img src=images/blank.png width =""800"" height = ""200""></p>","","","","","","","","","","","",""
"","71.16000000678468","sequential-stimulus-presentation","247","279296","0.0-47.0-1.2","SS1613169335133","trial","","40","800","871.1600000067847","images/stimuli/spore_stims/simple_16_A_d.gif","images/stimuli/spore_stims/simple_03_B_b.gif","","","","","13","simple_dissimilar","images/stimuli/spore_stims/simple_03_B_b.gif","right","","","","",""
"","null","html-keyboard-response","248","280206","0.0-47.0-0.3","SS1613169335133","","","null","","","","","<p><img src= images/blank.png width =""200"" height = ""200"" style = ""float:right""></p><p><img src=images/blank.png width =""800"" height = ""200""></p>","","","","","","","","","","","",""
"","193.22999998985324","sequential-stimulus-presentation","249","281248","0.0-47.0-1.3","SS1613169335133","trial","","40","800","993.2299999898532","images/stimuli/spore_stims/simple_16_A_d.gif","images/stimuli/spore_stims/simple_03_B_b.gif","","","","","13","simple_dissimilar","images/stimuli/spore_stims/simple_03_B_b.gif","right","","","","",""
"","null","html-keyboard-response","250","282295","0.0-47.0-0.4","SS1613169335133","","","null","","","","","<p><img src= images/blank.png width =""200"" height = ""200"" style = ""float:right""></p><p><img src=images/blank.png width =""800"" height = ""200""></p>","","","","","","","","","","","",""
"","86.19499999622349","sequential-stimulus-presentation","251","283217","0.0-47.0-1.4","SS1613169335133","trial","","40","800","886.1949999962235","images/stimuli/spore_stims/simple_16_A_d.gif","images/stimuli/spore_stims/simple_03_B_b.gif","","","","","13","simple_dissimilar","images/stimuli/spore_stims/simple_03_B_b.gif","right","","","","",""
"","null","html-keyboard-response","252","284358","0.0-47.0-0.5","SS1613169335133","","","null","","","","","<p><img src= images/blank.png width =""200"" height = ""200"" style = ""float:right""></p><p><img src=images/blank.png width =""800"" height = ""200""></p>","","","","","","","","","","","",""
"","90.49499999673571","sequential-stimulus-presentation","253","285277","0.0-47.0-1.5","SS1613169335133","trial","","40","800","890.4949999967357","images/stimuli/spore_stims/simple_16_A_d.gif","images/stimuli/spore_stims/simple_03_B_b.gif","","","","","13","simple_dissimilar","images/stimuli/spore_stims/simple_16_A_d.gif","middle","","","","",""
"","null","html-keyboard-response","254","286391","0.0-47.0-0.6","SS1613169335133","","","null","","","","","<p><img src= images/blank.png width =""200"" height = ""200"" style = ""float:right""></p><p><img src=images/blank.png width =""800"" height = ""200""></p>","","","","","","","","","","","",""
"","133.44999999389984","sequential-stimulus-presentation","255","287361","0.0-47.0-1.6","SS1613169335133","trial","","40","800","933.4499999938998","images/stimuli/spore_stims/simple_16_A_d.gif","images/stimuli/spore_stims/simple_03_B_b.gif","","","","","13","simple_dissimilar","images/stimuli/spore_stims/simple_03_B_b.gif","right","","","","",""
"","null","html-keyboard-response","256","288299","0.0-47.0-0.7","SS1613169335133","","","null","","","","","<p><img src= images/blank.png width =""200"" height = ""200"" style = ""float:right""></p><p><img src=images/blank.png width =""800"" height = ""200""></p>","","","","","","","","","","","",""
"","606.3049999938812","sequential-stimulus-presentation","257","289740","0.0-47.0-1.7","SS1613169335133","trial","","40","800","1406.3049999938812","images/stimuli/spore_stims/simple_16_A_d.gif","images/stimuli/spore_stims/simple_03_B_b.gif","","","","","13","simple_dissimilar","images/stimuli/spore_stims/simple_03_B_b.gif","right","","","","",""
"","8719.020000004093","html-keyboard-response","258","298482","0.0-48.0","SS1613169335133","pref_question","","99","","","","","<video width ='960' height = '540' style='padding-top:8%' autoplay muted><source src='images/stimuli/wall_pref.mp4' type='video/mp4'></video>","3","right","66%","13","","","","","","","",""
"","1432.5400000088848","sequential-stimulus-presentation","259","300746","0.0-49.0","SS1613169335133","pref_reveal","","40","800","2232.540000008885","null","null","","","","","13","","","","background","","","",""
"","null","html-keyboard-response","260","301660","0.0-50.0-0.0","SS1613169335133","","","null","","","","","<p><img src= images/blank.png width =""200"" height = ""200"" style = ""float:right""></p><p><img src=images/blank.png width =""800"" height = ""200""></p>","","","","","","","","","","","",""
"","233.99000000790693","sequential-stimulus-presentation","261","302737","0.0-50.0-1.0","SS1613169335133","trial","","40","800","1033.990000007907","images/stimuli/spore_stims/simple_19_A_b.gif","images/stimuli/spore_stims/simple_11_B_a.gif","","","","","14","simple_dissimilar","images/stimuli/spore_stims/simple_11_B_a.gif","middle","","","","",""
"","null","html-keyboard-response","262","303767","0.0-50.0-0.1","SS1613169335133","","","null","","","","","<p><img src= images/blank.png width =""200"" height = ""200"" style = ""float:right""></p><p><img src=images/blank.png width =""800"" height = ""200""></p>","","","","","","","","","","","",""
"","188.75499999558087","sequential-stimulus-presentation","263","304785","0.0-50.0-1.1","SS1613169335133","trial","","40","800","988.7549999955809","images/stimuli/spore_stims/simple_19_A_b.gif","images/stimuli/spore_stims/simple_11_B_a.gif","","","","","14","simple_dissimilar","images/stimuli/spore_stims/simple_11_B_a.gif","middle","","","","",""
"","null","html-keyboard-response","264","306046","0.0-50.0-0.2","SS1613169335133","","","null","","","","","<p><img src= images/blank.png width =""200"" height = ""200"" style = ""float:right""></p><p><img src=images/blank.png width =""800"" height = ""200""></p>","","","","","","","","","","","",""
"","141.72499999403954","sequential-stimulus-presentation","265","307029","0.0-50.0-1.2","SS1613169335133","trial","","40","800","941.7249999940395","images/stimuli/spore_stims/simple_19_A_b.gif","images/stimuli/spore_stims/simple_11_B_a.gif","","","","","14","simple_dissimilar","images/stimuli/spore_stims/simple_19_A_b.gif","right","","","","",""
"","null","html-keyboard-response","266","308291","0.0-50.0-0.3","SS1613169335133","","","null","","","","","<p><img src= images/blank.png width =""200"" height = ""200"" style = ""float:right""></p><p><img src=images/blank.png width =""800"" height = ""200""></p>","","","","","","","","","","","",""
"","187.5350000045728","sequential-stimulus-presentation","267","309315","0.0-50.0-1.3","SS1613169335133","trial","","40","800","987.5350000045728","images/stimuli/spore_stims/simple_19_A_b.gif","images/stimuli/spore_stims/simple_11_B_a.gif","","","","","14","simple_dissimilar","images/stimuli/spore_stims/simple_11_B_a.gif","middle","","","","",""
"","null","html-keyboard-response","268","310432","0.0-50.0-0.4","SS1613169335133","","","null","","","","","<p><img src= images/blank.png width =""200"" height = ""200"" style = ""float:right""></p><p><img src=images/blank.png width =""800"" height = ""200""></p>","","","","","","","","","","","",""
"","273.92999999574386","sequential-stimulus-presentation","269","311544","0.0-50.0-1.4","SS1613169335133","trial","","40","800","1073.9299999957439","images/stimuli/spore_stims/simple_19_A_b.gif","images/stimuli/spore_stims/simple_11_B_a.gif","","","","","14","simple_dissimilar","images/stimuli/spore_stims/simple_11_B_a.gif","middle","","","","",""
"","null","html-keyboard-response","270","312810","0.0-50.0-0.5","SS1613169335133","","","null","","","","","<p><img src= images/blank.png width =""200"" height = ""200"" style = ""float:right""></p><p><img src=images/blank.png width =""800"" height = ""200""></p>","","","","","","","","","","","",""
"","1.560000004246831","sequential-stimulus-presentation","271","313641","0.0-50.0-1.5","SS1613169335133","trial","","40","800","801.5600000042468","images/stimuli/spore_stims/simple_19_A_b.gif","images/stimuli/spore_stims/simple_11_B_a.gif","","","","","14","simple_dissimilar","images/stimuli/spore_stims/simple_11_B_a.gif","middle","","","","",""
"","null","html-keyboard-response","272","314758","0.0-50.0-0.6","SS1613169335133","","","null","","","","","<p><img src= images/blank.png width =""200"" height = ""200"" style = ""float:right""></p><p><img src=images/blank.png width =""800"" height = ""200""></p>","","","","","","","","","","","",""
"","15.339999998104759","sequential-stimulus-presentation","273","315614","0.0-50.0-1.6","SS1613169335133","trial","","40","800","815.3399999981048","images/stimuli/spore_stims/simple_19_A_b.gif","images/stimuli/spore_stims/simple_11_B_a.gif","","","","","14","simple_dissimilar","images/stimuli/spore_stims/simple_11_B_a.gif","middle","","","","",""
"","null","html-keyboard-response","274","316697","0.0-50.0-0.7","SS1613169335133","","","null","","","","","<p><img src= images/blank.png width =""200"" height = ""200"" style = ""float:right""></p><p><img src=images/blank.png width =""800"" height = ""200""></p>","","","","","","","","","","","",""
"","1.1700000031851232","sequential-stimulus-presentation","275","317535","0.0-50.0-1.7","SS1613169335133","trial","","40","800","801.1700000031851","images/stimuli/spore_stims/simple_19_A_b.gif","images/stimuli/spore_stims/simple_11_B_a.gif","","","","","14","simple_dissimilar","images/stimuli/spore_stims/simple_11_B_a.gif","middle","","","","",""
"","1.3099999923724681","html-keyboard-response","276","317566","0.0-51.0","SS1613169335133","pref_question","","97","","","","","<video width ='960' height = '540' style='padding-top:8%' autoplay muted><source src='images/stimuli/wall_pref.mp4' type='video/mp4'></video>","1","left","25%","14","","","","","","","",""
"","113.91499999444932","sequential-stimulus-presentation","277","318531","0.0-52.0","SS1613169335133","pref_reveal","","40","800","913.9149999944493","null","null","","","","","14","","","","novel","","","",""
"","null","html-keyboard-response","278","319422","0.0-53.0-0.0","SS1613169335133","","","null","","","","","<p><img src= images/blank.png width =""200"" height = ""200"" style = ""float:right""></p><p><img src=images/blank.png width =""800"" height = ""200""></p>","","","","","","","","","","","",""
"","11.865000007674098","sequential-stimulus-presentation","279","320274","0.0-53.0-1.0","SS1613169335133","trial","","40","800","811.8650000076741","images/stimuli/spore_stims/simple_18_A_c.gif","images/stimuli/spore_stims/simple_14_B_d.gif","","","","","15","simple_dissimilar","images/stimuli/spore_stims/simple_14_B_d.gif","middle","","","","",""
"","null","html-keyboard-response","280","321596","0.0-53.0-0.1","SS1613169335133","","","null","","","","","<p><img src= images/blank.png width =""200"" height = ""200"" style = ""float:right""></p><p><img src=images/blank.png width =""800"" height = ""200""></p>","","","","","","","","","","","",""
"","64.73499999265186","sequential-stimulus-presentation","281","322498","0.0-53.0-1.1","SS1613169335133","trial","","40","800","864.7349999926519","images/stimuli/spore_stims/simple_18_A_c.gif","images/stimuli/spore_stims/simple_14_B_d.gif","","","","","15","simple_dissimilar","images/stimuli/spore_stims/simple_14_B_d.gif","middle","","","","",""
"","null","html-keyboard-response","282","323694","0.0-53.0-0.2","SS1613169335133","","","null","","","","","<p><img src= images/blank.png width =""200"" height = ""200"" style = ""float:right""></p><p><img src=images/blank.png width =""800"" height = ""200""></p>","","","","","","","","","","","",""
"","151.92499999830034","sequential-stimulus-presentation","283","324677","0.0-53.0-1.2","SS1613169335133","trial","","40","800","951.9249999983003","images/stimuli/spore_stims/simple_18_A_c.gif","images/stimuli/spore_stims/simple_14_B_d.gif","","","","","15","simple_dissimilar","images/stimuli/spore_stims/simple_14_B_d.gif","middle","","","","",""
"","null","html-keyboard-response","284","325902","0.0-53.0-0.3","SS1613169335133","","","null","","","","","<p><img src= images/blank.png width =""200"" height = ""200"" style = ""float:right""></p><p><img src=images/blank.png width =""800"" height = ""200""></p>","","","","","","","","","","","",""
"","212.65000000130385","sequential-stimulus-presentation","285","326947","0.0-53.0-1.3","SS1613169335133","trial","","40","800","1012.6500000013039","images/stimuli/spore_stims/simple_18_A_c.gif","images/stimuli/spore_stims/simple_14_B_d.gif","","","","","15","simple_dissimilar","images/stimuli/spore_stims/simple_14_B_d.gif","middle","","","","",""
"","null","html-keyboard-response","286","328226","0.0-53.0-0.4","SS1613169335133","","","null","","","","","<p><img src= images/blank.png width =""200"" height = ""200"" style = ""float:right""></p><p><img src=images/blank.png width =""800"" height = ""200""></p>","","","","","","","","","","","",""
"","307.6900000014575","sequential-stimulus-presentation","287","329365","0.0-53.0-1.4","SS1613169335133","trial","","40","800","1107.6900000014575","images/stimuli/spore_stims/simple_18_A_c.gif","images/stimuli/spore_stims/simple_14_B_d.gif","","","","","15","simple_dissimilar","images/stimuli/spore_stims/simple_18_A_c.gif","left","","","","",""
"","null","html-keyboard-response","288","330369","0.0-53.0-0.5","SS1613169335133","","","null","","","","","<p><img src= images/blank.png width =""200"" height = ""200"" style = ""float:right""></p><p><img src=images/blank.png width =""800"" height = ""200""></p>","","","","","","","","","","","",""
"","203.35999999952037","sequential-stimulus-presentation","289","331401","0.0-53.0-1.5","SS1613169335133","trial","","40","800","1003.3599999995204","images/stimuli/spore_stims/simple_18_A_c.gif","images/stimuli/spore_stims/simple_14_B_d.gif","","","","","15","simple_dissimilar","images/stimuli/spore_stims/simple_14_B_d.gif","middle","","","","",""
"","null","html-keyboard-response","290","332572","0.0-53.0-0.6","SS1613169335133","","","null","","","","","<p><img src= images/blank.png width =""200"" height = ""200"" style = ""float:right""></p><p><img src=images/blank.png width =""800"" height = ""200""></p>","","","","","","","","","","","",""
"","140.16500000434462","sequential-stimulus-presentation","291","333542","0.0-53.0-1.6","SS1613169335133","trial","","40","800","940.1650000043446","images/stimuli/spore_stims/simple_18_A_c.gif","images/stimuli/spore_stims/simple_14_B_d.gif","","","","","15","simple_dissimilar","images/stimuli/spore_stims/simple_14_B_d.gif","middle","","","","",""
"","null","html-keyboard-response","292","334595","0.0-53.0-0.7","SS1613169335133","","","null","","","","","<p><img src= images/blank.png width =""200"" height = ""200"" style = ""float:right""></p><p><img src=images/blank.png width =""800"" height = ""200""></p>","","","","","","","","","","","",""
"","294.01500000676606","sequential-stimulus-presentation","293","335727","0.0-53.0-1.7","SS1613169335133","trial","","40","800","1094.015000006766","images/stimuli/spore_stims/simple_18_A_c.gif","images/stimuli/spore_stims/simple_14_B_d.gif","","","","","15","simple_dissimilar","images/stimuli/spore_stims/simple_14_B_d.gif","middle","","","","",""
"","1.2350000033620745","html-keyboard-response","294","335766","0.0-54.0","SS1613169335133","pref_question","","97","","","","","<video width ='960' height = '540' style='padding-top:8%' autoplay muted><source src='images/stimuli/wall_pref.mp4' type='video/mp4'></video>","1","left","25%","15","","","","","","","",""
"","191.34000000485685","sequential-stimulus-presentation","295","336800","0.0-55.0","SS1613169335133","pref_reveal","","40","800","991.3400000048568","null","null","","","","","15","","","","deviant","","","",""
"","null","html-keyboard-response","296","338059","0.0-56.0-0.0","SS1613169335133","","","null","","","","","<p><img src= images/blank.png width =""200"" height = ""200"" style = ""float:right""></p><p><img src=images/blank.png width =""800"" height = ""200""></p>","","","","","","","","","","","",""
"","36.59499999776017","sequential-stimulus-presentation","297","338931","0.0-56.0-1.0","SS1613169335133","trial","","40","800","836.5949999977602","images/stimuli/spore_stims/simple_09_A_b.gif","images/stimuli/spore_stims/simple_09_B_b.gif","","","","","16","simple_similar","images/stimuli/spore_stims/simple_09_B_b.gif","right","","","","",""
"","null","html-keyboard-response","298","340129","0.0-56.0-0.1","SS1613169335133","","","null","","","","","<p><img src= images/blank.png width =""200"" height = ""200"" style = ""float:right""></p><p><img src=images/blank.png width =""800"" height = ""200""></p>","","","","","","","","","","","",""
"","91.91000000282656","sequential-stimulus-presentation","299","341056","0.0-56.0-1.1","SS1613169335133","trial","","40","800","891.9100000028266","images/stimuli/spore_stims/simple_09_A_b.gif","images/stimuli/spore_stims/simple_09_B_b.gif","","","","","16","simple_similar","images/stimuli/spore_stims/simple_09_B_b.gif","right","","","","",""
"","null","html-keyboard-response","300","342298","0.0-56.0-0.2","SS1613169335133","","","null","","","","","<p><img src= images/blank.png width =""200"" height = ""200"" style = ""float:right""></p><p><img src=images/blank.png width =""800"" height = ""200""></p>","","","","","","","","","","","",""
"","397.289999993518","sequential-stimulus-presentation","301","343527","0.0-56.0-1.2","SS1613169335133","trial","","40","800","1197.289999993518","images/stimuli/spore_stims/simple_09_A_b.gif","images/stimuli/spore_stims/simple_09_B_b.gif","","","","","16","simple_similar","images/stimuli/spore_stims/simple_09_B_b.gif","right","","","","",""
"","null","html-keyboard-response","302","344642","0.0-56.0-0.3","SS1613169335133","","","null","","","","","<p><img src= images/blank.png width =""200"" height = ""200"" style = ""float:right""></p><p><img src=images/blank.png width =""800"" height = ""200""></p>","","","","","","","","","","","",""
"","324.47000000684056","sequential-stimulus-presentation","303","345798","0.0-56.0-1.3","SS1613169335133","trial","","40","800","1124.4700000068406","images/stimuli/spore_stims/simple_09_A_b.gif","images/stimuli/spore_stims/simple_09_B_b.gif","","","","","16","simple_similar","images/stimuli/spore_stims/simple_09_B_b.gif","right","","","","",""
"","null","html-keyboard-response","304","347119","0.0-56.0-0.4","SS1613169335133","","","null","","","","","<p><img src= images/blank.png width =""200"" height = ""200"" style = ""float:right""></p><p><img src=images/blank.png width =""800"" height = ""200""></p>","","","","","","","","","","","",""
"","182.11500000325032","sequential-stimulus-presentation","305","348132","0.0-56.0-1.4","SS1613169335133","trial","","40","800","982.1150000032503","images/stimuli/spore_stims/simple_09_A_b.gif","images/stimuli/spore_stims/simple_09_B_b.gif","","","","","16","simple_similar","images/stimuli/spore_stims/simple_09_B_b.gif","right","","","","",""
"","null","html-keyboard-response","306","349156","0.0-56.0-0.5","SS1613169335133","","","null","","","","","<p><img src= images/blank.png width =""200"" height = ""200"" style = ""float:right""></p><p><img src=images/blank.png width =""800"" height = ""200""></p>","","","","","","","","","","","",""
"","115.99500000011176","sequential-stimulus-presentation","307","350111","0.0-56.0-1.5","SS1613169335133","trial","","40","800","915.9950000001118","images/stimuli/spore_stims/simple_09_A_b.gif","images/stimuli/spore_stims/simple_09_B_b.gif","","","","","16","simple_similar","images/stimuli/spore_stims/simple_09_B_b.gif","right","","","","",""
"","null","html-keyboard-response","308","351323","0.0-56.0-0.6","SS1613169335133","","","null","","","","","<p><img src= images/blank.png width =""200"" height = ""200"" style = ""float:right""></p><p><img src=images/blank.png width =""800"" height = ""200""></p>","","","","","","","","","","","",""
"","196.38999999733642","sequential-stimulus-presentation","309","352357","0.0-56.0-1.6","SS1613169335133","trial","","40","800","996.3899999973364","images/stimuli/spore_stims/simple_09_A_b.gif","images/stimuli/spore_stims/simple_09_B_b.gif","","","","","16","simple_similar","images/stimuli/spore_stims/simple_09_B_b.gif","right","","","","",""
"","null","html-keyboard-response","310","353551","0.0-56.0-0.7","SS1613169335133","","","null","","","","","<p><img src= images/blank.png width =""200"" height = ""200"" style = ""float:right""></p><p><img src=images/blank.png width =""800"" height = ""200""></p>","","","","","","","","","","","",""
"","113.30499999166932","sequential-stimulus-presentation","311","354504","0.0-56.0-1.7","SS1613169335133","trial","","40","800","913.3049999916693","images/stimuli/spore_stims/simple_09_A_b.gif","images/stimuli/spore_stims/simple_09_B_b.gif","","","","","16","simple_similar","images/stimuli/spore_stims/simple_09_A_b.gif","left","","","","",""
"","154.69999999913853","html-keyboard-response","312","354699","0.0-57.0","SS1613169335133","pref_question","","97","","","","","<video width ='960' height = '540' style='padding-top:8%' autoplay muted><source src='images/stimuli/wall_pref.mp4' type='video/mp4'></video>","1","left","25%","16","","","","","","","",""
