"view_history","rt","trial_type","trial_index","time_elapsed","internal_node_id","subject","stimulus_type","trial_stimulus","key_press","minimum_viewing_duration","trial_looking_time","block_deviant","block_background","stimulus","wall_pref","location","location_percent","block_number","block_type","stimulus_displayed","position_displayed","stim_type_selected","responses","question_order","stimulus_left","stimulus_right"
"[{""page_index"":0,""viewing_time"":3532.2000000160187}]","3534.375000046566","instructions","0","3537","0.0-0.0","SS1613140268115","","","","","","","","","","","","","","","","","","","",""
"[{""page_index"":0,""viewing_time"":16228.91499986872},{""page_index"":1,""viewing_time"":4967.30999997817}]","21197.034999961033","instructions","1","26739","0.0-1.0","SS1613140268115","instructions","","","","","","","","","","","","","","","","","","",""
"","10682.514999993145","sequential-stimulus-presentation","2","38236","0.0-2.0","SS1613140268115","","","40","800","11482.514999993145","null","null","","","","","","","","","","","","",""
"","3682.4499999638647","sequential-stimulus-presentation","3","42727","0.0-3.0","SS1613140268115","","","40","800","4482.449999963865","null","null","","","","","","","","","","","","",""
"[{""page_index"":0,""viewing_time"":2517.9749999661}]","2518.8949999865144","instructions","4","45249","0.0-4.0","SS1613140268115","instructions","","","","","","","","","","","","","","","","","","",""
"","7120.225000195205","html-keyboard-response","5","52379","0.0-5.0","SS1613140268115","instructions","","49","","","","","<video width ='960' height = '540' autoplay muted><source src='images/stimuli/wall_pref.mp4' type='video/mp4'></video>","1","left","25%","","","","","","","","",""
"","4111.965000163764","sequential-stimulus-presentation","6","57306","0.0-6.0","SS1613140268115","pref_reveal","","40","800","4911.965000163764","null","null","","","","","","","","","","","","",""
"[{""page_index"":0,""viewing_time"":1620.5400000326335},{""page_index"":1,""viewing_time"":2016.1300001200289},{""page_index"":2,""viewing_time"":711.1099998001009},{""page_index"":3,""viewing_time"":901.9250001292676}]","5250.149999978021","instructions","7","62559","0.0-7.0","SS1613140268115","instructions","","","","","","","","","","","","","","","","","","",""
"","null","html-keyboard-response","8","63733","0.0-8.0-0.0","SS1613140268115","","","null","","","","","<p><img src= images/blank.png width =""200"" height = ""200"" style = ""float:right""></p><p><img src=images/blank.png width =""800"" height = ""200""></p>","","","","","","","","","","","",""
"","6363.435000181198","sequential-stimulus-presentation","9","70905","0.0-8.0-1.0","SS1613140268115","trial","","40","800","7163.435000181198","images/stimuli/spore_stims/complex_15_A_c.gif","images/stimuli/spore_stims/complex_15_B_c.gif","","","","","0","complex_similar","images/stimuli/spore_stims/complex_15_B_c.gif","middle","","","","",""
"","null","html-keyboard-response","10","72050","0.0-8.0-0.1","SS1613140268115","","","null","","","","","<p><img src= images/blank.png width =""200"" height = ""200"" style = ""float:right""></p><p><img src=images/blank.png width =""800"" height = ""200""></p>","","","","","","","","","","","",""
"","2971.3950001168996","sequential-stimulus-presentation","11","75831","0.0-8.0-1.1","SS1613140268115","trial","","40","800","3771.3950001168996","images/stimuli/spore_stims/complex_15_A_c.gif","images/stimuli/spore_stims/complex_15_B_c.gif","","","","","0","complex_similar","images/stimuli/spore_stims/complex_15_B_c.gif","middle","","","","",""
"","null","html-keyboard-response","12","76814","0.0-8.0-0.2","SS1613140268115","","","null","","","","","<p><img src= images/blank.png width =""200"" height = ""200"" style = ""float:right""></p><p><img src=images/blank.png width =""800"" height = ""200""></p>","","","","","","","","","","","",""
"","998.2699998654425","sequential-stimulus-presentation","13","78623","0.0-8.0-1.2","SS1613140268115","trial","","40","800","1798.2699998654425","images/stimuli/spore_stims/complex_15_A_c.gif","images/stimuli/spore_stims/complex_15_B_c.gif","","","","","0","complex_similar","images/stimuli/spore_stims/complex_15_B_c.gif","middle","","","","",""
"","null","html-keyboard-response","14","79727","0.0-8.0-0.3","SS1613140268115","","","null","","","","","<p><img src= images/blank.png width =""200"" height = ""200"" style = ""float:right""></p><p><img src=images/blank.png width =""800"" height = ""200""></p>","","","","","","","","","","","",""
"","1515.2150001376867","sequential-stimulus-presentation","15","82055","0.0-8.0-1.3","SS1613140268115","trial","","40","800","2315.2150001376867","images/stimuli/spore_stims/complex_15_A_c.gif","images/stimuli/spore_stims/complex_15_B_c.gif","","","","","0","complex_similar","images/stimuli/spore_stims/complex_15_A_c.gif","right","","","","",""
"","null","html-keyboard-response","16","83038","0.0-8.0-0.4","SS1613140268115","","","null","","","","","<p><img src= images/blank.png width =""200"" height = ""200"" style = ""float:right""></p><p><img src=images/blank.png width =""800"" height = ""200""></p>","","","","","","","","","","","",""
"","2939.5999999251217","sequential-stimulus-presentation","17","86788","0.0-8.0-1.4","SS1613140268115","trial","","40","800","3739.5999999251217","images/stimuli/spore_stims/complex_15_A_c.gif","images/stimuli/spore_stims/complex_15_B_c.gif","","","","","0","complex_similar","images/stimuli/spore_stims/complex_15_B_c.gif","middle","","","","",""
"","null","html-keyboard-response","18","87745","0.0-8.0-0.5","SS1613140268115","","","null","","","","","<p><img src= images/blank.png width =""200"" height = ""200"" style = ""float:right""></p><p><img src=images/blank.png width =""800"" height = ""200""></p>","","","","","","","","","","","",""
"","1804.3599999509752","sequential-stimulus-presentation","19","90360","0.0-8.0-1.5","SS1613140268115","trial","","40","800","2604.359999950975","images/stimuli/spore_stims/complex_15_A_c.gif","images/stimuli/spore_stims/complex_15_B_c.gif","","","","","0","complex_similar","images/stimuli/spore_stims/complex_15_B_c.gif","middle","","","","",""
"","null","html-keyboard-response","20","91198","0.0-8.0-0.6","SS1613140268115","","","null","","","","","<p><img src= images/blank.png width =""200"" height = ""200"" style = ""float:right""></p><p><img src=images/blank.png width =""800"" height = ""200""></p>","","","","","","","","","","","",""
"","619.8700000531971","sequential-stimulus-presentation","21","92625","0.0-8.0-1.6","SS1613140268115","trial","","40","800","1419.8700000531971","images/stimuli/spore_stims/complex_15_A_c.gif","images/stimuli/spore_stims/complex_15_B_c.gif","","","","","0","complex_similar","images/stimuli/spore_stims/complex_15_B_c.gif","middle","","","","",""
"","null","html-keyboard-response","22","93872","0.0-8.0-0.7","SS1613140268115","","","null","","","","","<p><img src= images/blank.png width =""200"" height = ""200"" style = ""float:right""></p><p><img src=images/blank.png width =""800"" height = ""200""></p>","","","","","","","","","","","",""
"","10145.275000017136","sequential-stimulus-presentation","23","104827","0.0-8.0-1.7","SS1613140268115","trial","","40","800","10945.275000017136","images/stimuli/spore_stims/complex_15_A_c.gif","images/stimuli/spore_stims/complex_15_B_c.gif","","","","","0","complex_similar","images/stimuli/spore_stims/complex_15_B_c.gif","middle","","","","",""
"","2282.7300000935793","html-keyboard-response","24","107120","0.0-9.0","SS1613140268115","pref_question","","51","","","","","<video width ='960' height = '540' style='padding-top:8%' autoplay muted><source src='images/stimuli/wall_pref.mp4' type='video/mp4'></video>","3","right","66%","0","","","","","","","",""
"","3481.2999998684973","sequential-stimulus-presentation","25","111414","0.0-10.0","SS1613140268115","pref_reveal","","40","800","4281.299999868497","null","null","","","","","0","","","","deviant","","","",""
"","null","html-keyboard-response","26","112653","0.0-11.0-0.0","SS1613140268115","","","null","","","","","<p><img src= images/blank.png width =""200"" height = ""200"" style = ""float:right""></p><p><img src=images/blank.png width =""800"" height = ""200""></p>","","","","","","","","","","","",""
"","13193.579999962822","sequential-stimulus-presentation","27","126656","0.0-11.0-1.0","SS1613140268115","trial","","40","800","13993.579999962822","images/stimuli/spore_stims/simple_06_A_c.gif","images/stimuli/spore_stims/simple_09_B_b.gif","","","","","1","simple_dissimilar","images/stimuli/spore_stims/simple_09_B_b.gif","right","","","","",""
"","null","html-keyboard-response","28","127586","0.0-11.0-0.1","SS1613140268115","","","null","","","","","<p><img src= images/blank.png width =""200"" height = ""200"" style = ""float:right""></p><p><img src=images/blank.png width =""800"" height = ""200""></p>","","","","","","","","","","","",""
"","1054.7350000124425","sequential-stimulus-presentation","29","129451","0.0-11.0-1.1","SS1613140268115","trial","","40","800","1854.7350000124425","images/stimuli/spore_stims/simple_06_A_c.gif","images/stimuli/spore_stims/simple_09_B_b.gif","","","","","1","simple_dissimilar","images/stimuli/spore_stims/simple_09_B_b.gif","right","","","","",""
"","null","html-keyboard-response","30","130470","0.0-11.0-0.2","SS1613140268115","","","null","","","","","<p><img src= images/blank.png width =""200"" height = ""200"" style = ""float:right""></p><p><img src=images/blank.png width =""800"" height = ""200""></p>","","","","","","","","","","","",""
"","669.2399999592453","sequential-stimulus-presentation","31","131948","0.0-11.0-1.2","SS1613140268115","trial","","40","800","1469.2399999592453","images/stimuli/spore_stims/simple_06_A_c.gif","images/stimuli/spore_stims/simple_09_B_b.gif","","","","","1","simple_dissimilar","images/stimuli/spore_stims/simple_09_B_b.gif","right","","","","",""
"","null","html-keyboard-response","32","133133","0.0-11.0-0.3","SS1613140268115","","","null","","","","","<p><img src= images/blank.png width =""200"" height = ""200"" style = ""float:right""></p><p><img src=images/blank.png width =""800"" height = ""200""></p>","","","","","","","","","","","",""
"","213.9099999330938","sequential-stimulus-presentation","33","134157","0.0-11.0-1.3","SS1613140268115","trial","","40","800","1013.9099999330938","images/stimuli/spore_stims/simple_06_A_c.gif","images/stimuli/spore_stims/simple_09_B_b.gif","","","","","1","simple_dissimilar","images/stimuli/spore_stims/simple_09_B_b.gif","right","","","","",""
"","null","html-keyboard-response","34","135303","0.0-11.0-0.4","SS1613140268115","","","null","","","","","<p><img src= images/blank.png width =""200"" height = ""200"" style = ""float:right""></p><p><img src=images/blank.png width =""800"" height = ""200""></p>","","","","","","","","","","","",""
"","118.55500005185604","sequential-stimulus-presentation","35","136234","0.0-11.0-1.4","SS1613140268115","trial","","40","800","918.555000051856","images/stimuli/spore_stims/simple_06_A_c.gif","images/stimuli/spore_stims/simple_09_B_b.gif","","","","","1","simple_dissimilar","images/stimuli/spore_stims/simple_06_A_c.gif","middle","","","","",""
"","null","html-keyboard-response","36","137359","0.0-11.0-0.5","SS1613140268115","","","null","","","","","<p><img src= images/blank.png width =""200"" height = ""200"" style = ""float:right""></p><p><img src=images/blank.png width =""800"" height = ""200""></p>","","","","","","","","","","","",""
"","437.48999992385507","sequential-stimulus-presentation","37","138624","0.0-11.0-1.5","SS1613140268115","trial","","40","800","1237.489999923855","images/stimuli/spore_stims/simple_06_A_c.gif","images/stimuli/spore_stims/simple_09_B_b.gif","","","","","1","simple_dissimilar","images/stimuli/spore_stims/simple_09_B_b.gif","right","","","","",""
"","null","html-keyboard-response","38","139887","0.0-11.0-0.6","SS1613140268115","","","null","","","","","<p><img src= images/blank.png width =""200"" height = ""200"" style = ""float:right""></p><p><img src=images/blank.png width =""800"" height = ""200""></p>","","","","","","","","","","","",""
"","231.6950000822544","sequential-stimulus-presentation","39","140928","0.0-11.0-1.6","SS1613140268115","trial","","40","800","1031.6950000822544","images/stimuli/spore_stims/simple_06_A_c.gif","images/stimuli/spore_stims/simple_09_B_b.gif","","","","","1","simple_dissimilar","images/stimuli/spore_stims/simple_09_B_b.gif","right","","","","",""
"","null","html-keyboard-response","40","141854","0.0-11.0-0.7","SS1613140268115","","","null","","","","","<p><img src= images/blank.png width =""200"" height = ""200"" style = ""float:right""></p><p><img src=images/blank.png width =""800"" height = ""200""></p>","","","","","","","","","","","",""
"","11453.63499992527","sequential-stimulus-presentation","41","154160","0.0-11.0-1.7","SS1613140268115","trial","","40","800","12253.63499992527","images/stimuli/spore_stims/simple_06_A_c.gif","images/stimuli/spore_stims/simple_09_B_b.gif","","","","","1","simple_dissimilar","images/stimuli/spore_stims/simple_09_B_b.gif","right","","","","",""
"","2340.6050000339746","html-keyboard-response","42","156509","0.0-12.0","SS1613140268115","pref_question","","50","","","","","<video width ='960' height = '540' style='padding-top:8%' autoplay muted><source src='images/stimuli/wall_pref.mp4' type='video/mp4'></video>","2","middle","45%","1","","","","","","","",""
"","2647.3250000271946","sequential-stimulus-presentation","43","159968","0.0-13.0","SS1613140268115","pref_reveal","","40","800","3447.3250000271946","null","null","","","","","1","","","","deviant","","","",""
"","null","html-keyboard-response","44","160954","0.0-14.0-0.0","SS1613140268115","","","null","","","","","<p><img src= images/blank.png width =""200"" height = ""200"" style = ""float:right""></p><p><img src=images/blank.png width =""800"" height = ""200""></p>","","","","","","","","","","","",""
"","804.8900000285357","sequential-stimulus-presentation","45","162605","0.0-14.0-1.0","SS1613140268115","trial","","40","800","1604.8900000285357","images/stimuli/spore_stims/simple_06_B_a.gif","images/stimuli/spore_stims/simple_09_A_b.gif","","","","","2","simple_dissimilar","images/stimuli/spore_stims/simple_09_A_b.gif","middle","","","","",""
"","null","html-keyboard-response","46","163652","0.0-14.0-0.1","SS1613140268115","","","null","","","","","<p><img src= images/blank.png width =""200"" height = ""200"" style = ""float:right""></p><p><img src=images/blank.png width =""800"" height = ""200""></p>","","","","","","","","","","","",""
"","534.8200001753867","sequential-stimulus-presentation","47","164998","0.0-14.0-1.1","SS1613140268115","trial","","40","800","1334.8200001753867","images/stimuli/spore_stims/simple_06_B_a.gif","images/stimuli/spore_stims/simple_09_A_b.gif","","","","","2","simple_dissimilar","images/stimuli/spore_stims/simple_09_A_b.gif","middle","","","","",""
"","null","html-keyboard-response","48","165986","0.0-14.0-0.2","SS1613140268115","","","null","","","","","<p><img src= images/blank.png width =""200"" height = ""200"" style = ""float:right""></p><p><img src=images/blank.png width =""800"" height = ""200""></p>","","","","","","","","","","","",""
"","182.47000011615455","sequential-stimulus-presentation","49","166980","0.0-14.0-1.2","SS1613140268115","trial","","40","800","982.4700001161546","images/stimuli/spore_stims/simple_06_B_a.gif","images/stimuli/spore_stims/simple_09_A_b.gif","","","","","2","simple_dissimilar","images/stimuli/spore_stims/simple_09_A_b.gif","middle","","","","",""
"","null","html-keyboard-response","50","167822","0.0-14.0-0.3","SS1613140268115","","","null","","","","","<p><img src= images/blank.png width =""200"" height = ""200"" style = ""float:right""></p><p><img src=images/blank.png width =""800"" height = ""200""></p>","","","","","","","","","","","",""
"","248.38000000454485","sequential-stimulus-presentation","51","168881","0.0-14.0-1.3","SS1613140268115","trial","","40","800","1048.3800000045449","images/stimuli/spore_stims/simple_06_B_a.gif","images/stimuli/spore_stims/simple_09_A_b.gif","","","","","2","simple_dissimilar","images/stimuli/spore_stims/simple_09_A_b.gif","middle","","","","",""
"","null","html-keyboard-response","52","170078","0.0-14.0-0.4","SS1613140268115","","","null","","","","","<p><img src= images/blank.png width =""200"" height = ""200"" style = ""float:right""></p><p><img src=images/blank.png width =""800"" height = ""200""></p>","","","","","","","","","","","",""
"","816.8399999849498","sequential-stimulus-presentation","53","171707","0.0-14.0-1.4","SS1613140268115","trial","","40","800","1616.8399999849498","images/stimuli/spore_stims/simple_06_B_a.gif","images/stimuli/spore_stims/simple_09_A_b.gif","","","","","2","simple_dissimilar","images/stimuli/spore_stims/simple_06_B_a.gif","left","","","","",""
"","null","html-keyboard-response","54","172563","0.0-14.0-0.5","SS1613140268115","","","null","","","","","<p><img src= images/blank.png width =""200"" height = ""200"" style = ""float:right""></p><p><img src=images/blank.png width =""800"" height = ""200""></p>","","","","","","","","","","","",""
"","2414.745000191033","sequential-stimulus-presentation","55","175789","0.0-14.0-1.5","SS1613140268115","trial","","40","800","3214.745000191033","images/stimuli/spore_stims/simple_06_B_a.gif","images/stimuli/spore_stims/simple_09_A_b.gif","","","","","2","simple_dissimilar","images/stimuli/spore_stims/simple_09_A_b.gif","middle","","","","",""
"","null","html-keyboard-response","56","176603","0.0-14.0-0.6","SS1613140268115","","","null","","","","","<p><img src= images/blank.png width =""200"" height = ""200"" style = ""float:right""></p><p><img src=images/blank.png width =""800"" height = ""200""></p>","","","","","","","","","","","",""
"","498.65500000305474","sequential-stimulus-presentation","57","177961","0.0-14.0-1.6","SS1613140268115","trial","","40","800","1298.6550000030547","images/stimuli/spore_stims/simple_06_B_a.gif","images/stimuli/spore_stims/simple_09_A_b.gif","","","","","2","simple_dissimilar","images/stimuli/spore_stims/simple_09_A_b.gif","middle","","","","",""
"","null","html-keyboard-response","58","178984","0.0-14.0-0.7","SS1613140268115","","","null","","","","","<p><img src= images/blank.png width =""200"" height = ""200"" style = ""float:right""></p><p><img src=images/blank.png width =""800"" height = ""200""></p>","","","","","","","","","","","",""
"","399.47999990545213","sequential-stimulus-presentation","59","180194","0.0-14.0-1.7","SS1613140268115","trial","","40","800","1199.4799999054521","images/stimuli/spore_stims/simple_06_B_a.gif","images/stimuli/spore_stims/simple_09_A_b.gif","","","","","2","simple_dissimilar","images/stimuli/spore_stims/simple_09_A_b.gif","middle","","","","",""
"","2010.1250000298023","html-keyboard-response","60","182214","0.0-15.0","SS1613140268115","pref_question","","49","","","","","<video width ='960' height = '540' style='padding-top:8%' autoplay muted><source src='images/stimuli/wall_pref.mp4' type='video/mp4'></video>","1","left","25%","2","","","","","","","",""
"","816.2400000728667","sequential-stimulus-presentation","61","183842","0.0-16.0","SS1613140268115","pref_reveal","","40","800","1616.2400000728667","null","null","","","","","2","","","","deviant","","","",""
"","null","html-keyboard-response","62","184733","0.0-17.0-0.0","SS1613140268115","","","null","","","","","<p><img src= images/blank.png width =""200"" height = ""200"" style = ""float:right""></p><p><img src=images/blank.png width =""800"" height = ""200""></p>","","","","","","","","","","","",""
"","391.4299998432398","sequential-stimulus-presentation","63","185936","0.0-17.0-1.0","SS1613140268115","trial","","40","800","1191.4299998432398","images/stimuli/spore_stims/complex_19_B_a.gif","images/stimuli/spore_stims/complex_05_B_c.gif","","","","","3","complex_dissimilar","images/stimuli/spore_stims/complex_05_B_c.gif","middle","","","","",""
"","null","html-keyboard-response","64","187179","0.0-17.0-0.1","SS1613140268115","","","null","","","","","<p><img src= images/blank.png width =""200"" height = ""200"" style = ""float:right""></p><p><img src=images/blank.png width =""800"" height = ""200""></p>","","","","","","","","","","","",""
"","400.2799999434501","sequential-stimulus-presentation","65","188392","0.0-17.0-1.1","SS1613140268115","trial","","40","800","1200.27999994345","images/stimuli/spore_stims/complex_19_B_a.gif","images/stimuli/spore_stims/complex_05_B_c.gif","","","","","3","complex_dissimilar","images/stimuli/spore_stims/complex_05_B_c.gif","middle","","","","",""
"","null","html-keyboard-response","66","189507","0.0-17.0-0.2","SS1613140268115","","","null","","","","","<p><img src= images/blank.png width =""200"" height = ""200"" style = ""float:right""></p><p><img src=images/blank.png width =""800"" height = ""200""></p>","","","","","","","","","","","",""
"","353.49999996833503","sequential-stimulus-presentation","67","190671","0.0-17.0-1.2","SS1613140268115","trial","","40","800","1153.499999968335","images/stimuli/spore_stims/complex_19_B_a.gif","images/stimuli/spore_stims/complex_05_B_c.gif","","","","","3","complex_dissimilar","images/stimuli/spore_stims/complex_19_B_a.gif","right","","","","",""
"","null","html-keyboard-response","68","191789","0.0-17.0-0.3","SS1613140268115","","","null","","","","","<p><img src= images/blank.png width =""200"" height = ""200"" style = ""float:right""></p><p><img src=images/blank.png width =""800"" height = ""200""></p>","","","","","","","","","","","",""
"","407.2749998886138","sequential-stimulus-presentation","69","193007","0.0-17.0-1.3","SS1613140268115","trial","","40","800","1207.2749998886138","images/stimuli/spore_stims/complex_19_B_a.gif","images/stimuli/spore_stims/complex_05_B_c.gif","","","","","3","complex_dissimilar","images/stimuli/spore_stims/complex_05_B_c.gif","middle","","","","",""
"","null","html-keyboard-response","70","194142","0.0-17.0-0.4","SS1613140268115","","","null","","","","","<p><img src= images/blank.png width =""200"" height = ""200"" style = ""float:right""></p><p><img src=images/blank.png width =""800"" height = ""200""></p>","","","","","","","","","","","",""
"","97.93499996885657","sequential-stimulus-presentation","71","195053","0.0-17.0-1.4","SS1613140268115","trial","","40","800","897.9349999688566","images/stimuli/spore_stims/complex_19_B_a.gif","images/stimuli/spore_stims/complex_05_B_c.gif","","","","","3","complex_dissimilar","images/stimuli/spore_stims/complex_05_B_c.gif","middle","","","","",""
"","null","html-keyboard-response","72","196087","0.0-17.0-0.5","SS1613140268115","","","null","","","","","<p><img src= images/blank.png width =""200"" height = ""200"" style = ""float:right""></p><p><img src=images/blank.png width =""800"" height = ""200""></p>","","","","","","","","","","","",""
"","371.81499996222556","sequential-stimulus-presentation","73","197271","0.0-17.0-1.5","SS1613140268115","trial","","40","800","1171.8149999622256","images/stimuli/spore_stims/complex_19_B_a.gif","images/stimuli/spore_stims/complex_05_B_c.gif","","","","","3","complex_dissimilar","images/stimuli/spore_stims/complex_05_B_c.gif","middle","","","","",""
"","null","html-keyboard-response","74","198294","0.0-17.0-0.6","SS1613140268115","","","null","","","","","<p><img src= images/blank.png width =""200"" height = ""200"" style = ""float:right""></p><p><img src=images/blank.png width =""800"" height = ""200""></p>","","","","","","","","","","","",""
"","406.0200001113117","sequential-stimulus-presentation","75","199550","0.0-17.0-1.6","SS1613140268115","trial","","40","800","1206.0200001113117","images/stimuli/spore_stims/complex_19_B_a.gif","images/stimuli/spore_stims/complex_05_B_c.gif","","","","","3","complex_dissimilar","images/stimuli/spore_stims/complex_05_B_c.gif","middle","","","","",""
"","null","html-keyboard-response","76","200723","0.0-17.0-0.7","SS1613140268115","","","null","","","","","<p><img src= images/blank.png width =""200"" height = ""200"" style = ""float:right""></p><p><img src=images/blank.png width =""800"" height = ""200""></p>","","","","","","","","","","","",""
"","394.6750001050532","sequential-stimulus-presentation","77","201929","0.0-17.0-1.7","SS1613140268115","trial","","40","800","1194.6750001050532","images/stimuli/spore_stims/complex_19_B_a.gif","images/stimuli/spore_stims/complex_05_B_c.gif","","","","","3","complex_dissimilar","images/stimuli/spore_stims/complex_05_B_c.gif","middle","","","","",""
"","1998.2050000689924","html-keyboard-response","78","203935","0.0-18.0","SS1613140268115","pref_question","","51","","","","","<video width ='960' height = '540' style='padding-top:8%' autoplay muted><source src='images/stimuli/wall_pref.mp4' type='video/mp4'></video>","3","right","66%","3","","","","","","","",""
"","6885.379999876022","sequential-stimulus-presentation","79","211632","0.0-19.0","SS1613140268115","pref_reveal","","40","800","7685.379999876022","null","null","","","","","3","","","","deviant","","","",""
"","null","html-keyboard-response","80","212800","0.0-20.0-0.0","SS1613140268115","","","null","","","","","<p><img src= images/blank.png width =""200"" height = ""200"" style = ""float:right""></p><p><img src=images/blank.png width =""800"" height = ""200""></p>","","","","","","","","","","","",""
"","421.4649999048561","sequential-stimulus-presentation","81","214034","0.0-20.0-1.0","SS1613140268115","trial","","40","800","1221.464999904856","images/stimuli/spore_stims/complex_14_B_d.gif","images/stimuli/spore_stims/complex_14_A_d.gif","","","","","4","complex_similar","images/stimuli/spore_stims/complex_14_A_d.gif","right","","","","",""
"","null","html-keyboard-response","82","214846","0.0-20.0-0.1","SS1613140268115","","","null","","","","","<p><img src= images/blank.png width =""200"" height = ""200"" style = ""float:right""></p><p><img src=images/blank.png width =""800"" height = ""200""></p>","","","","","","","","","","","",""
"","12.755000032484531","sequential-stimulus-presentation","83","215669","0.0-20.0-1.1","SS1613140268115","trial","","40","800","812.7550000324845","images/stimuli/spore_stims/complex_14_B_d.gif","images/stimuli/spore_stims/complex_14_A_d.gif","","","","","4","complex_similar","images/stimuli/spore_stims/complex_14_A_d.gif","right","","","","",""
"","null","html-keyboard-response","84","216828","0.0-20.0-0.2","SS1613140268115","","","null","","","","","<p><img src= images/blank.png width =""200"" height = ""200"" style = ""float:right""></p><p><img src=images/blank.png width =""800"" height = ""200""></p>","","","","","","","","","","","",""
"","387.82499986700714","sequential-stimulus-presentation","85","218029","0.0-20.0-1.2","SS1613140268115","trial","","40","800","1187.8249998670071","images/stimuli/spore_stims/complex_14_B_d.gif","images/stimuli/spore_stims/complex_14_A_d.gif","","","","","4","complex_similar","images/stimuli/spore_stims/complex_14_A_d.gif","right","","","","",""
"","null","html-keyboard-response","86","219150","0.0-20.0-0.3","SS1613140268115","","","null","","","","","<p><img src= images/blank.png width =""200"" height = ""200"" style = ""float:right""></p><p><img src=images/blank.png width =""800"" height = ""200""></p>","","","","","","","","","","","",""
"","328.3850001171231","sequential-stimulus-presentation","87","220290","0.0-20.0-1.3","SS1613140268115","trial","","40","800","1128.3850001171231","images/stimuli/spore_stims/complex_14_B_d.gif","images/stimuli/spore_stims/complex_14_A_d.gif","","","","","4","complex_similar","images/stimuli/spore_stims/complex_14_A_d.gif","right","","","","",""
"","null","html-keyboard-response","88","221410","0.0-20.0-0.4","SS1613140268115","","","null","","","","","<p><img src= images/blank.png width =""200"" height = ""200"" style = ""float:right""></p><p><img src=images/blank.png width =""800"" height = ""200""></p>","","","","","","","","","","","",""
"","728.8049999624491","sequential-stimulus-presentation","89","222985","0.0-20.0-1.4","SS1613140268115","trial","","40","800","1528.804999962449","images/stimuli/spore_stims/complex_14_B_d.gif","images/stimuli/spore_stims/complex_14_A_d.gif","","","","","4","complex_similar","images/stimuli/spore_stims/complex_14_A_d.gif","right","","","","",""
"","null","html-keyboard-response","90","224013","0.0-20.0-0.5","SS1613140268115","","","null","","","","","<p><img src= images/blank.png width =""200"" height = ""200"" style = ""float:right""></p><p><img src=images/blank.png width =""800"" height = ""200""></p>","","","","","","","","","","","",""
"","38920.68500001915","sequential-stimulus-presentation","91","263749","0.0-20.0-1.5","SS1613140268115","trial","","40","800","39720.68500001915","images/stimuli/spore_stims/complex_14_B_d.gif","images/stimuli/spore_stims/complex_14_A_d.gif","","","","","4","complex_similar","images/stimuli/spore_stims/complex_14_A_d.gif","right","","","","",""
"","null","html-keyboard-response","92","264957","0.0-20.0-0.6","SS1613140268115","","","null","","","","","<p><img src= images/blank.png width =""200"" height = ""200"" style = ""float:right""></p><p><img src=images/blank.png width =""800"" height = ""200""></p>","","","","","","","","","","","",""
"","7890.300000086427","sequential-stimulus-presentation","93","273661","0.0-20.0-1.6","SS1613140268115","trial","","40","800","8690.300000086427","images/stimuli/spore_stims/complex_14_B_d.gif","images/stimuli/spore_stims/complex_14_A_d.gif","","","","","4","complex_similar","images/stimuli/spore_stims/complex_14_A_d.gif","right","","","","",""
"","null","html-keyboard-response","94","274703","0.0-20.0-0.7","SS1613140268115","","","null","","","","","<p><img src= images/blank.png width =""200"" height = ""200"" style = ""float:right""></p><p><img src=images/blank.png width =""800"" height = ""200""></p>","","","","","","","","","","","",""
"","879.6699999365956","sequential-stimulus-presentation","95","276392","0.0-20.0-1.7","SS1613140268115","trial","","40","800","1679.6699999365956","images/stimuli/spore_stims/complex_14_B_d.gif","images/stimuli/spore_stims/complex_14_A_d.gif","","","","","4","complex_similar","images/stimuli/spore_stims/complex_14_B_d.gif","left","","","","",""
"","7636.325000086799","html-keyboard-response","96","284038","0.0-21.0","SS1613140268115","pref_question","","49","","","","","<video width ='960' height = '540' style='padding-top:8%' autoplay muted><source src='images/stimuli/wall_pref.mp4' type='video/mp4'></video>","1","left","25%","4","","","","","","","",""
"","10422.479999950156","sequential-stimulus-presentation","97","295275","0.0-22.0","SS1613140268115","pref_reveal","","40","800","11222.479999950156","null","null","","","","","4","","","","deviant","","","",""
"","null","html-keyboard-response","98","296137","0.0-23.0-0.0","SS1613140268115","","","null","","","","","<p><img src= images/blank.png width =""200"" height = ""200"" style = ""float:right""></p><p><img src=images/blank.png width =""800"" height = ""200""></p>","","","","","","","","","","","",""
"","435.5999999679625","sequential-stimulus-presentation","99","297387","0.0-23.0-1.0","SS1613140268115","trial","","40","800","1235.5999999679625","images/stimuli/spore_stims/simple_10_B_a.gif","images/stimuli/spore_stims/simple_10_A_a.gif","","","","","5","simple_similar","images/stimuli/spore_stims/simple_10_A_a.gif","middle","","","","",""
"","null","html-keyboard-response","100","298584","0.0-23.0-0.1","SS1613140268115","","","null","","","","","<p><img src= images/blank.png width =""200"" height = ""200"" style = ""float:right""></p><p><img src=images/blank.png width =""800"" height = ""200""></p>","","","","","","","","","","","",""
"","813.3699998725206","sequential-stimulus-presentation","101","300256","0.0-23.0-1.1","SS1613140268115","trial","","40","800","1613.3699998725206","images/stimuli/spore_stims/simple_10_B_a.gif","images/stimuli/spore_stims/simple_10_A_a.gif","","","","","5","simple_similar","images/stimuli/spore_stims/simple_10_A_a.gif","middle","","","","",""
"","null","html-keyboard-response","102","301502","0.0-23.0-0.2","SS1613140268115","","","null","","","","","<p><img src= images/blank.png width =""200"" height = ""200"" style = ""float:right""></p><p><img src=images/blank.png width =""800"" height = ""200""></p>","","","","","","","","","","","",""
"","619.5900000166148","sequential-stimulus-presentation","103","302935","0.0-23.0-1.2","SS1613140268115","trial","","40","800","1419.5900000166148","images/stimuli/spore_stims/simple_10_B_a.gif","images/stimuli/spore_stims/simple_10_A_a.gif","","","","","5","simple_similar","images/stimuli/spore_stims/simple_10_A_a.gif","middle","","","","",""
"","null","html-keyboard-response","104","303810","0.0-23.0-0.3","SS1613140268115","","","null","","","","","<p><img src= images/blank.png width =""200"" height = ""200"" style = ""float:right""></p><p><img src=images/blank.png width =""800"" height = ""200""></p>","","","","","","","","","","","",""
"","804.0449998807162","sequential-stimulus-presentation","105","305427","0.0-23.0-1.3","SS1613140268115","trial","","40","800","1604.0449998807162","images/stimuli/spore_stims/simple_10_B_a.gif","images/stimuli/spore_stims/simple_10_A_a.gif","","","","","5","simple_similar","images/stimuli/spore_stims/simple_10_A_a.gif","middle","","","","",""
"","null","html-keyboard-response","106","306306","0.0-23.0-0.4","SS1613140268115","","","null","","","","","<p><img src= images/blank.png width =""200"" height = ""200"" style = ""float:right""></p><p><img src=images/blank.png width =""800"" height = ""200""></p>","","","","","","","","","","","",""
"","569.0949999261647","sequential-stimulus-presentation","107","307689","0.0-23.0-1.4","SS1613140268115","trial","","40","800","1369.0949999261647","images/stimuli/spore_stims/simple_10_B_a.gif","images/stimuli/spore_stims/simple_10_A_a.gif","","","","","5","simple_similar","images/stimuli/spore_stims/simple_10_B_a.gif","left","","","","",""
"","null","html-keyboard-response","108","308774","0.0-23.0-0.5","SS1613140268115","","","null","","","","","<p><img src= images/blank.png width =""200"" height = ""200"" style = ""float:right""></p><p><img src=images/blank.png width =""800"" height = ""200""></p>","","","","","","","","","","","",""
"","316.16499996744096","sequential-stimulus-presentation","109","309903","0.0-23.0-1.5","SS1613140268115","trial","","40","800","1116.164999967441","images/stimuli/spore_stims/simple_10_B_a.gif","images/stimuli/spore_stims/simple_10_A_a.gif","","","","","5","simple_similar","images/stimuli/spore_stims/simple_10_A_a.gif","middle","","","","",""
"","null","html-keyboard-response","110","311011","0.0-23.0-0.6","SS1613140268115","","","null","","","","","<p><img src= images/blank.png width =""200"" height = ""200"" style = ""float:right""></p><p><img src=images/blank.png width =""800"" height = ""200""></p>","","","","","","","","","","","",""
"","334.6800000872463","sequential-stimulus-presentation","111","312158","0.0-23.0-1.6","SS1613140268115","trial","","40","800","1134.6800000872463","images/stimuli/spore_stims/simple_10_B_a.gif","images/stimuli/spore_stims/simple_10_A_a.gif","","","","","5","simple_similar","images/stimuli/spore_stims/simple_10_A_a.gif","middle","","","","",""
"","null","html-keyboard-response","112","313174","0.0-23.0-0.7","SS1613140268115","","","null","","","","","<p><img src= images/blank.png width =""200"" height = ""200"" style = ""float:right""></p><p><img src=images/blank.png width =""800"" height = ""200""></p>","","","","","","","","","","","",""
"","349.08500011079013","sequential-stimulus-presentation","113","314339","0.0-23.0-1.7","SS1613140268115","trial","","40","800","1149.0850001107901","images/stimuli/spore_stims/simple_10_B_a.gif","images/stimuli/spore_stims/simple_10_A_a.gif","","","","","5","simple_similar","images/stimuli/spore_stims/simple_10_A_a.gif","middle","","","","",""
"","2695.880000013858","html-keyboard-response","114","317044","0.0-24.0","SS1613140268115","pref_question","","50","","","","","<video width ='960' height = '540' style='padding-top:8%' autoplay muted><source src='images/stimuli/wall_pref.mp4' type='video/mp4'></video>","2","middle","45%","5","","","","","","","",""
"","1520.8900000434369","sequential-stimulus-presentation","115","319379","0.0-25.0","SS1613140268115","pref_reveal","","40","800","2320.890000043437","null","null","","","","","5","","","","background","","","",""
"","null","html-keyboard-response","116","320249","0.0-26.0-0.0","SS1613140268115","","","null","","","","","<p><img src= images/blank.png width =""200"" height = ""200"" style = ""float:right""></p><p><img src=images/blank.png width =""800"" height = ""200""></p>","","","","","","","","","","","",""
"","914.02000002563","sequential-stimulus-presentation","117","321977","0.0-26.0-1.0","SS1613140268115","trial","","40","800","1714.02000002563","images/stimuli/spore_stims/simple_11_A_d.gif","images/stimuli/spore_stims/simple_08_B_c.gif","","","","","6","simple_dissimilar","images/stimuli/spore_stims/simple_08_B_c.gif","left","","","","",""
"","null","html-keyboard-response","118","322973","0.0-26.0-0.1","SS1613140268115","","","null","","","","","<p><img src= images/blank.png width =""200"" height = ""200"" style = ""float:right""></p><p><img src=images/blank.png width =""800"" height = ""200""></p>","","","","","","","","","","","",""
"","841.9499997980893","sequential-stimulus-presentation","119","324626","0.0-26.0-1.1","SS1613140268115","trial","","40","800","1641.9499997980893","images/stimuli/spore_stims/simple_11_A_d.gif","images/stimuli/spore_stims/simple_08_B_c.gif","","","","","6","simple_dissimilar","images/stimuli/spore_stims/simple_08_B_c.gif","left","","","","",""
"","null","html-keyboard-response","120","325904","0.0-26.0-0.2","SS1613140268115","","","null","","","","","<p><img src= images/blank.png width =""200"" height = ""200"" style = ""float:right""></p><p><img src=images/blank.png width =""800"" height = ""200""></p>","","","","","","","","","","","",""
"","7849.379999795929","sequential-stimulus-presentation","121","334568","0.0-26.0-1.2","SS1613140268115","trial","","40","800","8649.379999795929","images/stimuli/spore_stims/simple_11_A_d.gif","images/stimuli/spore_stims/simple_08_B_c.gif","","","","","6","simple_dissimilar","images/stimuli/spore_stims/simple_08_B_c.gif","left","","","","",""
"","null","html-keyboard-response","122","335624","0.0-26.0-0.3","SS1613140268115","","","null","","","","","<p><img src= images/blank.png width =""200"" height = ""200"" style = ""float:right""></p><p><img src=images/blank.png width =""800"" height = ""200""></p>","","","","","","","","","","","",""
"","257.73000018671155","sequential-stimulus-presentation","123","336715","0.0-26.0-1.3","SS1613140268115","trial","","40","800","1057.7300001867115","images/stimuli/spore_stims/simple_11_A_d.gif","images/stimuli/spore_stims/simple_08_B_c.gif","","","","","6","simple_dissimilar","images/stimuli/spore_stims/simple_08_B_c.gif","left","","","","",""
"","null","html-keyboard-response","124","337732","0.0-26.0-0.4","SS1613140268115","","","null","","","","","<p><img src= images/blank.png width =""200"" height = ""200"" style = ""float:right""></p><p><img src=images/blank.png width =""800"" height = ""200""></p>","","","","","","","","","","","",""
"","14421.819999814034","sequential-stimulus-presentation","125","352962","0.0-26.0-1.4","SS1613140268115","trial","","40","800","15221.819999814034","images/stimuli/spore_stims/simple_11_A_d.gif","images/stimuli/spore_stims/simple_08_B_c.gif","","","","","6","simple_dissimilar","images/stimuli/spore_stims/simple_08_B_c.gif","left","","","","",""
"","null","html-keyboard-response","126","354039","0.0-26.0-0.5","SS1613140268115","","","null","","","","","<p><img src= images/blank.png width =""200"" height = ""200"" style = ""float:right""></p><p><img src=images/blank.png width =""800"" height = ""200""></p>","","","","","","","","","","","",""
"","2685.910000000149","sequential-stimulus-presentation","127","357535","0.0-26.0-1.5","SS1613140268115","trial","","40","800","3485.910000000149","images/stimuli/spore_stims/simple_11_A_d.gif","images/stimuli/spore_stims/simple_08_B_c.gif","","","","","6","simple_dissimilar","images/stimuli/spore_stims/simple_08_B_c.gif","left","","","","",""
"","null","html-keyboard-response","128","358587","0.0-26.0-0.6","SS1613140268115","","","null","","","","","<p><img src= images/blank.png width =""200"" height = ""200"" style = ""float:right""></p><p><img src=images/blank.png width =""800"" height = ""200""></p>","","","","","","","","","","","",""
"","344.71500013023615","sequential-stimulus-presentation","129","359741","0.0-26.0-1.6","SS1613140268115","trial","","40","800","1144.7150001302361","images/stimuli/spore_stims/simple_11_A_d.gif","images/stimuli/spore_stims/simple_08_B_c.gif","","","","","6","simple_dissimilar","images/stimuli/spore_stims/simple_11_A_d.gif","middle","","","","",""
"","null","html-keyboard-response","130","360771","0.0-26.0-0.7","SS1613140268115","","","null","","","","","<p><img src= images/blank.png width =""200"" height = ""200"" style = ""float:right""></p><p><img src=images/blank.png width =""800"" height = ""200""></p>","","","","","","","","","","","",""
"","249.1600001230836","sequential-stimulus-presentation","131","361873","0.0-26.0-1.7","SS1613140268115","trial","","40","800","1049.1600001230836","images/stimuli/spore_stims/simple_11_A_d.gif","images/stimuli/spore_stims/simple_08_B_c.gif","","","","","6","simple_dissimilar","images/stimuli/spore_stims/simple_08_B_c.gif","left","","","","",""
"","2284.3100000172853","html-keyboard-response","132","364168","0.0-27.0","SS1613140268115","pref_question","","51","","","","","<video width ='960' height = '540' style='padding-top:8%' autoplay muted><source src='images/stimuli/wall_pref.mp4' type='video/mp4'></video>","3","right","66%","6","","","","","","","",""
"","1346.485000103712","sequential-stimulus-presentation","133","366332","0.0-28.0","SS1613140268115","pref_reveal","","40","800","2146.485000103712","null","null","","","","","6","","","","novel","","","",""
"","null","html-keyboard-response","134","367574","0.0-29.0-0.0","SS1613140268115","","","null","","","","","<p><img src= images/blank.png width =""200"" height = ""200"" style = ""float:right""></p><p><img src=images/blank.png width =""800"" height = ""200""></p>","","","","","","","","","","","",""
"","386.774999788031","sequential-stimulus-presentation","135","368775","0.0-29.0-1.0","SS1613140268115","trial","","40","800","1186.774999788031","images/stimuli/spore_stims/complex_18_A_a.gif","images/stimuli/spore_stims/complex_18_B_a.gif","","","","","7","complex_similar","images/stimuli/spore_stims/complex_18_B_a.gif","right","","","","",""
"","null","html-keyboard-response","136","369944","0.0-29.0-0.1","SS1613140268115","","","null","","","","","<p><img src= images/blank.png width =""200"" height = ""200"" style = ""float:right""></p><p><img src=images/blank.png width =""800"" height = ""200""></p>","","","","","","","","","","","",""
"","456.20999997481704","sequential-stimulus-presentation","137","371215","0.0-29.0-1.1","SS1613140268115","trial","","40","800","1256.209999974817","images/stimuli/spore_stims/complex_18_A_a.gif","images/stimuli/spore_stims/complex_18_B_a.gif","","","","","7","complex_similar","images/stimuli/spore_stims/complex_18_B_a.gif","right","","","","",""
"","null","html-keyboard-response","138","372367","0.0-29.0-0.2","SS1613140268115","","","null","","","","","<p><img src= images/blank.png width =""200"" height = ""200"" style = ""float:right""></p><p><img src=images/blank.png width =""800"" height = ""200""></p>","","","","","","","","","","","",""
"","511.1299999989569","sequential-stimulus-presentation","139","373693","0.0-29.0-1.2","SS1613140268115","trial","","40","800","1311.129999998957","images/stimuli/spore_stims/complex_18_A_a.gif","images/stimuli/spore_stims/complex_18_B_a.gif","","","","","7","complex_similar","images/stimuli/spore_stims/complex_18_B_a.gif","right","","","","",""
"","null","html-keyboard-response","140","374864","0.0-29.0-0.3","SS1613140268115","","","null","","","","","<p><img src= images/blank.png width =""200"" height = ""200"" style = ""float:right""></p><p><img src=images/blank.png width =""800"" height = ""200""></p>","","","","","","","","","","","",""
"","509.1350001748651","sequential-stimulus-presentation","141","376190","0.0-29.0-1.3","SS1613140268115","trial","","40","800","1309.1350001748651","images/stimuli/spore_stims/complex_18_A_a.gif","images/stimuli/spore_stims/complex_18_B_a.gif","","","","","7","complex_similar","images/stimuli/spore_stims/complex_18_B_a.gif","right","","","","",""
"","null","html-keyboard-response","142","377373","0.0-29.0-0.4","SS1613140268115","","","null","","","","","<p><img src= images/blank.png width =""200"" height = ""200"" style = ""float:right""></p><p><img src=images/blank.png width =""800"" height = ""200""></p>","","","","","","","","","","","",""
"","325.5050000734627","sequential-stimulus-presentation","143","378519","0.0-29.0-1.4","SS1613140268115","trial","","40","800","1125.5050000734627","images/stimuli/spore_stims/complex_18_A_a.gif","images/stimuli/spore_stims/complex_18_B_a.gif","","","","","7","complex_similar","images/stimuli/spore_stims/complex_18_B_a.gif","right","","","","",""
"","null","html-keyboard-response","144","379459","0.0-29.0-0.5","SS1613140268115","","","null","","","","","<p><img src= images/blank.png width =""200"" height = ""200"" style = ""float:right""></p><p><img src=images/blank.png width =""800"" height = ""200""></p>","","","","","","","","","","","",""
"","332.12499995715916","sequential-stimulus-presentation","145","380643","0.0-29.0-1.5","SS1613140268115","trial","","40","800","1132.1249999571592","images/stimuli/spore_stims/complex_18_A_a.gif","images/stimuli/spore_stims/complex_18_B_a.gif","","","","","7","complex_similar","images/stimuli/spore_stims/complex_18_B_a.gif","right","","","","",""
"","null","html-keyboard-response","146","381489","0.0-29.0-0.6","SS1613140268115","","","null","","","","","<p><img src= images/blank.png width =""200"" height = ""200"" style = ""float:right""></p><p><img src=images/blank.png width =""800"" height = ""200""></p>","","","","","","","","","","","",""
"","342.9950000718236","sequential-stimulus-presentation","147","382649","0.0-29.0-1.6","SS1613140268115","trial","","40","800","1142.9950000718236","images/stimuli/spore_stims/complex_18_A_a.gif","images/stimuli/spore_stims/complex_18_B_a.gif","","","","","7","complex_similar","images/stimuli/spore_stims/complex_18_A_a.gif","left","","","","",""
"","null","html-keyboard-response","148","383734","0.0-29.0-0.7","SS1613140268115","","","null","","","","","<p><img src= images/blank.png width =""200"" height = ""200"" style = ""float:right""></p><p><img src=images/blank.png width =""800"" height = ""200""></p>","","","","","","","","","","","",""
"","300.06000003777444","sequential-stimulus-presentation","149","384852","0.0-29.0-1.7","SS1613140268115","trial","","40","800","1100.0600000377744","images/stimuli/spore_stims/complex_18_A_a.gif","images/stimuli/spore_stims/complex_18_B_a.gif","","","","","7","complex_similar","images/stimuli/spore_stims/complex_18_B_a.gif","right","","","","",""
"","1783.1800000276417","html-keyboard-response","150","386643","0.0-30.0","SS1613140268115","pref_question","","49","","","","","<video width ='960' height = '540' style='padding-top:8%' autoplay muted><source src='images/stimuli/wall_pref.mp4' type='video/mp4'></video>","1","left","25%","7","","","","","","","",""
"","7492.900000186637","sequential-stimulus-presentation","151","394952","0.0-31.0","SS1613140268115","pref_reveal","","40","800","8292.900000186637","null","null","","","","","7","","","","deviant","","","",""
"","null","html-keyboard-response","152","395775","0.0-32.0-0.0","SS1613140268115","","","null","","","","","<p><img src= images/blank.png width =""200"" height = ""200"" style = ""float:right""></p><p><img src=images/blank.png width =""800"" height = ""200""></p>","","","","","","","","","","","",""
"","131.87000015750527","sequential-stimulus-presentation","153","396723","0.0-32.0-1.0","SS1613140268115","trial","","40","800","931.8700001575053","images/stimuli/spore_stims/simple_15_A_d.gif","images/stimuli/spore_stims/simple_02_A_a.gif","","","","","8","simple_dissimilar","images/stimuli/spore_stims/simple_02_A_a.gif","middle","","","","",""
"","null","html-keyboard-response","154","397749","0.0-32.0-0.1","SS1613140268115","","","null","","","","","<p><img src= images/blank.png width =""200"" height = ""200"" style = ""float:right""></p><p><img src=images/blank.png width =""800"" height = ""200""></p>","","","","","","","","","","","",""
"","464.0349999535829","sequential-stimulus-presentation","155","399062","0.0-32.0-1.1","SS1613140268115","trial","","40","800","1264.0349999535829","images/stimuli/spore_stims/simple_15_A_d.gif","images/stimuli/spore_stims/simple_02_A_a.gif","","","","","8","simple_dissimilar","images/stimuli/spore_stims/simple_02_A_a.gif","middle","","","","",""
"","null","html-keyboard-response","156","400264","0.0-32.0-0.2","SS1613140268115","","","null","","","","","<p><img src= images/blank.png width =""200"" height = ""200"" style = ""float:right""></p><p><img src=images/blank.png width =""800"" height = ""200""></p>","","","","","","","","","","","",""
"","371.3849999476224","sequential-stimulus-presentation","157","401451","0.0-32.0-1.2","SS1613140268115","trial","","40","800","1171.3849999476224","images/stimuli/spore_stims/simple_15_A_d.gif","images/stimuli/spore_stims/simple_02_A_a.gif","","","","","8","simple_dissimilar","images/stimuli/spore_stims/simple_15_A_d.gif","left","","","","",""
"","null","html-keyboard-response","158","402317","0.0-32.0-0.3","SS1613140268115","","","null","","","","","<p><img src= images/blank.png width =""200"" height = ""200"" style = ""float:right""></p><p><img src=images/blank.png width =""800"" height = ""200""></p>","","","","","","","","","","","",""
"","20039.88999989815","sequential-stimulus-presentation","159","423173","0.0-32.0-1.3","SS1613140268115","trial","","40","800","20839.88999989815","images/stimuli/spore_stims/simple_15_A_d.gif","images/stimuli/spore_stims/simple_02_A_a.gif","","","","","8","simple_dissimilar","images/stimuli/spore_stims/simple_02_A_a.gif","middle","","","","",""
"","null","html-keyboard-response","160","424316","0.0-32.0-0.4","SS1613140268115","","","null","","","","","<p><img src= images/blank.png width =""200"" height = ""200"" style = ""float:right""></p><p><img src=images/blank.png width =""800"" height = ""200""></p>","","","","","","","","","","","",""
"","2043.7750001437962","sequential-stimulus-presentation","161","427175","0.0-32.0-1.4","SS1613140268115","trial","","40","800","2843.775000143796","images/stimuli/spore_stims/simple_15_A_d.gif","images/stimuli/spore_stims/simple_02_A_a.gif","","","","","8","simple_dissimilar","images/stimuli/spore_stims/simple_02_A_a.gif","middle","","","","",""
"","null","html-keyboard-response","162","428130","0.0-32.0-0.5","SS1613140268115","","","null","","","","","<p><img src= images/blank.png width =""200"" height = ""200"" style = ""float:right""></p><p><img src=images/blank.png width =""800"" height = ""200""></p>","","","","","","","","","","","",""
"","939.1650001052767","sequential-stimulus-presentation","163","429885","0.0-32.0-1.5","SS1613140268115","trial","","40","800","1739.1650001052767","images/stimuli/spore_stims/simple_15_A_d.gif","images/stimuli/spore_stims/simple_02_A_a.gif","","","","","8","simple_dissimilar","images/stimuli/spore_stims/simple_02_A_a.gif","middle","","","","",""
"","null","html-keyboard-response","164","430697","0.0-32.0-0.6","SS1613140268115","","","null","","","","","<p><img src= images/blank.png width =""200"" height = ""200"" style = ""float:right""></p><p><img src=images/blank.png width =""800"" height = ""200""></p>","","","","","","","","","","","",""
"","3127.6050000451505","sequential-stimulus-presentation","165","434640","0.0-32.0-1.6","SS1613140268115","trial","","40","800","3927.6050000451505","images/stimuli/spore_stims/simple_15_A_d.gif","images/stimuli/spore_stims/simple_02_A_a.gif","","","","","8","simple_dissimilar","images/stimuli/spore_stims/simple_02_A_a.gif","middle","","","","",""
"","null","html-keyboard-response","166","435704","0.0-32.0-0.7","SS1613140268115","","","null","","","","","<p><img src= images/blank.png width =""200"" height = ""200"" style = ""float:right""></p><p><img src=images/blank.png width =""800"" height = ""200""></p>","","","","","","","","","","","",""
"","888.1299998611212","sequential-stimulus-presentation","167","437410","0.0-32.0-1.7","SS1613140268115","trial","","40","800","1688.1299998611212","images/stimuli/spore_stims/simple_15_A_d.gif","images/stimuli/spore_stims/simple_02_A_a.gif","","","","","8","simple_dissimilar","images/stimuli/spore_stims/simple_02_A_a.gif","middle","","","","",""
"","2382.285000057891","html-keyboard-response","168","439807","0.0-33.0","SS1613140268115","pref_question","","51","","","","","<video width ='960' height = '540' style='padding-top:8%' autoplay muted><source src='images/stimuli/wall_pref.mp4' type='video/mp4'></video>","3","right","66%","8","","","","","","","",""
"","24453.680000035092","sequential-stimulus-presentation","169","465084","0.0-34.0","SS1613140268115","pref_reveal","","40","800","25253.680000035092","null","null","","","","","8","","","","novel","","","",""
"","null","html-keyboard-response","170","466108","0.0-35.0-0.0","SS1613140268115","","","null","","","","","<p><img src= images/blank.png width =""200"" height = ""200"" style = ""float:right""></p><p><img src=images/blank.png width =""800"" height = ""200""></p>","","","","","","","","","","","",""
"","1350.594999967143","sequential-stimulus-presentation","171","468274","0.0-35.0-1.0","SS1613140268115","trial","","40","800","2150.594999967143","images/stimuli/spore_stims/simple_16_A_c.gif","images/stimuli/spore_stims/simple_16_B_c.gif","","","","","9","simple_similar","images/stimuli/spore_stims/simple_16_B_c.gif","left","","","","",""
"","null","html-keyboard-response","172","469549","0.0-35.0-0.1","SS1613140268115","","","null","","","","","<p><img src= images/blank.png width =""200"" height = ""200"" style = ""float:right""></p><p><img src=images/blank.png width =""800"" height = ""200""></p>","","","","","","","","","","","",""
"","10893.455000128597","sequential-stimulus-presentation","173","481259","0.0-35.0-1.1","SS1613140268115","trial","","40","800","11693.455000128597","images/stimuli/spore_stims/simple_16_A_c.gif","images/stimuli/spore_stims/simple_16_B_c.gif","","","","","9","simple_similar","images/stimuli/spore_stims/simple_16_B_c.gif","left","","","","",""
"","null","html-keyboard-response","174","482435","0.0-35.0-0.2","SS1613140268115","","","null","","","","","<p><img src= images/blank.png width =""200"" height = ""200"" style = ""float:right""></p><p><img src=images/blank.png width =""800"" height = ""200""></p>","","","","","","","","","","","",""
"","3310.2849998977035","sequential-stimulus-presentation","175","486561","0.0-35.0-1.2","SS1613140268115","trial","","40","800","4110.2849998977035","images/stimuli/spore_stims/simple_16_A_c.gif","images/stimuli/spore_stims/simple_16_B_c.gif","","","","","9","simple_similar","images/stimuli/spore_stims/simple_16_A_c.gif","right","","","","",""
"","null","html-keyboard-response","176","487682","0.0-35.0-0.3","SS1613140268115","","","null","","","","","<p><img src= images/blank.png width =""200"" height = ""200"" style = ""float:right""></p><p><img src=images/blank.png width =""800"" height = ""200""></p>","","","","","","","","","","","",""
"","572.8549999184906","sequential-stimulus-presentation","177","489072","0.0-35.0-1.3","SS1613140268115","trial","","40","800","1372.8549999184906","images/stimuli/spore_stims/simple_16_A_c.gif","images/stimuli/spore_stims/simple_16_B_c.gif","","","","","9","simple_similar","images/stimuli/spore_stims/simple_16_B_c.gif","left","","","","",""
"","null","html-keyboard-response","178","489930","0.0-35.0-0.4","SS1613140268115","","","null","","","","","<p><img src= images/blank.png width =""200"" height = ""200"" style = ""float:right""></p><p><img src=images/blank.png width =""800"" height = ""200""></p>","","","","","","","","","","","",""
"","9458.434999920428","sequential-stimulus-presentation","179","500207","0.0-35.0-1.4","SS1613140268115","trial","","40","800","10258.434999920428","images/stimuli/spore_stims/simple_16_A_c.gif","images/stimuli/spore_stims/simple_16_B_c.gif","","","","","9","simple_similar","images/stimuli/spore_stims/simple_16_B_c.gif","left","","","","",""
"","null","html-keyboard-response","180","501129","0.0-35.0-0.5","SS1613140268115","","","null","","","","","<p><img src= images/blank.png width =""200"" height = ""200"" style = ""float:right""></p><p><img src=images/blank.png width =""800"" height = ""200""></p>","","","","","","","","","","","",""
"","7045.79500015825","sequential-stimulus-presentation","181","508990","0.0-35.0-1.5","SS1613140268115","trial","","40","800","7845.79500015825","images/stimuli/spore_stims/simple_16_A_c.gif","images/stimuli/spore_stims/simple_16_B_c.gif","","","","","9","simple_similar","images/stimuli/spore_stims/simple_16_B_c.gif","left","","","","",""
"","null","html-keyboard-response","182","510211","0.0-35.0-0.6","SS1613140268115","","","null","","","","","<p><img src= images/blank.png width =""200"" height = ""200"" style = ""float:right""></p><p><img src=images/blank.png width =""800"" height = ""200""></p>","","","","","","","","","","","",""
"","3.4199999645352364","sequential-stimulus-presentation","183","511027","0.0-35.0-1.6","SS1613140268115","trial","","40","800","803.4199999645352","images/stimuli/spore_stims/simple_16_A_c.gif","images/stimuli/spore_stims/simple_16_B_c.gif","","","","","9","simple_similar","images/stimuli/spore_stims/simple_16_B_c.gif","left","","","","",""
"","null","html-keyboard-response","184","512095","0.0-35.0-0.7","SS1613140268115","","","null","","","","","<p><img src= images/blank.png width =""200"" height = ""200"" style = ""float:right""></p><p><img src=images/blank.png width =""800"" height = ""200""></p>","","","","","","","","","","","",""
"","4224.114999873564","sequential-stimulus-presentation","185","517227","0.0-35.0-1.7","SS1613140268115","trial","","40","800","5024.114999873564","images/stimuli/spore_stims/simple_16_A_c.gif","images/stimuli/spore_stims/simple_16_B_c.gif","","","","","9","simple_similar","images/stimuli/spore_stims/simple_16_B_c.gif","left","","","","",""
"","2203.6999999545515","html-keyboard-response","186","519446","0.0-36.0","SS1613140268115","pref_question","","49","","","","","<video width ='960' height = '540' style='padding-top:8%' autoplay muted><source src='images/stimuli/wall_pref.mp4' type='video/mp4'></video>","1","left","25%","9","","","","","","","",""
"","5152.770000044256","sequential-stimulus-presentation","187","525418","0.0-37.0","SS1613140268115","pref_reveal","","40","800","5952.770000044256","null","null","","","","","9","","","","background","","","",""
"","null","html-keyboard-response","188","526370","0.0-38.0-0.0","SS1613140268115","","","null","","","","","<p><img src= images/blank.png width =""200"" height = ""200"" style = ""float:right""></p><p><img src=images/blank.png width =""800"" height = ""200""></p>","","","","","","","","","","","",""
"","3386.634999886155","sequential-stimulus-presentation","189","530578","0.0-38.0-1.0","SS1613140268115","trial","","40","800","4186.634999886155","images/stimuli/spore_stims/complex_09_A_b.gif","images/stimuli/spore_stims/complex_06_A_d.gif","","","","","10","complex_dissimilar","images/stimuli/spore_stims/complex_06_A_d.gif","right","","","","",""
"","null","html-keyboard-response","190","531775","0.0-38.0-0.1","SS1613140268115","","","null","","","","","<p><img src= images/blank.png width =""200"" height = ""200"" style = ""float:right""></p><p><img src=images/blank.png width =""800"" height = ""200""></p>","","","","","","","","","","","",""
"","197.05999991856515","sequential-stimulus-presentation","191","532783","0.0-38.0-1.1","SS1613140268115","trial","","40","800","997.0599999185652","images/stimuli/spore_stims/complex_09_A_b.gif","images/stimuli/spore_stims/complex_06_A_d.gif","","","","","10","complex_dissimilar","images/stimuli/spore_stims/complex_06_A_d.gif","right","","","","",""
"","null","html-keyboard-response","192","533899","0.0-38.0-0.2","SS1613140268115","","","null","","","","","<p><img src= images/blank.png width =""200"" height = ""200"" style = ""float:right""></p><p><img src=images/blank.png width =""800"" height = ""200""></p>","","","","","","","","","","","",""
"","5603.525000158697","sequential-stimulus-presentation","193","540320","0.0-38.0-1.2","SS1613140268115","trial","","40","800","6403.525000158697","images/stimuli/spore_stims/complex_09_A_b.gif","images/stimuli/spore_stims/complex_06_A_d.gif","","","","","10","complex_dissimilar","images/stimuli/spore_stims/complex_06_A_d.gif","right","","","","",""
"","null","html-keyboard-response","194","541545","0.0-38.0-0.3","SS1613140268115","","","null","","","","","<p><img src= images/blank.png width =""200"" height = ""200"" style = ""float:right""></p><p><img src=images/blank.png width =""800"" height = ""200""></p>","","","","","","","","","","","",""
"","365.4350000433624","sequential-stimulus-presentation","195","542728","0.0-38.0-1.3","SS1613140268115","trial","","40","800","1165.4350000433624","images/stimuli/spore_stims/complex_09_A_b.gif","images/stimuli/spore_stims/complex_06_A_d.gif","","","","","10","complex_dissimilar","images/stimuli/spore_stims/complex_06_A_d.gif","right","","","","",""
"","null","html-keyboard-response","196","543605","0.0-38.0-0.4","SS1613140268115","","","null","","","","","<p><img src= images/blank.png width =""200"" height = ""200"" style = ""float:right""></p><p><img src=images/blank.png width =""800"" height = ""200""></p>","","","","","","","","","","","",""
"","3355.6950001511723","sequential-stimulus-presentation","197","547779","0.0-38.0-1.4","SS1613140268115","trial","","40","800","4155.695000151172","images/stimuli/spore_stims/complex_09_A_b.gif","images/stimuli/spore_stims/complex_06_A_d.gif","","","","","10","complex_dissimilar","images/stimuli/spore_stims/complex_06_A_d.gif","right","","","","",""
"","null","html-keyboard-response","198","548852","0.0-38.0-0.5","SS1613140268115","","","null","","","","","<p><img src= images/blank.png width =""200"" height = ""200"" style = ""float:right""></p><p><img src=images/blank.png width =""800"" height = ""200""></p>","","","","","","","","","","","",""
"","2533.019999973476","sequential-stimulus-presentation","199","552203","0.0-38.0-1.5","SS1613140268115","trial","","40","800","3333.019999973476","images/stimuli/spore_stims/complex_09_A_b.gif","images/stimuli/spore_stims/complex_06_A_d.gif","","","","","10","complex_dissimilar","images/stimuli/spore_stims/complex_09_A_b.gif","left","","","","",""
"","null","html-keyboard-response","200","553295","0.0-38.0-0.6","SS1613140268115","","","null","","","","","<p><img src= images/blank.png width =""200"" height = ""200"" style = ""float:right""></p><p><img src=images/blank.png width =""800"" height = ""200""></p>","","","","","","","","","","","",""
"","23177.710000192747","sequential-stimulus-presentation","201","577291","0.0-38.0-1.6","SS1613140268115","trial","","40","800","23977.710000192747","images/stimuli/spore_stims/complex_09_A_b.gif","images/stimuli/spore_stims/complex_06_A_d.gif","","","","","10","complex_dissimilar","images/stimuli/spore_stims/complex_06_A_d.gif","right","","","","",""
"","null","html-keyboard-response","202","578295","0.0-38.0-0.7","SS1613140268115","","","null","","","","","<p><img src= images/blank.png width =""200"" height = ""200"" style = ""float:right""></p><p><img src=images/blank.png width =""800"" height = ""200""></p>","","","","","","","","","","","",""
"","14293.270000023767","sequential-stimulus-presentation","203","593410","0.0-38.0-1.7","SS1613140268115","trial","","40","800","15093.270000023767","images/stimuli/spore_stims/complex_09_A_b.gif","images/stimuli/spore_stims/complex_06_A_d.gif","","","","","10","complex_dissimilar","images/stimuli/spore_stims/complex_06_A_d.gif","right","","","","",""
"","1933.7299999315292","html-keyboard-response","204","595359","0.0-39.0","SS1613140268115","pref_question","","49","","","","","<video width ='960' height = '540' style='padding-top:8%' autoplay muted><source src='images/stimuli/wall_pref.mp4' type='video/mp4'></video>","1","left","25%","10","","","","","","","",""
"","4977.174999890849","sequential-stimulus-presentation","205","601157","0.0-40.0","SS1613140268115","pref_reveal","","40","800","5777.174999890849","null","null","","","","","10","","","","deviant","","","",""
"","null","html-keyboard-response","206","602181","0.0-41.0-0.0","SS1613140268115","","","null","","","","","<p><img src= images/blank.png width =""200"" height = ""200"" style = ""float:right""></p><p><img src=images/blank.png width =""800"" height = ""200""></p>","","","","","","","","","","","",""
"","876.4150000642985","sequential-stimulus-presentation","207","603872","0.0-41.0-1.0","SS1613140268115","trial","","40","800","1676.4150000642985","images/stimuli/spore_stims/simple_12_A_b.gif","images/stimuli/spore_stims/simple_12_B_b.gif","","","","","11","simple_similar","images/stimuli/spore_stims/simple_12_B_b.gif","right","","","","",""
"","null","html-keyboard-response","208","605163","0.0-41.0-0.1","SS1613140268115","","","null","","","","","<p><img src= images/blank.png width =""200"" height = ""200"" style = ""float:right""></p><p><img src=images/blank.png width =""800"" height = ""200""></p>","","","","","","","","","","","",""
"","584.7449998836964","sequential-stimulus-presentation","209","606570","0.0-41.0-1.1","SS1613140268115","trial","","40","800","1384.7449998836964","images/stimuli/spore_stims/simple_12_A_b.gif","images/stimuli/spore_stims/simple_12_B_b.gif","","","","","11","simple_similar","images/stimuli/spore_stims/simple_12_B_b.gif","right","","","","",""
"","null","html-keyboard-response","210","607635","0.0-41.0-0.2","SS1613140268115","","","null","","","","","<p><img src= images/blank.png width =""200"" height = ""200"" style = ""float:right""></p><p><img src=images/blank.png width =""800"" height = ""200""></p>","","","","","","","","","","","",""
"","732.2849999181926","sequential-stimulus-presentation","211","609187","0.0-41.0-1.2","SS1613140268115","trial","","40","800","1532.2849999181926","images/stimuli/spore_stims/simple_12_A_b.gif","images/stimuli/spore_stims/simple_12_B_b.gif","","","","","11","simple_similar","images/stimuli/spore_stims/simple_12_A_b.gif","middle","","","","",""
"","null","html-keyboard-response","212","610365","0.0-41.0-0.3","SS1613140268115","","","null","","","","","<p><img src= images/blank.png width =""200"" height = ""200"" style = ""float:right""></p><p><img src=images/blank.png width =""800"" height = ""200""></p>","","","","","","","","","","","",""
"","14263.345000101253","sequential-stimulus-presentation","213","625455","0.0-41.0-1.3","SS1613140268115","trial","","40","800","15063.345000101253","images/stimuli/spore_stims/simple_12_A_b.gif","images/stimuli/spore_stims/simple_12_B_b.gif","","","","","11","simple_similar","images/stimuli/spore_stims/simple_12_B_b.gif","right","","","","",""
"","null","html-keyboard-response","214","626737","0.0-41.0-0.4","SS1613140268115","","","null","","","","","<p><img src= images/blank.png width =""200"" height = ""200"" style = ""float:right""></p><p><img src=images/blank.png width =""800"" height = ""200""></p>","","","","","","","","","","","",""
"","475.19499994814396","sequential-stimulus-presentation","215","628022","0.0-41.0-1.4","SS1613140268115","trial","","40","800","1275.194999948144","images/stimuli/spore_stims/simple_12_A_b.gif","images/stimuli/spore_stims/simple_12_B_b.gif","","","","","11","simple_similar","images/stimuli/spore_stims/simple_12_B_b.gif","right","","","","",""
"","null","html-keyboard-response","216","629296","0.0-41.0-0.5","SS1613140268115","","","null","","","","","<p><img src= images/blank.png width =""200"" height = ""200"" style = ""float:right""></p><p><img src=images/blank.png width =""800"" height = ""200""></p>","","","","","","","","","","","",""
"","4259.594999952242","sequential-stimulus-presentation","217","634373","0.0-41.0-1.5","SS1613140268115","trial","","40","800","5059.594999952242","images/stimuli/spore_stims/simple_12_A_b.gif","images/stimuli/spore_stims/simple_12_B_b.gif","","","","","11","simple_similar","images/stimuli/spore_stims/simple_12_B_b.gif","right","","","","",""
"","null","html-keyboard-response","218","635519","0.0-41.0-0.6","SS1613140268115","","","null","","","","","<p><img src= images/blank.png width =""200"" height = ""200"" style = ""float:right""></p><p><img src=images/blank.png width =""800"" height = ""200""></p>","","","","","","","","","","","",""
"","2422.450000187382","sequential-stimulus-presentation","219","638758","0.0-41.0-1.6","SS1613140268115","trial","","40","800","3222.450000187382","images/stimuli/spore_stims/simple_12_A_b.gif","images/stimuli/spore_stims/simple_12_B_b.gif","","","","","11","simple_similar","images/stimuli/spore_stims/simple_12_B_b.gif","right","","","","",""
"","null","html-keyboard-response","220","639943","0.0-41.0-0.7","SS1613140268115","","","null","","","","","<p><img src= images/blank.png width =""200"" height = ""200"" style = ""float:right""></p><p><img src=images/blank.png width =""800"" height = ""200""></p>","","","","","","","","","","","",""
"","413.90000004321337","sequential-stimulus-presentation","221","641176","0.0-41.0-1.7","SS1613140268115","trial","","40","800","1213.9000000432134","images/stimuli/spore_stims/simple_12_A_b.gif","images/stimuli/spore_stims/simple_12_B_b.gif","","","","","11","simple_similar","images/stimuli/spore_stims/simple_12_B_b.gif","right","","","","",""
"","1657.7749999705702","html-keyboard-response","222","642850","0.0-42.0","SS1613140268115","pref_question","","50","","","","","<video width ='960' height = '540' style='padding-top:8%' autoplay muted><source src='images/stimuli/wall_pref.mp4' type='video/mp4'></video>","2","middle","45%","11","","","","","","","",""
"","15218.864999944344","sequential-stimulus-presentation","223","658887","0.0-43.0","SS1613140268115","pref_reveal","","40","800","16018.864999944344","null","null","","","","","11","","","","deviant","","","",""
"","null","html-keyboard-response","224","659848","0.0-44.0-0.0","SS1613140268115","","","null","","","","","<p><img src= images/blank.png width =""200"" height = ""200"" style = ""float:right""></p><p><img src=images/blank.png width =""800"" height = ""200""></p>","","","","","","","","","","","",""
"","1396.2850000243634","sequential-stimulus-presentation","225","662064","0.0-44.0-1.0","SS1613140268115","trial","","40","800","2196.2850000243634","images/stimuli/spore_stims/complex_13_B_c.gif","images/stimuli/spore_stims/complex_13_A_c.gif","","","","","12","complex_similar","images/stimuli/spore_stims/complex_13_A_c.gif","middle","","","","",""
"","null","html-keyboard-response","226","662939","0.0-44.0-0.1","SS1613140268115","","","null","","","","","<p><img src= images/blank.png width =""200"" height = ""200"" style = ""float:right""></p><p><img src=images/blank.png width =""800"" height = ""200""></p>","","","","","","","","","","","",""
"","341.2950001657009","sequential-stimulus-presentation","227","664131","0.0-44.0-1.1","SS1613140268115","trial","","40","800","1141.295000165701","images/stimuli/spore_stims/complex_13_B_c.gif","images/stimuli/spore_stims/complex_13_A_c.gif","","","","","12","complex_similar","images/stimuli/spore_stims/complex_13_A_c.gif","middle","","","","",""
"","null","html-keyboard-response","228","665159","0.0-44.0-0.2","SS1613140268115","","","null","","","","","<p><img src= images/blank.png width =""200"" height = ""200"" style = ""float:right""></p><p><img src=images/blank.png width =""800"" height = ""200""></p>","","","","","","","","","","","",""
"","332.6449999585748","sequential-stimulus-presentation","229","666314","0.0-44.0-1.2","SS1613140268115","trial","","40","800","1132.6449999585748","images/stimuli/spore_stims/complex_13_B_c.gif","images/stimuli/spore_stims/complex_13_A_c.gif","","","","","12","complex_similar","images/stimuli/spore_stims/complex_13_A_c.gif","middle","","","","",""
"","null","html-keyboard-response","230","667256","0.0-44.0-0.3","SS1613140268115","","","null","","","","","<p><img src= images/blank.png width =""200"" height = ""200"" style = ""float:right""></p><p><img src=images/blank.png width =""800"" height = ""200""></p>","","","","","","","","","","","",""
"","520.2350001782179","sequential-stimulus-presentation","231","668594","0.0-44.0-1.3","SS1613140268115","trial","","40","800","1320.235000178218","images/stimuli/spore_stims/complex_13_B_c.gif","images/stimuli/spore_stims/complex_13_A_c.gif","","","","","12","complex_similar","images/stimuli/spore_stims/complex_13_A_c.gif","middle","","","","",""
"","null","html-keyboard-response","232","669792","0.0-44.0-0.4","SS1613140268115","","","null","","","","","<p><img src= images/blank.png width =""200"" height = ""200"" style = ""float:right""></p><p><img src=images/blank.png width =""800"" height = ""200""></p>","","","","","","","","","","","",""
"","268.60999991185963","sequential-stimulus-presentation","233","670879","0.0-44.0-1.4","SS1613140268115","trial","","40","800","1068.6099999118596","images/stimuli/spore_stims/complex_13_B_c.gif","images/stimuli/spore_stims/complex_13_A_c.gif","","","","","12","complex_similar","images/stimuli/spore_stims/complex_13_A_c.gif","middle","","","","",""
"","null","html-keyboard-response","234","672070","0.0-44.0-0.5","SS1613140268115","","","null","","","","","<p><img src= images/blank.png width =""200"" height = ""200"" style = ""float:right""></p><p><img src=images/blank.png width =""800"" height = ""200""></p>","","","","","","","","","","","",""
"","123.94499988295138","sequential-stimulus-presentation","235","673011","0.0-44.0-1.5","SS1613140268115","trial","","40","800","923.9449998829514","images/stimuli/spore_stims/complex_13_B_c.gif","images/stimuli/spore_stims/complex_13_A_c.gif","","","","","12","complex_similar","images/stimuli/spore_stims/complex_13_A_c.gif","middle","","","","",""
"","null","html-keyboard-response","236","674195","0.0-44.0-0.6","SS1613140268115","","","null","","","","","<p><img src= images/blank.png width =""200"" height = ""200"" style = ""float:right""></p><p><img src=images/blank.png width =""800"" height = ""200""></p>","","","","","","","","","","","",""
"","142.16000004671514","sequential-stimulus-presentation","237","675187","0.0-44.0-1.6","SS1613140268115","trial","","40","800","942.1600000467151","images/stimuli/spore_stims/complex_13_B_c.gif","images/stimuli/spore_stims/complex_13_A_c.gif","","","","","12","complex_similar","images/stimuli/spore_stims/complex_13_B_c.gif","left","","","","",""
"","null","html-keyboard-response","238","676281","0.0-44.0-0.7","SS1613140268115","","","null","","","","","<p><img src= images/blank.png width =""200"" height = ""200"" style = ""float:right""></p><p><img src=images/blank.png width =""800"" height = ""200""></p>","","","","","","","","","","","",""
"","24904.020000016317","sequential-stimulus-presentation","239","702002","0.0-44.0-1.7","SS1613140268115","trial","","40","800","25704.020000016317","images/stimuli/spore_stims/complex_13_B_c.gif","images/stimuli/spore_stims/complex_13_A_c.gif","","","","","12","complex_similar","images/stimuli/spore_stims/complex_13_A_c.gif","middle","","","","",""
"","1871.114999987185","html-keyboard-response","240","703893","0.0-45.0","SS1613140268115","pref_question","","49","","","","","<video width ='960' height = '540' style='padding-top:8%' autoplay muted><source src='images/stimuli/wall_pref.mp4' type='video/mp4'></video>","1","left","25%","12","","","","","","","",""
"","6345.459999982268","sequential-stimulus-presentation","241","711057","0.0-46.0","SS1613140268115","pref_reveal","","40","800","7145.459999982268","null","null","","","","","12","","","","deviant","","","",""
"","null","html-keyboard-response","242","712134","0.0-47.0-0.0","SS1613140268115","","","null","","","","","<p><img src= images/blank.png width =""200"" height = ""200"" style = ""float:right""></p><p><img src=images/blank.png width =""800"" height = ""200""></p>","","","","","","","","","","","",""
"","185.8749999664724","sequential-stimulus-presentation","243","713142","0.0-47.0-1.0","SS1613140268115","trial","","40","800","985.8749999664724","images/stimuli/spore_stims/simple_14_A_b.gif","images/stimuli/spore_stims/simple_18_A_c.gif","","","","","13","simple_dissimilar","images/stimuli/spore_stims/simple_18_A_c.gif","right","","","","",""
"","null","html-keyboard-response","244","714021","0.0-47.0-0.1","SS1613140268115","","","null","","","","","<p><img src= images/blank.png width =""200"" height = ""200"" style = ""float:right""></p><p><img src=images/blank.png width =""800"" height = ""200""></p>","","","","","","","","","","","",""
"","16580.385000212118","sequential-stimulus-presentation","245","731423","0.0-47.0-1.1","SS1613140268115","trial","","40","800","17380.385000212118","images/stimuli/spore_stims/simple_14_A_b.gif","images/stimuli/spore_stims/simple_18_A_c.gif","","","","","13","simple_dissimilar","images/stimuli/spore_stims/simple_18_A_c.gif","right","","","","",""
"","null","html-keyboard-response","246","732730","0.0-47.0-0.2","SS1613140268115","","","null","","","","","<p><img src= images/blank.png width =""200"" height = ""200"" style = ""float:right""></p><p><img src=images/blank.png width =""800"" height = ""200""></p>","","","","","","","","","","","",""
"","3273.879999993369","sequential-stimulus-presentation","247","736823","0.0-47.0-1.2","SS1613140268115","trial","","40","800","4073.879999993369","images/stimuli/spore_stims/simple_14_A_b.gif","images/stimuli/spore_stims/simple_18_A_c.gif","","","","","13","simple_dissimilar","images/stimuli/spore_stims/simple_18_A_c.gif","right","","","","",""
"","null","html-keyboard-response","248","737938","0.0-47.0-0.3","SS1613140268115","","","null","","","","","<p><img src= images/blank.png width =""200"" height = ""200"" style = ""float:right""></p><p><img src=images/blank.png width =""800"" height = ""200""></p>","","","","","","","","","","","",""
"","294.04000006616116","sequential-stimulus-presentation","249","739052","0.0-47.0-1.3","SS1613140268115","trial","","40","800","1094.0400000661612","images/stimuli/spore_stims/simple_14_A_b.gif","images/stimuli/spore_stims/simple_18_A_c.gif","","","","","13","simple_dissimilar","images/stimuli/spore_stims/simple_18_A_c.gif","right","","","","",""
"","null","html-keyboard-response","250","740334","0.0-47.0-0.4","SS1613140268115","","","null","","","","","<p><img src= images/blank.png width =""200"" height = ""200"" style = ""float:right""></p><p><img src=images/blank.png width =""800"" height = ""200""></p>","","","","","","","","","","","",""
"","8556.289999978617","sequential-stimulus-presentation","251","749731","0.0-47.0-1.4","SS1613140268115","trial","","40","800","9356.289999978617","images/stimuli/spore_stims/simple_14_A_b.gif","images/stimuli/spore_stims/simple_18_A_c.gif","","","","","13","simple_dissimilar","images/stimuli/spore_stims/simple_18_A_c.gif","right","","","","",""
"","null","html-keyboard-response","252","751050","0.0-47.0-0.5","SS1613140268115","","","null","","","","","<p><img src= images/blank.png width =""200"" height = ""200"" style = ""float:right""></p><p><img src=images/blank.png width =""800"" height = ""200""></p>","","","","","","","","","","","",""
"","81.18000021204352","sequential-stimulus-presentation","253","751952","0.0-47.0-1.5","SS1613140268115","trial","","40","800","881.1800002120435","images/stimuli/spore_stims/simple_14_A_b.gif","images/stimuli/spore_stims/simple_18_A_c.gif","","","","","13","simple_dissimilar","images/stimuli/spore_stims/simple_18_A_c.gif","right","","","","",""
"","null","html-keyboard-response","254","753000","0.0-47.0-0.6","SS1613140268115","","","null","","","","","<p><img src= images/blank.png width =""200"" height = ""200"" style = ""float:right""></p><p><img src=images/blank.png width =""800"" height = ""200""></p>","","","","","","","","","","","",""
"","401.5250001102686","sequential-stimulus-presentation","255","754216","0.0-47.0-1.6","SS1613140268115","trial","","40","800","1201.5250001102686","images/stimuli/spore_stims/simple_14_A_b.gif","images/stimuli/spore_stims/simple_18_A_c.gif","","","","","13","simple_dissimilar","images/stimuli/spore_stims/simple_18_A_c.gif","right","","","","",""
"","null","html-keyboard-response","256","755362","0.0-47.0-0.7","SS1613140268115","","","null","","","","","<p><img src= images/blank.png width =""200"" height = ""200"" style = ""float:right""></p><p><img src=images/blank.png width =""800"" height = ""200""></p>","","","","","","","","","","","",""
"","4742.689999984577","sequential-stimulus-presentation","257","760927","0.0-47.0-1.7","SS1613140268115","trial","","40","800","5542.689999984577","images/stimuli/spore_stims/simple_14_A_b.gif","images/stimuli/spore_stims/simple_18_A_c.gif","","","","","13","simple_dissimilar","images/stimuli/spore_stims/simple_14_A_b.gif","left","","","","",""
"","2199.8000000603497","html-keyboard-response","258","763144","0.0-48.0","SS1613140268115","pref_question","","51","","","","","<video width ='960' height = '540' style='padding-top:8%' autoplay muted><source src='images/stimuli/wall_pref.mp4' type='video/mp4'></video>","3","right","66%","13","","","","","","","",""
"","1226.045000134036","sequential-stimulus-presentation","259","765183","0.0-49.0","SS1613140268115","pref_reveal","","40","800","2026.045000134036","null","null","","","","","13","","","","background","","","",""
"","null","html-keyboard-response","260","766189","0.0-50.0-0.0","SS1613140268115","","","null","","","","","<p><img src= images/blank.png width =""200"" height = ""200"" style = ""float:right""></p><p><img src=images/blank.png width =""800"" height = ""200""></p>","","","","","","","","","","","",""
"","481.3650001306087","sequential-stimulus-presentation","261","767482","0.0-50.0-1.0","SS1613140268115","trial","","40","800","1281.3650001306087","images/stimuli/spore_stims/complex_03_A_c.gif","images/stimuli/spore_stims/complex_02_A_b.gif","","","","","14","complex_dissimilar","images/stimuli/spore_stims/complex_02_A_b.gif","left","","","","",""
"","null","html-keyboard-response","262","768748","0.0-50.0-0.1","SS1613140268115","","","null","","","","","<p><img src= images/blank.png width =""200"" height = ""200"" style = ""float:right""></p><p><img src=images/blank.png width =""800"" height = ""200""></p>","","","","","","","","","","","",""
"","6594.090000027791","sequential-stimulus-presentation","263","776154","0.0-50.0-1.1","SS1613140268115","trial","","40","800","7394.090000027791","images/stimuli/spore_stims/complex_03_A_c.gif","images/stimuli/spore_stims/complex_02_A_b.gif","","","","","14","complex_dissimilar","images/stimuli/spore_stims/complex_02_A_b.gif","left","","","","",""
"","null","html-keyboard-response","264","777218","0.0-50.0-0.2","SS1613140268115","","","null","","","","","<p><img src= images/blank.png width =""200"" height = ""200"" style = ""float:right""></p><p><img src=images/blank.png width =""800"" height = ""200""></p>","","","","","","","","","","","",""
"","2861.650000093505","sequential-stimulus-presentation","265","780896","0.0-50.0-1.2","SS1613140268115","trial","","40","800","3661.650000093505","images/stimuli/spore_stims/complex_03_A_c.gif","images/stimuli/spore_stims/complex_02_A_b.gif","","","","","14","complex_dissimilar","images/stimuli/spore_stims/complex_02_A_b.gif","left","","","","",""
"","null","html-keyboard-response","266","782143","0.0-50.0-0.3","SS1613140268115","","","null","","","","","<p><img src= images/blank.png width =""200"" height = ""200"" style = ""float:right""></p><p><img src=images/blank.png width =""800"" height = ""200""></p>","","","","","","","","","","","",""
"","2492.710000136867","sequential-stimulus-presentation","267","785449","0.0-50.0-1.3","SS1613140268115","trial","","40","800","3292.710000136867","images/stimuli/spore_stims/complex_03_A_c.gif","images/stimuli/spore_stims/complex_02_A_b.gif","","","","","14","complex_dissimilar","images/stimuli/spore_stims/complex_02_A_b.gif","left","","","","",""
"","null","html-keyboard-response","268","786565","0.0-50.0-0.4","SS1613140268115","","","null","","","","","<p><img src= images/blank.png width =""200"" height = ""200"" style = ""float:right""></p><p><img src=images/blank.png width =""800"" height = ""200""></p>","","","","","","","","","","","",""
"","2355.5050001014024","sequential-stimulus-presentation","269","789733","0.0-50.0-1.4","SS1613140268115","trial","","40","800","3155.5050001014024","images/stimuli/spore_stims/complex_03_A_c.gif","images/stimuli/spore_stims/complex_02_A_b.gif","","","","","14","complex_dissimilar","images/stimuli/spore_stims/complex_02_A_b.gif","left","","","","",""
"","null","html-keyboard-response","270","790778","0.0-50.0-0.5","SS1613140268115","","","null","","","","","<p><img src= images/blank.png width =""200"" height = ""200"" style = ""float:right""></p><p><img src=images/blank.png width =""800"" height = ""200""></p>","","","","","","","","","","","",""
"","2462.2900001704693","sequential-stimulus-presentation","271","794064","0.0-50.0-1.5","SS1613140268115","trial","","40","800","3262.2900001704693","images/stimuli/spore_stims/complex_03_A_c.gif","images/stimuli/spore_stims/complex_02_A_b.gif","","","","","14","complex_dissimilar","images/stimuli/spore_stims/complex_03_A_c.gif","middle","","","","",""
"","null","html-keyboard-response","272","795277","0.0-50.0-0.6","SS1613140268115","","","null","","","","","<p><img src= images/blank.png width =""200"" height = ""200"" style = ""float:right""></p><p><img src=images/blank.png width =""800"" height = ""200""></p>","","","","","","","","","","","",""
"","10524.794999975711","sequential-stimulus-presentation","273","806651","0.0-50.0-1.6","SS1613140268115","trial","","40","800","11324.794999975711","images/stimuli/spore_stims/complex_03_A_c.gif","images/stimuli/spore_stims/complex_02_A_b.gif","","","","","14","complex_dissimilar","images/stimuli/spore_stims/complex_02_A_b.gif","left","","","","",""
"","null","html-keyboard-response","274","807774","0.0-50.0-0.7","SS1613140268115","","","null","","","","","<p><img src= images/blank.png width =""200"" height = ""200"" style = ""float:right""></p><p><img src=images/blank.png width =""800"" height = ""200""></p>","","","","","","","","","","","",""
"","79644.70500010066","sequential-stimulus-presentation","275","888238","0.0-50.0-1.7","SS1613140268115","trial","","40","800","80444.70500010066","images/stimuli/spore_stims/complex_03_A_c.gif","images/stimuli/spore_stims/complex_02_A_b.gif","","","","","14","complex_dissimilar","images/stimuli/spore_stims/complex_02_A_b.gif","left","","","","",""
"","2892.100000055507","html-keyboard-response","276","891143","0.0-51.0","SS1613140268115","pref_question","","49","","","","","<video width ='960' height = '540' style='padding-top:8%' autoplay muted><source src='images/stimuli/wall_pref.mp4' type='video/mp4'></video>","1","left","25%","14","","","","","","","",""
"","30842.24499994889","sequential-stimulus-presentation","277","922807","0.0-52.0","SS1613140268115","pref_reveal","","40","800","31642.24499994889","null","null","","","","","14","","","","background","","","",""
"","null","html-keyboard-response","278","923857","0.0-53.0-0.0","SS1613140268115","","","null","","","","","<p><img src= images/blank.png width =""200"" height = ""200"" style = ""float:right""></p><p><img src=images/blank.png width =""800"" height = ""200""></p>","","","","","","","","","","","",""
"","3970.4700000584126","sequential-stimulus-presentation","279","928648","0.0-53.0-1.0","SS1613140268115","trial","","40","800","4770.470000058413","images/stimuli/spore_stims/complex_09_B_d.gif","images/stimuli/spore_stims/complex_07_B_d.gif","","","","","15","complex_dissimilar","images/stimuli/spore_stims/complex_07_B_d.gif","right","","","","",""
"","null","html-keyboard-response","280","929964","0.0-53.0-0.1","SS1613140268115","","","null","","","","","<p><img src= images/blank.png width =""200"" height = ""200"" style = ""float:right""></p><p><img src=images/blank.png width =""800"" height = ""200""></p>","","","","","","","","","","","",""
"","9732.519999844953","sequential-stimulus-presentation","281","940517","0.0-53.0-1.1","SS1613140268115","trial","","40","800","10532.519999844953","images/stimuli/spore_stims/complex_09_B_d.gif","images/stimuli/spore_stims/complex_07_B_d.gif","","","","","15","complex_dissimilar","images/stimuli/spore_stims/complex_07_B_d.gif","right","","","","",""
"","null","html-keyboard-response","282","941431","0.0-53.0-0.2","SS1613140268115","","","null","","","","","<p><img src= images/blank.png width =""200"" height = ""200"" style = ""float:right""></p><p><img src=images/blank.png width =""800"" height = ""200""></p>","","","","","","","","","","","",""
"","652.1050001028925","sequential-stimulus-presentation","283","942904","0.0-53.0-1.2","SS1613140268115","trial","","40","800","1452.1050001028925","images/stimuli/spore_stims/complex_09_B_d.gif","images/stimuli/spore_stims/complex_07_B_d.gif","","","","","15","complex_dissimilar","images/stimuli/spore_stims/complex_09_B_d.gif","middle","","","","",""
"","null","html-keyboard-response","284","944036","0.0-53.0-0.3","SS1613140268115","","","null","","","","","<p><img src= images/blank.png width =""200"" height = ""200"" style = ""float:right""></p><p><img src=images/blank.png width =""800"" height = ""200""></p>","","","","","","","","","","","",""
"","9679.130000062287","sequential-stimulus-presentation","285","954574","0.0-53.0-1.3","SS1613140268115","trial","","40","800","10479.130000062287","images/stimuli/spore_stims/complex_09_B_d.gif","images/stimuli/spore_stims/complex_07_B_d.gif","","","","","15","complex_dissimilar","images/stimuli/spore_stims/complex_07_B_d.gif","right","","","","",""
"","null","html-keyboard-response","286","955829","0.0-53.0-0.4","SS1613140268115","","","null","","","","","<p><img src= images/blank.png width =""200"" height = ""200"" style = ""float:right""></p><p><img src=images/blank.png width =""800"" height = ""200""></p>","","","","","","","","","","","",""
"","75147.40000013262","sequential-stimulus-presentation","287","1031800","0.0-53.0-1.4","SS1613140268115","trial","","40","800","75947.40000013262","images/stimuli/spore_stims/complex_09_B_d.gif","images/stimuli/spore_stims/complex_07_B_d.gif","","","","","15","complex_dissimilar","images/stimuli/spore_stims/complex_07_B_d.gif","right","","","","",""
"","null","html-keyboard-response","288","1032717","0.0-53.0-0.5","SS1613140268115","","","null","","","","","<p><img src= images/blank.png width =""200"" height = ""200"" style = ""float:right""></p><p><img src=images/blank.png width =""800"" height = ""200""></p>","","","","","","","","","","","",""
"","277.16500009410083","sequential-stimulus-presentation","289","1033815","0.0-53.0-1.5","SS1613140268115","trial","","40","800","1077.1650000941008","images/stimuli/spore_stims/complex_09_B_d.gif","images/stimuli/spore_stims/complex_07_B_d.gif","","","","","15","complex_dissimilar","images/stimuli/spore_stims/complex_07_B_d.gif","right","","","","",""
"","null","html-keyboard-response","290","1034997","0.0-53.0-0.6","SS1613140268115","","","null","","","","","<p><img src= images/blank.png width =""200"" height = ""200"" style = ""float:right""></p><p><img src=images/blank.png width =""800"" height = ""200""></p>","","","","","","","","","","","",""
"","3606.9350000470877","sequential-stimulus-presentation","291","1039455","0.0-53.0-1.6","SS1613140268115","trial","","40","800","4406.935000047088","images/stimuli/spore_stims/complex_09_B_d.gif","images/stimuli/spore_stims/complex_07_B_d.gif","","","","","15","complex_dissimilar","images/stimuli/spore_stims/complex_07_B_d.gif","right","","","","",""
"","null","html-keyboard-response","292","1040687","0.0-53.0-0.7","SS1613140268115","","","null","","","","","<p><img src= images/blank.png width =""200"" height = ""200"" style = ""float:right""></p><p><img src=images/blank.png width =""800"" height = ""200""></p>","","","","","","","","","","","",""
"","10295.66999990493","sequential-stimulus-presentation","293","1051808","0.0-53.0-1.7","SS1613140268115","trial","","40","800","11095.66999990493","images/stimuli/spore_stims/complex_09_B_d.gif","images/stimuli/spore_stims/complex_07_B_d.gif","","","","","15","complex_dissimilar","images/stimuli/spore_stims/complex_07_B_d.gif","right","","","","",""
"","2301.824999973178","html-keyboard-response","294","1054129","0.0-54.0","SS1613140268115","pref_question","","49","","","","","<video width ='960' height = '540' style='padding-top:8%' autoplay muted><source src='images/stimuli/wall_pref.mp4' type='video/mp4'></video>","1","left","25%","15","","","","","","","",""
"","11144.730000058189","sequential-stimulus-presentation","295","1066095","0.0-55.0","SS1613140268115","pref_reveal","","40","800","11944.730000058189","null","null","","","","","15","","","","novel","","","",""
"","null","html-keyboard-response","296","1067077","0.0-56.0-0.0","SS1613140268115","","","null","","","","","<p><img src= images/blank.png width =""200"" height = ""200"" style = ""float:right""></p><p><img src=images/blank.png width =""800"" height = ""200""></p>","","","","","","","","","","","",""
"","5029.340000124648","sequential-stimulus-presentation","297","1072919","0.0-56.0-1.0","SS1613140268115","trial","","40","800","5829.340000124648","images/stimuli/spore_stims/simple_20_B_b.gif","images/stimuli/spore_stims/simple_20_A_b.gif","","","","","16","simple_similar","images/stimuli/spore_stims/simple_20_A_b.gif","middle","","","","",""
"","null","html-keyboard-response","298","1073899","0.0-56.0-0.1","SS1613140268115","","","null","","","","","<p><img src= images/blank.png width =""200"" height = ""200"" style = ""float:right""></p><p><img src=images/blank.png width =""800"" height = ""200""></p>","","","","","","","","","","","",""
"","4831.63999998942","sequential-stimulus-presentation","299","1079553","0.0-56.0-1.1","SS1613140268115","trial","","40","800","5631.63999998942","images/stimuli/spore_stims/simple_20_B_b.gif","images/stimuli/spore_stims/simple_20_A_b.gif","","","","","16","simple_similar","images/stimuli/spore_stims/simple_20_A_b.gif","middle","","","","",""
"","null","html-keyboard-response","300","1080672","0.0-56.0-0.2","SS1613140268115","","","null","","","","","<p><img src= images/blank.png width =""200"" height = ""200"" style = ""float:right""></p><p><img src=images/blank.png width =""800"" height = ""200""></p>","","","","","","","","","","","",""
"","962.2150000650436","sequential-stimulus-presentation","301","1082445","0.0-56.0-1.2","SS1613140268115","trial","","40","800","1762.2150000650436","images/stimuli/spore_stims/simple_20_B_b.gif","images/stimuli/spore_stims/simple_20_A_b.gif","","","","","16","simple_similar","images/stimuli/spore_stims/simple_20_A_b.gif","middle","","","","",""
"","null","html-keyboard-response","302","1083645","0.0-56.0-0.3","SS1613140268115","","","null","","","","","<p><img src= images/blank.png width =""200"" height = ""200"" style = ""float:right""></p><p><img src=images/blank.png width =""800"" height = ""200""></p>","","","","","","","","","","","",""
"","8775.775000220165","sequential-stimulus-presentation","303","1093261","0.0-56.0-1.3","SS1613140268115","trial","","40","800","9575.775000220165","images/stimuli/spore_stims/simple_20_B_b.gif","images/stimuli/spore_stims/simple_20_A_b.gif","","","","","16","simple_similar","images/stimuli/spore_stims/simple_20_A_b.gif","middle","","","","",""
"","null","html-keyboard-response","304","1094310","0.0-56.0-0.4","SS1613140268115","","","null","","","","","<p><img src= images/blank.png width =""200"" height = ""200"" style = ""float:right""></p><p><img src=images/blank.png width =""800"" height = ""200""></p>","","","","","","","","","","","",""
"","14379.925000015646","sequential-stimulus-presentation","305","1109512","0.0-56.0-1.4","SS1613140268115","trial","","40","800","15179.925000015646","images/stimuli/spore_stims/simple_20_B_b.gif","images/stimuli/spore_stims/simple_20_A_b.gif","","","","","16","simple_similar","images/stimuli/spore_stims/simple_20_B_b.gif","right","","","","",""
"","null","html-keyboard-response","306","1110375","0.0-56.0-0.5","SS1613140268115","","","null","","","","","<p><img src= images/blank.png width =""200"" height = ""200"" style = ""float:right""></p><p><img src=images/blank.png width =""800"" height = ""200""></p>","","","","","","","","","","","",""
"","628.2850001007318","sequential-stimulus-presentation","307","1111828","0.0-56.0-1.5","SS1613140268115","trial","","40","800","1428.2850001007318","images/stimuli/spore_stims/simple_20_B_b.gif","images/stimuli/spore_stims/simple_20_A_b.gif","","","","","16","simple_similar","images/stimuli/spore_stims/simple_20_A_b.gif","middle","","","","",""
"","null","html-keyboard-response","308","1112832","0.0-56.0-0.6","SS1613140268115","","","null","","","","","<p><img src= images/blank.png width =""200"" height = ""200"" style = ""float:right""></p><p><img src=images/blank.png width =""800"" height = ""200""></p>","","","","","","","","","","","",""
"","18146.69999992475","sequential-stimulus-presentation","309","1131841","0.0-56.0-1.6","SS1613140268115","trial","","40","800","18946.69999992475","images/stimuli/spore_stims/simple_20_B_b.gif","images/stimuli/spore_stims/simple_20_A_b.gif","","","","","16","simple_similar","images/stimuli/spore_stims/simple_20_A_b.gif","middle","","","","",""
"","null","html-keyboard-response","310","1132982","0.0-56.0-0.7","SS1613140268115","","","null","","","","","<p><img src= images/blank.png width =""200"" height = ""200"" style = ""float:right""></p><p><img src=images/blank.png width =""800"" height = ""200""></p>","","","","","","","","","","","",""
"","9898.319999920204","sequential-stimulus-presentation","311","1143696","0.0-56.0-1.7","SS1613140268115","trial","","40","800","10698.319999920204","images/stimuli/spore_stims/simple_20_B_b.gif","images/stimuli/spore_stims/simple_20_A_b.gif","","","","","16","simple_similar","images/stimuli/spore_stims/simple_20_A_b.gif","middle","","","","",""
