"view_history","rt","trial_type","trial_index","time_elapsed","internal_node_id","subject","stimulus_type","trial_stimulus","key_press","minimum_viewing_duration","trial_looking_time","block_deviant","block_background","stimulus","wall_pref","location","location_percent","block_number","block_type","stimulus_displayed","position_displayed","stim_type_selected","responses","question_order","stimulus_left","stimulus_right"
"[{""page_index"":0,""viewing_time"":183817.66500000958}]","183818.68500000564","instructions","0","183820","0.0-0.0","SS1613081755645","","","","","","","","","","","","","","","","","","","",""
"[{""page_index"":0,""viewing_time"":5353.830000007292},{""page_index"":1,""viewing_time"":111444.21999997576}]","116798.25999998138","instructions","1","302928","0.0-1.0","SS1613081755645","instructions","","","","","","","","","","","","","","","","","","",""
"","5373.560000007274","sequential-stimulus-presentation","2","309121","0.0-2.0","SS1613081755645","","","40","800","6173.560000007274","null","null","","","","","","","","","","","","",""
"","2772.9200000176206","sequential-stimulus-presentation","3","312701","0.0-3.0","SS1613081755645","","","40","800","3572.9200000176206","null","null","","","","","","","","","","","","",""
"[{""page_index"":0,""viewing_time"":5297.534999990603}]","5297.885000007227","instructions","4","318001","0.0-4.0","SS1613081755645","instructions","","","","","","","","","","","","","","","","","","",""
"","8399.104999989504","html-keyboard-response","5","326404","0.0-5.0","SS1613081755645","instructions","","49","","","","","<video width ='960' height = '540' autoplay muted><source src='images/stimuli/wall_pref.mp4' type='video/mp4'></video>","1","left","25%","","","","","","","","",""
"","1127.680000005057","sequential-stimulus-presentation","6","328344","0.0-6.0","SS1613081755645","pref_reveal","","40","800","1927.680000005057","null","null","","","","","","","","","","","","",""
"[{""page_index"":0,""viewing_time"":4264.239999989513},{""page_index"":1,""viewing_time"":6257.065000012517},{""page_index"":2,""viewing_time"":1170.8849999995437},{""page_index"":3,""viewing_time"":1155.9199999901466}]","12848.50500000175","instructions","7","341194","0.0-7.0","SS1613081755645","instructions","","","","","","","","","","","","","","","","","","",""
"","null","html-keyboard-response","8","342455","0.0-8.0-0.0","SS1613081755645","","","null","","","","","<p><img src= images/blank.png width =""200"" height = ""200"" style = ""float:right""></p><p><img src=images/blank.png width =""800"" height = ""200""></p>","","","","","","","","","","","",""
"","3885.134999989532","sequential-stimulus-presentation","9","347148","0.0-8.0-1.0","SS1613081755645","trial","","40","800","4685.134999989532","images/stimuli/spore_stims/complex_13_B_d.gif","images/stimuli/spore_stims/complex_07_A_a.gif","","","","","0","complex_dissimilar","images/stimuli/spore_stims/complex_07_A_a.gif","middle","","","","",""
"","null","html-keyboard-response","10","348146","0.0-8.0-0.1","SS1613081755645","","","null","","","","","<p><img src= images/blank.png width =""200"" height = ""200"" style = ""float:right""></p><p><img src=images/blank.png width =""800"" height = ""200""></p>","","","","","","","","","","","",""
"","2107.0900000049733","sequential-stimulus-presentation","11","351064","0.0-8.0-1.1","SS1613081755645","trial","","40","800","2907.0900000049733","images/stimuli/spore_stims/complex_13_B_d.gif","images/stimuli/spore_stims/complex_07_A_a.gif","","","","","0","complex_dissimilar","images/stimuli/spore_stims/complex_07_A_a.gif","middle","","","","",""
"","null","html-keyboard-response","12","351872","0.0-8.0-0.2","SS1613081755645","","","null","","","","","<p><img src= images/blank.png width =""200"" height = ""200"" style = ""float:right""></p><p><img src=images/blank.png width =""800"" height = ""200""></p>","","","","","","","","","","","",""
"","1317.8550000011455","sequential-stimulus-presentation","13","353996","0.0-8.0-1.2","SS1613081755645","trial","","40","800","2117.8550000011455","images/stimuli/spore_stims/complex_13_B_d.gif","images/stimuli/spore_stims/complex_07_A_a.gif","","","","","0","complex_dissimilar","images/stimuli/spore_stims/complex_07_A_a.gif","middle","","","","",""
"","null","html-keyboard-response","14","354882","0.0-8.0-0.3","SS1613081755645","","","null","","","","","<p><img src= images/blank.png width =""200"" height = ""200"" style = ""float:right""></p><p><img src=images/blank.png width =""800"" height = ""200""></p>","","","","","","","","","","","",""
"","2414.904999983264","sequential-stimulus-presentation","15","358109","0.0-8.0-1.3","SS1613081755645","trial","","40","800","3214.904999983264","images/stimuli/spore_stims/complex_13_B_d.gif","images/stimuli/spore_stims/complex_07_A_a.gif","","","","","0","complex_dissimilar","images/stimuli/spore_stims/complex_13_B_d.gif","right","","","","",""
"","null","html-keyboard-response","16","359265","0.0-8.0-0.4","SS1613081755645","","","null","","","","","<p><img src= images/blank.png width =""200"" height = ""200"" style = ""float:right""></p><p><img src=images/blank.png width =""800"" height = ""200""></p>","","","","","","","","","","","",""
"","2719.6249999979045","sequential-stimulus-presentation","17","362793","0.0-8.0-1.4","SS1613081755645","trial","","40","800","3519.6249999979045","images/stimuli/spore_stims/complex_13_B_d.gif","images/stimuli/spore_stims/complex_07_A_a.gif","","","","","0","complex_dissimilar","images/stimuli/spore_stims/complex_07_A_a.gif","middle","","","","",""
"","null","html-keyboard-response","18","363886","0.0-8.0-0.5","SS1613081755645","","","null","","","","","<p><img src= images/blank.png width =""200"" height = ""200"" style = ""float:right""></p><p><img src=images/blank.png width =""800"" height = ""200""></p>","","","","","","","","","","","",""
"","2719.0450000052806","sequential-stimulus-presentation","19","367410","0.0-8.0-1.5","SS1613081755645","trial","","40","800","3519.0450000052806","images/stimuli/spore_stims/complex_13_B_d.gif","images/stimuli/spore_stims/complex_07_A_a.gif","","","","","0","complex_dissimilar","images/stimuli/spore_stims/complex_07_A_a.gif","middle","","","","",""
"","null","html-keyboard-response","20","368664","0.0-8.0-0.6","SS1613081755645","","","null","","","","","<p><img src= images/blank.png width =""200"" height = ""200"" style = ""float:right""></p><p><img src=images/blank.png width =""800"" height = ""200""></p>","","","","","","","","","","","",""
"","2435.330000007525","sequential-stimulus-presentation","21","371916","0.0-8.0-1.6","SS1613081755645","trial","","40","800","3235.330000007525","images/stimuli/spore_stims/complex_13_B_d.gif","images/stimuli/spore_stims/complex_07_A_a.gif","","","","","0","complex_dissimilar","images/stimuli/spore_stims/complex_07_A_a.gif","middle","","","","",""
"","null","html-keyboard-response","22","373084","0.0-8.0-0.7","SS1613081755645","","","null","","","","","<p><img src= images/blank.png width =""200"" height = ""200"" style = ""float:right""></p><p><img src=images/blank.png width =""800"" height = ""200""></p>","","","","","","","","","","","",""
"","2674.8049999878276","sequential-stimulus-presentation","23","376573","0.0-8.0-1.7","SS1613081755645","trial","","40","800","3474.8049999878276","images/stimuli/spore_stims/complex_13_B_d.gif","images/stimuli/spore_stims/complex_07_A_a.gif","","","","","0","complex_dissimilar","images/stimuli/spore_stims/complex_07_A_a.gif","middle","","","","",""
"","2123.4200000180863","html-keyboard-response","24","378720","0.0-9.0","SS1613081755645","pref_question","","49","","","","","<video width ='960' height = '540' style='padding-top:8%' autoplay muted><source src='images/stimuli/wall_pref.mp4' type='video/mp4'></video>","1","left","25%","0","","","","","","","",""
"","2580.0949999829754","sequential-stimulus-presentation","25","382106","0.0-10.0","SS1613081755645","pref_reveal","","40","800","3380.0949999829754","null","null","","","","","0","","","","novel","","","",""
"","null","html-keyboard-response","26","383306","0.0-11.0-0.0","SS1613081755645","","","null","","","","","<p><img src= images/blank.png width =""200"" height = ""200"" style = ""float:right""></p><p><img src=images/blank.png width =""800"" height = ""200""></p>","","","","","","","","","","","",""
"","2583.454999985406","sequential-stimulus-presentation","27","386697","0.0-11.0-1.0","SS1613081755645","trial","","40","800","3383.454999985406","images/stimuli/spore_stims/simple_04_A_d.gif","images/stimuli/spore_stims/simple_03_A_c.gif","","","","","1","simple_dissimilar","images/stimuli/spore_stims/simple_03_A_c.gif","middle","","","","",""
"","null","html-keyboard-response","28","387664","0.0-11.0-0.1","SS1613081755645","","","null","","","","","<p><img src= images/blank.png width =""200"" height = ""200"" style = ""float:right""></p><p><img src=images/blank.png width =""800"" height = ""200""></p>","","","","","","","","","","","",""
"","1063.6300000187475","sequential-stimulus-presentation","29","389533","0.0-11.0-1.1","SS1613081755645","trial","","40","800","1863.6300000187475","images/stimuli/spore_stims/simple_04_A_d.gif","images/stimuli/spore_stims/simple_03_A_c.gif","","","","","1","simple_dissimilar","images/stimuli/spore_stims/simple_03_A_c.gif","middle","","","","",""
"","null","html-keyboard-response","30","390775","0.0-11.0-0.2","SS1613081755645","","","null","","","","","<p><img src= images/blank.png width =""200"" height = ""200"" style = ""float:right""></p><p><img src=images/blank.png width =""800"" height = ""200""></p>","","","","","","","","","","","",""
"","958.0750000022817","sequential-stimulus-presentation","31","392537","0.0-11.0-1.2","SS1613081755645","trial","","40","800","1758.0750000022817","images/stimuli/spore_stims/simple_04_A_d.gif","images/stimuli/spore_stims/simple_03_A_c.gif","","","","","1","simple_dissimilar","images/stimuli/spore_stims/simple_03_A_c.gif","middle","","","","",""
"","null","html-keyboard-response","32","393475","0.0-11.0-0.3","SS1613081755645","","","null","","","","","<p><img src= images/blank.png width =""200"" height = ""200"" style = ""float:right""></p><p><img src=images/blank.png width =""800"" height = ""200""></p>","","","","","","","","","","","",""
"","1889.1249999869615","sequential-stimulus-presentation","33","396168","0.0-11.0-1.3","SS1613081755645","trial","","40","800","2689.1249999869615","images/stimuli/spore_stims/simple_04_A_d.gif","images/stimuli/spore_stims/simple_03_A_c.gif","","","","","1","simple_dissimilar","images/stimuli/spore_stims/simple_03_A_c.gif","middle","","","","",""
"","null","html-keyboard-response","34","397441","0.0-11.0-0.4","SS1613081755645","","","null","","","","","<p><img src= images/blank.png width =""200"" height = ""200"" style = ""float:right""></p><p><img src=images/blank.png width =""800"" height = ""200""></p>","","","","","","","","","","","",""
"","976.490000000922","sequential-stimulus-presentation","35","399229","0.0-11.0-1.4","SS1613081755645","trial","","40","800","1776.490000000922","images/stimuli/spore_stims/simple_04_A_d.gif","images/stimuli/spore_stims/simple_03_A_c.gif","","","","","1","simple_dissimilar","images/stimuli/spore_stims/simple_03_A_c.gif","middle","","","","",""
"","null","html-keyboard-response","36","400124","0.0-11.0-0.5","SS1613081755645","","","null","","","","","<p><img src= images/blank.png width =""200"" height = ""200"" style = ""float:right""></p><p><img src=images/blank.png width =""800"" height = ""200""></p>","","","","","","","","","","","",""
"","2794.2650000040885","sequential-stimulus-presentation","37","403921","0.0-11.0-1.5","SS1613081755645","trial","","40","800","3594.2650000040885","images/stimuli/spore_stims/simple_04_A_d.gif","images/stimuli/spore_stims/simple_03_A_c.gif","","","","","1","simple_dissimilar","images/stimuli/spore_stims/simple_03_A_c.gif","middle","","","","",""
"","null","html-keyboard-response","38","404801","0.0-11.0-0.6","SS1613081755645","","","null","","","","","<p><img src= images/blank.png width =""200"" height = ""200"" style = ""float:right""></p><p><img src=images/blank.png width =""800"" height = ""200""></p>","","","","","","","","","","","",""
"","2175.279999995837","sequential-stimulus-presentation","39","407782","0.0-11.0-1.6","SS1613081755645","trial","","40","800","2975.279999995837","images/stimuli/spore_stims/simple_04_A_d.gif","images/stimuli/spore_stims/simple_03_A_c.gif","","","","","1","simple_dissimilar","images/stimuli/spore_stims/simple_03_A_c.gif","middle","","","","",""
"","null","html-keyboard-response","40","408903","0.0-11.0-0.7","SS1613081755645","","","null","","","","","<p><img src= images/blank.png width =""200"" height = ""200"" style = ""float:right""></p><p><img src=images/blank.png width =""800"" height = ""200""></p>","","","","","","","","","","","",""
"","1488.710000005085","sequential-stimulus-presentation","41","411200","0.0-11.0-1.7","SS1613081755645","trial","","40","800","2288.710000005085","images/stimuli/spore_stims/simple_04_A_d.gif","images/stimuli/spore_stims/simple_03_A_c.gif","","","","","1","simple_dissimilar","images/stimuli/spore_stims/simple_04_A_d.gif","right","","","","",""
"","2075.2249999786727","html-keyboard-response","42","413279","0.0-12.0","SS1613081755645","pref_question","","51","","","","","<video width ='960' height = '540' style='padding-top:8%' autoplay muted><source src='images/stimuli/wall_pref.mp4' type='video/mp4'></video>","3","right","66%","1","","","","","","","",""
"","1866.8699999980163","sequential-stimulus-presentation","43","415950","0.0-13.0","SS1613081755645","pref_reveal","","40","800","2666.8699999980163","null","null","","","","","1","","","","deviant","","","",""
"","null","html-keyboard-response","44","416931","0.0-14.0-0.0","SS1613081755645","","","null","","","","","<p><img src= images/blank.png width =""200"" height = ""200"" style = ""float:right""></p><p><img src=images/blank.png width =""800"" height = ""200""></p>","","","","","","","","","","","",""
"","1844.890000007581","sequential-stimulus-presentation","45","419592","0.0-14.0-1.0","SS1613081755645","trial","","40","800","2644.890000007581","images/stimuli/spore_stims/complex_12_A_c.gif","images/stimuli/spore_stims/complex_12_B_c.gif","","","","","2","complex_similar","images/stimuli/spore_stims/complex_12_B_c.gif","middle","","","","",""
"","null","html-keyboard-response","46","420562","0.0-14.0-0.1","SS1613081755645","","","null","","","","","<p><img src= images/blank.png width =""200"" height = ""200"" style = ""float:right""></p><p><img src=images/blank.png width =""800"" height = ""200""></p>","","","","","","","","","","","",""
"","2346.4350000140257","sequential-stimulus-presentation","47","423715","0.0-14.0-1.1","SS1613081755645","trial","","40","800","3146.4350000140257","images/stimuli/spore_stims/complex_12_A_c.gif","images/stimuli/spore_stims/complex_12_B_c.gif","","","","","2","complex_similar","images/stimuli/spore_stims/complex_12_B_c.gif","middle","","","","",""
"","null","html-keyboard-response","48","424550","0.0-14.0-0.2","SS1613081755645","","","null","","","","","<p><img src= images/blank.png width =""200"" height = ""200"" style = ""float:right""></p><p><img src=images/blank.png width =""800"" height = ""200""></p>","","","","","","","","","","","",""
"","1884.0650000202004","sequential-stimulus-presentation","49","427241","0.0-14.0-1.2","SS1613081755645","trial","","40","800","2684.0650000202004","images/stimuli/spore_stims/complex_12_A_c.gif","images/stimuli/spore_stims/complex_12_B_c.gif","","","","","2","complex_similar","images/stimuli/spore_stims/complex_12_B_c.gif","middle","","","","",""
"","null","html-keyboard-response","50","428261","0.0-14.0-0.3","SS1613081755645","","","null","","","","","<p><img src= images/blank.png width =""200"" height = ""200"" style = ""float:right""></p><p><img src=images/blank.png width =""800"" height = ""200""></p>","","","","","","","","","","","",""
"","2337.019999977201","sequential-stimulus-presentation","51","431420","0.0-14.0-1.3","SS1613081755645","trial","","40","800","3137.019999977201","images/stimuli/spore_stims/complex_12_A_c.gif","images/stimuli/spore_stims/complex_12_B_c.gif","","","","","2","complex_similar","images/stimuli/spore_stims/complex_12_B_c.gif","middle","","","","",""
"","null","html-keyboard-response","52","432256","0.0-14.0-0.4","SS1613081755645","","","null","","","","","<p><img src= images/blank.png width =""200"" height = ""200"" style = ""float:right""></p><p><img src=images/blank.png width =""800"" height = ""200""></p>","","","","","","","","","","","",""
"","3207.9650000086986","sequential-stimulus-presentation","53","436270","0.0-14.0-1.4","SS1613081755645","trial","","40","800","4007.9650000086986","images/stimuli/spore_stims/complex_12_A_c.gif","images/stimuli/spore_stims/complex_12_B_c.gif","","","","","2","complex_similar","images/stimuli/spore_stims/complex_12_A_c.gif","right","","","","",""
"","null","html-keyboard-response","54","437254","0.0-14.0-0.5","SS1613081755645","","","null","","","","","<p><img src= images/blank.png width =""200"" height = ""200"" style = ""float:right""></p><p><img src=images/blank.png width =""800"" height = ""200""></p>","","","","","","","","","","","",""
"","2676.8900000024587","sequential-stimulus-presentation","55","440738","0.0-14.0-1.5","SS1613081755645","trial","","40","800","3476.8900000024587","images/stimuli/spore_stims/complex_12_A_c.gif","images/stimuli/spore_stims/complex_12_B_c.gif","","","","","2","complex_similar","images/stimuli/spore_stims/complex_12_B_c.gif","middle","","","","",""
"","null","html-keyboard-response","56","441927","0.0-14.0-0.6","SS1613081755645","","","null","","","","","<p><img src= images/blank.png width =""200"" height = ""200"" style = ""float:right""></p><p><img src=images/blank.png width =""800"" height = ""200""></p>","","","","","","","","","","","",""
"","3525.2050000126474","sequential-stimulus-presentation","57","446259","0.0-14.0-1.6","SS1613081755645","trial","","40","800","4325.205000012647","images/stimuli/spore_stims/complex_12_A_c.gif","images/stimuli/spore_stims/complex_12_B_c.gif","","","","","2","complex_similar","images/stimuli/spore_stims/complex_12_B_c.gif","middle","","","","",""
"","null","html-keyboard-response","58","447069","0.0-14.0-0.7","SS1613081755645","","","null","","","","","<p><img src= images/blank.png width =""200"" height = ""200"" style = ""float:right""></p><p><img src=images/blank.png width =""800"" height = ""200""></p>","","","","","","","","","","","",""
"","3034.4850000110455","sequential-stimulus-presentation","59","450911","0.0-14.0-1.7","SS1613081755645","trial","","40","800","3834.4850000110455","images/stimuli/spore_stims/complex_12_A_c.gif","images/stimuli/spore_stims/complex_12_B_c.gif","","","","","2","complex_similar","images/stimuli/spore_stims/complex_12_B_c.gif","middle","","","","",""
"","1760.760000004666","html-keyboard-response","60","452685","0.0-15.0","SS1613081755645","pref_question","","49","","","","","<video width ='960' height = '540' style='padding-top:8%' autoplay muted><source src='images/stimuli/wall_pref.mp4' type='video/mp4'></video>","1","left","25%","2","","","","","","","",""
"","2299.2300000041723","sequential-stimulus-presentation","61","455789","0.0-16.0","SS1613081755645","pref_reveal","","40","800","3099.2300000041723","null","null","","","","","2","","","","novel","","","",""
"","null","html-keyboard-response","62","456839","0.0-17.0-0.0","SS1613081755645","","","null","","","","","<p><img src= images/blank.png width =""200"" height = ""200"" style = ""float:right""></p><p><img src=images/blank.png width =""800"" height = ""200""></p>","","","","","","","","","","","",""
"","4073.2499999867287","sequential-stimulus-presentation","63","461724","0.0-17.0-1.0","SS1613081755645","trial","","40","800","4873.249999986729","images/stimuli/spore_stims/complex_18_A_c.gif","images/stimuli/spore_stims/complex_12_A_c.gif","","","","","3","complex_dissimilar","images/stimuli/spore_stims/complex_12_A_c.gif","right","","","","",""
"","null","html-keyboard-response","64","462740","0.0-17.0-0.1","SS1613081755645","","","null","","","","","<p><img src= images/blank.png width =""200"" height = ""200"" style = ""float:right""></p><p><img src=images/blank.png width =""800"" height = ""200""></p>","","","","","","","","","","","",""
"","4135.314999992261","sequential-stimulus-presentation","65","467682","0.0-17.0-1.1","SS1613081755645","trial","","40","800","4935.314999992261","images/stimuli/spore_stims/complex_18_A_c.gif","images/stimuli/spore_stims/complex_12_A_c.gif","","","","","3","complex_dissimilar","images/stimuli/spore_stims/complex_12_A_c.gif","right","","","","",""
"","null","html-keyboard-response","66","468551","0.0-17.0-0.2","SS1613081755645","","","null","","","","","<p><img src= images/blank.png width =""200"" height = ""200"" style = ""float:right""></p><p><img src=images/blank.png width =""800"" height = ""200""></p>","","","","","","","","","","","",""
"","2309.8450000106823","sequential-stimulus-presentation","67","471682","0.0-17.0-1.2","SS1613081755645","trial","","40","800","3109.8450000106823","images/stimuli/spore_stims/complex_18_A_c.gif","images/stimuli/spore_stims/complex_12_A_c.gif","","","","","3","complex_dissimilar","images/stimuli/spore_stims/complex_12_A_c.gif","right","","","","",""
"","null","html-keyboard-response","68","472792","0.0-17.0-0.3","SS1613081755645","","","null","","","","","<p><img src= images/blank.png width =""200"" height = ""200"" style = ""float:right""></p><p><img src=images/blank.png width =""800"" height = ""200""></p>","","","","","","","","","","","",""
"","2772.9550000221934","sequential-stimulus-presentation","69","476382","0.0-17.0-1.3","SS1613081755645","trial","","40","800","3572.9550000221934","images/stimuli/spore_stims/complex_18_A_c.gif","images/stimuli/spore_stims/complex_12_A_c.gif","","","","","3","complex_dissimilar","images/stimuli/spore_stims/complex_12_A_c.gif","right","","","","",""
"","null","html-keyboard-response","70","477627","0.0-17.0-0.4","SS1613081755645","","","null","","","","","<p><img src= images/blank.png width =""200"" height = ""200"" style = ""float:right""></p><p><img src=images/blank.png width =""800"" height = ""200""></p>","","","","","","","","","","","",""
"","1983.2549999991897","sequential-stimulus-presentation","71","480422","0.0-17.0-1.4","SS1613081755645","trial","","40","800","2783.2549999991897","images/stimuli/spore_stims/complex_18_A_c.gif","images/stimuli/spore_stims/complex_12_A_c.gif","","","","","3","complex_dissimilar","images/stimuli/spore_stims/complex_18_A_c.gif","middle","","","","",""
"","null","html-keyboard-response","72","481646","0.0-17.0-0.5","SS1613081755645","","","null","","","","","<p><img src= images/blank.png width =""200"" height = ""200"" style = ""float:right""></p><p><img src=images/blank.png width =""800"" height = ""200""></p>","","","","","","","","","","","",""
"","2325.1349999918602","sequential-stimulus-presentation","73","484777","0.0-17.0-1.5","SS1613081755645","trial","","40","800","3125.1349999918602","images/stimuli/spore_stims/complex_18_A_c.gif","images/stimuli/spore_stims/complex_12_A_c.gif","","","","","3","complex_dissimilar","images/stimuli/spore_stims/complex_12_A_c.gif","right","","","","",""
"","null","html-keyboard-response","74","485729","0.0-17.0-0.6","SS1613081755645","","","null","","","","","<p><img src= images/blank.png width =""200"" height = ""200"" style = ""float:right""></p><p><img src=images/blank.png width =""800"" height = ""200""></p>","","","","","","","","","","","",""
"","2993.6150000139605","sequential-stimulus-presentation","75","489540","0.0-17.0-1.6","SS1613081755645","trial","","40","800","3793.6150000139605","images/stimuli/spore_stims/complex_18_A_c.gif","images/stimuli/spore_stims/complex_12_A_c.gif","","","","","3","complex_dissimilar","images/stimuli/spore_stims/complex_12_A_c.gif","right","","","","",""
"","null","html-keyboard-response","76","490805","0.0-17.0-0.7","SS1613081755645","","","null","","","","","<p><img src= images/blank.png width =""200"" height = ""200"" style = ""float:right""></p><p><img src=images/blank.png width =""800"" height = ""200""></p>","","","","","","","","","","","",""
"","3408.4399999992456","sequential-stimulus-presentation","77","495038","0.0-17.0-1.7","SS1613081755645","trial","","40","800","4208.439999999246","images/stimuli/spore_stims/complex_18_A_c.gif","images/stimuli/spore_stims/complex_12_A_c.gif","","","","","3","complex_dissimilar","images/stimuli/spore_stims/complex_12_A_c.gif","right","","","","",""
"","2015.9350000030827","html-keyboard-response","78","497058","0.0-18.0","SS1613081755645","pref_question","","50","","","","","<video width ='960' height = '540' style='padding-top:8%' autoplay muted><source src='images/stimuli/wall_pref.mp4' type='video/mp4'></video>","2","middle","45%","3","","","","","","","",""
"","2889.12999999593","sequential-stimulus-presentation","79","500753","0.0-19.0","SS1613081755645","pref_reveal","","40","800","3689.12999999593","null","null","","","","","3","","","","deviant","","","",""
"","null","html-keyboard-response","80","501775","0.0-20.0-0.0","SS1613081755645","","","null","","","","","<p><img src= images/blank.png width =""200"" height = ""200"" style = ""float:right""></p><p><img src=images/blank.png width =""800"" height = ""200""></p>","","","","","","","","","","","",""
"","3077.0449999836273","sequential-stimulus-presentation","81","505673","0.0-20.0-1.0","SS1613081755645","trial","","40","800","3877.0449999836273","images/stimuli/spore_stims/complex_11_A_a.gif","images/stimuli/spore_stims/complex_10_A_a.gif","","","","","4","complex_dissimilar","images/stimuli/spore_stims/complex_10_A_a.gif","middle","","","","",""
"","null","html-keyboard-response","82","506535","0.0-20.0-0.1","SS1613081755645","","","null","","","","","<p><img src= images/blank.png width =""200"" height = ""200"" style = ""float:right""></p><p><img src=images/blank.png width =""800"" height = ""200""></p>","","","","","","","","","","","",""
"","6214.6150000044145","sequential-stimulus-presentation","83","513560","0.0-20.0-1.1","SS1613081755645","trial","","40","800","7014.6150000044145","images/stimuli/spore_stims/complex_11_A_a.gif","images/stimuli/spore_stims/complex_10_A_a.gif","","","","","4","complex_dissimilar","images/stimuli/spore_stims/complex_10_A_a.gif","middle","","","","",""
"","null","html-keyboard-response","84","514719","0.0-20.0-0.2","SS1613081755645","","","null","","","","","<p><img src= images/blank.png width =""200"" height = ""200"" style = ""float:right""></p><p><img src=images/blank.png width =""800"" height = ""200""></p>","","","","","","","","","","","",""
"","3044.469999993453","sequential-stimulus-presentation","85","518577","0.0-20.0-1.2","SS1613081755645","trial","","40","800","3844.469999993453","images/stimuli/spore_stims/complex_11_A_a.gif","images/stimuli/spore_stims/complex_10_A_a.gif","","","","","4","complex_dissimilar","images/stimuli/spore_stims/complex_10_A_a.gif","middle","","","","",""
"","null","html-keyboard-response","86","519570","0.0-20.0-0.3","SS1613081755645","","","null","","","","","<p><img src= images/blank.png width =""200"" height = ""200"" style = ""float:right""></p><p><img src=images/blank.png width =""800"" height = ""200""></p>","","","","","","","","","","","",""
"","3916.0499999998137","sequential-stimulus-presentation","87","524293","0.0-20.0-1.3","SS1613081755645","trial","","40","800","4716.049999999814","images/stimuli/spore_stims/complex_11_A_a.gif","images/stimuli/spore_stims/complex_10_A_a.gif","","","","","4","complex_dissimilar","images/stimuli/spore_stims/complex_10_A_a.gif","middle","","","","",""
"","null","html-keyboard-response","88","525161","0.0-20.0-0.4","SS1613081755645","","","null","","","","","<p><img src= images/blank.png width =""200"" height = ""200"" style = ""float:right""></p><p><img src=images/blank.png width =""800"" height = ""200""></p>","","","","","","","","","","","",""
"","1605.1499999884982","sequential-stimulus-presentation","89","527574","0.0-20.0-1.4","SS1613081755645","trial","","40","800","2405.149999988498","images/stimuli/spore_stims/complex_11_A_a.gif","images/stimuli/spore_stims/complex_10_A_a.gif","","","","","4","complex_dissimilar","images/stimuli/spore_stims/complex_11_A_a.gif","right","","","","",""
"","null","html-keyboard-response","90","528392","0.0-20.0-0.5","SS1613081755645","","","null","","","","","<p><img src= images/blank.png width =""200"" height = ""200"" style = ""float:right""></p><p><img src=images/blank.png width =""800"" height = ""200""></p>","","","","","","","","","","","",""
"","2367.87000001641","sequential-stimulus-presentation","91","531571","0.0-20.0-1.5","SS1613081755645","trial","","40","800","3167.87000001641","images/stimuli/spore_stims/complex_11_A_a.gif","images/stimuli/spore_stims/complex_10_A_a.gif","","","","","4","complex_dissimilar","images/stimuli/spore_stims/complex_10_A_a.gif","middle","","","","",""
"","null","html-keyboard-response","92","532690","0.0-20.0-0.6","SS1613081755645","","","null","","","","","<p><img src= images/blank.png width =""200"" height = ""200"" style = ""float:right""></p><p><img src=images/blank.png width =""800"" height = ""200""></p>","","","","","","","","","","","",""
"","1593.5549999994691","sequential-stimulus-presentation","93","535096","0.0-20.0-1.6","SS1613081755645","trial","","40","800","2393.554999999469","images/stimuli/spore_stims/complex_11_A_a.gif","images/stimuli/spore_stims/complex_10_A_a.gif","","","","","4","complex_dissimilar","images/stimuli/spore_stims/complex_10_A_a.gif","middle","","","","",""
"","null","html-keyboard-response","94","535935","0.0-20.0-0.7","SS1613081755645","","","null","","","","","<p><img src= images/blank.png width =""200"" height = ""200"" style = ""float:right""></p><p><img src=images/blank.png width =""800"" height = ""200""></p>","","","","","","","","","","","",""
"","3446.844999998575","sequential-stimulus-presentation","95","540191","0.0-20.0-1.7","SS1613081755645","trial","","40","800","4246.844999998575","images/stimuli/spore_stims/complex_11_A_a.gif","images/stimuli/spore_stims/complex_10_A_a.gif","","","","","4","complex_dissimilar","images/stimuli/spore_stims/complex_10_A_a.gif","middle","","","","",""
"","1545.4049999825656","html-keyboard-response","96","541749","0.0-21.0","SS1613081755645","pref_question","","49","","","","","<video width ='960' height = '540' style='padding-top:8%' autoplay muted><source src='images/stimuli/wall_pref.mp4' type='video/mp4'></video>","1","left","25%","4","","","","","","","",""
"","1137.1799999906216","sequential-stimulus-presentation","97","543700","0.0-22.0","SS1613081755645","pref_reveal","","40","800","1937.1799999906216","null","null","","","","","4","","","","novel","","","",""
"","null","html-keyboard-response","98","544595","0.0-23.0-0.0","SS1613081755645","","","null","","","","","<p><img src= images/blank.png width =""200"" height = ""200"" style = ""float:right""></p><p><img src=images/blank.png width =""800"" height = ""200""></p>","","","","","","","","","","","",""
"","1164.3549999862444","sequential-stimulus-presentation","99","546566","0.0-23.0-1.0","SS1613081755645","trial","","40","800","1964.3549999862444","images/stimuli/spore_stims/simple_15_A_d.gif","images/stimuli/spore_stims/simple_16_A_c.gif","","","","","5","simple_dissimilar","images/stimuli/spore_stims/simple_16_A_c.gif","left","","","","",""
"","null","html-keyboard-response","100","547516","0.0-23.0-0.1","SS1613081755645","","","null","","","","","<p><img src= images/blank.png width =""200"" height = ""200"" style = ""float:right""></p><p><img src=images/blank.png width =""800"" height = ""200""></p>","","","","","","","","","","","",""
"","2310.5149999901187","sequential-stimulus-presentation","101","550633","0.0-23.0-1.1","SS1613081755645","trial","","40","800","3110.5149999901187","images/stimuli/spore_stims/simple_15_A_d.gif","images/stimuli/spore_stims/simple_16_A_c.gif","","","","","5","simple_dissimilar","images/stimuli/spore_stims/simple_16_A_c.gif","left","","","","",""
"","null","html-keyboard-response","102","551440","0.0-23.0-0.2","SS1613081755645","","","null","","","","","<p><img src= images/blank.png width =""200"" height = ""200"" style = ""float:right""></p><p><img src=images/blank.png width =""800"" height = ""200""></p>","","","","","","","","","","","",""
"","1497.0849999808706","sequential-stimulus-presentation","103","553751","0.0-23.0-1.2","SS1613081755645","trial","","40","800","2297.0849999808706","images/stimuli/spore_stims/simple_15_A_d.gif","images/stimuli/spore_stims/simple_16_A_c.gif","","","","","5","simple_dissimilar","images/stimuli/spore_stims/simple_16_A_c.gif","left","","","","",""
"","null","html-keyboard-response","104","554706","0.0-23.0-0.3","SS1613081755645","","","null","","","","","<p><img src= images/blank.png width =""200"" height = ""200"" style = ""float:right""></p><p><img src=images/blank.png width =""800"" height = ""200""></p>","","","","","","","","","","","",""
"","1573.949999990873","sequential-stimulus-presentation","105","557107","0.0-23.0-1.3","SS1613081755645","trial","","40","800","2373.949999990873","images/stimuli/spore_stims/simple_15_A_d.gif","images/stimuli/spore_stims/simple_16_A_c.gif","","","","","5","simple_dissimilar","images/stimuli/spore_stims/simple_15_A_d.gif","middle","","","","",""
"","null","html-keyboard-response","106","558163","0.0-23.0-0.4","SS1613081755645","","","null","","","","","<p><img src= images/blank.png width =""200"" height = ""200"" style = ""float:right""></p><p><img src=images/blank.png width =""800"" height = ""200""></p>","","","","","","","","","","","",""
"","2211.039999994682","sequential-stimulus-presentation","107","561183","0.0-23.0-1.4","SS1613081755645","trial","","40","800","3011.039999994682","images/stimuli/spore_stims/simple_15_A_d.gif","images/stimuli/spore_stims/simple_16_A_c.gif","","","","","5","simple_dissimilar","images/stimuli/spore_stims/simple_16_A_c.gif","left","","","","",""
"","null","html-keyboard-response","108","562111","0.0-23.0-0.5","SS1613081755645","","","null","","","","","<p><img src= images/blank.png width =""200"" height = ""200"" style = ""float:right""></p><p><img src=images/blank.png width =""800"" height = ""200""></p>","","","","","","","","","","","",""
"","1899.4850000017323","sequential-stimulus-presentation","109","564824","0.0-23.0-1.5","SS1613081755645","trial","","40","800","2699.4850000017323","images/stimuli/spore_stims/simple_15_A_d.gif","images/stimuli/spore_stims/simple_16_A_c.gif","","","","","5","simple_dissimilar","images/stimuli/spore_stims/simple_16_A_c.gif","left","","","","",""
"","null","html-keyboard-response","110","565638","0.0-23.0-0.6","SS1613081755645","","","null","","","","","<p><img src= images/blank.png width =""200"" height = ""200"" style = ""float:right""></p><p><img src=images/blank.png width =""800"" height = ""200""></p>","","","","","","","","","","","",""
"","1153.279999998631","sequential-stimulus-presentation","111","567602","0.0-23.0-1.6","SS1613081755645","trial","","40","800","1953.279999998631","images/stimuli/spore_stims/simple_15_A_d.gif","images/stimuli/spore_stims/simple_16_A_c.gif","","","","","5","simple_dissimilar","images/stimuli/spore_stims/simple_16_A_c.gif","left","","","","",""
"","null","html-keyboard-response","112","568835","0.0-23.0-0.7","SS1613081755645","","","null","","","","","<p><img src= images/blank.png width =""200"" height = ""200"" style = ""float:right""></p><p><img src=images/blank.png width =""800"" height = ""200""></p>","","","","","","","","","","","",""
"","2676.9050000002608","sequential-stimulus-presentation","113","572329","0.0-23.0-1.7","SS1613081755645","trial","","40","800","3476.9050000002608","images/stimuli/spore_stims/simple_15_A_d.gif","images/stimuli/spore_stims/simple_16_A_c.gif","","","","","5","simple_dissimilar","images/stimuli/spore_stims/simple_16_A_c.gif","left","","","","",""
"","1594.2600000125822","html-keyboard-response","114","573928","0.0-24.0","SS1613081755645","pref_question","","51","","","","","<video width ='960' height = '540' style='padding-top:8%' autoplay muted><source src='images/stimuli/wall_pref.mp4' type='video/mp4'></video>","3","right","66%","5","","","","","","","",""
"","2293.839999998454","sequential-stimulus-presentation","115","577029","0.0-25.0","SS1613081755645","pref_reveal","","40","800","3093.839999998454","null","null","","","","","5","","","","novel","","","",""
"","null","html-keyboard-response","116","577903","0.0-26.0-0.0","SS1613081755645","","","null","","","","","<p><img src= images/blank.png width =""200"" height = ""200"" style = ""float:right""></p><p><img src=images/blank.png width =""800"" height = ""200""></p>","","","","","","","","","","","",""
"","6356.020000006538","sequential-stimulus-presentation","117","585077","0.0-26.0-1.0","SS1613081755645","trial","","40","800","7156.020000006538","images/stimuli/spore_stims/complex_01_B_c.gif","images/stimuli/spore_stims/complex_17_B_a.gif","","","","","6","complex_dissimilar","images/stimuli/spore_stims/complex_17_B_a.gif","right","","","","",""
"","null","html-keyboard-response","118","586326","0.0-26.0-0.1","SS1613081755645","","","null","","","","","<p><img src= images/blank.png width =""200"" height = ""200"" style = ""float:right""></p><p><img src=images/blank.png width =""800"" height = ""200""></p>","","","","","","","","","","","",""
"","3023.254999978235","sequential-stimulus-presentation","119","590170","0.0-26.0-1.1","SS1613081755645","trial","","40","800","3823.254999978235","images/stimuli/spore_stims/complex_01_B_c.gif","images/stimuli/spore_stims/complex_17_B_a.gif","","","","","6","complex_dissimilar","images/stimuli/spore_stims/complex_17_B_a.gif","right","","","","",""
"","null","html-keyboard-response","120","591413","0.0-26.0-0.2","SS1613081755645","","","null","","","","","<p><img src= images/blank.png width =""200"" height = ""200"" style = ""float:right""></p><p><img src=images/blank.png width =""800"" height = ""200""></p>","","","","","","","","","","","",""
"","5154.515000001993","sequential-stimulus-presentation","121","597376","0.0-26.0-1.2","SS1613081755645","trial","","40","800","5954.515000001993","images/stimuli/spore_stims/complex_01_B_c.gif","images/stimuli/spore_stims/complex_17_B_a.gif","","","","","6","complex_dissimilar","images/stimuli/spore_stims/complex_17_B_a.gif","right","","","","",""
"","null","html-keyboard-response","122","598201","0.0-26.0-0.3","SS1613081755645","","","null","","","","","<p><img src= images/blank.png width =""200"" height = ""200"" style = ""float:right""></p><p><img src=images/blank.png width =""800"" height = ""200""></p>","","","","","","","","","","","",""
"","3695.6150000041816","sequential-stimulus-presentation","123","602704","0.0-26.0-1.3","SS1613081755645","trial","","40","800","4495.615000004182","images/stimuli/spore_stims/complex_01_B_c.gif","images/stimuli/spore_stims/complex_17_B_a.gif","","","","","6","complex_dissimilar","images/stimuli/spore_stims/complex_17_B_a.gif","right","","","","",""
"","null","html-keyboard-response","124","603829","0.0-26.0-0.4","SS1613081755645","","","null","","","","","<p><img src= images/blank.png width =""200"" height = ""200"" style = ""float:right""></p><p><img src=images/blank.png width =""800"" height = ""200""></p>","","","","","","","","","","","",""
"","3359.9600000015926","sequential-stimulus-presentation","125","608012","0.0-26.0-1.4","SS1613081755645","trial","","40","800","4159.960000001593","images/stimuli/spore_stims/complex_01_B_c.gif","images/stimuli/spore_stims/complex_17_B_a.gif","","","","","6","complex_dissimilar","images/stimuli/spore_stims/complex_01_B_c.gif","left","","","","",""
"","null","html-keyboard-response","126","609171","0.0-26.0-0.5","SS1613081755645","","","null","","","","","<p><img src= images/blank.png width =""200"" height = ""200"" style = ""float:right""></p><p><img src=images/blank.png width =""800"" height = ""200""></p>","","","","","","","","","","","",""
"","2796.0499999753665","sequential-stimulus-presentation","127","612774","0.0-26.0-1.5","SS1613081755645","trial","","40","800","3596.0499999753665","images/stimuli/spore_stims/complex_01_B_c.gif","images/stimuli/spore_stims/complex_17_B_a.gif","","","","","6","complex_dissimilar","images/stimuli/spore_stims/complex_17_B_a.gif","right","","","","",""
"","null","html-keyboard-response","128","613891","0.0-26.0-0.6","SS1613081755645","","","null","","","","","<p><img src= images/blank.png width =""200"" height = ""200"" style = ""float:right""></p><p><img src=images/blank.png width =""800"" height = ""200""></p>","","","","","","","","","","","",""
"","4642.354999989038","sequential-stimulus-presentation","129","619339","0.0-26.0-1.6","SS1613081755645","trial","","40","800","5442.354999989038","images/stimuli/spore_stims/complex_01_B_c.gif","images/stimuli/spore_stims/complex_17_B_a.gif","","","","","6","complex_dissimilar","images/stimuli/spore_stims/complex_17_B_a.gif","right","","","","",""
"","null","html-keyboard-response","130","620264","0.0-26.0-0.7","SS1613081755645","","","null","","","","","<p><img src= images/blank.png width =""200"" height = ""200"" style = ""float:right""></p><p><img src=images/blank.png width =""800"" height = ""200""></p>","","","","","","","","","","","",""
"","6387.11000001058","sequential-stimulus-presentation","131","627461","0.0-26.0-1.7","SS1613081755645","trial","","40","800","7187.11000001058","images/stimuli/spore_stims/complex_01_B_c.gif","images/stimuli/spore_stims/complex_17_B_a.gif","","","","","6","complex_dissimilar","images/stimuli/spore_stims/complex_17_B_a.gif","right","","","","",""
"","1598.2749999966472","html-keyboard-response","132","629067","0.0-27.0","SS1613081755645","pref_question","","50","","","","","<video width ='960' height = '540' style='padding-top:8%' autoplay muted><source src='images/stimuli/wall_pref.mp4' type='video/mp4'></video>","2","middle","45%","6","","","","","","","",""
"","4720.000000001164","sequential-stimulus-presentation","133","634597","0.0-28.0","SS1613081755645","pref_reveal","","40","800","5520.000000001164","null","null","","","","","6","","","","novel","","","",""
"","null","html-keyboard-response","134","635474","0.0-29.0-0.0","SS1613081755645","","","null","","","","","<p><img src= images/blank.png width =""200"" height = ""200"" style = ""float:right""></p><p><img src=images/blank.png width =""800"" height = ""200""></p>","","","","","","","","","","","",""
"","2192.65500002075","sequential-stimulus-presentation","135","638477","0.0-29.0-1.0","SS1613081755645","trial","","40","800","2992.65500002075","images/stimuli/spore_stims/simple_09_B_d.gif","images/stimuli/spore_stims/simple_09_A_d.gif","","","","","7","simple_similar","images/stimuli/spore_stims/simple_09_A_d.gif","right","","","","",""
"","null","html-keyboard-response","136","639681","0.0-29.0-0.1","SS1613081755645","","","null","","","","","<p><img src= images/blank.png width =""200"" height = ""200"" style = ""float:right""></p><p><img src=images/blank.png width =""800"" height = ""200""></p>","","","","","","","","","","","",""
"","3289.5600000047125","sequential-stimulus-presentation","137","643795","0.0-29.0-1.1","SS1613081755645","trial","","40","800","4089.5600000047125","images/stimuli/spore_stims/simple_09_B_d.gif","images/stimuli/spore_stims/simple_09_A_d.gif","","","","","7","simple_similar","images/stimuli/spore_stims/simple_09_A_d.gif","right","","","","",""
"","null","html-keyboard-response","138","644648","0.0-29.0-0.2","SS1613081755645","","","null","","","","","<p><img src= images/blank.png width =""200"" height = ""200"" style = ""float:right""></p><p><img src=images/blank.png width =""800"" height = ""200""></p>","","","","","","","","","","","",""
"","996.9799999962561","sequential-stimulus-presentation","139","646454","0.0-29.0-1.2","SS1613081755645","trial","","40","800","1796.979999996256","images/stimuli/spore_stims/simple_09_B_d.gif","images/stimuli/spore_stims/simple_09_A_d.gif","","","","","7","simple_similar","images/stimuli/spore_stims/simple_09_A_d.gif","right","","","","",""
"","null","html-keyboard-response","140","647374","0.0-29.0-0.3","SS1613081755645","","","null","","","","","<p><img src= images/blank.png width =""200"" height = ""200"" style = ""float:right""></p><p><img src=images/blank.png width =""800"" height = ""200""></p>","","","","","","","","","","","",""
"","1264.259999996284","sequential-stimulus-presentation","141","649459","0.0-29.0-1.3","SS1613081755645","trial","","40","800","2064.259999996284","images/stimuli/spore_stims/simple_09_B_d.gif","images/stimuli/spore_stims/simple_09_A_d.gif","","","","","7","simple_similar","images/stimuli/spore_stims/simple_09_A_d.gif","right","","","","",""
"","null","html-keyboard-response","142","650460","0.0-29.0-0.4","SS1613081755645","","","null","","","","","<p><img src= images/blank.png width =""200"" height = ""200"" style = ""float:right""></p><p><img src=images/blank.png width =""800"" height = ""200""></p>","","","","","","","","","","","",""
"","1175.98500000895","sequential-stimulus-presentation","143","652443","0.0-29.0-1.4","SS1613081755645","trial","","40","800","1975.98500000895","images/stimuli/spore_stims/simple_09_B_d.gif","images/stimuli/spore_stims/simple_09_A_d.gif","","","","","7","simple_similar","images/stimuli/spore_stims/simple_09_A_d.gif","right","","","","",""
"","null","html-keyboard-response","144","653372","0.0-29.0-0.5","SS1613081755645","","","null","","","","","<p><img src= images/blank.png width =""200"" height = ""200"" style = ""float:right""></p><p><img src=images/blank.png width =""800"" height = ""200""></p>","","","","","","","","","","","",""
"","869.5299999963026","sequential-stimulus-presentation","145","655048","0.0-29.0-1.5","SS1613081755645","trial","","40","800","1669.5299999963026","images/stimuli/spore_stims/simple_09_B_d.gif","images/stimuli/spore_stims/simple_09_A_d.gif","","","","","7","simple_similar","images/stimuli/spore_stims/simple_09_A_d.gif","right","","","","",""
"","null","html-keyboard-response","146","656312","0.0-29.0-0.6","SS1613081755645","","","null","","","","","<p><img src= images/blank.png width =""200"" height = ""200"" style = ""float:right""></p><p><img src=images/blank.png width =""800"" height = ""200""></p>","","","","","","","","","","","",""
"","1627.6699999871198","sequential-stimulus-presentation","147","658756","0.0-29.0-1.6","SS1613081755645","trial","","40","800","2427.66999998712","images/stimuli/spore_stims/simple_09_B_d.gif","images/stimuli/spore_stims/simple_09_A_d.gif","","","","","7","simple_similar","images/stimuli/spore_stims/simple_09_B_d.gif","left","","","","",""
"","null","html-keyboard-response","148","659874","0.0-29.0-0.7","SS1613081755645","","","null","","","","","<p><img src= images/blank.png width =""200"" height = ""200"" style = ""float:right""></p><p><img src=images/blank.png width =""800"" height = ""200""></p>","","","","","","","","","","","",""
"","760.8349999936763","sequential-stimulus-presentation","149","661473","0.0-29.0-1.7","SS1613081755645","trial","","40","800","1560.8349999936763","images/stimuli/spore_stims/simple_09_B_d.gif","images/stimuli/spore_stims/simple_09_A_d.gif","","","","","7","simple_similar","images/stimuli/spore_stims/simple_09_A_d.gif","right","","","","",""
"","1830.6049999955576","html-keyboard-response","150","663310","0.0-30.0","SS1613081755645","pref_question","","50","","","","","<video width ='960' height = '540' style='padding-top:8%' autoplay muted><source src='images/stimuli/wall_pref.mp4' type='video/mp4'></video>","2","middle","45%","7","","","","","","","",""
"","1282.854999997653","sequential-stimulus-presentation","151","665411","0.0-31.0","SS1613081755645","pref_reveal","","40","800","2082.854999997653","null","null","","","","","7","","","","novel","","","",""
"","null","html-keyboard-response","152","666453","0.0-32.0-0.0","SS1613081755645","","","null","","","","","<p><img src= images/blank.png width =""200"" height = ""200"" style = ""float:right""></p><p><img src=images/blank.png width =""800"" height = ""200""></p>","","","","","","","","","","","",""
"","1109.6100000140723","sequential-stimulus-presentation","153","668412","0.0-32.0-1.0","SS1613081755645","trial","","40","800","1909.6100000140723","images/stimuli/spore_stims/simple_18_A_b.gif","images/stimuli/spore_stims/simple_07_B_c.gif","","","","","8","simple_dissimilar","images/stimuli/spore_stims/simple_07_B_c.gif","right","","","","",""
"","null","html-keyboard-response","154","669487","0.0-32.0-0.1","SS1613081755645","","","null","","","","","<p><img src= images/blank.png width =""200"" height = ""200"" style = ""float:right""></p><p><img src=images/blank.png width =""800"" height = ""200""></p>","","","","","","","","","","","",""
"","635.8950000139885","sequential-stimulus-presentation","155","670935","0.0-32.0-1.1","SS1613081755645","trial","","40","800","1435.8950000139885","images/stimuli/spore_stims/simple_18_A_b.gif","images/stimuli/spore_stims/simple_07_B_c.gif","","","","","8","simple_dissimilar","images/stimuli/spore_stims/simple_07_B_c.gif","right","","","","",""
"","null","html-keyboard-response","156","672191","0.0-32.0-0.2","SS1613081755645","","","null","","","","","<p><img src= images/blank.png width =""200"" height = ""200"" style = ""float:right""></p><p><img src=images/blank.png width =""800"" height = ""200""></p>","","","","","","","","","","","",""
"","1095.4749999800697","sequential-stimulus-presentation","157","674099","0.0-32.0-1.2","SS1613081755645","trial","","40","800","1895.4749999800697","images/stimuli/spore_stims/simple_18_A_b.gif","images/stimuli/spore_stims/simple_07_B_c.gif","","","","","8","simple_dissimilar","images/stimuli/spore_stims/simple_07_B_c.gif","right","","","","",""
"","null","html-keyboard-response","158","675257","0.0-32.0-0.3","SS1613081755645","","","null","","","","","<p><img src= images/blank.png width =""200"" height = ""200"" style = ""float:right""></p><p><img src=images/blank.png width =""800"" height = ""200""></p>","","","","","","","","","","","",""
"","740.6449999834877","sequential-stimulus-presentation","159","676803","0.0-32.0-1.3","SS1613081755645","trial","","40","800","1540.6449999834877","images/stimuli/spore_stims/simple_18_A_b.gif","images/stimuli/spore_stims/simple_07_B_c.gif","","","","","8","simple_dissimilar","images/stimuli/spore_stims/simple_07_B_c.gif","right","","","","",""
"","null","html-keyboard-response","160","678047","0.0-32.0-0.4","SS1613081755645","","","null","","","","","<p><img src= images/blank.png width =""200"" height = ""200"" style = ""float:right""></p><p><img src=images/blank.png width =""800"" height = ""200""></p>","","","","","","","","","","","",""
"","600.5249999871012","sequential-stimulus-presentation","161","679457","0.0-32.0-1.4","SS1613081755645","trial","","40","800","1400.5249999871012","images/stimuli/spore_stims/simple_18_A_b.gif","images/stimuli/spore_stims/simple_07_B_c.gif","","","","","8","simple_dissimilar","images/stimuli/spore_stims/simple_18_A_b.gif","middle","","","","",""
"","null","html-keyboard-response","162","680387","0.0-32.0-0.5","SS1613081755645","","","null","","","","","<p><img src= images/blank.png width =""200"" height = ""200"" style = ""float:right""></p><p><img src=images/blank.png width =""800"" height = ""200""></p>","","","","","","","","","","","",""
"","666.4600000076462","sequential-stimulus-presentation","163","681860","0.0-32.0-1.5","SS1613081755645","trial","","40","800","1466.4600000076462","images/stimuli/spore_stims/simple_18_A_b.gif","images/stimuli/spore_stims/simple_07_B_c.gif","","","","","8","simple_dissimilar","images/stimuli/spore_stims/simple_07_B_c.gif","right","","","","",""
"","null","html-keyboard-response","164","682746","0.0-32.0-0.6","SS1613081755645","","","null","","","","","<p><img src= images/blank.png width =""200"" height = ""200"" style = ""float:right""></p><p><img src=images/blank.png width =""800"" height = ""200""></p>","","","","","","","","","","","",""
"","1099.0299999830313","sequential-stimulus-presentation","165","684668","0.0-32.0-1.6","SS1613081755645","trial","","40","800","1899.0299999830313","images/stimuli/spore_stims/simple_18_A_b.gif","images/stimuli/spore_stims/simple_07_B_c.gif","","","","","8","simple_dissimilar","images/stimuli/spore_stims/simple_07_B_c.gif","right","","","","",""
"","null","html-keyboard-response","166","685566","0.0-32.0-0.7","SS1613081755645","","","null","","","","","<p><img src= images/blank.png width =""200"" height = ""200"" style = ""float:right""></p><p><img src=images/blank.png width =""800"" height = ""200""></p>","","","","","","","","","","","",""
"","494.6450000279583","sequential-stimulus-presentation","167","686877","0.0-32.0-1.7","SS1613081755645","trial","","40","800","1294.6450000279583","images/stimuli/spore_stims/simple_18_A_b.gif","images/stimuli/spore_stims/simple_07_B_c.gif","","","","","8","simple_dissimilar","images/stimuli/spore_stims/simple_07_B_c.gif","right","","","","",""
"","1400.5450000113342","html-keyboard-response","168","688286","0.0-33.0","SS1613081755645","pref_question","","51","","","","","<video width ='960' height = '540' style='padding-top:8%' autoplay muted><source src='images/stimuli/wall_pref.mp4' type='video/mp4'></video>","3","right","66%","8","","","","","","","",""
"","1870.7450000219978","sequential-stimulus-presentation","169","690975","0.0-34.0","SS1613081755645","pref_reveal","","40","800","2670.745000021998","null","null","","","","","8","","","","background","","","",""
"","null","html-keyboard-response","170","692255","0.0-35.0-0.0","SS1613081755645","","","null","","","","","<p><img src= images/blank.png width =""200"" height = ""200"" style = ""float:right""></p><p><img src=images/blank.png width =""800"" height = ""200""></p>","","","","","","","","","","","",""
"","3335.964999976568","sequential-stimulus-presentation","171","696401","0.0-35.0-1.0","SS1613081755645","trial","","40","800","4135.964999976568","images/stimuli/spore_stims/complex_15_A_d.gif","images/stimuli/spore_stims/complex_15_B_d.gif","","","","","9","complex_similar","images/stimuli/spore_stims/complex_15_B_d.gif","right","","","","",""
"","null","html-keyboard-response","172","697297","0.0-35.0-0.1","SS1613081755645","","","null","","","","","<p><img src= images/blank.png width =""200"" height = ""200"" style = ""float:right""></p><p><img src=images/blank.png width =""800"" height = ""200""></p>","","","","","","","","","","","",""
"","456.96999999927357","sequential-stimulus-presentation","173","698564","0.0-35.0-1.1","SS1613081755645","trial","","40","800","1256.9699999992736","images/stimuli/spore_stims/complex_15_A_d.gif","images/stimuli/spore_stims/complex_15_B_d.gif","","","","","9","complex_similar","images/stimuli/spore_stims/complex_15_B_d.gif","right","","","","",""
"","null","html-keyboard-response","174","699396","0.0-35.0-0.2","SS1613081755645","","","null","","","","","<p><img src= images/blank.png width =""200"" height = ""200"" style = ""float:right""></p><p><img src=images/blank.png width =""800"" height = ""200""></p>","","","","","","","","","","","",""
"","746.9449999916833","sequential-stimulus-presentation","175","700949","0.0-35.0-1.2","SS1613081755645","trial","","40","800","1546.9449999916833","images/stimuli/spore_stims/complex_15_A_d.gif","images/stimuli/spore_stims/complex_15_B_d.gif","","","","","9","complex_similar","images/stimuli/spore_stims/complex_15_B_d.gif","right","","","","",""
"","null","html-keyboard-response","176","702233","0.0-35.0-0.3","SS1613081755645","","","null","","","","","<p><img src= images/blank.png width =""200"" height = ""200"" style = ""float:right""></p><p><img src=images/blank.png width =""800"" height = ""200""></p>","","","","","","","","","","","",""
"","1016.9400000013411","sequential-stimulus-presentation","177","704059","0.0-35.0-1.3","SS1613081755645","trial","","40","800","1816.940000001341","images/stimuli/spore_stims/complex_15_A_d.gif","images/stimuli/spore_stims/complex_15_B_d.gif","","","","","9","complex_similar","images/stimuli/spore_stims/complex_15_B_d.gif","right","","","","",""
"","null","html-keyboard-response","178","704882","0.0-35.0-0.4","SS1613081755645","","","null","","","","","<p><img src= images/blank.png width =""200"" height = ""200"" style = ""float:right""></p><p><img src=images/blank.png width =""800"" height = ""200""></p>","","","","","","","","","","","",""
"","506.6099999821745","sequential-stimulus-presentation","179","706203","0.0-35.0-1.4","SS1613081755645","trial","","40","800","1306.6099999821745","images/stimuli/spore_stims/complex_15_A_d.gif","images/stimuli/spore_stims/complex_15_B_d.gif","","","","","9","complex_similar","images/stimuli/spore_stims/complex_15_A_d.gif","left","","","","",""
"","null","html-keyboard-response","180","707387","0.0-35.0-0.5","SS1613081755645","","","null","","","","","<p><img src= images/blank.png width =""200"" height = ""200"" style = ""float:right""></p><p><img src=images/blank.png width =""800"" height = ""200""></p>","","","","","","","","","","","",""
"","555.4899999988265","sequential-stimulus-presentation","181","708750","0.0-35.0-1.5","SS1613081755645","trial","","40","800","1355.4899999988265","images/stimuli/spore_stims/complex_15_A_d.gif","images/stimuli/spore_stims/complex_15_B_d.gif","","","","","9","complex_similar","images/stimuli/spore_stims/complex_15_B_d.gif","right","","","","",""
"","null","html-keyboard-response","182","709643","0.0-35.0-0.6","SS1613081755645","","","null","","","","","<p><img src= images/blank.png width =""200"" height = ""200"" style = ""float:right""></p><p><img src=images/blank.png width =""800"" height = ""200""></p>","","","","","","","","","","","",""
"","689.3200000049546","sequential-stimulus-presentation","183","711143","0.0-35.0-1.6","SS1613081755645","trial","","40","800","1489.3200000049546","images/stimuli/spore_stims/complex_15_A_d.gif","images/stimuli/spore_stims/complex_15_B_d.gif","","","","","9","complex_similar","images/stimuli/spore_stims/complex_15_B_d.gif","right","","","","",""
"","null","html-keyboard-response","184","712222","0.0-35.0-0.7","SS1613081755645","","","null","","","","","<p><img src= images/blank.png width =""200"" height = ""200"" style = ""float:right""></p><p><img src=images/blank.png width =""800"" height = ""200""></p>","","","","","","","","","","","",""
"","777.6050000102259","sequential-stimulus-presentation","185","713824","0.0-35.0-1.7","SS1613081755645","trial","","40","800","1577.605000010226","images/stimuli/spore_stims/complex_15_A_d.gif","images/stimuli/spore_stims/complex_15_B_d.gif","","","","","9","complex_similar","images/stimuli/spore_stims/complex_15_B_d.gif","right","","","","",""
"","1561.1149999895133","html-keyboard-response","186","715412","0.0-36.0","SS1613081755645","pref_question","","50","","","","","<video width ='960' height = '540' style='padding-top:8%' autoplay muted><source src='images/stimuli/wall_pref.mp4' type='video/mp4'></video>","2","middle","45%","9","","","","","","","",""
"","2001.380000001518","sequential-stimulus-presentation","187","718245","0.0-37.0","SS1613081755645","pref_reveal","","40","800","2801.380000001518","null","null","","","","","9","","","","novel","","","",""
"","null","html-keyboard-response","188","719071","0.0-38.0-0.0","SS1613081755645","","","null","","","","","<p><img src= images/blank.png width =""200"" height = ""200"" style = ""float:right""></p><p><img src=images/blank.png width =""800"" height = ""200""></p>","","","","","","","","","","","",""
"","1286.8949999974575","sequential-stimulus-presentation","189","721178","0.0-38.0-1.0","SS1613081755645","trial","","40","800","2086.8949999974575","images/stimuli/spore_stims/simple_12_B_a.gif","images/stimuli/spore_stims/simple_12_A_a.gif","","","","","10","simple_similar","images/stimuli/spore_stims/simple_12_A_a.gif","right","","","","",""
"","null","html-keyboard-response","190","722442","0.0-38.0-0.1","SS1613081755645","","","null","","","","","<p><img src= images/blank.png width =""200"" height = ""200"" style = ""float:right""></p><p><img src=images/blank.png width =""800"" height = ""200""></p>","","","","","","","","","","","",""
"","1235.7199999969453","sequential-stimulus-presentation","191","724488","0.0-38.0-1.1","SS1613081755645","trial","","40","800","2035.7199999969453","images/stimuli/spore_stims/simple_12_B_a.gif","images/stimuli/spore_stims/simple_12_A_a.gif","","","","","10","simple_similar","images/stimuli/spore_stims/simple_12_A_a.gif","right","","","","",""
"","null","html-keyboard-response","192","725442","0.0-38.0-0.2","SS1613081755645","","","null","","","","","<p><img src= images/blank.png width =""200"" height = ""200"" style = ""float:right""></p><p><img src=images/blank.png width =""800"" height = ""200""></p>","","","","","","","","","","","",""
"","564.1550000000279","sequential-stimulus-presentation","193","726816","0.0-38.0-1.2","SS1613081755645","trial","","40","800","1364.155000000028","images/stimuli/spore_stims/simple_12_B_a.gif","images/stimuli/spore_stims/simple_12_A_a.gif","","","","","10","simple_similar","images/stimuli/spore_stims/simple_12_A_a.gif","right","","","","",""
"","null","html-keyboard-response","194","727824","0.0-38.0-0.3","SS1613081755645","","","null","","","","","<p><img src= images/blank.png width =""200"" height = ""200"" style = ""float:right""></p><p><img src=images/blank.png width =""800"" height = ""200""></p>","","","","","","","","","","","",""
"","740.0800000177696","sequential-stimulus-presentation","195","729393","0.0-38.0-1.3","SS1613081755645","trial","","40","800","1540.0800000177696","images/stimuli/spore_stims/simple_12_B_a.gif","images/stimuli/spore_stims/simple_12_A_a.gif","","","","","10","simple_similar","images/stimuli/spore_stims/simple_12_A_a.gif","right","","","","",""
"","null","html-keyboard-response","196","730310","0.0-38.0-0.4","SS1613081755645","","","null","","","","","<p><img src= images/blank.png width =""200"" height = ""200"" style = ""float:right""></p><p><img src=images/blank.png width =""800"" height = ""200""></p>","","","","","","","","","","","",""
"","517.0900000084657","sequential-stimulus-presentation","197","731638","0.0-38.0-1.4","SS1613081755645","trial","","40","800","1317.0900000084657","images/stimuli/spore_stims/simple_12_B_a.gif","images/stimuli/spore_stims/simple_12_A_a.gif","","","","","10","simple_similar","images/stimuli/spore_stims/simple_12_B_a.gif","middle","","","","",""
"","null","html-keyboard-response","198","732843","0.0-38.0-0.5","SS1613081755645","","","null","","","","","<p><img src= images/blank.png width =""200"" height = ""200"" style = ""float:right""></p><p><img src=images/blank.png width =""800"" height = ""200""></p>","","","","","","","","","","","",""
"","704.79499999783","sequential-stimulus-presentation","199","734357","0.0-38.0-1.5","SS1613081755645","trial","","40","800","1504.79499999783","images/stimuli/spore_stims/simple_12_B_a.gif","images/stimuli/spore_stims/simple_12_A_a.gif","","","","","10","simple_similar","images/stimuli/spore_stims/simple_12_A_a.gif","right","","","","",""
"","null","html-keyboard-response","200","735419","0.0-38.0-0.6","SS1613081755645","","","null","","","","","<p><img src= images/blank.png width =""200"" height = ""200"" style = ""float:right""></p><p><img src=images/blank.png width =""800"" height = ""200""></p>","","","","","","","","","","","",""
"","360.3000000002794","sequential-stimulus-presentation","201","736614","0.0-38.0-1.6","SS1613081755645","trial","","40","800","1160.3000000002794","images/stimuli/spore_stims/simple_12_B_a.gif","images/stimuli/spore_stims/simple_12_A_a.gif","","","","","10","simple_similar","images/stimuli/spore_stims/simple_12_A_a.gif","right","","","","",""
"","null","html-keyboard-response","202","737584","0.0-38.0-0.7","SS1613081755645","","","null","","","","","<p><img src= images/blank.png width =""200"" height = ""200"" style = ""float:right""></p><p><img src=images/blank.png width =""800"" height = ""200""></p>","","","","","","","","","","","",""
"","501.9550000142772","sequential-stimulus-presentation","203","738921","0.0-38.0-1.7","SS1613081755645","trial","","40","800","1301.9550000142772","images/stimuli/spore_stims/simple_12_B_a.gif","images/stimuli/spore_stims/simple_12_A_a.gif","","","","","10","simple_similar","images/stimuli/spore_stims/simple_12_A_a.gif","right","","","","",""
"","1511.1399999877904","html-keyboard-response","204","740438","0.0-39.0","SS1613081755645","pref_question","","49","","","","","<video width ='960' height = '540' style='padding-top:8%' autoplay muted><source src='images/stimuli/wall_pref.mp4' type='video/mp4'></video>","1","left","25%","10","","","","","","","",""
"","5477.184999996098","sequential-stimulus-presentation","205","746723","0.0-40.0","SS1613081755645","pref_reveal","","40","800","6277.184999996098","null","null","","","","","10","","","","novel","","","",""
"","null","html-keyboard-response","206","747607","0.0-41.0-0.0","SS1613081755645","","","null","","","","","<p><img src= images/blank.png width =""200"" height = ""200"" style = ""float:right""></p><p><img src=images/blank.png width =""800"" height = ""200""></p>","","","","","","","","","","","",""
"","2759.149999998044","sequential-stimulus-presentation","207","751199","0.0-41.0-1.0","SS1613081755645","trial","","40","800","3559.149999998044","images/stimuli/spore_stims/complex_05_A_a.gif","images/stimuli/spore_stims/complex_05_B_a.gif","","","","","11","complex_similar","images/stimuli/spore_stims/complex_05_B_a.gif","right","","","","",""
"","null","html-keyboard-response","208","752140","0.0-41.0-0.1","SS1613081755645","","","null","","","","","<p><img src= images/blank.png width =""200"" height = ""200"" style = ""float:right""></p><p><img src=images/blank.png width =""800"" height = ""200""></p>","","","","","","","","","","","",""
"","3966.3199999777135","sequential-stimulus-presentation","209","756925","0.0-41.0-1.1","SS1613081755645","trial","","40","800","4766.319999977713","images/stimuli/spore_stims/complex_05_A_a.gif","images/stimuli/spore_stims/complex_05_B_a.gif","","","","","11","complex_similar","images/stimuli/spore_stims/complex_05_B_a.gif","right","","","","",""
"","null","html-keyboard-response","210","758068","0.0-41.0-0.2","SS1613081755645","","","null","","","","","<p><img src= images/blank.png width =""200"" height = ""200"" style = ""float:right""></p><p><img src=images/blank.png width =""800"" height = ""200""></p>","","","","","","","","","","","",""
"","1738.4849999798462","sequential-stimulus-presentation","211","760618","0.0-41.0-1.2","SS1613081755645","trial","","40","800","2538.484999979846","images/stimuli/spore_stims/complex_05_A_a.gif","images/stimuli/spore_stims/complex_05_B_a.gif","","","","","11","complex_similar","images/stimuli/spore_stims/complex_05_B_a.gif","right","","","","",""
"","null","html-keyboard-response","212","761862","0.0-41.0-0.3","SS1613081755645","","","null","","","","","<p><img src= images/blank.png width =""200"" height = ""200"" style = ""float:right""></p><p><img src=images/blank.png width =""800"" height = ""200""></p>","","","","","","","","","","","",""
"","681.7749999754597","sequential-stimulus-presentation","213","763362","0.0-41.0-1.3","SS1613081755645","trial","","40","800","1481.7749999754597","images/stimuli/spore_stims/complex_05_A_a.gif","images/stimuli/spore_stims/complex_05_B_a.gif","","","","","11","complex_similar","images/stimuli/spore_stims/complex_05_B_a.gif","right","","","","",""
"","null","html-keyboard-response","214","764384","0.0-41.0-0.4","SS1613081755645","","","null","","","","","<p><img src= images/blank.png width =""200"" height = ""200"" style = ""float:right""></p><p><img src=images/blank.png width =""800"" height = ""200""></p>","","","","","","","","","","","",""
"","1026.4299999980722","sequential-stimulus-presentation","215","766229","0.0-41.0-1.4","SS1613081755645","trial","","40","800","1826.4299999980722","images/stimuli/spore_stims/complex_05_A_a.gif","images/stimuli/spore_stims/complex_05_B_a.gif","","","","","11","complex_similar","images/stimuli/spore_stims/complex_05_B_a.gif","right","","","","",""
"","null","html-keyboard-response","216","767193","0.0-41.0-0.5","SS1613081755645","","","null","","","","","<p><img src= images/blank.png width =""200"" height = ""200"" style = ""float:right""></p><p><img src=images/blank.png width =""800"" height = ""200""></p>","","","","","","","","","","","",""
"","3267.5250000029337","sequential-stimulus-presentation","217","771294","0.0-41.0-1.5","SS1613081755645","trial","","40","800","4067.5250000029337","images/stimuli/spore_stims/complex_05_A_a.gif","images/stimuli/spore_stims/complex_05_B_a.gif","","","","","11","complex_similar","images/stimuli/spore_stims/complex_05_B_a.gif","right","","","","",""
"","null","html-keyboard-response","218","772292","0.0-41.0-0.6","SS1613081755645","","","null","","","","","<p><img src= images/blank.png width =""200"" height = ""200"" style = ""float:right""></p><p><img src=images/blank.png width =""800"" height = ""200""></p>","","","","","","","","","","","",""
"","567.7700000233017","sequential-stimulus-presentation","219","773698","0.0-41.0-1.6","SS1613081755645","trial","","40","800","1367.7700000233017","images/stimuli/spore_stims/complex_05_A_a.gif","images/stimuli/spore_stims/complex_05_B_a.gif","","","","","11","complex_similar","images/stimuli/spore_stims/complex_05_B_a.gif","right","","","","",""
"","null","html-keyboard-response","220","774975","0.0-41.0-0.7","SS1613081755645","","","null","","","","","<p><img src= images/blank.png width =""200"" height = ""200"" style = ""float:right""></p><p><img src=images/blank.png width =""800"" height = ""200""></p>","","","","","","","","","","","",""
"","905.3549999953248","sequential-stimulus-presentation","221","776695","0.0-41.0-1.7","SS1613081755645","trial","","40","800","1705.3549999953248","images/stimuli/spore_stims/complex_05_A_a.gif","images/stimuli/spore_stims/complex_05_B_a.gif","","","","","11","complex_similar","images/stimuli/spore_stims/complex_05_A_a.gif","middle","","","","",""
"","1452.0750000083353","html-keyboard-response","222","778158","0.0-42.0","SS1613081755645","pref_question","","50","","","","","<video width ='960' height = '540' style='padding-top:8%' autoplay muted><source src='images/stimuli/wall_pref.mp4' type='video/mp4'></video>","2","middle","45%","11","","","","","","","",""
"","1172.1099999849685","sequential-stimulus-presentation","223","780151","0.0-43.0","SS1613081755645","pref_reveal","","40","800","1972.1099999849685","null","null","","","","","11","","","","deviant","","","",""
"","null","html-keyboard-response","224","781062","0.0-44.0-0.0","SS1613081755645","","","null","","","","","<p><img src= images/blank.png width =""200"" height = ""200"" style = ""float:right""></p><p><img src=images/blank.png width =""800"" height = ""200""></p>","","","","","","","","","","","",""
"","668.0350000096951","sequential-stimulus-presentation","225","782557","0.0-44.0-1.0","SS1613081755645","trial","","40","800","1468.035000009695","images/stimuli/spore_stims/complex_09_A_a.gif","images/stimuli/spore_stims/complex_09_B_a.gif","","","","","12","complex_similar","images/stimuli/spore_stims/complex_09_B_a.gif","middle","","","","",""
"","null","html-keyboard-response","226","783627","0.0-44.0-0.1","SS1613081755645","","","null","","","","","<p><img src= images/blank.png width =""200"" height = ""200"" style = ""float:right""></p><p><img src=images/blank.png width =""800"" height = ""200""></p>","","","","","","","","","","","",""
"","1051.869999995688","sequential-stimulus-presentation","227","785488","0.0-44.0-1.1","SS1613081755645","trial","","40","800","1851.869999995688","images/stimuli/spore_stims/complex_09_A_a.gif","images/stimuli/spore_stims/complex_09_B_a.gif","","","","","12","complex_similar","images/stimuli/spore_stims/complex_09_B_a.gif","middle","","","","",""
"","null","html-keyboard-response","228","786713","0.0-44.0-0.2","SS1613081755645","","","null","","","","","<p><img src= images/blank.png width =""200"" height = ""200"" style = ""float:right""></p><p><img src=images/blank.png width =""800"" height = ""200""></p>","","","","","","","","","","","",""
"","375.16499997582287","sequential-stimulus-presentation","229","787897","0.0-44.0-1.2","SS1613081755645","trial","","40","800","1175.1649999758229","images/stimuli/spore_stims/complex_09_A_a.gif","images/stimuli/spore_stims/complex_09_B_a.gif","","","","","12","complex_similar","images/stimuli/spore_stims/complex_09_B_a.gif","middle","","","","",""
"","null","html-keyboard-response","230","788890","0.0-44.0-0.3","SS1613081755645","","","null","","","","","<p><img src= images/blank.png width =""200"" height = ""200"" style = ""float:right""></p><p><img src=images/blank.png width =""800"" height = ""200""></p>","","","","","","","","","","","",""
"","641.8199999898206","sequential-stimulus-presentation","231","790355","0.0-44.0-1.3","SS1613081755645","trial","","40","800","1441.8199999898206","images/stimuli/spore_stims/complex_09_A_a.gif","images/stimuli/spore_stims/complex_09_B_a.gif","","","","","12","complex_similar","images/stimuli/spore_stims/complex_09_B_a.gif","middle","","","","",""
"","null","html-keyboard-response","232","791322","0.0-44.0-0.4","SS1613081755645","","","null","","","","","<p><img src= images/blank.png width =""200"" height = ""200"" style = ""float:right""></p><p><img src=images/blank.png width =""800"" height = ""200""></p>","","","","","","","","","","","",""
"","912.5700000149664","sequential-stimulus-presentation","233","793077","0.0-44.0-1.4","SS1613081755645","trial","","40","800","1712.5700000149664","images/stimuli/spore_stims/complex_09_A_a.gif","images/stimuli/spore_stims/complex_09_B_a.gif","","","","","12","complex_similar","images/stimuli/spore_stims/complex_09_A_a.gif","left","","","","",""
"","null","html-keyboard-response","234","794193","0.0-44.0-0.5","SS1613081755645","","","null","","","","","<p><img src= images/blank.png width =""200"" height = ""200"" style = ""float:right""></p><p><img src=images/blank.png width =""800"" height = ""200""></p>","","","","","","","","","","","",""
"","766.0650000034366","sequential-stimulus-presentation","235","795785","0.0-44.0-1.5","SS1613081755645","trial","","40","800","1566.0650000034366","images/stimuli/spore_stims/complex_09_A_a.gif","images/stimuli/spore_stims/complex_09_B_a.gif","","","","","12","complex_similar","images/stimuli/spore_stims/complex_09_B_a.gif","middle","","","","",""
"","null","html-keyboard-response","236","796696","0.0-44.0-0.6","SS1613081755645","","","null","","","","","<p><img src= images/blank.png width =""200"" height = ""200"" style = ""float:right""></p><p><img src=images/blank.png width =""800"" height = ""200""></p>","","","","","","","","","","","",""
"","735.4150000028312","sequential-stimulus-presentation","237","798255","0.0-44.0-1.6","SS1613081755645","trial","","40","800","1535.4150000028312","images/stimuli/spore_stims/complex_09_A_a.gif","images/stimuli/spore_stims/complex_09_B_a.gif","","","","","12","complex_similar","images/stimuli/spore_stims/complex_09_B_a.gif","middle","","","","",""
"","null","html-keyboard-response","238","799446","0.0-44.0-0.7","SS1613081755645","","","null","","","","","<p><img src= images/blank.png width =""200"" height = ""200"" style = ""float:right""></p><p><img src=images/blank.png width =""800"" height = ""200""></p>","","","","","","","","","","","",""
"","479.445000004489","sequential-stimulus-presentation","239","800753","0.0-44.0-1.7","SS1613081755645","trial","","40","800","1279.445000004489","images/stimuli/spore_stims/complex_09_A_a.gif","images/stimuli/spore_stims/complex_09_B_a.gif","","","","","12","complex_similar","images/stimuli/spore_stims/complex_09_B_a.gif","middle","","","","",""
"","1580.275000014808","html-keyboard-response","240","802341","0.0-45.0","SS1613081755645","pref_question","","49","","","","","<video width ='960' height = '540' style='padding-top:8%' autoplay muted><source src='images/stimuli/wall_pref.mp4' type='video/mp4'></video>","1","left","25%","12","","","","","","","",""
"","671.0850000090431","sequential-stimulus-presentation","241","803830","0.0-46.0","SS1613081755645","pref_reveal","","40","800","1471.0850000090431","null","null","","","","","12","","","","deviant","","","",""
"","null","html-keyboard-response","242","805135","0.0-47.0-0.0","SS1613081755645","","","null","","","","","<p><img src= images/blank.png width =""200"" height = ""200"" style = ""float:right""></p><p><img src=images/blank.png width =""800"" height = ""200""></p>","","","","","","","","","","","",""
"","707.6149999920744","sequential-stimulus-presentation","243","806670","0.0-47.0-1.0","SS1613081755645","trial","","40","800","1507.6149999920744","images/stimuli/spore_stims/simple_05_A_d.gif","images/stimuli/spore_stims/simple_06_A_a.gif","","","","","13","simple_dissimilar","images/stimuli/spore_stims/simple_06_A_a.gif","left","","","","",""
"","null","html-keyboard-response","244","807806","0.0-47.0-0.1","SS1613081755645","","","null","","","","","<p><img src= images/blank.png width =""200"" height = ""200"" style = ""float:right""></p><p><img src=images/blank.png width =""800"" height = ""200""></p>","","","","","","","","","","","",""
"","604.7649999964051","sequential-stimulus-presentation","245","809222","0.0-47.0-1.1","SS1613081755645","trial","","40","800","1404.764999996405","images/stimuli/spore_stims/simple_05_A_d.gif","images/stimuli/spore_stims/simple_06_A_a.gif","","","","","13","simple_dissimilar","images/stimuli/spore_stims/simple_06_A_a.gif","left","","","","",""
"","null","html-keyboard-response","246","810075","0.0-47.0-0.2","SS1613081755645","","","null","","","","","<p><img src= images/blank.png width =""200"" height = ""200"" style = ""float:right""></p><p><img src=images/blank.png width =""800"" height = ""200""></p>","","","","","","","","","","","",""
"","745.4900000011548","sequential-stimulus-presentation","247","811640","0.0-47.0-1.2","SS1613081755645","trial","","40","800","1545.4900000011548","images/stimuli/spore_stims/simple_05_A_d.gif","images/stimuli/spore_stims/simple_06_A_a.gif","","","","","13","simple_dissimilar","images/stimuli/spore_stims/simple_06_A_a.gif","left","","","","",""
"","null","html-keyboard-response","248","812863","0.0-47.0-0.3","SS1613081755645","","","null","","","","","<p><img src= images/blank.png width =""200"" height = ""200"" style = ""float:right""></p><p><img src=images/blank.png width =""800"" height = ""200""></p>","","","","","","","","","","","",""
"","374.0349999861792","sequential-stimulus-presentation","249","814046","0.0-47.0-1.3","SS1613081755645","trial","","40","800","1174.0349999861792","images/stimuli/spore_stims/simple_05_A_d.gif","images/stimuli/spore_stims/simple_06_A_a.gif","","","","","13","simple_dissimilar","images/stimuli/spore_stims/simple_06_A_a.gif","left","","","","",""
"","null","html-keyboard-response","250","814939","0.0-47.0-0.4","SS1613081755645","","","null","","","","","<p><img src= images/blank.png width =""200"" height = ""200"" style = ""float:right""></p><p><img src=images/blank.png width =""800"" height = ""200""></p>","","","","","","","","","","","",""
"","1003.7000000011176","sequential-stimulus-presentation","251","816751","0.0-47.0-1.4","SS1613081755645","trial","","40","800","1803.7000000011176","images/stimuli/spore_stims/simple_05_A_d.gif","images/stimuli/spore_stims/simple_06_A_a.gif","","","","","13","simple_dissimilar","images/stimuli/spore_stims/simple_05_A_d.gif","right","","","","",""
"","null","html-keyboard-response","252","817851","0.0-47.0-0.5","SS1613081755645","","","null","","","","","<p><img src= images/blank.png width =""200"" height = ""200"" style = ""float:right""></p><p><img src=images/blank.png width =""800"" height = ""200""></p>","","","","","","","","","","","",""
"","944.3900000187568","sequential-stimulus-presentation","253","819607","0.0-47.0-1.5","SS1613081755645","trial","","40","800","1744.3900000187568","images/stimuli/spore_stims/simple_05_A_d.gif","images/stimuli/spore_stims/simple_06_A_a.gif","","","","","13","simple_dissimilar","images/stimuli/spore_stims/simple_06_A_a.gif","left","","","","",""
"","null","html-keyboard-response","254","820794","0.0-47.0-0.6","SS1613081755645","","","null","","","","","<p><img src= images/blank.png width =""200"" height = ""200"" style = ""float:right""></p><p><img src=images/blank.png width =""800"" height = ""200""></p>","","","","","","","","","","","",""
"","603.5900000133552","sequential-stimulus-presentation","255","822209","0.0-47.0-1.6","SS1613081755645","trial","","40","800","1403.5900000133552","images/stimuli/spore_stims/simple_05_A_d.gif","images/stimuli/spore_stims/simple_06_A_a.gif","","","","","13","simple_dissimilar","images/stimuli/spore_stims/simple_06_A_a.gif","left","","","","",""
"","null","html-keyboard-response","256","823210","0.0-47.0-0.7","SS1613081755645","","","null","","","","","<p><img src= images/blank.png width =""200"" height = ""200"" style = ""float:right""></p><p><img src=images/blank.png width =""800"" height = ""200""></p>","","","","","","","","","","","",""
"","890.6050000223331","sequential-stimulus-presentation","257","824913","0.0-47.0-1.7","SS1613081755645","trial","","40","800","1690.6050000223331","images/stimuli/spore_stims/simple_05_A_d.gif","images/stimuli/spore_stims/simple_06_A_a.gif","","","","","13","simple_dissimilar","images/stimuli/spore_stims/simple_06_A_a.gif","left","","","","",""
"","1913.1900000211317","html-keyboard-response","258","826833","0.0-48.0","SS1613081755645","pref_question","","50","","","","","<video width ='960' height = '540' style='padding-top:8%' autoplay muted><source src='images/stimuli/wall_pref.mp4' type='video/mp4'></video>","2","middle","45%","13","","","","","","","",""
"","1408.5099999792874","sequential-stimulus-presentation","259","829052","0.0-49.0","SS1613081755645","pref_reveal","","40","800","2208.5099999792874","null","null","","","","","13","","","","novel","","","",""
"","null","html-keyboard-response","260","830350","0.0-50.0-0.0","SS1613081755645","","","null","","","","","<p><img src= images/blank.png width =""200"" height = ""200"" style = ""float:right""></p><p><img src=images/blank.png width =""800"" height = ""200""></p>","","","","","","","","","","","",""
"","4149.355000001378","sequential-stimulus-presentation","261","835327","0.0-50.0-1.0","SS1613081755645","trial","","40","800","4949.355000001378","images/stimuli/spore_stims/complex_06_B_c.gif","images/stimuli/spore_stims/complex_06_A_c.gif","","","","","14","complex_similar","images/stimuli/spore_stims/complex_06_A_c.gif","left","","","","",""
"","null","html-keyboard-response","262","836617","0.0-50.0-0.1","SS1613081755645","","","null","","","","","<p><img src= images/blank.png width =""200"" height = ""200"" style = ""float:right""></p><p><img src=images/blank.png width =""800"" height = ""200""></p>","","","","","","","","","","","",""
"","7272.3450000048615","sequential-stimulus-presentation","263","844713","0.0-50.0-1.1","SS1613081755645","trial","","40","800","8072.3450000048615","images/stimuli/spore_stims/complex_06_B_c.gif","images/stimuli/spore_stims/complex_06_A_c.gif","","","","","14","complex_similar","images/stimuli/spore_stims/complex_06_A_c.gif","left","","","","",""
"","null","html-keyboard-response","264","845664","0.0-50.0-0.2","SS1613081755645","","","null","","","","","<p><img src= images/blank.png width =""200"" height = ""200"" style = ""float:right""></p><p><img src=images/blank.png width =""800"" height = ""200""></p>","","","","","","","","","","","",""
"","310.090000013588","sequential-stimulus-presentation","265","846784","0.0-50.0-1.2","SS1613081755645","trial","","40","800","1110.090000013588","images/stimuli/spore_stims/complex_06_B_c.gif","images/stimuli/spore_stims/complex_06_A_c.gif","","","","","14","complex_similar","images/stimuli/spore_stims/complex_06_A_c.gif","left","","","","",""
"","null","html-keyboard-response","266","847767","0.0-50.0-0.3","SS1613081755645","","","null","","","","","<p><img src= images/blank.png width =""200"" height = ""200"" style = ""float:right""></p><p><img src=images/blank.png width =""800"" height = ""200""></p>","","","","","","","","","","","",""
"","452.0199999969918","sequential-stimulus-presentation","267","849028","0.0-50.0-1.3","SS1613081755645","trial","","40","800","1252.0199999969918","images/stimuli/spore_stims/complex_06_B_c.gif","images/stimuli/spore_stims/complex_06_A_c.gif","","","","","14","complex_similar","images/stimuli/spore_stims/complex_06_A_c.gif","left","","","","",""
"","null","html-keyboard-response","268","849977","0.0-50.0-0.4","SS1613081755645","","","null","","","","","<p><img src= images/blank.png width =""200"" height = ""200"" style = ""float:right""></p><p><img src=images/blank.png width =""800"" height = ""200""></p>","","","","","","","","","","","",""
"","2811.2099999852944","sequential-stimulus-presentation","269","853596","0.0-50.0-1.4","SS1613081755645","trial","","40","800","3611.2099999852944","images/stimuli/spore_stims/complex_06_B_c.gif","images/stimuli/spore_stims/complex_06_A_c.gif","","","","","14","complex_similar","images/stimuli/spore_stims/complex_06_A_c.gif","left","","","","",""
"","null","html-keyboard-response","270","854770","0.0-50.0-0.5","SS1613081755645","","","null","","","","","<p><img src= images/blank.png width =""200"" height = ""200"" style = ""float:right""></p><p><img src=images/blank.png width =""800"" height = ""200""></p>","","","","","","","","","","","",""
"","5148.320000007516","sequential-stimulus-presentation","271","860732","0.0-50.0-1.5","SS1613081755645","trial","","40","800","5948.320000007516","images/stimuli/spore_stims/complex_06_B_c.gif","images/stimuli/spore_stims/complex_06_A_c.gif","","","","","14","complex_similar","images/stimuli/spore_stims/complex_06_B_c.gif","right","","","","",""
"","null","html-keyboard-response","272","861982","0.0-50.0-0.6","SS1613081755645","","","null","","","","","<p><img src= images/blank.png width =""200"" height = ""200"" style = ""float:right""></p><p><img src=images/blank.png width =""800"" height = ""200""></p>","","","","","","","","","","","",""
"","380.01499997335486","sequential-stimulus-presentation","273","863174","0.0-50.0-1.6","SS1613081755645","trial","","40","800","1180.0149999733549","images/stimuli/spore_stims/complex_06_B_c.gif","images/stimuli/spore_stims/complex_06_A_c.gif","","","","","14","complex_similar","images/stimuli/spore_stims/complex_06_A_c.gif","left","","","","",""
"","null","html-keyboard-response","274","864320","0.0-50.0-0.7","SS1613081755645","","","null","","","","","<p><img src= images/blank.png width =""200"" height = ""200"" style = ""float:right""></p><p><img src=images/blank.png width =""800"" height = ""200""></p>","","","","","","","","","","","",""
"","382.4800000002142","sequential-stimulus-presentation","275","865523","0.0-50.0-1.7","SS1613081755645","trial","","40","800","1182.4800000002142","images/stimuli/spore_stims/complex_06_B_c.gif","images/stimuli/spore_stims/complex_06_A_c.gif","","","","","14","complex_similar","images/stimuli/spore_stims/complex_06_A_c.gif","left","","","","",""
"","6957.575000007637","html-keyboard-response","276","872524","0.0-51.0","SS1613081755645","pref_question","","49","","","","","<video width ='960' height = '540' style='padding-top:8%' autoplay muted><source src='images/stimuli/wall_pref.mp4' type='video/mp4'></video>","1","left","25%","14","","","","","","","",""
"","715.3849999886006","sequential-stimulus-presentation","277","874056","0.0-52.0","SS1613081755645","pref_reveal","","40","800","1515.3849999886006","null","null","","","","","14","","","","background","","","",""
"","null","html-keyboard-response","278","874888","0.0-53.0-0.0","SS1613081755645","","","null","","","","","<p><img src= images/blank.png width =""200"" height = ""200"" style = ""float:right""></p><p><img src=images/blank.png width =""800"" height = ""200""></p>","","","","","","","","","","","",""
"","267.8950000263285","sequential-stimulus-presentation","279","875968","0.0-53.0-1.0","SS1613081755645","trial","","40","800","1067.8950000263285","images/stimuli/spore_stims/simple_13_B_b.gif","images/stimuli/spore_stims/simple_13_A_b.gif","","","","","15","simple_similar","images/stimuli/spore_stims/simple_13_A_b.gif","right","","","","",""
"","null","html-keyboard-response","280","876874","0.0-53.0-0.1","SS1613081755645","","","null","","","","","<p><img src= images/blank.png width =""200"" height = ""200"" style = ""float:right""></p><p><img src=images/blank.png width =""800"" height = ""200""></p>","","","","","","","","","","","",""
"","325.42500001727603","sequential-stimulus-presentation","281","878008","0.0-53.0-1.1","SS1613081755645","trial","","40","800","1125.425000017276","images/stimuli/spore_stims/simple_13_B_b.gif","images/stimuli/spore_stims/simple_13_A_b.gif","","","","","15","simple_similar","images/stimuli/spore_stims/simple_13_A_b.gif","right","","","","",""
"","null","html-keyboard-response","282","878996","0.0-53.0-0.2","SS1613081755645","","","null","","","","","<p><img src= images/blank.png width =""200"" height = ""200"" style = ""float:right""></p><p><img src=images/blank.png width =""800"" height = ""200""></p>","","","","","","","","","","","",""
"","2455.2700000058394","sequential-stimulus-presentation","283","882287","0.0-53.0-1.2","SS1613081755645","trial","","40","800","3255.2700000058394","images/stimuli/spore_stims/simple_13_B_b.gif","images/stimuli/spore_stims/simple_13_A_b.gif","","","","","15","simple_similar","images/stimuli/spore_stims/simple_13_B_b.gif","left","","","","",""
"","null","html-keyboard-response","284","883412","0.0-53.0-0.3","SS1613081755645","","","null","","","","","<p><img src= images/blank.png width =""200"" height = ""200"" style = ""float:right""></p><p><img src=images/blank.png width =""800"" height = ""200""></p>","","","","","","","","","","","",""
"","246.145000011893","sequential-stimulus-presentation","285","884470","0.0-53.0-1.3","SS1613081755645","trial","","40","800","1046.145000011893","images/stimuli/spore_stims/simple_13_B_b.gif","images/stimuli/spore_stims/simple_13_A_b.gif","","","","","15","simple_similar","images/stimuli/spore_stims/simple_13_A_b.gif","right","","","","",""
"","null","html-keyboard-response","286","885748","0.0-53.0-0.4","SS1613081755645","","","null","","","","","<p><img src= images/blank.png width =""200"" height = ""200"" style = ""float:right""></p><p><img src=images/blank.png width =""800"" height = ""200""></p>","","","","","","","","","","","",""
"","616.7249999998603","sequential-stimulus-presentation","287","887192","0.0-53.0-1.4","SS1613081755645","trial","","40","800","1416.7249999998603","images/stimuli/spore_stims/simple_13_B_b.gif","images/stimuli/spore_stims/simple_13_A_b.gif","","","","","15","simple_similar","images/stimuli/spore_stims/simple_13_A_b.gif","right","","","","",""
"","null","html-keyboard-response","288","888500","0.0-53.0-0.5","SS1613081755645","","","null","","","","","<p><img src= images/blank.png width =""200"" height = ""200"" style = ""float:right""></p><p><img src=images/blank.png width =""800"" height = ""200""></p>","","","","","","","","","","","",""
"","4198.374999978114","sequential-stimulus-presentation","289","893509","0.0-53.0-1.5","SS1613081755645","trial","","40","800","4998.374999978114","images/stimuli/spore_stims/simple_13_B_b.gif","images/stimuli/spore_stims/simple_13_A_b.gif","","","","","15","simple_similar","images/stimuli/spore_stims/simple_13_A_b.gif","right","","","","",""
"","null","html-keyboard-response","290","894504","0.0-53.0-0.6","SS1613081755645","","","null","","","","","<p><img src= images/blank.png width =""200"" height = ""200"" style = ""float:right""></p><p><img src=images/blank.png width =""800"" height = ""200""></p>","","","","","","","","","","","",""
"","1647.1550000132993","sequential-stimulus-presentation","291","896969","0.0-53.0-1.6","SS1613081755645","trial","","40","800","2447.1550000132993","images/stimuli/spore_stims/simple_13_B_b.gif","images/stimuli/spore_stims/simple_13_A_b.gif","","","","","15","simple_similar","images/stimuli/spore_stims/simple_13_A_b.gif","right","","","","",""
"","null","html-keyboard-response","292","898060","0.0-53.0-0.7","SS1613081755645","","","null","","","","","<p><img src= images/blank.png width =""200"" height = ""200"" style = ""float:right""></p><p><img src=images/blank.png width =""800"" height = ""200""></p>","","","","","","","","","","","",""
"","727.1750000072643","sequential-stimulus-presentation","293","899598","0.0-53.0-1.7","SS1613081755645","trial","","40","800","1527.1750000072643","images/stimuli/spore_stims/simple_13_B_b.gif","images/stimuli/spore_stims/simple_13_A_b.gif","","","","","15","simple_similar","images/stimuli/spore_stims/simple_13_A_b.gif","right","","","","",""
"","1266.9300000125077","html-keyboard-response","294","900882","0.0-54.0","SS1613081755645","pref_question","","50","","","","","<video width ='960' height = '540' style='padding-top:8%' autoplay muted><source src='images/stimuli/wall_pref.mp4' type='video/mp4'></video>","2","middle","45%","15","","","","","","","",""
"","280.53999997791834","sequential-stimulus-presentation","295","901970","0.0-55.0","SS1613081755645","pref_reveal","","40","800","1080.5399999779183","null","null","","","","","15","","","","novel","","","",""
"","null","html-keyboard-response","296","903013","0.0-56.0-0.0","SS1613081755645","","","null","","","","","<p><img src= images/blank.png width =""200"" height = ""200"" style = ""float:right""></p><p><img src=images/blank.png width =""800"" height = ""200""></p>","","","","","","","","","","","",""
"","684.0999999840278","sequential-stimulus-presentation","297","904523","0.0-56.0-1.0","SS1613081755645","trial","","40","800","1484.0999999840278","images/stimuli/spore_stims/complex_19_A_c.gif","images/stimuli/spore_stims/complex_08_B_b.gif","","","","","16","complex_dissimilar","images/stimuli/spore_stims/complex_08_B_b.gif","middle","","","","",""
"","null","html-keyboard-response","298","905836","0.0-56.0-0.1","SS1613081755645","","","null","","","","","<p><img src= images/blank.png width =""200"" height = ""200"" style = ""float:right""></p><p><img src=images/blank.png width =""800"" height = ""200""></p>","","","","","","","","","","","",""
"","987.7649999980349","sequential-stimulus-presentation","299","907652","0.0-56.0-1.1","SS1613081755645","trial","","40","800","1787.764999998035","images/stimuli/spore_stims/complex_19_A_c.gif","images/stimuli/spore_stims/complex_08_B_b.gif","","","","","16","complex_dissimilar","images/stimuli/spore_stims/complex_08_B_b.gif","middle","","","","",""
"","null","html-keyboard-response","300","908629","0.0-56.0-0.2","SS1613081755645","","","null","","","","","<p><img src= images/blank.png width =""200"" height = ""200"" style = ""float:right""></p><p><img src=images/blank.png width =""800"" height = ""200""></p>","","","","","","","","","","","",""
"","593.1500000006054","sequential-stimulus-presentation","301","910033","0.0-56.0-1.2","SS1613081755645","trial","","40","800","1393.1500000006054","images/stimuli/spore_stims/complex_19_A_c.gif","images/stimuli/spore_stims/complex_08_B_b.gif","","","","","16","complex_dissimilar","images/stimuli/spore_stims/complex_08_B_b.gif","middle","","","","",""
"","null","html-keyboard-response","302","910963","0.0-56.0-0.3","SS1613081755645","","","null","","","","","<p><img src= images/blank.png width =""200"" height = ""200"" style = ""float:right""></p><p><img src=images/blank.png width =""800"" height = ""200""></p>","","","","","","","","","","","",""
"","811.1550000030547","sequential-stimulus-presentation","303","912587","0.0-56.0-1.3","SS1613081755645","trial","","40","800","1611.1550000030547","images/stimuli/spore_stims/complex_19_A_c.gif","images/stimuli/spore_stims/complex_08_B_b.gif","","","","","16","complex_dissimilar","images/stimuli/spore_stims/complex_19_A_c.gif","right","","","","",""
"","null","html-keyboard-response","304","913717","0.0-56.0-0.4","SS1613081755645","","","null","","","","","<p><img src= images/blank.png width =""200"" height = ""200"" style = ""float:right""></p><p><img src=images/blank.png width =""800"" height = ""200""></p>","","","","","","","","","","","",""
"","572.3949999955948","sequential-stimulus-presentation","305","915133","0.0-56.0-1.4","SS1613081755645","trial","","40","800","1372.3949999955948","images/stimuli/spore_stims/complex_19_A_c.gif","images/stimuli/spore_stims/complex_08_B_b.gif","","","","","16","complex_dissimilar","images/stimuli/spore_stims/complex_08_B_b.gif","middle","","","","",""
"","null","html-keyboard-response","306","915944","0.0-56.0-0.5","SS1613081755645","","","null","","","","","<p><img src= images/blank.png width =""200"" height = ""200"" style = ""float:right""></p><p><img src=images/blank.png width =""800"" height = ""200""></p>","","","","","","","","","","","",""
"","943.3849999913946","sequential-stimulus-presentation","307","917698","0.0-56.0-1.5","SS1613081755645","trial","","40","800","1743.3849999913946","images/stimuli/spore_stims/complex_19_A_c.gif","images/stimuli/spore_stims/complex_08_B_b.gif","","","","","16","complex_dissimilar","images/stimuli/spore_stims/complex_08_B_b.gif","middle","","","","",""
"","null","html-keyboard-response","308","918527","0.0-56.0-0.6","SS1613081755645","","","null","","","","","<p><img src= images/blank.png width =""200"" height = ""200"" style = ""float:right""></p><p><img src=images/blank.png width =""800"" height = ""200""></p>","","","","","","","","","","","",""
"","1272.0749999862164","sequential-stimulus-presentation","309","920623","0.0-56.0-1.6","SS1613081755645","trial","","40","800","2072.0749999862164","images/stimuli/spore_stims/complex_19_A_c.gif","images/stimuli/spore_stims/complex_08_B_b.gif","","","","","16","complex_dissimilar","images/stimuli/spore_stims/complex_08_B_b.gif","middle","","","","",""
"","null","html-keyboard-response","310","921923","0.0-56.0-0.7","SS1613081755645","","","null","","","","","<p><img src= images/blank.png width =""200"" height = ""200"" style = ""float:right""></p><p><img src=images/blank.png width =""800"" height = ""200""></p>","","","","","","","","","","","",""
"","694.195000018226","sequential-stimulus-presentation","311","923428","0.0-56.0-1.7","SS1613081755645","trial","","40","800","1494.195000018226","images/stimuli/spore_stims/complex_19_A_c.gif","images/stimuli/spore_stims/complex_08_B_b.gif","","","","","16","complex_dissimilar","images/stimuli/spore_stims/complex_08_B_b.gif","middle","","","","",""
