"view_history","rt","trial_type","trial_index","time_elapsed","internal_node_id","subject","stimulus_type","trial_stimulus","key_press","minimum_viewing_duration","trial_looking_time","block_deviant","block_background","stimulus","wall_pref","location","location_percent","block_number","block_type","stimulus_displayed","position_displayed","stim_type_selected","responses","question_order","stimulus_left","stimulus_right"
"[{""page_index"":0,""viewing_time"":9336.380000000187}]","9338.90000000019","instructions","0","9345","0.0-0.0","SS1613100676916","","","","","","","","","","","","","","","","","","","",""
"[{""page_index"":0,""viewing_time"":3757.9099999998143},{""page_index"":1,""viewing_time"":7495.815000000221}]","11254.554999999993","instructions","1","22605","0.0-1.0","SS1613100676916","instructions","","","","","","","","","","","","","","","","","","",""
"","6941.060000000114","sequential-stimulus-presentation","2","30365","0.0-2.0","SS1613100676916","","","40","800","7741.060000000114","null","null","","","","","","","","","","","","",""
"","1009.4549999998853","sequential-stimulus-presentation","3","32186","0.0-3.0","SS1613100676916","","","40","800","1809.4549999998853","null","null","","","","","","","","","","","","",""
"[{""page_index"":0,""viewing_time"":4246.445000000211}]","4247.284999999916","instructions","4","36437","0.0-4.0","SS1613100676916","instructions","","","","","","","","","","","","","","","","","","",""
"","6996.184999999969","html-keyboard-response","5","43443","0.0-5.0","SS1613100676916","instructions","","99","","","","","<video width ='960' height = '540' autoplay muted><source src='images/stimuli/wall_pref.mp4' type='video/mp4'></video>","3","right","66%","","","","","","","","",""
"","11730.219999999914","sequential-stimulus-presentation","6","55986","0.0-6.0","SS1613100676916","pref_reveal","","40","800","12530.219999999914","null","null","","","","","","","","","","","","",""
"[{""page_index"":0,""viewing_time"":1957.3000000000466},{""page_index"":1,""viewing_time"":3775.579999999987},{""page_index"":2,""viewing_time"":2288.030000000159},{""page_index"":3,""viewing_time"":1832.0599999997212}]","9853.85499999985","instructions","7","65844","0.0-7.0","SS1613100676916","instructions","","","","","","","","","","","","","","","","","","",""
"","null","html-keyboard-response","8","66688","0.0-8.0-0.0","SS1613100676916","","","null","","","","","<p><img src= images/blank.png width =""200"" height = ""200"" style = ""float:right""></p><p><img src=images/blank.png width =""800"" height = ""200""></p>","","","","","","","","","","","",""
"","1819.375000000029","sequential-stimulus-presentation","9","69321","0.0-8.0-1.0","SS1613100676916","trial","","40","800","2619.375000000029","images/stimuli/spore_stims/simple_04_A_d.gif","images/stimuli/spore_stims/simple_07_B_b.gif","","","","","0","simple_dissimilar","images/stimuli/spore_stims/simple_07_B_b.gif","middle","","","","",""
"","null","html-keyboard-response","10","70487","0.0-8.0-0.1","SS1613100676916","","","null","","","","","<p><img src= images/blank.png width =""200"" height = ""200"" style = ""float:right""></p><p><img src=images/blank.png width =""800"" height = ""200""></p>","","","","","","","","","","","",""
"","608.5899999998219","sequential-stimulus-presentation","11","71906","0.0-8.0-1.1","SS1613100676916","trial","","40","800","1408.5899999998219","images/stimuli/spore_stims/simple_04_A_d.gif","images/stimuli/spore_stims/simple_07_B_b.gif","","","","","0","simple_dissimilar","images/stimuli/spore_stims/simple_07_B_b.gif","middle","","","","",""
"","null","html-keyboard-response","12","72751","0.0-8.0-0.2","SS1613100676916","","","null","","","","","<p><img src= images/blank.png width =""200"" height = ""200"" style = ""float:right""></p><p><img src=images/blank.png width =""800"" height = ""200""></p>","","","","","","","","","","","",""
"","1080.339999999982","sequential-stimulus-presentation","13","74642","0.0-8.0-1.2","SS1613100676916","trial","","40","800","1880.339999999982","images/stimuli/spore_stims/simple_04_A_d.gif","images/stimuli/spore_stims/simple_07_B_b.gif","","","","","0","simple_dissimilar","images/stimuli/spore_stims/simple_07_B_b.gif","middle","","","","",""
"","null","html-keyboard-response","14","75773","0.0-8.0-0.3","SS1613100676916","","","null","","","","","<p><img src= images/blank.png width =""200"" height = ""200"" style = ""float:right""></p><p><img src=images/blank.png width =""800"" height = ""200""></p>","","","","","","","","","","","",""
"","189.72500000018044","sequential-stimulus-presentation","15","76803","0.0-8.0-1.3","SS1613100676916","trial","","40","800","989.7250000001804","images/stimuli/spore_stims/simple_04_A_d.gif","images/stimuli/spore_stims/simple_07_B_b.gif","","","","","0","simple_dissimilar","images/stimuli/spore_stims/simple_07_B_b.gif","middle","","","","",""
"","null","html-keyboard-response","16","77948","0.0-8.0-0.4","SS1613100676916","","","null","","","","","<p><img src= images/blank.png width =""200"" height = ""200"" style = ""float:right""></p><p><img src=images/blank.png width =""800"" height = ""200""></p>","","","","","","","","","","","",""
"","1475.4400000001624","sequential-stimulus-presentation","17","80235","0.0-8.0-1.4","SS1613100676916","trial","","40","800","2275.4400000001624","images/stimuli/spore_stims/simple_04_A_d.gif","images/stimuli/spore_stims/simple_07_B_b.gif","","","","","0","simple_dissimilar","images/stimuli/spore_stims/simple_07_B_b.gif","middle","","","","",""
"","null","html-keyboard-response","18","81113","0.0-8.0-0.5","SS1613100676916","","","null","","","","","<p><img src= images/blank.png width =""200"" height = ""200"" style = ""float:right""></p><p><img src=images/blank.png width =""800"" height = ""200""></p>","","","","","","","","","","","",""
"","822.7600000000239","sequential-stimulus-presentation","19","82746","0.0-8.0-1.5","SS1613100676916","trial","","40","800","1622.7600000000239","images/stimuli/spore_stims/simple_04_A_d.gif","images/stimuli/spore_stims/simple_07_B_b.gif","","","","","0","simple_dissimilar","images/stimuli/spore_stims/simple_07_B_b.gif","middle","","","","",""
"","null","html-keyboard-response","20","83931","0.0-8.0-0.6","SS1613100676916","","","null","","","","","<p><img src= images/blank.png width =""200"" height = ""200"" style = ""float:right""></p><p><img src=images/blank.png width =""800"" height = ""200""></p>","","","","","","","","","","","",""
"","986.6549999997078","sequential-stimulus-presentation","21","85729","0.0-8.0-1.6","SS1613100676916","trial","","40","800","1786.6549999997078","images/stimuli/spore_stims/simple_04_A_d.gif","images/stimuli/spore_stims/simple_07_B_b.gif","","","","","0","simple_dissimilar","images/stimuli/spore_stims/simple_07_B_b.gif","middle","","","","",""
"","null","html-keyboard-response","22","86883","0.0-8.0-0.7","SS1613100676916","","","null","","","","","<p><img src= images/blank.png width =""200"" height = ""200"" style = ""float:right""></p><p><img src=images/blank.png width =""800"" height = ""200""></p>","","","","","","","","","","","",""
"","2028.5800000001327","sequential-stimulus-presentation","23","89721","0.0-8.0-1.7","SS1613100676916","trial","","40","800","2828.5800000001327","images/stimuli/spore_stims/simple_04_A_d.gif","images/stimuli/spore_stims/simple_07_B_b.gif","","","","","0","simple_dissimilar","images/stimuli/spore_stims/simple_04_A_d.gif","right","","","","",""
"","1008.2300000003888","html-keyboard-response","24","90739","0.0-9.0","SS1613100676916","pref_question","","97","","","","","<video width ='960' height = '540' style='padding-top:8%' autoplay muted><source src='images/stimuli/wall_pref.mp4' type='video/mp4'></video>","1","left","25%","0","","","","","","","",""
"","1415.5550000000221","sequential-stimulus-presentation","25","92969","0.0-10.0","SS1613100676916","pref_reveal","","40","800","2215.555000000022","null","null","","","","","0","","","","novel","","","",""
"","null","html-keyboard-response","26","94231","0.0-11.0-0.0","SS1613100676916","","","null","","","","","<p><img src= images/blank.png width =""200"" height = ""200"" style = ""float:right""></p><p><img src=images/blank.png width =""800"" height = ""200""></p>","","","","","","","","","","","",""
"","1493.1549999996496","sequential-stimulus-presentation","27","96537","0.0-11.0-1.0","SS1613100676916","trial","","40","800","2293.1549999996496","images/stimuli/spore_stims/simple_11_B_d.gif","images/stimuli/spore_stims/simple_11_A_d.gif","","","","","1","simple_similar","images/stimuli/spore_stims/simple_11_A_d.gif","right","","","","",""
"","null","html-keyboard-response","28","97456","0.0-11.0-0.1","SS1613100676916","","","null","","","","","<p><img src= images/blank.png width =""200"" height = ""200"" style = ""float:right""></p><p><img src=images/blank.png width =""800"" height = ""200""></p>","","","","","","","","","","","",""
"","1294.29000000027","sequential-stimulus-presentation","29","99563","0.0-11.0-1.1","SS1613100676916","trial","","40","800","2094.29000000027","images/stimuli/spore_stims/simple_11_B_d.gif","images/stimuli/spore_stims/simple_11_A_d.gif","","","","","1","simple_similar","images/stimuli/spore_stims/simple_11_A_d.gif","right","","","","",""
"","null","html-keyboard-response","30","100690","0.0-11.0-0.2","SS1613100676916","","","null","","","","","<p><img src= images/blank.png width =""200"" height = ""200"" style = ""float:right""></p><p><img src=images/blank.png width =""800"" height = ""200""></p>","","","","","","","","","","","",""
"","434.824999999837","sequential-stimulus-presentation","31","101937","0.0-11.0-1.2","SS1613100676916","trial","","40","800","1234.824999999837","images/stimuli/spore_stims/simple_11_B_d.gif","images/stimuli/spore_stims/simple_11_A_d.gif","","","","","1","simple_similar","images/stimuli/spore_stims/simple_11_A_d.gif","right","","","","",""
"","null","html-keyboard-response","32","102752","0.0-11.0-0.3","SS1613100676916","","","null","","","","","<p><img src= images/blank.png width =""200"" height = ""200"" style = ""float:right""></p><p><img src=images/blank.png width =""800"" height = ""200""></p>","","","","","","","","","","","",""
"","774.3949999999313","sequential-stimulus-presentation","33","104337","0.0-11.0-1.3","SS1613100676916","trial","","40","800","1574.3949999999313","images/stimuli/spore_stims/simple_11_B_d.gif","images/stimuli/spore_stims/simple_11_A_d.gif","","","","","1","simple_similar","images/stimuli/spore_stims/simple_11_A_d.gif","right","","","","",""
"","null","html-keyboard-response","34","105314","0.0-11.0-0.4","SS1613100676916","","","null","","","","","<p><img src= images/blank.png width =""200"" height = ""200"" style = ""float:right""></p><p><img src=images/blank.png width =""800"" height = ""200""></p>","","","","","","","","","","","",""
"","724.539999999688","sequential-stimulus-presentation","35","106849","0.0-11.0-1.4","SS1613100676916","trial","","40","800","1524.539999999688","images/stimuli/spore_stims/simple_11_B_d.gif","images/stimuli/spore_stims/simple_11_A_d.gif","","","","","1","simple_similar","images/stimuli/spore_stims/simple_11_A_d.gif","right","","","","",""
"","null","html-keyboard-response","36","107657","0.0-11.0-0.5","SS1613100676916","","","null","","","","","<p><img src= images/blank.png width =""200"" height = ""200"" style = ""float:right""></p><p><img src=images/blank.png width =""800"" height = ""200""></p>","","","","","","","","","","","",""
"","645.3249999999534","sequential-stimulus-presentation","37","109113","0.0-11.0-1.5","SS1613100676916","trial","","40","800","1445.3249999999534","images/stimuli/spore_stims/simple_11_B_d.gif","images/stimuli/spore_stims/simple_11_A_d.gif","","","","","1","simple_similar","images/stimuli/spore_stims/simple_11_B_d.gif","left","","","","",""
"","null","html-keyboard-response","38","110221","0.0-11.0-0.6","SS1613100676916","","","null","","","","","<p><img src= images/blank.png width =""200"" height = ""200"" style = ""float:right""></p><p><img src=images/blank.png width =""800"" height = ""200""></p>","","","","","","","","","","","",""
"","586.3899999999267","sequential-stimulus-presentation","39","111625","0.0-11.0-1.6","SS1613100676916","trial","","40","800","1386.3899999999267","images/stimuli/spore_stims/simple_11_B_d.gif","images/stimuli/spore_stims/simple_11_A_d.gif","","","","","1","simple_similar","images/stimuli/spore_stims/simple_11_A_d.gif","right","","","","",""
"","null","html-keyboard-response","40","112718","0.0-11.0-0.7","SS1613100676916","","","null","","","","","<p><img src= images/blank.png width =""200"" height = ""200"" style = ""float:right""></p><p><img src=images/blank.png width =""800"" height = ""200""></p>","","","","","","","","","","","",""
"","1143.7350000001024","sequential-stimulus-presentation","41","114673","0.0-11.0-1.7","SS1613100676916","trial","","40","800","1943.7350000001024","images/stimuli/spore_stims/simple_11_B_d.gif","images/stimuli/spore_stims/simple_11_A_d.gif","","","","","1","simple_similar","images/stimuli/spore_stims/simple_11_A_d.gif","right","","","","",""
"","613.8300000002491","html-keyboard-response","42","115297","0.0-12.0","SS1613100676916","pref_question","","98","","","","","<video width ='960' height = '540' style='padding-top:8%' autoplay muted><source src='images/stimuli/wall_pref.mp4' type='video/mp4'></video>","2","middle","45%","1","","","","","","","",""
"","893.6300000000338","sequential-stimulus-presentation","43","117002","0.0-13.0","SS1613100676916","pref_reveal","","40","800","1693.6300000000338","null","null","","","","","1","","","","novel","","","",""
"","null","html-keyboard-response","44","118198","0.0-14.0-0.0","SS1613100676916","","","null","","","","","<p><img src= images/blank.png width =""200"" height = ""200"" style = ""float:right""></p><p><img src=images/blank.png width =""800"" height = ""200""></p>","","","","","","","","","","","",""
"","708.3200000001816","sequential-stimulus-presentation","45","119720","0.0-14.0-1.0","SS1613100676916","trial","","40","800","1508.3200000001816","images/stimuli/spore_stims/complex_05_B_a.gif","images/stimuli/spore_stims/complex_12_B_c.gif","","","","","2","complex_dissimilar","images/stimuli/spore_stims/complex_12_B_c.gif","middle","","","","",""
"","null","html-keyboard-response","46","120724","0.0-14.0-0.1","SS1613100676916","","","null","","","","","<p><img src= images/blank.png width =""200"" height = ""200"" style = ""float:right""></p><p><img src=images/blank.png width =""800"" height = ""200""></p>","","","","","","","","","","","",""
"","1169.3549999999814","sequential-stimulus-presentation","47","122704","0.0-14.0-1.1","SS1613100676916","trial","","40","800","1969.3549999999814","images/stimuli/spore_stims/complex_05_B_a.gif","images/stimuli/spore_stims/complex_12_B_c.gif","","","","","2","complex_dissimilar","images/stimuli/spore_stims/complex_12_B_c.gif","middle","","","","",""
"","null","html-keyboard-response","48","123758","0.0-14.0-0.2","SS1613100676916","","","null","","","","","<p><img src= images/blank.png width =""200"" height = ""200"" style = ""float:right""></p><p><img src=images/blank.png width =""800"" height = ""200""></p>","","","","","","","","","","","",""
"","829.9750000000931","sequential-stimulus-presentation","49","125400","0.0-14.0-1.2","SS1613100676916","trial","","40","800","1629.9750000000931","images/stimuli/spore_stims/complex_05_B_a.gif","images/stimuli/spore_stims/complex_12_B_c.gif","","","","","2","complex_dissimilar","images/stimuli/spore_stims/complex_12_B_c.gif","middle","","","","",""
"","null","html-keyboard-response","50","126404","0.0-14.0-0.3","SS1613100676916","","","null","","","","","<p><img src= images/blank.png width =""200"" height = ""200"" style = ""float:right""></p><p><img src=images/blank.png width =""800"" height = ""200""></p>","","","","","","","","","","","",""
"","947.6799999997602","sequential-stimulus-presentation","51","128193","0.0-14.0-1.3","SS1613100676916","trial","","40","800","1747.6799999997602","images/stimuli/spore_stims/complex_05_B_a.gif","images/stimuli/spore_stims/complex_12_B_c.gif","","","","","2","complex_dissimilar","images/stimuli/spore_stims/complex_12_B_c.gif","middle","","","","",""
"","null","html-keyboard-response","52","129248","0.0-14.0-0.4","SS1613100676916","","","null","","","","","<p><img src= images/blank.png width =""200"" height = ""200"" style = ""float:right""></p><p><img src=images/blank.png width =""800"" height = ""200""></p>","","","","","","","","","","","",""
"","4254.855000000127","sequential-stimulus-presentation","53","134314","0.0-14.0-1.4","SS1613100676916","trial","","40","800","5054.855000000127","images/stimuli/spore_stims/complex_05_B_a.gif","images/stimuli/spore_stims/complex_12_B_c.gif","","","","","2","complex_dissimilar","images/stimuli/spore_stims/complex_05_B_a.gif","left","","","","",""
"","null","html-keyboard-response","54","135539","0.0-14.0-0.5","SS1613100676916","","","null","","","","","<p><img src= images/blank.png width =""200"" height = ""200"" style = ""float:right""></p><p><img src=images/blank.png width =""800"" height = ""200""></p>","","","","","","","","","","","",""
"","1248.5300000002899","sequential-stimulus-presentation","55","137602","0.0-14.0-1.5","SS1613100676916","trial","","40","800","2048.53000000029","images/stimuli/spore_stims/complex_05_B_a.gif","images/stimuli/spore_stims/complex_12_B_c.gif","","","","","2","complex_dissimilar","images/stimuli/spore_stims/complex_12_B_c.gif","middle","","","","",""
"","null","html-keyboard-response","56","138717","0.0-14.0-0.6","SS1613100676916","","","null","","","","","<p><img src= images/blank.png width =""200"" height = ""200"" style = ""float:right""></p><p><img src=images/blank.png width =""800"" height = ""200""></p>","","","","","","","","","","","",""
"","215.0449999999255","sequential-stimulus-presentation","57","139745","0.0-14.0-1.6","SS1613100676916","trial","","40","800","1015.0449999999255","images/stimuli/spore_stims/complex_05_B_a.gif","images/stimuli/spore_stims/complex_12_B_c.gif","","","","","2","complex_dissimilar","images/stimuli/spore_stims/complex_12_B_c.gif","middle","","","","",""
"","null","html-keyboard-response","58","140776","0.0-14.0-0.7","SS1613100676916","","","null","","","","","<p><img src= images/blank.png width =""200"" height = ""200"" style = ""float:right""></p><p><img src=images/blank.png width =""800"" height = ""200""></p>","","","","","","","","","","","",""
"","558.9150000000664","sequential-stimulus-presentation","59","142145","0.0-14.0-1.7","SS1613100676916","trial","","40","800","1358.9150000000664","images/stimuli/spore_stims/complex_05_B_a.gif","images/stimuli/spore_stims/complex_12_B_c.gif","","","","","2","complex_dissimilar","images/stimuli/spore_stims/complex_12_B_c.gif","middle","","","","",""
"","2811.184999999561","html-keyboard-response","60","144978","0.0-15.0","SS1613100676916","pref_question","","99","","","","","<video width ='960' height = '540' style='padding-top:8%' autoplay muted><source src='images/stimuli/wall_pref.mp4' type='video/mp4'></video>","3","right","66%","2","","","","","","","",""
"","2690.410000000149","sequential-stimulus-presentation","61","148482","0.0-16.0","SS1613100676916","pref_reveal","","40","800","3490.410000000149","null","null","","","","","2","","","","novel","","","",""
"","null","html-keyboard-response","62","149356","0.0-17.0-0.0","SS1613100676916","","","null","","","","","<p><img src= images/blank.png width =""200"" height = ""200"" style = ""float:right""></p><p><img src=images/blank.png width =""800"" height = ""200""></p>","","","","","","","","","","","",""
"","1151.3500000000931","sequential-stimulus-presentation","63","151323","0.0-17.0-1.0","SS1613100676916","trial","","40","800","1951.3500000000931","images/stimuli/spore_stims/complex_11_B_b.gif","images/stimuli/spore_stims/complex_11_A_b.gif","","","","","3","complex_similar","images/stimuli/spore_stims/complex_11_A_b.gif","middle","","","","",""
"","null","html-keyboard-response","64","152593","0.0-17.0-0.1","SS1613100676916","","","null","","","","","<p><img src= images/blank.png width =""200"" height = ""200"" style = ""float:right""></p><p><img src=images/blank.png width =""800"" height = ""200""></p>","","","","","","","","","","","",""
"","1731.890000000014","sequential-stimulus-presentation","65","155139","0.0-17.0-1.1","SS1613100676916","trial","","40","800","2531.890000000014","images/stimuli/spore_stims/complex_11_B_b.gif","images/stimuli/spore_stims/complex_11_A_b.gif","","","","","3","complex_similar","images/stimuli/spore_stims/complex_11_A_b.gif","middle","","","","",""
"","null","html-keyboard-response","66","155982","0.0-17.0-0.2","SS1613100676916","","","null","","","","","<p><img src= images/blank.png width =""200"" height = ""200"" style = ""float:right""></p><p><img src=images/blank.png width =""800"" height = ""200""></p>","","","","","","","","","","","",""
"","1141.9650000002584","sequential-stimulus-presentation","67","157937","0.0-17.0-1.2","SS1613100676916","trial","","40","800","1941.9650000002584","images/stimuli/spore_stims/complex_11_B_b.gif","images/stimuli/spore_stims/complex_11_A_b.gif","","","","","3","complex_similar","images/stimuli/spore_stims/complex_11_A_b.gif","middle","","","","",""
"","null","html-keyboard-response","68","159112","0.0-17.0-0.3","SS1613100676916","","","null","","","","","<p><img src= images/blank.png width =""200"" height = ""200"" style = ""float:right""></p><p><img src=images/blank.png width =""800"" height = ""200""></p>","","","","","","","","","","","",""
"","1075.5549999999057","sequential-stimulus-presentation","69","161001","0.0-17.0-1.3","SS1613100676916","trial","","40","800","1875.5549999999057","images/stimuli/spore_stims/complex_11_B_b.gif","images/stimuli/spore_stims/complex_11_A_b.gif","","","","","3","complex_similar","images/stimuli/spore_stims/complex_11_A_b.gif","middle","","","","",""
"","null","html-keyboard-response","70","162176","0.0-17.0-0.4","SS1613100676916","","","null","","","","","<p><img src= images/blank.png width =""200"" height = ""200"" style = ""float:right""></p><p><img src=images/blank.png width =""800"" height = ""200""></p>","","","","","","","","","","","",""
"","2005.5199999996985","sequential-stimulus-presentation","71","165017","0.0-17.0-1.4","SS1613100676916","trial","","40","800","2805.5199999996985","images/stimuli/spore_stims/complex_11_B_b.gif","images/stimuli/spore_stims/complex_11_A_b.gif","","","","","3","complex_similar","images/stimuli/spore_stims/complex_11_A_b.gif","middle","","","","",""
"","null","html-keyboard-response","72","165976","0.0-17.0-0.5","SS1613100676916","","","null","","","","","<p><img src= images/blank.png width =""200"" height = ""200"" style = ""float:right""></p><p><img src=images/blank.png width =""800"" height = ""200""></p>","","","","","","","","","","","",""
"","4379.515000000072","sequential-stimulus-presentation","73","171169","0.0-17.0-1.5","SS1613100676916","trial","","40","800","5179.515000000072","images/stimuli/spore_stims/complex_11_B_b.gif","images/stimuli/spore_stims/complex_11_A_b.gif","","","","","3","complex_similar","images/stimuli/spore_stims/complex_11_A_b.gif","middle","","","","",""
"","null","html-keyboard-response","74","172365","0.0-17.0-0.6","SS1613100676916","","","null","","","","","<p><img src= images/blank.png width =""200"" height = ""200"" style = ""float:right""></p><p><img src=images/blank.png width =""800"" height = ""200""></p>","","","","","","","","","","","",""
"","3567.099999999744","sequential-stimulus-presentation","75","176746","0.0-17.0-1.6","SS1613100676916","trial","","40","800","4367.099999999744","images/stimuli/spore_stims/complex_11_B_b.gif","images/stimuli/spore_stims/complex_11_A_b.gif","","","","","3","complex_similar","images/stimuli/spore_stims/complex_11_B_b.gif","right","","","","",""
"","null","html-keyboard-response","76","177912","0.0-17.0-0.7","SS1613100676916","","","null","","","","","<p><img src= images/blank.png width =""200"" height = ""200"" style = ""float:right""></p><p><img src=images/blank.png width =""800"" height = ""200""></p>","","","","","","","","","","","",""
"","2434.654999999999","sequential-stimulus-presentation","77","181161","0.0-17.0-1.7","SS1613100676916","trial","","40","800","3234.654999999999","images/stimuli/spore_stims/complex_11_B_b.gif","images/stimuli/spore_stims/complex_11_A_b.gif","","","","","3","complex_similar","images/stimuli/spore_stims/complex_11_A_b.gif","middle","","","","",""
"","2671.2649999999558","html-keyboard-response","78","183841","0.0-18.0","SS1613100676916","pref_question","","99","","","","","<video width ='960' height = '540' style='padding-top:8%' autoplay muted><source src='images/stimuli/wall_pref.mp4' type='video/mp4'></video>","3","right","66%","3","","","","","","","",""
"","162.54499999969266","sequential-stimulus-presentation","79","184817","0.0-19.0","SS1613100676916","pref_reveal","","40","800","962.5449999996927","null","null","","","","","3","","","","deviant","","","",""
"","null","html-keyboard-response","80","185943","0.0-20.0-0.0","SS1613100676916","","","null","","","","","<p><img src= images/blank.png width =""200"" height = ""200"" style = ""float:right""></p><p><img src=images/blank.png width =""800"" height = ""200""></p>","","","","","","","","","","","",""
"","2259.230000000127","sequential-stimulus-presentation","81","189018","0.0-20.0-1.0","SS1613100676916","trial","","40","800","3059.230000000127","images/stimuli/spore_stims/simple_19_A_a.gif","images/stimuli/spore_stims/simple_19_B_a.gif","","","","","4","simple_similar","images/stimuli/spore_stims/simple_19_B_a.gif","right","","","","",""
"","null","html-keyboard-response","82","190170","0.0-20.0-0.1","SS1613100676916","","","null","","","","","<p><img src= images/blank.png width =""200"" height = ""200"" style = ""float:right""></p><p><img src=images/blank.png width =""800"" height = ""200""></p>","","","","","","","","","","","",""
"","373.13500000027125","sequential-stimulus-presentation","83","191377","0.0-20.0-1.1","SS1613100676916","trial","","40","800","1173.1350000002712","images/stimuli/spore_stims/simple_19_A_a.gif","images/stimuli/spore_stims/simple_19_B_a.gif","","","","","4","simple_similar","images/stimuli/spore_stims/simple_19_B_a.gif","right","","","","",""
"","null","html-keyboard-response","84","192415","0.0-20.0-0.2","SS1613100676916","","","null","","","","","<p><img src= images/blank.png width =""200"" height = ""200"" style = ""float:right""></p><p><img src=images/blank.png width =""800"" height = ""200""></p>","","","","","","","","","","","",""
"","700.91999999978","sequential-stimulus-presentation","85","193929","0.0-20.0-1.2","SS1613100676916","trial","","40","800","1500.91999999978","images/stimuli/spore_stims/simple_19_A_a.gif","images/stimuli/spore_stims/simple_19_B_a.gif","","","","","4","simple_similar","images/stimuli/spore_stims/simple_19_B_a.gif","right","","","","",""
"","null","html-keyboard-response","86","194815","0.0-20.0-0.3","SS1613100676916","","","null","","","","","<p><img src= images/blank.png width =""200"" height = ""200"" style = ""float:right""></p><p><img src=images/blank.png width =""800"" height = ""200""></p>","","","","","","","","","","","",""
"","109.51499999966472","sequential-stimulus-presentation","87","195737","0.0-20.0-1.3","SS1613100676916","trial","","40","800","909.5149999996647","images/stimuli/spore_stims/simple_19_A_a.gif","images/stimuli/spore_stims/simple_19_B_a.gif","","","","","4","simple_similar","images/stimuli/spore_stims/simple_19_B_a.gif","right","","","","",""
"","null","html-keyboard-response","88","196740","0.0-20.0-0.4","SS1613100676916","","","null","","","","","<p><img src= images/blank.png width =""200"" height = ""200"" style = ""float:right""></p><p><img src=images/blank.png width =""800"" height = ""200""></p>","","","","","","","","","","","",""
"","4662.200000000215","sequential-stimulus-presentation","89","202217","0.0-20.0-1.4","SS1613100676916","trial","","40","800","5462.200000000215","images/stimuli/spore_stims/simple_19_A_a.gif","images/stimuli/spore_stims/simple_19_B_a.gif","","","","","4","simple_similar","images/stimuli/spore_stims/simple_19_B_a.gif","right","","","","",""
"","null","html-keyboard-response","90","203460","0.0-20.0-0.5","SS1613100676916","","","null","","","","","<p><img src= images/blank.png width =""200"" height = ""200"" style = ""float:right""></p><p><img src=images/blank.png width =""800"" height = ""200""></p>","","","","","","","","","","","",""
"","5107.989999999962","sequential-stimulus-presentation","91","209385","0.0-20.0-1.5","SS1613100676916","trial","","40","800","5907.989999999962","images/stimuli/spore_stims/simple_19_A_a.gif","images/stimuli/spore_stims/simple_19_B_a.gif","","","","","4","simple_similar","images/stimuli/spore_stims/simple_19_B_a.gif","right","","","","",""
"","null","html-keyboard-response","92","210677","0.0-20.0-0.6","SS1613100676916","","","null","","","","","<p><img src= images/blank.png width =""200"" height = ""200"" style = ""float:right""></p><p><img src=images/blank.png width =""800"" height = ""200""></p>","","","","","","","","","","","",""
"","1308.5699999996868","sequential-stimulus-presentation","93","212801","0.0-20.0-1.6","SS1613100676916","trial","","40","800","2108.569999999687","images/stimuli/spore_stims/simple_19_A_a.gif","images/stimuli/spore_stims/simple_19_B_a.gif","","","","","4","simple_similar","images/stimuli/spore_stims/simple_19_A_a.gif","left","","","","",""
"","null","html-keyboard-response","94","213615","0.0-20.0-0.7","SS1613100676916","","","null","","","","","<p><img src= images/blank.png width =""200"" height = ""200"" style = ""float:right""></p><p><img src=images/blank.png width =""800"" height = ""200""></p>","","","","","","","","","","","",""
"","524.5600000002887","sequential-stimulus-presentation","95","214953","0.0-20.0-1.7","SS1613100676916","trial","","40","800","1324.5600000002887","images/stimuli/spore_stims/simple_19_A_a.gif","images/stimuli/spore_stims/simple_19_B_a.gif","","","","","4","simple_similar","images/stimuli/spore_stims/simple_19_B_a.gif","right","","","","",""
"","883.2899999997462","html-keyboard-response","96","215848","0.0-21.0","SS1613100676916","pref_question","","99","","","","","<video width ='960' height = '540' style='padding-top:8%' autoplay muted><source src='images/stimuli/wall_pref.mp4' type='video/mp4'></video>","3","right","66%","4","","","","","","","",""
"","558.4749999998021","sequential-stimulus-presentation","97","217217","0.0-22.0","SS1613100676916","pref_reveal","","40","800","1358.474999999802","null","null","","","","","4","","","","background","","","",""
"","null","html-keyboard-response","98","218266","0.0-23.0-0.0","SS1613100676916","","","null","","","","","<p><img src= images/blank.png width =""200"" height = ""200"" style = ""float:right""></p><p><img src=images/blank.png width =""800"" height = ""200""></p>","","","","","","","","","","","",""
"","3904.239999999816","sequential-stimulus-presentation","99","222986","0.0-23.0-1.0","SS1613100676916","trial","","40","800","4704.239999999816","images/stimuli/spore_stims/complex_09_B_d.gif","images/stimuli/spore_stims/complex_08_B_b.gif","","","","","5","complex_dissimilar","images/stimuli/spore_stims/complex_08_B_b.gif","right","","","","",""
"","null","html-keyboard-response","100","224180","0.0-23.0-0.1","SS1613100676916","","","null","","","","","<p><img src= images/blank.png width =""200"" height = ""200"" style = ""float:right""></p><p><img src=images/blank.png width =""800"" height = ""200""></p>","","","","","","","","","","","",""
"","2260.015000000305","sequential-stimulus-presentation","101","227257","0.0-23.0-1.1","SS1613100676916","trial","","40","800","3060.015000000305","images/stimuli/spore_stims/complex_09_B_d.gif","images/stimuli/spore_stims/complex_08_B_b.gif","","","","","5","complex_dissimilar","images/stimuli/spore_stims/complex_08_B_b.gif","right","","","","",""
"","null","html-keyboard-response","102","228250","0.0-23.0-0.2","SS1613100676916","","","null","","","","","<p><img src= images/blank.png width =""200"" height = ""200"" style = ""float:right""></p><p><img src=images/blank.png width =""800"" height = ""200""></p>","","","","","","","","","","","",""
"","1062.5400000003283","sequential-stimulus-presentation","103","230129","0.0-23.0-1.2","SS1613100676916","trial","","40","800","1862.5400000003283","images/stimuli/spore_stims/complex_09_B_d.gif","images/stimuli/spore_stims/complex_08_B_b.gif","","","","","5","complex_dissimilar","images/stimuli/spore_stims/complex_08_B_b.gif","right","","","","",""
"","null","html-keyboard-response","104","231139","0.0-23.0-0.3","SS1613100676916","","","null","","","","","<p><img src= images/blank.png width =""200"" height = ""200"" style = ""float:right""></p><p><img src=images/blank.png width =""800"" height = ""200""></p>","","","","","","","","","","","",""
"","3609.1300000002957","sequential-stimulus-presentation","105","235569","0.0-23.0-1.3","SS1613100676916","trial","","40","800","4409.130000000296","images/stimuli/spore_stims/complex_09_B_d.gif","images/stimuli/spore_stims/complex_08_B_b.gif","","","","","5","complex_dissimilar","images/stimuli/spore_stims/complex_09_B_d.gif","left","","","","",""
"","null","html-keyboard-response","106","236585","0.0-23.0-0.4","SS1613100676916","","","null","","","","","<p><img src= images/blank.png width =""200"" height = ""200"" style = ""float:right""></p><p><img src=images/blank.png width =""800"" height = ""200""></p>","","","","","","","","","","","",""
"","2796.0299999999697","sequential-stimulus-presentation","107","240200","0.0-23.0-1.4","SS1613100676916","trial","","40","800","3596.0299999999697","images/stimuli/spore_stims/complex_09_B_d.gif","images/stimuli/spore_stims/complex_08_B_b.gif","","","","","5","complex_dissimilar","images/stimuli/spore_stims/complex_08_B_b.gif","right","","","","",""
"","null","html-keyboard-response","108","241168","0.0-23.0-0.5","SS1613100676916","","","null","","","","","<p><img src= images/blank.png width =""200"" height = ""200"" style = ""float:right""></p><p><img src=images/blank.png width =""800"" height = ""200""></p>","","","","","","","","","","","",""
"","1464.8299999998999","sequential-stimulus-presentation","109","243448","0.0-23.0-1.5","SS1613100676916","trial","","40","800","2264.8299999999","images/stimuli/spore_stims/complex_09_B_d.gif","images/stimuli/spore_stims/complex_08_B_b.gif","","","","","5","complex_dissimilar","images/stimuli/spore_stims/complex_08_B_b.gif","right","","","","",""
"","null","html-keyboard-response","110","244711","0.0-23.0-0.6","SS1613100676916","","","null","","","","","<p><img src= images/blank.png width =""200"" height = ""200"" style = ""float:right""></p><p><img src=images/blank.png width =""800"" height = ""200""></p>","","","","","","","","","","","",""
"","1826.355000000156","sequential-stimulus-presentation","111","247353","0.0-23.0-1.6","SS1613100676916","trial","","40","800","2626.355000000156","images/stimuli/spore_stims/complex_09_B_d.gif","images/stimuli/spore_stims/complex_08_B_b.gif","","","","","5","complex_dissimilar","images/stimuli/spore_stims/complex_08_B_b.gif","right","","","","",""
"","null","html-keyboard-response","112","248573","0.0-23.0-0.7","SS1613100676916","","","null","","","","","<p><img src= images/blank.png width =""200"" height = ""200"" style = ""float:right""></p><p><img src=images/blank.png width =""800"" height = ""200""></p>","","","","","","","","","","","",""
"","4229.989999999816","sequential-stimulus-presentation","113","253619","0.0-23.0-1.7","SS1613100676916","trial","","40","800","5029.989999999816","images/stimuli/spore_stims/complex_09_B_d.gif","images/stimuli/spore_stims/complex_08_B_b.gif","","","","","5","complex_dissimilar","images/stimuli/spore_stims/complex_08_B_b.gif","right","","","","",""
"","544.9999999995925","html-keyboard-response","114","254176","0.0-24.0","SS1613100676916","pref_question","","97","","","","","<video width ='960' height = '540' style='padding-top:8%' autoplay muted><source src='images/stimuli/wall_pref.mp4' type='video/mp4'></video>","1","left","25%","5","","","","","","","",""
"","2804.8349999999045","sequential-stimulus-presentation","115","257793","0.0-25.0","SS1613100676916","pref_reveal","","40","800","3604.8349999999045","null","null","","","","","5","","","","deviant","","","",""
"","null","html-keyboard-response","116","258771","0.0-26.0-0.0","SS1613100676916","","","null","","","","","<p><img src= images/blank.png width =""200"" height = ""200"" style = ""float:right""></p><p><img src=images/blank.png width =""800"" height = ""200""></p>","","","","","","","","","","","",""
"","37.34499999973923","sequential-stimulus-presentation","117","259624","0.0-26.0-1.0","SS1613100676916","trial","","40","800","837.3449999997392","images/stimuli/spore_stims/simple_07_A_a.gif","images/stimuli/spore_stims/simple_03_A_b.gif","","","","","6","simple_dissimilar","images/stimuli/spore_stims/simple_03_A_b.gif","left","","","","",""
"","null","html-keyboard-response","118","260806","0.0-26.0-0.1","SS1613100676916","","","null","","","","","<p><img src= images/blank.png width =""200"" height = ""200"" style = ""float:right""></p><p><img src=images/blank.png width =""800"" height = ""200""></p>","","","","","","","","","","","",""
"","3259.0949999998556","sequential-stimulus-presentation","119","264913","0.0-26.0-1.1","SS1613100676916","trial","","40","800","4059.0949999998556","images/stimuli/spore_stims/simple_07_A_a.gif","images/stimuli/spore_stims/simple_03_A_b.gif","","","","","6","simple_dissimilar","images/stimuli/spore_stims/simple_03_A_b.gif","left","","","","",""
"","null","html-keyboard-response","120","266052","0.0-26.0-0.2","SS1613100676916","","","null","","","","","<p><img src= images/blank.png width =""200"" height = ""200"" style = ""float:right""></p><p><img src=images/blank.png width =""800"" height = ""200""></p>","","","","","","","","","","","",""
"","3501.8749999998836","sequential-stimulus-presentation","121","270369","0.0-26.0-1.2","SS1613100676916","trial","","40","800","4301.874999999884","images/stimuli/spore_stims/simple_07_A_a.gif","images/stimuli/spore_stims/simple_03_A_b.gif","","","","","6","simple_dissimilar","images/stimuli/spore_stims/simple_03_A_b.gif","left","","","","",""
"","null","html-keyboard-response","122","271556","0.0-26.0-0.3","SS1613100676916","","","null","","","","","<p><img src= images/blank.png width =""200"" height = ""200"" style = ""float:right""></p><p><img src=images/blank.png width =""800"" height = ""200""></p>","","","","","","","","","","","",""
"","3748.749999999709","sequential-stimulus-presentation","123","276121","0.0-26.0-1.3","SS1613100676916","trial","","40","800","4548.749999999709","images/stimuli/spore_stims/simple_07_A_a.gif","images/stimuli/spore_stims/simple_03_A_b.gif","","","","","6","simple_dissimilar","images/stimuli/spore_stims/simple_03_A_b.gif","left","","","","",""
"","null","html-keyboard-response","124","277238","0.0-26.0-0.4","SS1613100676916","","","null","","","","","<p><img src= images/blank.png width =""200"" height = ""200"" style = ""float:right""></p><p><img src=images/blank.png width =""800"" height = ""200""></p>","","","","","","","","","","","",""
"","2986.1749999999884","sequential-stimulus-presentation","125","281040","0.0-26.0-1.4","SS1613100676916","trial","","40","800","3786.1749999999884","images/stimuli/spore_stims/simple_07_A_a.gif","images/stimuli/spore_stims/simple_03_A_b.gif","","","","","6","simple_dissimilar","images/stimuli/spore_stims/simple_03_A_b.gif","left","","","","",""
"","null","html-keyboard-response","126","281953","0.0-26.0-0.5","SS1613100676916","","","null","","","","","<p><img src= images/blank.png width =""200"" height = ""200"" style = ""float:right""></p><p><img src=images/blank.png width =""800"" height = ""200""></p>","","","","","","","","","","","",""
"","9.070000000065193","sequential-stimulus-presentation","127","282776","0.0-26.0-1.5","SS1613100676916","trial","","40","800","809.0700000000652","images/stimuli/spore_stims/simple_07_A_a.gif","images/stimuli/spore_stims/simple_03_A_b.gif","","","","","6","simple_dissimilar","images/stimuli/spore_stims/simple_07_A_a.gif","right","","","","",""
"","null","html-keyboard-response","128","284019","0.0-26.0-0.6","SS1613100676916","","","null","","","","","<p><img src= images/blank.png width =""200"" height = ""200"" style = ""float:right""></p><p><img src=images/blank.png width =""800"" height = ""200""></p>","","","","","","","","","","","",""
"","5487.165000000037","sequential-stimulus-presentation","129","290320","0.0-26.0-1.6","SS1613100676916","trial","","40","800","6287.165000000037","images/stimuli/spore_stims/simple_07_A_a.gif","images/stimuli/spore_stims/simple_03_A_b.gif","","","","","6","simple_dissimilar","images/stimuli/spore_stims/simple_03_A_b.gif","left","","","","",""
"","null","html-keyboard-response","130","291538","0.0-26.0-0.7","SS1613100676916","","","null","","","","","<p><img src= images/blank.png width =""200"" height = ""200"" style = ""float:right""></p><p><img src=images/blank.png width =""800"" height = ""200""></p>","","","","","","","","","","","",""
"","7494.379999999655","sequential-stimulus-presentation","131","299848","0.0-26.0-1.7","SS1613100676916","trial","","40","800","8294.379999999655","images/stimuli/spore_stims/simple_07_A_a.gif","images/stimuli/spore_stims/simple_03_A_b.gif","","","","","6","simple_dissimilar","images/stimuli/spore_stims/simple_03_A_b.gif","left","","","","",""
"","9883.01000000001","html-keyboard-response","132","309746","0.0-27.0","SS1613100676916","pref_question","","97","","","","","<video width ='960' height = '540' style='padding-top:8%' autoplay muted><source src='images/stimuli/wall_pref.mp4' type='video/mp4'></video>","1","left","25%","6","","","","","","","",""
"","3471.3649999998743","sequential-stimulus-presentation","133","314033","0.0-28.0","SS1613100676916","pref_reveal","","40","800","4271.364999999874","null","null","","","","","6","","","","background","","","",""
"","null","html-keyboard-response","134","314978","0.0-29.0-0.0","SS1613100676916","","","null","","","","","<p><img src= images/blank.png width =""200"" height = ""200"" style = ""float:right""></p><p><img src=images/blank.png width =""800"" height = ""200""></p>","","","","","","","","","","","",""
"","3636.9599999998463","sequential-stimulus-presentation","135","319545","0.0-29.0-1.0","SS1613100676916","trial","","40","800","4436.959999999846","images/stimuli/spore_stims/complex_04_A_a.gif","images/stimuli/spore_stims/complex_04_B_a.gif","","","","","7","complex_similar","images/stimuli/spore_stims/complex_04_B_a.gif","left","","","","",""
"","null","html-keyboard-response","136","320654","0.0-29.0-0.1","SS1613100676916","","","null","","","","","<p><img src= images/blank.png width =""200"" height = ""200"" style = ""float:right""></p><p><img src=images/blank.png width =""800"" height = ""200""></p>","","","","","","","","","","","",""
"","1049.5850000001956","sequential-stimulus-presentation","137","322521","0.0-29.0-1.1","SS1613100676916","trial","","40","800","1849.5850000001956","images/stimuli/spore_stims/complex_04_A_a.gif","images/stimuli/spore_stims/complex_04_B_a.gif","","","","","7","complex_similar","images/stimuli/spore_stims/complex_04_B_a.gif","left","","","","",""
"","null","html-keyboard-response","138","323382","0.0-29.0-0.2","SS1613100676916","","","null","","","","","<p><img src= images/blank.png width =""200"" height = ""200"" style = ""float:right""></p><p><img src=images/blank.png width =""800"" height = ""200""></p>","","","","","","","","","","","",""
"","3506.470000000263","sequential-stimulus-presentation","139","327705","0.0-29.0-1.2","SS1613100676916","trial","","40","800","4306.470000000263","images/stimuli/spore_stims/complex_04_A_a.gif","images/stimuli/spore_stims/complex_04_B_a.gif","","","","","7","complex_similar","images/stimuli/spore_stims/complex_04_B_a.gif","left","","","","",""
"","null","html-keyboard-response","140","328657","0.0-29.0-0.3","SS1613100676916","","","null","","","","","<p><img src= images/blank.png width =""200"" height = ""200"" style = ""float:right""></p><p><img src=images/blank.png width =""800"" height = ""200""></p>","","","","","","","","","","","",""
"","1663.2500000000582","sequential-stimulus-presentation","141","331137","0.0-29.0-1.3","SS1613100676916","trial","","40","800","2463.250000000058","images/stimuli/spore_stims/complex_04_A_a.gif","images/stimuli/spore_stims/complex_04_B_a.gif","","","","","7","complex_similar","images/stimuli/spore_stims/complex_04_B_a.gif","left","","","","",""
"","null","html-keyboard-response","142","332386","0.0-29.0-0.4","SS1613100676916","","","null","","","","","<p><img src= images/blank.png width =""200"" height = ""200"" style = ""float:right""></p><p><img src=images/blank.png width =""800"" height = ""200""></p>","","","","","","","","","","","",""
"","1926.5500000001048","sequential-stimulus-presentation","143","335128","0.0-29.0-1.4","SS1613100676916","trial","","40","800","2726.550000000105","images/stimuli/spore_stims/complex_04_A_a.gif","images/stimuli/spore_stims/complex_04_B_a.gif","","","","","7","complex_similar","images/stimuli/spore_stims/complex_04_A_a.gif","middle","","","","",""
"","null","html-keyboard-response","144","336034","0.0-29.0-0.5","SS1613100676916","","","null","","","","","<p><img src= images/blank.png width =""200"" height = ""200"" style = ""float:right""></p><p><img src=images/blank.png width =""800"" height = ""200""></p>","","","","","","","","","","","",""
"","2134.82500000007","sequential-stimulus-presentation","145","338984","0.0-29.0-1.5","SS1613100676916","trial","","40","800","2934.82500000007","images/stimuli/spore_stims/complex_04_A_a.gif","images/stimuli/spore_stims/complex_04_B_a.gif","","","","","7","complex_similar","images/stimuli/spore_stims/complex_04_B_a.gif","left","","","","",""
"","null","html-keyboard-response","146","339940","0.0-29.0-0.6","SS1613100676916","","","null","","","","","<p><img src= images/blank.png width =""200"" height = ""200"" style = ""float:right""></p><p><img src=images/blank.png width =""800"" height = ""200""></p>","","","","","","","","","","","",""
"","3139.020000000077","sequential-stimulus-presentation","147","343897","0.0-29.0-1.6","SS1613100676916","trial","","40","800","3939.020000000077","images/stimuli/spore_stims/complex_04_A_a.gif","images/stimuli/spore_stims/complex_04_B_a.gif","","","","","7","complex_similar","images/stimuli/spore_stims/complex_04_B_a.gif","left","","","","",""
"","null","html-keyboard-response","148","345205","0.0-29.0-0.7","SS1613100676916","","","null","","","","","<p><img src= images/blank.png width =""200"" height = ""200"" style = ""float:right""></p><p><img src=images/blank.png width =""800"" height = ""200""></p>","","","","","","","","","","","",""
"","2338.049999999872","sequential-stimulus-presentation","149","348360","0.0-29.0-1.7","SS1613100676916","trial","","40","800","3138.049999999872","images/stimuli/spore_stims/complex_04_A_a.gif","images/stimuli/spore_stims/complex_04_B_a.gif","","","","","7","complex_similar","images/stimuli/spore_stims/complex_04_B_a.gif","left","","","","",""
"","2720.1500000001397","html-keyboard-response","150","351096","0.0-30.0","SS1613100676916","pref_question","","97","","","","","<video width ='960' height = '540' style='padding-top:8%' autoplay muted><source src='images/stimuli/wall_pref.mp4' type='video/mp4'></video>","1","left","25%","7","","","","","","","",""
"","913.7050000003655","sequential-stimulus-presentation","151","352824","0.0-31.0","SS1613100676916","pref_reveal","","40","800","1713.7050000003655","null","null","","","","","7","","","","background","","","",""
"","null","html-keyboard-response","152","354046","0.0-32.0-0.0","SS1613100676916","","","null","","","","","<p><img src= images/blank.png width =""200"" height = ""200"" style = ""float:right""></p><p><img src=images/blank.png width =""800"" height = ""200""></p>","","","","","","","","","","","",""
"","176.19500000000698","sequential-stimulus-presentation","153","355039","0.0-32.0-1.0","SS1613100676916","trial","","40","800","976.195000000007","images/stimuli/spore_stims/complex_18_A_c.gif","images/stimuli/spore_stims/complex_18_B_c.gif","","","","","8","complex_similar","images/stimuli/spore_stims/complex_18_B_c.gif","middle","","","","",""
"","null","html-keyboard-response","154","356099","0.0-32.0-0.1","SS1613100676916","","","null","","","","","<p><img src= images/blank.png width =""200"" height = ""200"" style = ""float:right""></p><p><img src=images/blank.png width =""800"" height = ""200""></p>","","","","","","","","","","","",""
"","2342.1250000001164","sequential-stimulus-presentation","155","359257","0.0-32.0-1.1","SS1613100676916","trial","","40","800","3142.1250000001164","images/stimuli/spore_stims/complex_18_A_c.gif","images/stimuli/spore_stims/complex_18_B_c.gif","","","","","8","complex_similar","images/stimuli/spore_stims/complex_18_B_c.gif","middle","","","","",""
"","null","html-keyboard-response","156","360424","0.0-32.0-0.2","SS1613100676916","","","null","","","","","<p><img src= images/blank.png width =""200"" height = ""200"" style = ""float:right""></p><p><img src=images/blank.png width =""800"" height = ""200""></p>","","","","","","","","","","","",""
"","159.59000000020023","sequential-stimulus-presentation","157","361399","0.0-32.0-1.2","SS1613100676916","trial","","40","800","959.5900000002002","images/stimuli/spore_stims/complex_18_A_c.gif","images/stimuli/spore_stims/complex_18_B_c.gif","","","","","8","complex_similar","images/stimuli/spore_stims/complex_18_B_c.gif","middle","","","","",""
"","null","html-keyboard-response","158","362251","0.0-32.0-0.3","SS1613100676916","","","null","","","","","<p><img src= images/blank.png width =""200"" height = ""200"" style = ""float:right""></p><p><img src=images/blank.png width =""800"" height = ""200""></p>","","","","","","","","","","","",""
"","3548.934999999765","sequential-stimulus-presentation","159","366616","0.0-32.0-1.3","SS1613100676916","trial","","40","800","4348.934999999765","images/stimuli/spore_stims/complex_18_A_c.gif","images/stimuli/spore_stims/complex_18_B_c.gif","","","","","8","complex_similar","images/stimuli/spore_stims/complex_18_A_c.gif","left","","","","",""
"","null","html-keyboard-response","160","367924","0.0-32.0-0.4","SS1613100676916","","","null","","","","","<p><img src= images/blank.png width =""200"" height = ""200"" style = ""float:right""></p><p><img src=images/blank.png width =""800"" height = ""200""></p>","","","","","","","","","","","",""
"","144.12499999982538","sequential-stimulus-presentation","161","368888","0.0-32.0-1.4","SS1613100676916","trial","","40","800","944.1249999998254","images/stimuli/spore_stims/complex_18_A_c.gif","images/stimuli/spore_stims/complex_18_B_c.gif","","","","","8","complex_similar","images/stimuli/spore_stims/complex_18_B_c.gif","middle","","","","",""
"","null","html-keyboard-response","162","370092","0.0-32.0-0.5","SS1613100676916","","","null","","","","","<p><img src= images/blank.png width =""200"" height = ""200"" style = ""float:right""></p><p><img src=images/blank.png width =""800"" height = ""200""></p>","","","","","","","","","","","",""
"","2954.9149999998044","sequential-stimulus-presentation","163","373864","0.0-32.0-1.5","SS1613100676916","trial","","40","800","3754.9149999998044","images/stimuli/spore_stims/complex_18_A_c.gif","images/stimuli/spore_stims/complex_18_B_c.gif","","","","","8","complex_similar","images/stimuli/spore_stims/complex_18_B_c.gif","middle","","","","",""
"","null","html-keyboard-response","164","374829","0.0-32.0-0.6","SS1613100676916","","","null","","","","","<p><img src= images/blank.png width =""200"" height = ""200"" style = ""float:right""></p><p><img src=images/blank.png width =""800"" height = ""200""></p>","","","","","","","","","","","",""
"","2963.850000000093","sequential-stimulus-presentation","165","378610","0.0-32.0-1.6","SS1613100676916","trial","","40","800","3763.850000000093","images/stimuli/spore_stims/complex_18_A_c.gif","images/stimuli/spore_stims/complex_18_B_c.gif","","","","","8","complex_similar","images/stimuli/spore_stims/complex_18_B_c.gif","middle","","","","",""
"","null","html-keyboard-response","166","379711","0.0-32.0-0.7","SS1613100676916","","","null","","","","","<p><img src= images/blank.png width =""200"" height = ""200"" style = ""float:right""></p><p><img src=images/blank.png width =""800"" height = ""200""></p>","","","","","","","","","","","",""
"","2999.559999999765","sequential-stimulus-presentation","167","383528","0.0-32.0-1.7","SS1613100676916","trial","","40","800","3799.559999999765","images/stimuli/spore_stims/complex_18_A_c.gif","images/stimuli/spore_stims/complex_18_B_c.gif","","","","","8","complex_similar","images/stimuli/spore_stims/complex_18_B_c.gif","middle","","","","",""
"","2686.9950000000536","html-keyboard-response","168","386224","0.0-33.0","SS1613100676916","pref_question","","98","","","","","<video width ='960' height = '540' style='padding-top:8%' autoplay muted><source src='images/stimuli/wall_pref.mp4' type='video/mp4'></video>","2","middle","45%","8","","","","","","","",""
"","3589.455000000249","sequential-stimulus-presentation","169","390632","0.0-34.0","SS1613100676916","pref_reveal","","40","800","4389.455000000249","null","null","","","","","8","","","","background","","","",""
"","null","html-keyboard-response","170","391617","0.0-35.0-0.0","SS1613100676916","","","null","","","","","<p><img src= images/blank.png width =""200"" height = ""200"" style = ""float:right""></p><p><img src=images/blank.png width =""800"" height = ""200""></p>","","","","","","","","","","","",""
"","3611.034999999916","sequential-stimulus-presentation","171","396048","0.0-35.0-1.0","SS1613100676916","trial","","40","800","4411.034999999916","images/stimuli/spore_stims/complex_04_A_a.gif","images/stimuli/spore_stims/complex_13_B_d.gif","","","","","9","complex_dissimilar","images/stimuli/spore_stims/complex_13_B_d.gif","left","","","","",""
"","null","html-keyboard-response","172","396935","0.0-35.0-0.1","SS1613100676916","","","null","","","","","<p><img src= images/blank.png width =""200"" height = ""200"" style = ""float:right""></p><p><img src=images/blank.png width =""800"" height = ""200""></p>","","","","","","","","","","","",""
"","3743.349999999744","sequential-stimulus-presentation","173","401497","0.0-35.0-1.1","SS1613100676916","trial","","40","800","4543.349999999744","images/stimuli/spore_stims/complex_04_A_a.gif","images/stimuli/spore_stims/complex_13_B_d.gif","","","","","9","complex_dissimilar","images/stimuli/spore_stims/complex_13_B_d.gif","left","","","","",""
"","null","html-keyboard-response","174","402355","0.0-35.0-0.2","SS1613100676916","","","null","","","","","<p><img src= images/blank.png width =""200"" height = ""200"" style = ""float:right""></p><p><img src=images/blank.png width =""800"" height = ""200""></p>","","","","","","","","","","","",""
"","1427.5400000000955","sequential-stimulus-presentation","175","404600","0.0-35.0-1.2","SS1613100676916","trial","","40","800","2227.5400000000955","images/stimuli/spore_stims/complex_04_A_a.gif","images/stimuli/spore_stims/complex_13_B_d.gif","","","","","9","complex_dissimilar","images/stimuli/spore_stims/complex_13_B_d.gif","left","","","","",""
"","null","html-keyboard-response","176","405868","0.0-35.0-0.3","SS1613100676916","","","null","","","","","<p><img src= images/blank.png width =""200"" height = ""200"" style = ""float:right""></p><p><img src=images/blank.png width =""800"" height = ""200""></p>","","","","","","","","","","","",""
"","25.90000000008149","sequential-stimulus-presentation","177","406712","0.0-35.0-1.3","SS1613100676916","trial","","40","800","825.9000000000815","images/stimuli/spore_stims/complex_04_A_a.gif","images/stimuli/spore_stims/complex_13_B_d.gif","","","","","9","complex_dissimilar","images/stimuli/spore_stims/complex_13_B_d.gif","left","","","","",""
"","null","html-keyboard-response","178","408014","0.0-35.0-0.4","SS1613100676916","","","null","","","","","<p><img src= images/blank.png width =""200"" height = ""200"" style = ""float:right""></p><p><img src=images/blank.png width =""800"" height = ""200""></p>","","","","","","","","","","","",""
"","897.9599999997881","sequential-stimulus-presentation","179","409728","0.0-35.0-1.4","SS1613100676916","trial","","40","800","1697.9599999997881","images/stimuli/spore_stims/complex_04_A_a.gif","images/stimuli/spore_stims/complex_13_B_d.gif","","","","","9","complex_dissimilar","images/stimuli/spore_stims/complex_04_A_a.gif","right","","","","",""
"","null","html-keyboard-response","180","411021","0.0-35.0-0.5","SS1613100676916","","","null","","","","","<p><img src= images/blank.png width =""200"" height = ""200"" style = ""float:right""></p><p><img src=images/blank.png width =""800"" height = ""200""></p>","","","","","","","","","","","",""
"","1944.9599999998463","sequential-stimulus-presentation","181","413784","0.0-35.0-1.5","SS1613100676916","trial","","40","800","2744.9599999998463","images/stimuli/spore_stims/complex_04_A_a.gif","images/stimuli/spore_stims/complex_13_B_d.gif","","","","","9","complex_dissimilar","images/stimuli/spore_stims/complex_13_B_d.gif","left","","","","",""
"","null","html-keyboard-response","182","414950","0.0-35.0-0.6","SS1613100676916","","","null","","","","","<p><img src= images/blank.png width =""200"" height = ""200"" style = ""float:right""></p><p><img src=images/blank.png width =""800"" height = ""200""></p>","","","","","","","","","","","",""
"","118.67500000016298","sequential-stimulus-presentation","183","415888","0.0-35.0-1.6","SS1613100676916","trial","","40","800","918.675000000163","images/stimuli/spore_stims/complex_04_A_a.gif","images/stimuli/spore_stims/complex_13_B_d.gif","","","","","9","complex_dissimilar","images/stimuli/spore_stims/complex_13_B_d.gif","left","","","","",""
"","null","html-keyboard-response","184","416955","0.0-35.0-0.7","SS1613100676916","","","null","","","","","<p><img src= images/blank.png width =""200"" height = ""200"" style = ""float:right""></p><p><img src=images/blank.png width =""800"" height = ""200""></p>","","","","","","","","","","","",""
"","1342.4800000002724","sequential-stimulus-presentation","185","419111","0.0-35.0-1.7","SS1613100676916","trial","","40","800","2142.4800000002724","images/stimuli/spore_stims/complex_04_A_a.gif","images/stimuli/spore_stims/complex_13_B_d.gif","","","","","9","complex_dissimilar","images/stimuli/spore_stims/complex_13_B_d.gif","left","","","","",""
"","2151.760000000184","html-keyboard-response","186","421280","0.0-36.0","SS1613100676916","pref_question","","97","","","","","<video width ='960' height = '540' style='padding-top:8%' autoplay muted><source src='images/stimuli/wall_pref.mp4' type='video/mp4'></video>","1","left","25%","9","","","","","","","",""
"","500.960000000312","sequential-stimulus-presentation","187","422600","0.0-37.0","SS1613100676916","pref_reveal","","40","800","1300.960000000312","null","null","","","","","9","","","","background","","","",""
"","null","html-keyboard-response","188","423528","0.0-38.0-0.0","SS1613100676916","","","null","","","","","<p><img src= images/blank.png width =""200"" height = ""200"" style = ""float:right""></p><p><img src=images/blank.png width =""800"" height = ""200""></p>","","","","","","","","","","","",""
"","2347.5549999998184","sequential-stimulus-presentation","189","426695","0.0-38.0-1.0","SS1613100676916","trial","","40","800","3147.5549999998184","images/stimuli/spore_stims/simple_15_B_d.gif","images/stimuli/spore_stims/simple_15_A_d.gif","","","","","10","simple_similar","images/stimuli/spore_stims/simple_15_A_d.gif","middle","","","","",""
"","null","html-keyboard-response","190","427676","0.0-38.0-0.1","SS1613100676916","","","null","","","","","<p><img src= images/blank.png width =""200"" height = ""200"" style = ""float:right""></p><p><img src=images/blank.png width =""800"" height = ""200""></p>","","","","","","","","","","","",""
"","1911.2350000000442","sequential-stimulus-presentation","191","430407","0.0-38.0-1.1","SS1613100676916","trial","","40","800","2711.2350000000442","images/stimuli/spore_stims/simple_15_B_d.gif","images/stimuli/spore_stims/simple_15_A_d.gif","","","","","10","simple_similar","images/stimuli/spore_stims/simple_15_A_d.gif","middle","","","","",""
"","null","html-keyboard-response","192","431361","0.0-38.0-0.2","SS1613100676916","","","null","","","","","<p><img src= images/blank.png width =""200"" height = ""200"" style = ""float:right""></p><p><img src=images/blank.png width =""800"" height = ""200""></p>","","","","","","","","","","","",""
"","3130.9400000000023","sequential-stimulus-presentation","193","435312","0.0-38.0-1.2","SS1613100676916","trial","","40","800","3930.9400000000023","images/stimuli/spore_stims/simple_15_B_d.gif","images/stimuli/spore_stims/simple_15_A_d.gif","","","","","10","simple_similar","images/stimuli/spore_stims/simple_15_A_d.gif","middle","","","","",""
"","null","html-keyboard-response","194","436436","0.0-38.0-0.3","SS1613100676916","","","null","","","","","<p><img src= images/blank.png width =""200"" height = ""200"" style = ""float:right""></p><p><img src=images/blank.png width =""800"" height = ""200""></p>","","","","","","","","","","","",""
"","1113.274999999674","sequential-stimulus-presentation","195","438367","0.0-38.0-1.3","SS1613100676916","trial","","40","800","1913.274999999674","images/stimuli/spore_stims/simple_15_B_d.gif","images/stimuli/spore_stims/simple_15_A_d.gif","","","","","10","simple_similar","images/stimuli/spore_stims/simple_15_A_d.gif","middle","","","","",""
"","null","html-keyboard-response","196","439389","0.0-38.0-0.4","SS1613100676916","","","null","","","","","<p><img src= images/blank.png width =""200"" height = ""200"" style = ""float:right""></p><p><img src=images/blank.png width =""800"" height = ""200""></p>","","","","","","","","","","","",""
"","1748.7750000000233","sequential-stimulus-presentation","197","441991","0.0-38.0-1.4","SS1613100676916","trial","","40","800","2548.7750000000233","images/stimuli/spore_stims/simple_15_B_d.gif","images/stimuli/spore_stims/simple_15_A_d.gif","","","","","10","simple_similar","images/stimuli/spore_stims/simple_15_A_d.gif","middle","","","","",""
"","null","html-keyboard-response","198","443217","0.0-38.0-0.5","SS1613100676916","","","null","","","","","<p><img src= images/blank.png width =""200"" height = ""200"" style = ""float:right""></p><p><img src=images/blank.png width =""800"" height = ""200""></p>","","","","","","","","","","","",""
"","1747.5650000001187","sequential-stimulus-presentation","199","445783","0.0-38.0-1.5","SS1613100676916","trial","","40","800","2547.5650000001187","images/stimuli/spore_stims/simple_15_B_d.gif","images/stimuli/spore_stims/simple_15_A_d.gif","","","","","10","simple_similar","images/stimuli/spore_stims/simple_15_A_d.gif","middle","","","","",""
"","null","html-keyboard-response","200","446781","0.0-38.0-0.6","SS1613100676916","","","null","","","","","<p><img src= images/blank.png width =""200"" height = ""200"" style = ""float:right""></p><p><img src=images/blank.png width =""800"" height = ""200""></p>","","","","","","","","","","","",""
"","1662.5100000000675","sequential-stimulus-presentation","201","449263","0.0-38.0-1.6","SS1613100676916","trial","","40","800","2462.5100000000675","images/stimuli/spore_stims/simple_15_B_d.gif","images/stimuli/spore_stims/simple_15_A_d.gif","","","","","10","simple_similar","images/stimuli/spore_stims/simple_15_B_d.gif","left","","","","",""
"","null","html-keyboard-response","202","450262","0.0-38.0-0.7","SS1613100676916","","","null","","","","","<p><img src= images/blank.png width =""200"" height = ""200"" style = ""float:right""></p><p><img src=images/blank.png width =""800"" height = ""200""></p>","","","","","","","","","","","",""
"","3909.1300000000047","sequential-stimulus-presentation","203","454991","0.0-38.0-1.7","SS1613100676916","trial","","40","800","4709.130000000005","images/stimuli/spore_stims/simple_15_B_d.gif","images/stimuli/spore_stims/simple_15_A_d.gif","","","","","10","simple_similar","images/stimuli/spore_stims/simple_15_A_d.gif","middle","","","","",""
"","4964.190000000119","html-keyboard-response","204","459967","0.0-39.0","SS1613100676916","pref_question","","98","","","","","<video width ='960' height = '540' style='padding-top:8%' autoplay muted><source src='images/stimuli/wall_pref.mp4' type='video/mp4'></video>","2","middle","45%","10","","","","","","","",""
"","3850.0500000000466","sequential-stimulus-presentation","205","464638","0.0-40.0","SS1613100676916","pref_reveal","","40","800","4650.050000000047","null","null","","","","","10","","","","background","","","",""
"","null","html-keyboard-response","206","465619","0.0-41.0-0.0","SS1613100676916","","","null","","","","","<p><img src= images/blank.png width =""200"" height = ""200"" style = ""float:right""></p><p><img src=images/blank.png width =""800"" height = ""200""></p>","","","","","","","","","","","",""
"","2412.7249999996857","sequential-stimulus-presentation","207","468856","0.0-41.0-1.0","SS1613100676916","trial","","40","800","3212.7249999996857","images/stimuli/spore_stims/complex_19_A_d.gif","images/stimuli/spore_stims/complex_19_B_d.gif","","","","","11","complex_similar","images/stimuli/spore_stims/complex_19_B_d.gif","left","","","","",""
"","null","html-keyboard-response","208","469844","0.0-41.0-0.1","SS1613100676916","","","null","","","","","<p><img src= images/blank.png width =""200"" height = ""200"" style = ""float:right""></p><p><img src=images/blank.png width =""800"" height = ""200""></p>","","","","","","","","","","","",""
"","4229.99500000017","sequential-stimulus-presentation","209","474895","0.0-41.0-1.1","SS1613100676916","trial","","40","800","5029.99500000017","images/stimuli/spore_stims/complex_19_A_d.gif","images/stimuli/spore_stims/complex_19_B_d.gif","","","","","11","complex_similar","images/stimuli/spore_stims/complex_19_B_d.gif","left","","","","",""
"","null","html-keyboard-response","210","475720","0.0-41.0-0.2","SS1613100676916","","","null","","","","","<p><img src= images/blank.png width =""200"" height = ""200"" style = ""float:right""></p><p><img src=images/blank.png width =""800"" height = ""200""></p>","","","","","","","","","","","",""
"","2698.3599999998696","sequential-stimulus-presentation","211","479240","0.0-41.0-1.2","SS1613100676916","trial","","40","800","3498.3599999998696","images/stimuli/spore_stims/complex_19_A_d.gif","images/stimuli/spore_stims/complex_19_B_d.gif","","","","","11","complex_similar","images/stimuli/spore_stims/complex_19_B_d.gif","left","","","","",""
"","null","html-keyboard-response","212","480190","0.0-41.0-0.3","SS1613100676916","","","null","","","","","<p><img src= images/blank.png width =""200"" height = ""200"" style = ""float:right""></p><p><img src=images/blank.png width =""800"" height = ""200""></p>","","","","","","","","","","","",""
"","1907.3850000000093","sequential-stimulus-presentation","213","482919","0.0-41.0-1.3","SS1613100676916","trial","","40","800","2707.3850000000093","images/stimuli/spore_stims/complex_19_A_d.gif","images/stimuli/spore_stims/complex_19_B_d.gif","","","","","11","complex_similar","images/stimuli/spore_stims/complex_19_B_d.gif","left","","","","",""
"","null","html-keyboard-response","214","483782","0.0-41.0-0.4","SS1613100676916","","","null","","","","","<p><img src= images/blank.png width =""200"" height = ""200"" style = ""float:right""></p><p><img src=images/blank.png width =""800"" height = ""200""></p>","","","","","","","","","","","",""
"","2363.7850000000326","sequential-stimulus-presentation","215","486966","0.0-41.0-1.4","SS1613100676916","trial","","40","800","3163.7850000000326","images/stimuli/spore_stims/complex_19_A_d.gif","images/stimuli/spore_stims/complex_19_B_d.gif","","","","","11","complex_similar","images/stimuli/spore_stims/complex_19_B_d.gif","left","","","","",""
"","null","html-keyboard-response","216","488015","0.0-41.0-0.5","SS1613100676916","","","null","","","","","<p><img src= images/blank.png width =""200"" height = ""200"" style = ""float:right""></p><p><img src=images/blank.png width =""800"" height = ""200""></p>","","","","","","","","","","","",""
"","1379.6849999999395","sequential-stimulus-presentation","217","490217","0.0-41.0-1.5","SS1613100676916","trial","","40","800","2179.6849999999395","images/stimuli/spore_stims/complex_19_A_d.gif","images/stimuli/spore_stims/complex_19_B_d.gif","","","","","11","complex_similar","images/stimuli/spore_stims/complex_19_A_d.gif","right","","","","",""
"","null","html-keyboard-response","218","491306","0.0-41.0-0.6","SS1613100676916","","","null","","","","","<p><img src= images/blank.png width =""200"" height = ""200"" style = ""float:right""></p><p><img src=images/blank.png width =""800"" height = ""200""></p>","","","","","","","","","","","",""
"","2289.775000000256","sequential-stimulus-presentation","219","494416","0.0-41.0-1.6","SS1613100676916","trial","","40","800","3089.775000000256","images/stimuli/spore_stims/complex_19_A_d.gif","images/stimuli/spore_stims/complex_19_B_d.gif","","","","","11","complex_similar","images/stimuli/spore_stims/complex_19_B_d.gif","left","","","","",""
"","null","html-keyboard-response","220","495524","0.0-41.0-0.7","SS1613100676916","","","null","","","","","<p><img src= images/blank.png width =""200"" height = ""200"" style = ""float:right""></p><p><img src=images/blank.png width =""800"" height = ""200""></p>","","","","","","","","","","","",""
"","2551.2450000001118","sequential-stimulus-presentation","221","498895","0.0-41.0-1.7","SS1613100676916","trial","","40","800","3351.2450000001118","images/stimuli/spore_stims/complex_19_A_d.gif","images/stimuli/spore_stims/complex_19_B_d.gif","","","","","11","complex_similar","images/stimuli/spore_stims/complex_19_B_d.gif","left","","","","",""
"","2022.3100000002887","html-keyboard-response","222","500936","0.0-42.0","SS1613100676916","pref_question","","97","","","","","<video width ='960' height = '540' style='padding-top:8%' autoplay muted><source src='images/stimuli/wall_pref.mp4' type='video/mp4'></video>","1","left","25%","11","","","","","","","",""
"","1539.0699999998324","sequential-stimulus-presentation","223","503296","0.0-43.0","SS1613100676916","pref_reveal","","40","800","2339.0699999998324","null","null","","","","","11","","","","background","","","",""
"","null","html-keyboard-response","224","504360","0.0-44.0-0.0","SS1613100676916","","","null","","","","","<p><img src= images/blank.png width =""200"" height = ""200"" style = ""float:right""></p><p><img src=images/blank.png width =""800"" height = ""200""></p>","","","","","","","","","","","",""
"","2403.8999999997905","sequential-stimulus-presentation","225","507583","0.0-44.0-1.0","SS1613100676916","trial","","40","800","3203.8999999997905","images/stimuli/spore_stims/complex_20_B_c.gif","images/stimuli/spore_stims/complex_15_A_a.gif","","","","","12","complex_dissimilar","images/stimuli/spore_stims/complex_15_A_a.gif","right","","","","",""
"","null","html-keyboard-response","226","508846","0.0-44.0-0.1","SS1613100676916","","","null","","","","","<p><img src= images/blank.png width =""200"" height = ""200"" style = ""float:right""></p><p><img src=images/blank.png width =""800"" height = ""200""></p>","","","","","","","","","","","",""
"","3223.4449999995995","sequential-stimulus-presentation","227","512888","0.0-44.0-1.1","SS1613100676916","trial","","40","800","4023.4449999995995","images/stimuli/spore_stims/complex_20_B_c.gif","images/stimuli/spore_stims/complex_15_A_a.gif","","","","","12","complex_dissimilar","images/stimuli/spore_stims/complex_15_A_a.gif","right","","","","",""
"","null","html-keyboard-response","228","513775","0.0-44.0-0.2","SS1613100676916","","","null","","","","","<p><img src= images/blank.png width =""200"" height = ""200"" style = ""float:right""></p><p><img src=images/blank.png width =""800"" height = ""200""></p>","","","","","","","","","","","",""
"","2009.1849999999395","sequential-stimulus-presentation","229","516607","0.0-44.0-1.2","SS1613100676916","trial","","40","800","2809.1849999999395","images/stimuli/spore_stims/complex_20_B_c.gif","images/stimuli/spore_stims/complex_15_A_a.gif","","","","","12","complex_dissimilar","images/stimuli/spore_stims/complex_15_A_a.gif","right","","","","",""
"","null","html-keyboard-response","230","517627","0.0-44.0-0.3","SS1613100676916","","","null","","","","","<p><img src= images/blank.png width =""200"" height = ""200"" style = ""float:right""></p><p><img src=images/blank.png width =""800"" height = ""200""></p>","","","","","","","","","","","",""
"","1843.2550000002375","sequential-stimulus-presentation","231","520295","0.0-44.0-1.3","SS1613100676916","trial","","40","800","2643.2550000002375","images/stimuli/spore_stims/complex_20_B_c.gif","images/stimuli/spore_stims/complex_15_A_a.gif","","","","","12","complex_dissimilar","images/stimuli/spore_stims/complex_15_A_a.gif","right","","","","",""
"","null","html-keyboard-response","232","521437","0.0-44.0-0.4","SS1613100676916","","","null","","","","","<p><img src= images/blank.png width =""200"" height = ""200"" style = ""float:right""></p><p><img src=images/blank.png width =""800"" height = ""200""></p>","","","","","","","","","","","",""
"","3880.5750000001863","sequential-stimulus-presentation","233","526143","0.0-44.0-1.4","SS1613100676916","trial","","40","800","4680.575000000186","images/stimuli/spore_stims/complex_20_B_c.gif","images/stimuli/spore_stims/complex_15_A_a.gif","","","","","12","complex_dissimilar","images/stimuli/spore_stims/complex_20_B_c.gif","middle","","","","",""
"","null","html-keyboard-response","234","527356","0.0-44.0-0.5","SS1613100676916","","","null","","","","","<p><img src= images/blank.png width =""200"" height = ""200"" style = ""float:right""></p><p><img src=images/blank.png width =""800"" height = ""200""></p>","","","","","","","","","","","",""
"","1777.175000000163","sequential-stimulus-presentation","235","529959","0.0-44.0-1.5","SS1613100676916","trial","","40","800","2577.175000000163","images/stimuli/spore_stims/complex_20_B_c.gif","images/stimuli/spore_stims/complex_15_A_a.gif","","","","","12","complex_dissimilar","images/stimuli/spore_stims/complex_15_A_a.gif","right","","","","",""
"","null","html-keyboard-response","236","531072","0.0-44.0-0.6","SS1613100676916","","","null","","","","","<p><img src= images/blank.png width =""200"" height = ""200"" style = ""float:right""></p><p><img src=images/blank.png width =""800"" height = ""200""></p>","","","","","","","","","","","",""
"","1601.990000000107","sequential-stimulus-presentation","237","533495","0.0-44.0-1.6","SS1613100676916","trial","","40","800","2401.990000000107","images/stimuli/spore_stims/complex_20_B_c.gif","images/stimuli/spore_stims/complex_15_A_a.gif","","","","","12","complex_dissimilar","images/stimuli/spore_stims/complex_15_A_a.gif","right","","","","",""
"","null","html-keyboard-response","238","534702","0.0-44.0-0.7","SS1613100676916","","","null","","","","","<p><img src= images/blank.png width =""200"" height = ""200"" style = ""float:right""></p><p><img src=images/blank.png width =""800"" height = ""200""></p>","","","","","","","","","","","",""
"","1676.7299999997485","sequential-stimulus-presentation","239","537200","0.0-44.0-1.7","SS1613100676916","trial","","40","800","2476.7299999997485","images/stimuli/spore_stims/complex_20_B_c.gif","images/stimuli/spore_stims/complex_15_A_a.gif","","","","","12","complex_dissimilar","images/stimuli/spore_stims/complex_15_A_a.gif","right","","","","",""
"","1988.5250000002561","html-keyboard-response","240","539206","0.0-45.0","SS1613100676916","pref_question","","98","","","","","<video width ='960' height = '540' style='padding-top:8%' autoplay muted><source src='images/stimuli/wall_pref.mp4' type='video/mp4'></video>","2","middle","45%","12","","","","","","","",""
"","1182.2499999998836","sequential-stimulus-presentation","241","541198","0.0-46.0","SS1613100676916","pref_reveal","","40","800","1982.2499999998836","null","null","","","","","12","","","","deviant","","","",""
"","null","html-keyboard-response","242","542360","0.0-47.0-0.0","SS1613100676916","","","null","","","","","<p><img src= images/blank.png width =""200"" height = ""200"" style = ""float:right""></p><p><img src=images/blank.png width =""800"" height = ""200""></p>","","","","","","","","","","","",""
"","2056.3950000000186","sequential-stimulus-presentation","243","545239","0.0-47.0-1.0","SS1613100676916","trial","","40","800","2856.3950000000186","images/stimuli/spore_stims/complex_20_A_b.gif","images/stimuli/spore_stims/complex_02_A_d.gif","","","","","13","complex_dissimilar","images/stimuli/spore_stims/complex_02_A_d.gif","right","","","","",""
"","null","html-keyboard-response","244","546483","0.0-47.0-0.1","SS1613100676916","","","null","","","","","<p><img src= images/blank.png width =""200"" height = ""200"" style = ""float:right""></p><p><img src=images/blank.png width =""800"" height = ""200""></p>","","","","","","","","","","","",""
"","23.174999999813735","sequential-stimulus-presentation","245","547328","0.0-47.0-1.1","SS1613100676916","trial","","40","800","823.1749999998137","images/stimuli/spore_stims/complex_20_A_b.gif","images/stimuli/spore_stims/complex_02_A_d.gif","","","","","13","complex_dissimilar","images/stimuli/spore_stims/complex_02_A_d.gif","right","","","","",""
"","null","html-keyboard-response","246","548248","0.0-47.0-0.2","SS1613100676916","","","null","","","","","<p><img src= images/blank.png width =""200"" height = ""200"" style = ""float:right""></p><p><img src=images/blank.png width =""800"" height = ""200""></p>","","","","","","","","","","","",""
"","989.0600000002887","sequential-stimulus-presentation","247","550055","0.0-47.0-1.2","SS1613100676916","trial","","40","800","1789.0600000002887","images/stimuli/spore_stims/complex_20_A_b.gif","images/stimuli/spore_stims/complex_02_A_d.gif","","","","","13","complex_dissimilar","images/stimuli/spore_stims/complex_02_A_d.gif","right","","","","",""
"","null","html-keyboard-response","248","551368","0.0-47.0-0.3","SS1613100676916","","","null","","","","","<p><img src= images/blank.png width =""200"" height = ""200"" style = ""float:right""></p><p><img src=images/blank.png width =""800"" height = ""200""></p>","","","","","","","","","","","",""
"","426.88500000035856","sequential-stimulus-presentation","249","552614","0.0-47.0-1.3","SS1613100676916","trial","","40","800","1226.8850000003586","images/stimuli/spore_stims/complex_20_A_b.gif","images/stimuli/spore_stims/complex_02_A_d.gif","","","","","13","complex_dissimilar","images/stimuli/spore_stims/complex_02_A_d.gif","right","","","","",""
"","null","html-keyboard-response","250","553557","0.0-47.0-0.4","SS1613100676916","","","null","","","","","<p><img src= images/blank.png width =""200"" height = ""200"" style = ""float:right""></p><p><img src=images/blank.png width =""800"" height = ""200""></p>","","","","","","","","","","","",""
"","987.7200000000885","sequential-stimulus-presentation","251","555366","0.0-47.0-1.4","SS1613100676916","trial","","40","800","1787.7200000000885","images/stimuli/spore_stims/complex_20_A_b.gif","images/stimuli/spore_stims/complex_02_A_d.gif","","","","","13","complex_dissimilar","images/stimuli/spore_stims/complex_20_A_b.gif","left","","","","",""
"","null","html-keyboard-response","252","556650","0.0-47.0-0.5","SS1613100676916","","","null","","","","","<p><img src= images/blank.png width =""200"" height = ""200"" style = ""float:right""></p><p><img src=images/blank.png width =""800"" height = ""200""></p>","","","","","","","","","","","",""
"","3151.4299999998184","sequential-stimulus-presentation","253","560622","0.0-47.0-1.5","SS1613100676916","trial","","40","800","3951.4299999998184","images/stimuli/spore_stims/complex_20_A_b.gif","images/stimuli/spore_stims/complex_02_A_d.gif","","","","","13","complex_dissimilar","images/stimuli/spore_stims/complex_02_A_d.gif","right","","","","",""
"","null","html-keyboard-response","254","561740","0.0-47.0-0.6","SS1613100676916","","","null","","","","","<p><img src= images/blank.png width =""200"" height = ""200"" style = ""float:right""></p><p><img src=images/blank.png width =""800"" height = ""200""></p>","","","","","","","","","","","",""
"","61.15000000002328","sequential-stimulus-presentation","255","562622","0.0-47.0-1.6","SS1613100676916","trial","","40","800","861.1500000000233","images/stimuli/spore_stims/complex_20_A_b.gif","images/stimuli/spore_stims/complex_02_A_d.gif","","","","","13","complex_dissimilar","images/stimuli/spore_stims/complex_02_A_d.gif","right","","","","",""
"","null","html-keyboard-response","256","563867","0.0-47.0-0.7","SS1613100676916","","","null","","","","","<p><img src= images/blank.png width =""200"" height = ""200"" style = ""float:right""></p><p><img src=images/blank.png width =""800"" height = ""200""></p>","","","","","","","","","","","",""
"","1046.0400000001537","sequential-stimulus-presentation","257","565734","0.0-47.0-1.7","SS1613100676916","trial","","40","800","1846.0400000001537","images/stimuli/spore_stims/complex_20_A_b.gif","images/stimuli/spore_stims/complex_02_A_d.gif","","","","","13","complex_dissimilar","images/stimuli/spore_stims/complex_02_A_d.gif","right","","","","",""
"","2246.154999999795","html-keyboard-response","258","567999","0.0-48.0","SS1613100676916","pref_question","","98","","","","","<video width ='960' height = '540' style='padding-top:8%' autoplay muted><source src='images/stimuli/wall_pref.mp4' type='video/mp4'></video>","2","middle","45%","13","","","","","","","",""
"","429.5299999997951","sequential-stimulus-presentation","259","569253","0.0-49.0","SS1613100676916","pref_reveal","","40","800","1229.529999999795","null","null","","","","","13","","","","novel","","","",""
"","null","html-keyboard-response","260","570424","0.0-50.0-0.0","SS1613100676916","","","null","","","","","<p><img src= images/blank.png width =""200"" height = ""200"" style = ""float:right""></p><p><img src=images/blank.png width =""800"" height = ""200""></p>","","","","","","","","","","","",""
"","1925.8600000003353","sequential-stimulus-presentation","261","573174","0.0-50.0-1.0","SS1613100676916","trial","","40","800","2725.8600000003353","images/stimuli/spore_stims/complex_17_A_d.gif","images/stimuli/spore_stims/complex_17_B_d.gif","","","","","14","complex_similar","images/stimuli/spore_stims/complex_17_B_d.gif","right","","","","",""
"","null","html-keyboard-response","262","574264","0.0-50.0-0.1","SS1613100676916","","","null","","","","","<p><img src= images/blank.png width =""200"" height = ""200"" style = ""float:right""></p><p><img src=images/blank.png width =""800"" height = ""200""></p>","","","","","","","","","","","",""
"","2465.4799999997485","sequential-stimulus-presentation","263","577550","0.0-50.0-1.1","SS1613100676916","trial","","40","800","3265.4799999997485","images/stimuli/spore_stims/complex_17_A_d.gif","images/stimuli/spore_stims/complex_17_B_d.gif","","","","","14","complex_similar","images/stimuli/spore_stims/complex_17_B_d.gif","right","","","","",""
"","null","html-keyboard-response","264","578732","0.0-50.0-0.2","SS1613100676916","","","null","","","","","<p><img src= images/blank.png width =""200"" height = ""200"" style = ""float:right""></p><p><img src=images/blank.png width =""800"" height = ""200""></p>","","","","","","","","","","","",""
"","1986.6200000001118","sequential-stimulus-presentation","265","581541","0.0-50.0-1.2","SS1613100676916","trial","","40","800","2786.6200000001118","images/stimuli/spore_stims/complex_17_A_d.gif","images/stimuli/spore_stims/complex_17_B_d.gif","","","","","14","complex_similar","images/stimuli/spore_stims/complex_17_A_d.gif","middle","","","","",""
"","null","html-keyboard-response","266","582512","0.0-50.0-0.3","SS1613100676916","","","null","","","","","<p><img src= images/blank.png width =""200"" height = ""200"" style = ""float:right""></p><p><img src=images/blank.png width =""800"" height = ""200""></p>","","","","","","","","","","","",""
"","1727.8749999996508","sequential-stimulus-presentation","267","585062","0.0-50.0-1.3","SS1613100676916","trial","","40","800","2527.8749999996508","images/stimuli/spore_stims/complex_17_A_d.gif","images/stimuli/spore_stims/complex_17_B_d.gif","","","","","14","complex_similar","images/stimuli/spore_stims/complex_17_B_d.gif","right","","","","",""
"","null","html-keyboard-response","268","586063","0.0-50.0-0.4","SS1613100676916","","","null","","","","","<p><img src= images/blank.png width =""200"" height = ""200"" style = ""float:right""></p><p><img src=images/blank.png width =""800"" height = ""200""></p>","","","","","","","","","","","",""
"","2423.7000000003027","sequential-stimulus-presentation","269","589310","0.0-50.0-1.4","SS1613100676916","trial","","40","800","3223.7000000003027","images/stimuli/spore_stims/complex_17_A_d.gif","images/stimuli/spore_stims/complex_17_B_d.gif","","","","","14","complex_similar","images/stimuli/spore_stims/complex_17_B_d.gif","right","","","","",""
"","null","html-keyboard-response","270","590240","0.0-50.0-0.5","SS1613100676916","","","null","","","","","<p><img src= images/blank.png width =""200"" height = ""200"" style = ""float:right""></p><p><img src=images/blank.png width =""800"" height = ""200""></p>","","","","","","","","","","","",""
"","1537.265000000014","sequential-stimulus-presentation","271","592598","0.0-50.0-1.5","SS1613100676916","trial","","40","800","2337.265000000014","images/stimuli/spore_stims/complex_17_A_d.gif","images/stimuli/spore_stims/complex_17_B_d.gif","","","","","14","complex_similar","images/stimuli/spore_stims/complex_17_B_d.gif","right","","","","",""
"","null","html-keyboard-response","272","593742","0.0-50.0-0.6","SS1613100676916","","","null","","","","","<p><img src= images/blank.png width =""200"" height = ""200"" style = ""float:right""></p><p><img src=images/blank.png width =""800"" height = ""200""></p>","","","","","","","","","","","",""
"","3447.340000000084","sequential-stimulus-presentation","273","598012","0.0-50.0-1.6","SS1613100676916","trial","","40","800","4247.340000000084","images/stimuli/spore_stims/complex_17_A_d.gif","images/stimuli/spore_stims/complex_17_B_d.gif","","","","","14","complex_similar","images/stimuli/spore_stims/complex_17_B_d.gif","right","","","","",""
"","null","html-keyboard-response","274","598876","0.0-50.0-0.7","SS1613100676916","","","null","","","","","<p><img src= images/blank.png width =""200"" height = ""200"" style = ""float:right""></p><p><img src=images/blank.png width =""800"" height = ""200""></p>","","","","","","","","","","","",""
"","2170.524999999907","sequential-stimulus-presentation","275","601870","0.0-50.0-1.7","SS1613100676916","trial","","40","800","2970.524999999907","images/stimuli/spore_stims/complex_17_A_d.gif","images/stimuli/spore_stims/complex_17_B_d.gif","","","","","14","complex_similar","images/stimuli/spore_stims/complex_17_B_d.gif","right","","","","",""
"","2131.5999999996275","html-keyboard-response","276","604022","0.0-51.0","SS1613100676916","pref_question","","99","","","","","<video width ='960' height = '540' style='padding-top:8%' autoplay muted><source src='images/stimuli/wall_pref.mp4' type='video/mp4'></video>","3","right","66%","14","","","","","","","",""
"","297.38000000000466","sequential-stimulus-presentation","277","605141","0.0-52.0","SS1613100676916","pref_reveal","","40","800","1097.3800000000047","null","null","","","","","14","","","","background","","","",""
"","null","html-keyboard-response","278","606420","0.0-53.0-0.0","SS1613100676916","","","null","","","","","<p><img src= images/blank.png width =""200"" height = ""200"" style = ""float:right""></p><p><img src=images/blank.png width =""800"" height = ""200""></p>","","","","","","","","","","","",""
"","2138.3350000001956","sequential-stimulus-presentation","279","609383","0.0-53.0-1.0","SS1613100676916","trial","","40","800","2938.3350000001956","images/stimuli/spore_stims/simple_02_B_b.gif","images/stimuli/spore_stims/simple_18_A_c.gif","","","","","15","simple_dissimilar","images/stimuli/spore_stims/simple_18_A_c.gif","right","","","","",""
"","null","html-keyboard-response","280","610646","0.0-53.0-0.1","SS1613100676916","","","null","","","","","<p><img src= images/blank.png width =""200"" height = ""200"" style = ""float:right""></p><p><img src=images/blank.png width =""800"" height = ""200""></p>","","","","","","","","","","","",""
"","1586.0950000000885","sequential-stimulus-presentation","281","613055","0.0-53.0-1.1","SS1613100676916","trial","","40","800","2386.0950000000885","images/stimuli/spore_stims/simple_02_B_b.gif","images/stimuli/spore_stims/simple_18_A_c.gif","","","","","15","simple_dissimilar","images/stimuli/spore_stims/simple_18_A_c.gif","right","","","","",""
"","null","html-keyboard-response","282","613950","0.0-53.0-0.2","SS1613100676916","","","null","","","","","<p><img src= images/blank.png width =""200"" height = ""200"" style = ""float:right""></p><p><img src=images/blank.png width =""800"" height = ""200""></p>","","","","","","","","","","","",""
"","1331.2600000003586","sequential-stimulus-presentation","283","616103","0.0-53.0-1.2","SS1613100676916","trial","","40","800","2131.2600000003586","images/stimuli/spore_stims/simple_02_B_b.gif","images/stimuli/spore_stims/simple_18_A_c.gif","","","","","15","simple_dissimilar","images/stimuli/spore_stims/simple_18_A_c.gif","right","","","","",""
"","null","html-keyboard-response","284","617314","0.0-53.0-0.3","SS1613100676916","","","null","","","","","<p><img src= images/blank.png width =""200"" height = ""200"" style = ""float:right""></p><p><img src=images/blank.png width =""800"" height = ""200""></p>","","","","","","","","","","","",""
"","1495.4249999996973","sequential-stimulus-presentation","285","619630","0.0-53.0-1.3","SS1613100676916","trial","","40","800","2295.4249999996973","images/stimuli/spore_stims/simple_02_B_b.gif","images/stimuli/spore_stims/simple_18_A_c.gif","","","","","15","simple_dissimilar","images/stimuli/spore_stims/simple_18_A_c.gif","right","","","","",""
"","null","html-keyboard-response","286","620622","0.0-53.0-0.4","SS1613100676916","","","null","","","","","<p><img src= images/blank.png width =""200"" height = ""200"" style = ""float:right""></p><p><img src=images/blank.png width =""800"" height = ""200""></p>","","","","","","","","","","","",""
"","51.00999999966007","sequential-stimulus-presentation","287","621494","0.0-53.0-1.4","SS1613100676916","trial","","40","800","851.0099999996601","images/stimuli/spore_stims/simple_02_B_b.gif","images/stimuli/spore_stims/simple_18_A_c.gif","","","","","15","simple_dissimilar","images/stimuli/spore_stims/simple_18_A_c.gif","right","","","","",""
"","null","html-keyboard-response","288","622644","0.0-53.0-0.5","SS1613100676916","","","null","","","","","<p><img src= images/blank.png width =""200"" height = ""200"" style = ""float:right""></p><p><img src=images/blank.png width =""800"" height = ""200""></p>","","","","","","","","","","","",""
"","1660.3000000000466","sequential-stimulus-presentation","289","625150","0.0-53.0-1.5","SS1613100676916","trial","","40","800","2460.3000000000466","images/stimuli/spore_stims/simple_02_B_b.gif","images/stimuli/spore_stims/simple_18_A_c.gif","","","","","15","simple_dissimilar","images/stimuli/spore_stims/simple_18_A_c.gif","right","","","","",""
"","null","html-keyboard-response","290","626046","0.0-53.0-0.6","SS1613100676916","","","null","","","","","<p><img src= images/blank.png width =""200"" height = ""200"" style = ""float:right""></p><p><img src=images/blank.png width =""800"" height = ""200""></p>","","","","","","","","","","","",""
"","1573.869999999646","sequential-stimulus-presentation","291","628446","0.0-53.0-1.6","SS1613100676916","trial","","40","800","2373.869999999646","images/stimuli/spore_stims/simple_02_B_b.gif","images/stimuli/spore_stims/simple_18_A_c.gif","","","","","15","simple_dissimilar","images/stimuli/spore_stims/simple_02_B_b.gif","middle","","","","",""
"","null","html-keyboard-response","292","629518","0.0-53.0-0.7","SS1613100676916","","","null","","","","","<p><img src= images/blank.png width =""200"" height = ""200"" style = ""float:right""></p><p><img src=images/blank.png width =""800"" height = ""200""></p>","","","","","","","","","","","",""
"","1489.8000000002794","sequential-stimulus-presentation","293","631830","0.0-53.0-1.7","SS1613100676916","trial","","40","800","2289.8000000002794","images/stimuli/spore_stims/simple_02_B_b.gif","images/stimuli/spore_stims/simple_18_A_c.gif","","","","","15","simple_dissimilar","images/stimuli/spore_stims/simple_18_A_c.gif","right","","","","",""
"","1996.570000000298","html-keyboard-response","294","633847","0.0-54.0","SS1613100676916","pref_question","","99","","","","","<video width ='960' height = '540' style='padding-top:8%' autoplay muted><source src='images/stimuli/wall_pref.mp4' type='video/mp4'></video>","3","right","66%","15","","","","","","","",""
"","168.21999999997206","sequential-stimulus-presentation","295","634837","0.0-55.0","SS1613100676916","pref_reveal","","40","800","968.2199999999721","null","null","","","","","15","","","","background","","","",""
"","null","html-keyboard-response","296","635821","0.0-56.0-0.0","SS1613100676916","","","null","","","","","<p><img src= images/blank.png width =""200"" height = ""200"" style = ""float:right""></p><p><img src=images/blank.png width =""800"" height = ""200""></p>","","","","","","","","","","","",""
"","1832.4050000001444","sequential-stimulus-presentation","297","638478","0.0-56.0-1.0","SS1613100676916","trial","","40","800","2632.4050000001444","images/stimuli/spore_stims/simple_18_B_a.gif","images/stimuli/spore_stims/simple_01_A_c.gif","","","","","16","simple_dissimilar","images/stimuli/spore_stims/simple_01_A_c.gif","left","","","","",""
"","null","html-keyboard-response","298","639678","0.0-56.0-0.1","SS1613100676916","","","null","","","","","<p><img src= images/blank.png width =""200"" height = ""200"" style = ""float:right""></p><p><img src=images/blank.png width =""800"" height = ""200""></p>","","","","","","","","","","","",""
"","871.1700000003912","sequential-stimulus-presentation","299","641374","0.0-56.0-1.1","SS1613100676916","trial","","40","800","1671.1700000003912","images/stimuli/spore_stims/simple_18_B_a.gif","images/stimuli/spore_stims/simple_01_A_c.gif","","","","","16","simple_dissimilar","images/stimuli/spore_stims/simple_01_A_c.gif","left","","","","",""
"","null","html-keyboard-response","300","642538","0.0-56.0-0.2","SS1613100676916","","","null","","","","","<p><img src= images/blank.png width =""200"" height = ""200"" style = ""float:right""></p><p><img src=images/blank.png width =""800"" height = ""200""></p>","","","","","","","","","","","",""
"","1548.5600000001723","sequential-stimulus-presentation","301","644910","0.0-56.0-1.2","SS1613100676916","trial","","40","800","2348.5600000001723","images/stimuli/spore_stims/simple_18_B_a.gif","images/stimuli/spore_stims/simple_01_A_c.gif","","","","","16","simple_dissimilar","images/stimuli/spore_stims/simple_01_A_c.gif","left","","","","",""
"","null","html-keyboard-response","302","645815","0.0-56.0-0.3","SS1613100676916","","","null","","","","","<p><img src= images/blank.png width =""200"" height = ""200"" style = ""float:right""></p><p><img src=images/blank.png width =""800"" height = ""200""></p>","","","","","","","","","","","",""
"","783.6950000000652","sequential-stimulus-presentation","303","647422","0.0-56.0-1.3","SS1613100676916","trial","","40","800","1583.6950000000652","images/stimuli/spore_stims/simple_18_B_a.gif","images/stimuli/spore_stims/simple_01_A_c.gif","","","","","16","simple_dissimilar","images/stimuli/spore_stims/simple_01_A_c.gif","left","","","","",""
"","null","html-keyboard-response","304","648336","0.0-56.0-0.4","SS1613100676916","","","null","","","","","<p><img src= images/blank.png width =""200"" height = ""200"" style = ""float:right""></p><p><img src=images/blank.png width =""800"" height = ""200""></p>","","","","","","","","","","","",""
"","1052.6400000003632","sequential-stimulus-presentation","305","650214","0.0-56.0-1.4","SS1613100676916","trial","","40","800","1852.6400000003632","images/stimuli/spore_stims/simple_18_B_a.gif","images/stimuli/spore_stims/simple_01_A_c.gif","","","","","16","simple_dissimilar","images/stimuli/spore_stims/simple_01_A_c.gif","left","","","","",""
"","null","html-keyboard-response","306","651517","0.0-56.0-0.5","SS1613100676916","","","null","","","","","<p><img src= images/blank.png width =""200"" height = ""200"" style = ""float:right""></p><p><img src=images/blank.png width =""800"" height = ""200""></p>","","","","","","","","","","","",""
"","569.3249999999534","sequential-stimulus-presentation","307","652910","0.0-56.0-1.5","SS1613100676916","trial","","40","800","1369.3249999999534","images/stimuli/spore_stims/simple_18_B_a.gif","images/stimuli/spore_stims/simple_01_A_c.gif","","","","","16","simple_dissimilar","images/stimuli/spore_stims/simple_18_B_a.gif","right","","","","",""
"","null","html-keyboard-response","308","653792","0.0-56.0-0.6","SS1613100676916","","","null","","","","","<p><img src= images/blank.png width =""200"" height = ""200"" style = ""float:right""></p><p><img src=images/blank.png width =""800"" height = ""200""></p>","","","","","","","","","","","",""
"","944.0999999997439","sequential-stimulus-presentation","309","655558","0.0-56.0-1.6","SS1613100676916","trial","","40","800","1744.0999999997439","images/stimuli/spore_stims/simple_18_B_a.gif","images/stimuli/spore_stims/simple_01_A_c.gif","","","","","16","simple_dissimilar","images/stimuli/spore_stims/simple_01_A_c.gif","left","","","","",""
"","null","html-keyboard-response","310","656445","0.0-56.0-0.7","SS1613100676916","","","null","","","","","<p><img src= images/blank.png width =""200"" height = ""200"" style = ""float:right""></p><p><img src=images/blank.png width =""800"" height = ""200""></p>","","","","","","","","","","","",""
"","807.1850000001723","sequential-stimulus-presentation","311","658078","0.0-56.0-1.7","SS1613100676916","trial","","40","800","1607.1850000001723","images/stimuli/spore_stims/simple_18_B_a.gif","images/stimuli/spore_stims/simple_01_A_c.gif","","","","","16","simple_dissimilar","images/stimuli/spore_stims/simple_01_A_c.gif","left","","","","",""
