"view_history","rt","trial_type","trial_index","time_elapsed","internal_node_id","subject","stimulus_type","trial_stimulus","key_press","minimum_viewing_duration","trial_looking_time","block_deviant","block_background","stimulus","wall_pref","location","location_percent","block_number","block_type","stimulus_displayed","position_displayed","stim_type_selected"
"[{""page_index"":0,""viewing_time"":2969.0000000118744}]","2970.000000001164","instructions","0","2977","0.0-0.0","SS1613104229016","","","","","","","","","","","","","","","",""
"[{""page_index"":0,""viewing_time"":3983.9999999967404},{""page_index"":1,""viewing_time"":33584.00000000256}]","37567.9999999993","instructions","1","42551","0.0-1.0","SS1613104229016","instructions","","","","","","","","","","","","","","",""
"","22306.00000001141","sequential-stimulus-presentation","2","65885","0.0-2.0","SS1613104229016","","","40","800","23106.00000001141","null","null","","","","","","","","",""
"","10750","sequential-stimulus-presentation","3","77458","0.0-3.0","SS1613104229016","","","40","800","11550","null","null","","","","","","","","",""
"[{""page_index"":0,""viewing_time"":5823.999999993248}]","5823.999999993248","instructions","4","83286","0.0-4.0","SS1613104229016","instructions","","","","","","","","","","","","","","",""
"","41135.9999999986","html-keyboard-response","5","124434","0.0-5.0","SS1613104229016","instructions","","98","","","","","<video width ='960' height = '540' autoplay muted><source src='images/stimuli/wall_pref.mp4' type='video/mp4'></video>","2","middle","45%","","","","",""
"","9766.99999999255","sequential-stimulus-presentation","6","135019","0.0-6.0","SS1613104229016","pref_reveal","","40","800","10566.99999999255","null","null","","","","","","","","",""
"[{""page_index"":0,""viewing_time"":1557.9999999899883},{""page_index"":1,""viewing_time"":1048.000000009779},{""page_index"":2,""viewing_time"":952.9999999795109},{""page_index"":3,""viewing_time"":2119.0000000060536}]","5678.9999999746215","instructions","7","140703","0.0-7.0","SS1613104229016","instructions","","","","","","","","","","","","","","",""
"","null","html-keyboard-response","8","141840","0.0-8.0-0.0","SS1613104229016","","","null","","","","","<p><img src= images/blank.png width =""200"" height = ""200"" style = ""float:right""></p><p><img src=images/blank.png width =""800"" height = ""200""></p>","","","","","","","",""
"","38869.99999999534","sequential-stimulus-presentation","9","181529","0.0-8.0-1.0","SS1613104229016","trial","","40","800","39669.99999999534","images/stimuli/spore_stims/complex_19_A_c.gif","images/stimuli/spore_stims/complex_19_B_c.gif","","","","","0","complex_similar","images/stimuli/spore_stims/complex_19_B_c.gif","left",""
"","null","html-keyboard-response","10","182656","0.0-8.0-0.1","SS1613104229016","","","null","","","","","<p><img src= images/blank.png width =""200"" height = ""200"" style = ""float:right""></p><p><img src=images/blank.png width =""800"" height = ""200""></p>","","","","","","","",""
"","3227.000000013504","sequential-stimulus-presentation","11","186696","0.0-8.0-1.1","SS1613104229016","trial","","40","800","4027.000000013504","images/stimuli/spore_stims/complex_19_A_c.gif","images/stimuli/spore_stims/complex_19_B_c.gif","","","","","0","complex_similar","images/stimuli/spore_stims/complex_19_B_c.gif","left",""
"","null","html-keyboard-response","12","187690","0.0-8.0-0.2","SS1613104229016","","","null","","","","","<p><img src= images/blank.png width =""200"" height = ""200"" style = ""float:right""></p><p><img src=images/blank.png width =""800"" height = ""200""></p>","","","","","","","",""
"","1358.0000000074506","sequential-stimulus-presentation","13","189880","0.0-8.0-1.2","SS1613104229016","trial","","40","800","2158.0000000074506","images/stimuli/spore_stims/complex_19_A_c.gif","images/stimuli/spore_stims/complex_19_B_c.gif","","","","","0","complex_similar","images/stimuli/spore_stims/complex_19_B_c.gif","left",""
"","null","html-keyboard-response","14","190952","0.0-8.0-0.3","SS1613104229016","","","null","","","","","<p><img src= images/blank.png width =""200"" height = ""200"" style = ""float:right""></p><p><img src=images/blank.png width =""800"" height = ""200""></p>","","","","","","","",""
"","380.0000000046566","sequential-stimulus-presentation","15","192147","0.0-8.0-1.3","SS1613104229016","trial","","40","800","1180.0000000046566","images/stimuli/spore_stims/complex_19_A_c.gif","images/stimuli/spore_stims/complex_19_B_c.gif","","","","","0","complex_similar","images/stimuli/spore_stims/complex_19_B_c.gif","left",""
"","null","html-keyboard-response","16","193363","0.0-8.0-0.4","SS1613104229016","","","null","","","","","<p><img src= images/blank.png width =""200"" height = ""200"" style = ""float:right""></p><p><img src=images/blank.png width =""800"" height = ""200""></p>","","","","","","","",""
"","793.0000000051223","sequential-stimulus-presentation","17","194971","0.0-8.0-1.4","SS1613104229016","trial","","40","800","1593.0000000051223","images/stimuli/spore_stims/complex_19_A_c.gif","images/stimuli/spore_stims/complex_19_B_c.gif","","","","","0","complex_similar","images/stimuli/spore_stims/complex_19_B_c.gif","left",""
"","null","html-keyboard-response","18","195967","0.0-8.0-0.5","SS1613104229016","","","null","","","","","<p><img src= images/blank.png width =""200"" height = ""200"" style = ""float:right""></p><p><img src=images/blank.png width =""800"" height = ""200""></p>","","","","","","","",""
"","4361.000000004424","sequential-stimulus-presentation","19","201145","0.0-8.0-1.5","SS1613104229016","trial","","40","800","5161.000000004424","images/stimuli/spore_stims/complex_19_A_c.gif","images/stimuli/spore_stims/complex_19_B_c.gif","","","","","0","complex_similar","images/stimuli/spore_stims/complex_19_A_c.gif","middle",""
"","null","html-keyboard-response","20","202433","0.0-8.0-0.6","SS1613104229016","","","null","","","","","<p><img src= images/blank.png width =""200"" height = ""200"" style = ""float:right""></p><p><img src=images/blank.png width =""800"" height = ""200""></p>","","","","","","","",""
"","1796.9999999913853","sequential-stimulus-presentation","21","205055","0.0-8.0-1.6","SS1613104229016","trial","","40","800","2596.9999999913853","images/stimuli/spore_stims/complex_19_A_c.gif","images/stimuli/spore_stims/complex_19_B_c.gif","","","","","0","complex_similar","images/stimuli/spore_stims/complex_19_B_c.gif","left",""
"","null","html-keyboard-response","22","206208","0.0-8.0-0.7","SS1613104229016","","","null","","","","","<p><img src= images/blank.png width =""200"" height = ""200"" style = ""float:right""></p><p><img src=images/blank.png width =""800"" height = ""200""></p>","","","","","","","",""
"","730.0000000104774","sequential-stimulus-presentation","23","207776","0.0-8.0-1.7","SS1613104229016","trial","","40","800","1530.0000000104774","images/stimuli/spore_stims/complex_19_A_c.gif","images/stimuli/spore_stims/complex_19_B_c.gif","","","","","0","complex_similar","images/stimuli/spore_stims/complex_19_B_c.gif","left",""
"","2896.999999997206","html-keyboard-response","24","210680","0.0-9.0","SS1613104229016","pref_question","","97","","","","","<video width ='960' height = '540' style='padding-top:8%' autoplay muted><source src='images/stimuli/wall_pref.mp4' type='video/mp4'></video>","1","left","25%","0","","","",""
"","1202.000000019325","sequential-stimulus-presentation","25","212695","0.0-10.0","SS1613104229016","pref_reveal","","40","800","2002.000000019325","null","null","","","","","0","","","","background"
"","null","html-keyboard-response","26","213953","0.0-11.0-0.0","SS1613104229016","","","null","","","","","<p><img src= images/blank.png width =""200"" height = ""200"" style = ""float:right""></p><p><img src=images/blank.png width =""800"" height = ""200""></p>","","","","","","","",""
"","1063.9999999839347","sequential-stimulus-presentation","27","215832","0.0-11.0-1.0","SS1613104229016","trial","","40","800","1863.9999999839347","images/stimuli/spore_stims/complex_02_A_b.gif","images/stimuli/spore_stims/complex_07_A_c.gif","","","","","1","complex_dissimilar","images/stimuli/spore_stims/complex_07_A_c.gif","middle",""
"","null","html-keyboard-response","28","216768","0.0-11.0-0.1","SS1613104229016","","","null","","","","","<p><img src= images/blank.png width =""200"" height = ""200"" style = ""float:right""></p><p><img src=images/blank.png width =""800"" height = ""200""></p>","","","","","","","",""
"","173.0000000097789","sequential-stimulus-presentation","29","217751","0.0-11.0-1.1","SS1613104229016","trial","","40","800","973.0000000097789","images/stimuli/spore_stims/complex_02_A_b.gif","images/stimuli/spore_stims/complex_07_A_c.gif","","","","","1","complex_dissimilar","images/stimuli/spore_stims/complex_07_A_c.gif","middle",""
"","null","html-keyboard-response","30","219041","0.0-11.0-0.2","SS1613104229016","","","null","","","","","<p><img src= images/blank.png width =""200"" height = ""200"" style = ""float:right""></p><p><img src=images/blank.png width =""800"" height = ""200""></p>","","","","","","","",""
"","402.99999999115244","sequential-stimulus-presentation","31","220256","0.0-11.0-1.2","SS1613104229016","trial","","40","800","1202.9999999911524","images/stimuli/spore_stims/complex_02_A_b.gif","images/stimuli/spore_stims/complex_07_A_c.gif","","","","","1","complex_dissimilar","images/stimuli/spore_stims/complex_07_A_c.gif","middle",""
"","null","html-keyboard-response","32","221422","0.0-11.0-0.3","SS1613104229016","","","null","","","","","<p><img src= images/blank.png width =""200"" height = ""200"" style = ""float:right""></p><p><img src=images/blank.png width =""800"" height = ""200""></p>","","","","","","","",""
"","714.9999999965075","sequential-stimulus-presentation","33","222960","0.0-11.0-1.3","SS1613104229016","trial","","40","800","1514.9999999965075","images/stimuli/spore_stims/complex_02_A_b.gif","images/stimuli/spore_stims/complex_07_A_c.gif","","","","","1","complex_dissimilar","images/stimuli/spore_stims/complex_02_A_b.gif","right",""
"","null","html-keyboard-response","34","223771","0.0-11.0-0.4","SS1613104229016","","","null","","","","","<p><img src= images/blank.png width =""200"" height = ""200"" style = ""float:right""></p><p><img src=images/blank.png width =""800"" height = ""200""></p>","","","","","","","",""
"","108.99999999674037","sequential-stimulus-presentation","35","224693","0.0-11.0-1.4","SS1613104229016","trial","","40","800","908.9999999967404","images/stimuli/spore_stims/complex_02_A_b.gif","images/stimuli/spore_stims/complex_07_A_c.gif","","","","","1","complex_dissimilar","images/stimuli/spore_stims/complex_07_A_c.gif","middle",""
"","null","html-keyboard-response","36","225604","0.0-11.0-0.5","SS1613104229016","","","null","","","","","<p><img src= images/blank.png width =""200"" height = ""200"" style = ""float:right""></p><p><img src=images/blank.png width =""800"" height = ""200""></p>","","","","","","","",""
"","97.99999999813735","sequential-stimulus-presentation","37","226515","0.0-11.0-1.5","SS1613104229016","trial","","40","800","897.9999999981374","images/stimuli/spore_stims/complex_02_A_b.gif","images/stimuli/spore_stims/complex_07_A_c.gif","","","","","1","complex_dissimilar","images/stimuli/spore_stims/complex_07_A_c.gif","middle",""
"","null","html-keyboard-response","38","227474","0.0-11.0-0.6","SS1613104229016","","","null","","","","","<p><img src= images/blank.png width =""200"" height = ""200"" style = ""float:right""></p><p><img src=images/blank.png width =""800"" height = ""200""></p>","","","","","","","",""
"","145.00000001862645","sequential-stimulus-presentation","39","228444","0.0-11.0-1.6","SS1613104229016","trial","","40","800","945.0000000186265","images/stimuli/spore_stims/complex_02_A_b.gif","images/stimuli/spore_stims/complex_07_A_c.gif","","","","","1","complex_dissimilar","images/stimuli/spore_stims/complex_07_A_c.gif","middle",""
"","null","html-keyboard-response","40","229382","0.0-11.0-0.7","SS1613104229016","","","null","","","","","<p><img src= images/blank.png width =""200"" height = ""200"" style = ""float:right""></p><p><img src=images/blank.png width =""800"" height = ""200""></p>","","","","","","","",""
"","192.9999999993015","sequential-stimulus-presentation","41","230417","0.0-11.0-1.7","SS1613104229016","trial","","40","800","992.9999999993015","images/stimuli/spore_stims/complex_02_A_b.gif","images/stimuli/spore_stims/complex_07_A_c.gif","","","","","1","complex_dissimilar","images/stimuli/spore_stims/complex_07_A_c.gif","middle",""
"","1980.9999999997672","html-keyboard-response","42","232410","0.0-12.0","SS1613104229016","pref_question","","98","","","","","<video width ='960' height = '540' style='padding-top:8%' autoplay muted><source src='images/stimuli/wall_pref.mp4' type='video/mp4'></video>","2","middle","45%","1","","","",""
"","157.99999999580905","sequential-stimulus-presentation","43","233384","0.0-13.0","SS1613104229016","pref_reveal","","40","800","957.999999995809","null","null","","","","","1","","","","background"
"","null","html-keyboard-response","44","234206","0.0-14.0-0.0","SS1613104229016","","","null","","","","","<p><img src= images/blank.png width =""200"" height = ""200"" style = ""float:right""></p><p><img src=images/blank.png width =""800"" height = ""200""></p>","","","","","","","",""
"","173.99999999906868","sequential-stimulus-presentation","45","235208","0.0-14.0-1.0","SS1613104229016","trial","","40","800","973.9999999990687","images/stimuli/spore_stims/simple_01_A_d.gif","images/stimuli/spore_stims/simple_03_B_c.gif","","","","","2","simple_dissimilar","images/stimuli/spore_stims/simple_03_B_c.gif","right",""
"","null","html-keyboard-response","46","236374","0.0-14.0-0.1","SS1613104229016","","","null","","","","","<p><img src= images/blank.png width =""200"" height = ""200"" style = ""float:right""></p><p><img src=images/blank.png width =""800"" height = ""200""></p>","","","","","","","",""
"","853.9999999920838","sequential-stimulus-presentation","47","238048","0.0-14.0-1.1","SS1613104229016","trial","","40","800","1653.9999999920838","images/stimuli/spore_stims/simple_01_A_d.gif","images/stimuli/spore_stims/simple_03_B_c.gif","","","","","2","simple_dissimilar","images/stimuli/spore_stims/simple_03_B_c.gif","right",""
"","null","html-keyboard-response","48","239024","0.0-14.0-0.2","SS1613104229016","","","null","","","","","<p><img src= images/blank.png width =""200"" height = ""200"" style = ""float:right""></p><p><img src=images/blank.png width =""800"" height = ""200""></p>","","","","","","","",""
"","181.0000000114087","sequential-stimulus-presentation","49","240058","0.0-14.0-1.2","SS1613104229016","trial","","40","800","981.0000000114087","images/stimuli/spore_stims/simple_01_A_d.gif","images/stimuli/spore_stims/simple_03_B_c.gif","","","","","2","simple_dissimilar","images/stimuli/spore_stims/simple_03_B_c.gif","right",""
"","null","html-keyboard-response","50","241301","0.0-14.0-0.3","SS1613104229016","","","null","","","","","<p><img src= images/blank.png width =""200"" height = ""200"" style = ""float:right""></p><p><img src=images/blank.png width =""800"" height = ""200""></p>","","","","","","","",""
"","77.9999999795109","sequential-stimulus-presentation","51","242192","0.0-14.0-1.3","SS1613104229016","trial","","40","800","877.9999999795109","images/stimuli/spore_stims/simple_01_A_d.gif","images/stimuli/spore_stims/simple_03_B_c.gif","","","","","2","simple_dissimilar","images/stimuli/spore_stims/simple_01_A_d.gif","left",""
"","null","html-keyboard-response","52","243196","0.0-14.0-0.4","SS1613104229016","","","null","","","","","<p><img src= images/blank.png width =""200"" height = ""200"" style = ""float:right""></p><p><img src=images/blank.png width =""800"" height = ""200""></p>","","","","","","","",""
"","1366.9999999983702","sequential-stimulus-presentation","53","245376","0.0-14.0-1.4","SS1613104229016","trial","","40","800","2166.99999999837","images/stimuli/spore_stims/simple_01_A_d.gif","images/stimuli/spore_stims/simple_03_B_c.gif","","","","","2","simple_dissimilar","images/stimuli/spore_stims/simple_03_B_c.gif","right",""
"","null","html-keyboard-response","54","246633","0.0-14.0-0.5","SS1613104229016","","","null","","","","","<p><img src= images/blank.png width =""200"" height = ""200"" style = ""float:right""></p><p><img src=images/blank.png width =""800"" height = ""200""></p>","","","","","","","",""
"","51.00000000675209","sequential-stimulus-presentation","55","247506","0.0-14.0-1.5","SS1613104229016","trial","","40","800","851.0000000067521","images/stimuli/spore_stims/simple_01_A_d.gif","images/stimuli/spore_stims/simple_03_B_c.gif","","","","","2","simple_dissimilar","images/stimuli/spore_stims/simple_03_B_c.gif","right",""
"","null","html-keyboard-response","56","248628","0.0-14.0-0.6","SS1613104229016","","","null","","","","","<p><img src= images/blank.png width =""200"" height = ""200"" style = ""float:right""></p><p><img src=images/blank.png width =""800"" height = ""200""></p>","","","","","","","",""
"","76.99999999022111","sequential-stimulus-presentation","57","249520","0.0-14.0-1.6","SS1613104229016","trial","","40","800","876.9999999902211","images/stimuli/spore_stims/simple_01_A_d.gif","images/stimuli/spore_stims/simple_03_B_c.gif","","","","","2","simple_dissimilar","images/stimuli/spore_stims/simple_03_B_c.gif","right",""
"","null","html-keyboard-response","58","250375","0.0-14.0-0.7","SS1613104229016","","","null","","","","","<p><img src= images/blank.png width =""200"" height = ""200"" style = ""float:right""></p><p><img src=images/blank.png width =""800"" height = ""200""></p>","","","","","","","",""
"","1030.0000000279397","sequential-stimulus-presentation","59","252217","0.0-14.0-1.7","SS1613104229016","trial","","40","800","1830.0000000279397","images/stimuli/spore_stims/simple_01_A_d.gif","images/stimuli/spore_stims/simple_03_B_c.gif","","","","","2","simple_dissimilar","images/stimuli/spore_stims/simple_03_B_c.gif","right",""
"","2594.0000000118744","html-keyboard-response","60","254825","0.0-15.0","SS1613104229016","pref_question","","99","","","","","<video width ='960' height = '540' style='padding-top:8%' autoplay muted><source src='images/stimuli/wall_pref.mp4' type='video/mp4'></video>","3","right","66%","2","","","",""
"","603.000000002794","sequential-stimulus-presentation","61","256240","0.0-16.0","SS1613104229016","pref_reveal","","40","800","1403.000000002794","null","null","","","","","2","","","","background"
"","null","html-keyboard-response","62","257280","0.0-17.0-0.0","SS1613104229016","","","null","","","","","<p><img src= images/blank.png width =""200"" height = ""200"" style = ""float:right""></p><p><img src=images/blank.png width =""800"" height = ""200""></p>","","","","","","","",""
"","661.0000000218861","sequential-stimulus-presentation","63","258759","0.0-17.0-1.0","SS1613104229016","trial","","40","800","1461.000000021886","images/stimuli/spore_stims/simple_11_A_c.gif","images/stimuli/spore_stims/simple_07_B_c.gif","","","","","3","simple_dissimilar","images/stimuli/spore_stims/simple_07_B_c.gif","middle",""
"","null","html-keyboard-response","64","260059","0.0-17.0-0.1","SS1613104229016","","","null","","","","","<p><img src= images/blank.png width =""200"" height = ""200"" style = ""float:right""></p><p><img src=images/blank.png width =""800"" height = ""200""></p>","","","","","","","",""
"","2410.9999999927823","sequential-stimulus-presentation","65","263289","0.0-17.0-1.1","SS1613104229016","trial","","40","800","3210.9999999927823","images/stimuli/spore_stims/simple_11_A_c.gif","images/stimuli/spore_stims/simple_07_B_c.gif","","","","","3","simple_dissimilar","images/stimuli/spore_stims/simple_07_B_c.gif","middle",""
"","null","html-keyboard-response","66","264394","0.0-17.0-0.2","SS1613104229016","","","null","","","","","<p><img src= images/blank.png width =""200"" height = ""200"" style = ""float:right""></p><p><img src=images/blank.png width =""800"" height = ""200""></p>","","","","","","","",""
"","695.0000000069849","sequential-stimulus-presentation","67","265905","0.0-17.0-1.2","SS1613104229016","trial","","40","800","1495.000000006985","images/stimuli/spore_stims/simple_11_A_c.gif","images/stimuli/spore_stims/simple_07_B_c.gif","","","","","3","simple_dissimilar","images/stimuli/spore_stims/simple_11_A_c.gif","left",""
"","null","html-keyboard-response","68","267196","0.0-17.0-0.3","SS1613104229016","","","null","","","","","<p><img src= images/blank.png width =""200"" height = ""200"" style = ""float:right""></p><p><img src=images/blank.png width =""800"" height = ""200""></p>","","","","","","","",""
"","1057.0000000006985","sequential-stimulus-presentation","69","269068","0.0-17.0-1.3","SS1613104229016","trial","","40","800","1857.0000000006985","images/stimuli/spore_stims/simple_11_A_c.gif","images/stimuli/spore_stims/simple_07_B_c.gif","","","","","3","simple_dissimilar","images/stimuli/spore_stims/simple_07_B_c.gif","middle",""
"","null","html-keyboard-response","70","270320","0.0-17.0-0.4","SS1613104229016","","","null","","","","","<p><img src= images/blank.png width =""200"" height = ""200"" style = ""float:right""></p><p><img src=images/blank.png width =""800"" height = ""200""></p>","","","","","","","",""
"","1029.9999999988358","sequential-stimulus-presentation","71","272171","0.0-17.0-1.4","SS1613104229016","trial","","40","800","1829.9999999988358","images/stimuli/spore_stims/simple_11_A_c.gif","images/stimuli/spore_stims/simple_07_B_c.gif","","","","","3","simple_dissimilar","images/stimuli/spore_stims/simple_07_B_c.gif","middle",""
"","null","html-keyboard-response","72","273381","0.0-17.0-0.5","SS1613104229016","","","null","","","","","<p><img src= images/blank.png width =""200"" height = ""200"" style = ""float:right""></p><p><img src=images/blank.png width =""800"" height = ""200""></p>","","","","","","","",""
"","2275.999999983469","sequential-stimulus-presentation","73","276472","0.0-17.0-1.5","SS1613104229016","trial","","40","800","3075.999999983469","images/stimuli/spore_stims/simple_11_A_c.gif","images/stimuli/spore_stims/simple_07_B_c.gif","","","","","3","simple_dissimilar","images/stimuli/spore_stims/simple_07_B_c.gif","middle",""
"","null","html-keyboard-response","74","277764","0.0-17.0-0.6","SS1613104229016","","","null","","","","","<p><img src= images/blank.png width =""200"" height = ""200"" style = ""float:right""></p><p><img src=images/blank.png width =""800"" height = ""200""></p>","","","","","","","",""
"","1432.0000000006985","sequential-stimulus-presentation","75","280013","0.0-17.0-1.6","SS1613104229016","trial","","40","800","2232.0000000006985","images/stimuli/spore_stims/simple_11_A_c.gif","images/stimuli/spore_stims/simple_07_B_c.gif","","","","","3","simple_dissimilar","images/stimuli/spore_stims/simple_07_B_c.gif","middle",""
"","null","html-keyboard-response","76","281039","0.0-17.0-0.7","SS1613104229016","","","null","","","","","<p><img src= images/blank.png width =""200"" height = ""200"" style = ""float:right""></p><p><img src=images/blank.png width =""800"" height = ""200""></p>","","","","","","","",""
"","210.99999998114072","sequential-stimulus-presentation","77","282072","0.0-17.0-1.7","SS1613104229016","trial","","40","800","1010.9999999811407","images/stimuli/spore_stims/simple_11_A_c.gif","images/stimuli/spore_stims/simple_07_B_c.gif","","","","","3","simple_dissimilar","images/stimuli/spore_stims/simple_07_B_c.gif","middle",""
"","2125","html-keyboard-response","78","284209","0.0-18.0","SS1613104229016","pref_question","","98","","","","","<video width ='960' height = '540' style='padding-top:8%' autoplay muted><source src='images/stimuli/wall_pref.mp4' type='video/mp4'></video>","2","middle","45%","3","","","",""
"","206.00000000558794","sequential-stimulus-presentation","79","285233","0.0-19.0","SS1613104229016","pref_reveal","","40","800","1006.0000000055879","null","null","","","","","3","","","","background"
"","null","html-keyboard-response","80","286322","0.0-20.0-0.0","SS1613104229016","","","null","","","","","<p><img src= images/blank.png width =""200"" height = ""200"" style = ""float:right""></p><p><img src=images/blank.png width =""800"" height = ""200""></p>","","","","","","","",""
"","61.000000016065314","sequential-stimulus-presentation","81","287280","0.0-20.0-1.0","SS1613104229016","trial","","40","800","861.0000000160653","images/stimuli/spore_stims/simple_17_A_d.gif","images/stimuli/spore_stims/simple_03_A_d.gif","","","","","4","simple_dissimilar","images/stimuli/spore_stims/simple_03_A_d.gif","middle",""
"","null","html-keyboard-response","82","288201","0.0-20.0-0.1","SS1613104229016","","","null","","","","","<p><img src= images/blank.png width =""200"" height = ""200"" style = ""float:right""></p><p><img src=images/blank.png width =""800"" height = ""200""></p>","","","","","","","",""
"","1193.9999999885913","sequential-stimulus-presentation","83","290210","0.0-20.0-1.1","SS1613104229016","trial","","40","800","1993.9999999885913","images/stimuli/spore_stims/simple_17_A_d.gif","images/stimuli/spore_stims/simple_03_A_d.gif","","","","","4","simple_dissimilar","images/stimuli/spore_stims/simple_03_A_d.gif","middle",""
"","null","html-keyboard-response","84","291506","0.0-20.0-0.2","SS1613104229016","","","null","","","","","<p><img src= images/blank.png width =""200"" height = ""200"" style = ""float:right""></p><p><img src=images/blank.png width =""800"" height = ""200""></p>","","","","","","","",""
"","966.0000000149012","sequential-stimulus-presentation","85","293306","0.0-20.0-1.2","SS1613104229016","trial","","40","800","1766.0000000149012","images/stimuli/spore_stims/simple_17_A_d.gif","images/stimuli/spore_stims/simple_03_A_d.gif","","","","","4","simple_dissimilar","images/stimuli/spore_stims/simple_03_A_d.gif","middle",""
"","null","html-keyboard-response","86","294397","0.0-20.0-0.3","SS1613104229016","","","null","","","","","<p><img src= images/blank.png width =""200"" height = ""200"" style = ""float:right""></p><p><img src=images/blank.png width =""800"" height = ""200""></p>","","","","","","","",""
"","709.9999999918509","sequential-stimulus-presentation","87","295928","0.0-20.0-1.3","SS1613104229016","trial","","40","800","1509.999999991851","images/stimuli/spore_stims/simple_17_A_d.gif","images/stimuli/spore_stims/simple_03_A_d.gif","","","","","4","simple_dissimilar","images/stimuli/spore_stims/simple_17_A_d.gif","left",""
"","null","html-keyboard-response","88","297190","0.0-20.0-0.4","SS1613104229016","","","null","","","","","<p><img src= images/blank.png width =""200"" height = ""200"" style = ""float:right""></p><p><img src=images/blank.png width =""800"" height = ""200""></p>","","","","","","","",""
"","230.99999999976717","sequential-stimulus-presentation","89","298256","0.0-20.0-1.4","SS1613104229016","trial","","40","800","1030.9999999997672","images/stimuli/spore_stims/simple_17_A_d.gif","images/stimuli/spore_stims/simple_03_A_d.gif","","","","","4","simple_dissimilar","images/stimuli/spore_stims/simple_03_A_d.gif","middle",""
"","null","html-keyboard-response","90","299200","0.0-20.0-0.5","SS1613104229016","","","null","","","","","<p><img src= images/blank.png width =""200"" height = ""200"" style = ""float:right""></p><p><img src=images/blank.png width =""800"" height = ""200""></p>","","","","","","","",""
"","38.99999998975545","sequential-stimulus-presentation","91","300055","0.0-20.0-1.5","SS1613104229016","trial","","40","800","838.9999999897555","images/stimuli/spore_stims/simple_17_A_d.gif","images/stimuli/spore_stims/simple_03_A_d.gif","","","","","4","simple_dissimilar","images/stimuli/spore_stims/simple_03_A_d.gif","middle",""
"","null","html-keyboard-response","92","300943","0.0-20.0-0.6","SS1613104229016","","","null","","","","","<p><img src= images/blank.png width =""200"" height = ""200"" style = ""float:right""></p><p><img src=images/blank.png width =""800"" height = ""200""></p>","","","","","","","",""
"","111.00000000442378","sequential-stimulus-presentation","93","301873","0.0-20.0-1.6","SS1613104229016","trial","","40","800","911.0000000044238","images/stimuli/spore_stims/simple_17_A_d.gif","images/stimuli/spore_stims/simple_03_A_d.gif","","","","","4","simple_dissimilar","images/stimuli/spore_stims/simple_03_A_d.gif","middle",""
"","null","html-keyboard-response","94","302949","0.0-20.0-0.7","SS1613104229016","","","null","","","","","<p><img src= images/blank.png width =""200"" height = ""200"" style = ""float:right""></p><p><img src=images/blank.png width =""800"" height = ""200""></p>","","","","","","","",""
"","203.99999999790452","sequential-stimulus-presentation","95","303970","0.0-20.0-1.7","SS1613104229016","trial","","40","800","1003.9999999979045","images/stimuli/spore_stims/simple_17_A_d.gif","images/stimuli/spore_stims/simple_03_A_d.gif","","","","","4","simple_dissimilar","images/stimuli/spore_stims/simple_03_A_d.gif","middle",""
"","2440.999999991618","html-keyboard-response","96","306433","0.0-21.0","SS1613104229016","pref_question","","98","","","","","<video width ='960' height = '540' style='padding-top:8%' autoplay muted><source src='images/stimuli/wall_pref.mp4' type='video/mp4'></video>","2","middle","45%","4","","","",""
"","345.00000000116415","sequential-stimulus-presentation","97","307592","0.0-22.0","SS1613104229016","pref_reveal","","40","800","1145.0000000011642","null","null","","","","","4","","","","background"
"","null","html-keyboard-response","98","308871","0.0-23.0-0.0","SS1613104229016","","","null","","","","","<p><img src= images/blank.png width =""200"" height = ""200"" style = ""float:right""></p><p><img src=images/blank.png width =""800"" height = ""200""></p>","","","","","","","",""
"","254.00000001536682","sequential-stimulus-presentation","99","309948","0.0-23.0-1.0","SS1613104229016","trial","","40","800","1054.0000000153668","images/stimuli/spore_stims/simple_11_B_b.gif","images/stimuli/spore_stims/simple_10_B_d.gif","","","","","5","simple_dissimilar","images/stimuli/spore_stims/simple_10_B_d.gif","middle",""
"","null","html-keyboard-response","100","310820","0.0-23.0-0.1","SS1613104229016","","","null","","","","","<p><img src= images/blank.png width =""200"" height = ""200"" style = ""float:right""></p><p><img src=images/blank.png width =""800"" height = ""200""></p>","","","","","","","",""
"","74.00000002235174","sequential-stimulus-presentation","101","311712","0.0-23.0-1.1","SS1613104229016","trial","","40","800","874.0000000223517","images/stimuli/spore_stims/simple_11_B_b.gif","images/stimuli/spore_stims/simple_10_B_d.gif","","","","","5","simple_dissimilar","images/stimuli/spore_stims/simple_10_B_d.gif","middle",""
"","null","html-keyboard-response","102","312886","0.0-23.0-0.2","SS1613104229016","","","null","","","","","<p><img src= images/blank.png width =""200"" height = ""200"" style = ""float:right""></p><p><img src=images/blank.png width =""800"" height = ""200""></p>","","","","","","","",""
"","67.00000001001172","sequential-stimulus-presentation","103","313772","0.0-23.0-1.2","SS1613104229016","trial","","40","800","867.0000000100117","images/stimuli/spore_stims/simple_11_B_b.gif","images/stimuli/spore_stims/simple_10_B_d.gif","","","","","5","simple_dissimilar","images/stimuli/spore_stims/simple_10_B_d.gif","middle",""
"","null","html-keyboard-response","104","314599","0.0-23.0-0.3","SS1613104229016","","","null","","","","","<p><img src= images/blank.png width =""200"" height = ""200"" style = ""float:right""></p><p><img src=images/blank.png width =""800"" height = ""200""></p>","","","","","","","",""
"","663.9999999897555","sequential-stimulus-presentation","105","316117","0.0-23.0-1.3","SS1613104229016","trial","","40","800","1463.9999999897555","images/stimuli/spore_stims/simple_11_B_b.gif","images/stimuli/spore_stims/simple_10_B_d.gif","","","","","5","simple_dissimilar","images/stimuli/spore_stims/simple_10_B_d.gif","middle",""
"","null","html-keyboard-response","106","317397","0.0-23.0-0.4","SS1613104229016","","","null","","","","","<p><img src= images/blank.png width =""200"" height = ""200"" style = ""float:right""></p><p><img src=images/blank.png width =""800"" height = ""200""></p>","","","","","","","",""
"","169.99999998370185","sequential-stimulus-presentation","107","318385","0.0-23.0-1.4","SS1613104229016","trial","","40","800","969.9999999837019","images/stimuli/spore_stims/simple_11_B_b.gif","images/stimuli/spore_stims/simple_10_B_d.gif","","","","","5","simple_dissimilar","images/stimuli/spore_stims/simple_10_B_d.gif","middle",""
"","null","html-keyboard-response","108","319574","0.0-23.0-0.5","SS1613104229016","","","null","","","","","<p><img src= images/blank.png width =""200"" height = ""200"" style = ""float:right""></p><p><img src=images/blank.png width =""800"" height = ""200""></p>","","","","","","","",""
"","1263.9999999955762","sequential-stimulus-presentation","109","321679","0.0-23.0-1.5","SS1613104229016","trial","","40","800","2063.999999995576","images/stimuli/spore_stims/simple_11_B_b.gif","images/stimuli/spore_stims/simple_10_B_d.gif","","","","","5","simple_dissimilar","images/stimuli/spore_stims/simple_11_B_b.gif","left",""
"","null","html-keyboard-response","110","322927","0.0-23.0-0.6","SS1613104229016","","","null","","","","","<p><img src= images/blank.png width =""200"" height = ""200"" style = ""float:right""></p><p><img src=images/blank.png width =""800"" height = ""200""></p>","","","","","","","",""
"","62.999999994644895","sequential-stimulus-presentation","111","323810","0.0-23.0-1.6","SS1613104229016","trial","","40","800","862.9999999946449","images/stimuli/spore_stims/simple_11_B_b.gif","images/stimuli/spore_stims/simple_10_B_d.gif","","","","","5","simple_dissimilar","images/stimuli/spore_stims/simple_10_B_d.gif","middle",""
"","null","html-keyboard-response","112","324857","0.0-23.0-0.7","SS1613104229016","","","null","","","","","<p><img src= images/blank.png width =""200"" height = ""200"" style = ""float:right""></p><p><img src=images/blank.png width =""800"" height = ""200""></p>","","","","","","","",""
"","1630.9999999939464","sequential-stimulus-presentation","113","327349","0.0-23.0-1.7","SS1613104229016","trial","","40","800","2430.9999999939464","images/stimuli/spore_stims/simple_11_B_b.gif","images/stimuli/spore_stims/simple_10_B_d.gif","","","","","5","simple_dissimilar","images/stimuli/spore_stims/simple_10_B_d.gif","middle",""
"","1742.99999998766","html-keyboard-response","114","329104","0.0-24.0","SS1613104229016","pref_question","","98","","","","","<video width ='960' height = '540' style='padding-top:8%' autoplay muted><source src='images/stimuli/wall_pref.mp4' type='video/mp4'></video>","2","middle","45%","5","","","",""
"","224.00000001653098","sequential-stimulus-presentation","115","330152","0.0-25.0","SS1613104229016","pref_reveal","","40","800","1024.000000016531","null","null","","","","","5","","","","background"
"","null","html-keyboard-response","116","331372","0.0-26.0-0.0","SS1613104229016","","","null","","","","","<p><img src= images/blank.png width =""200"" height = ""200"" style = ""float:right""></p><p><img src=images/blank.png width =""800"" height = ""200""></p>","","","","","","","",""
"","95.99999999045394","sequential-stimulus-presentation","117","332288","0.0-26.0-1.0","SS1613104229016","trial","","40","800","895.999999990454","images/stimuli/spore_stims/complex_17_A_d.gif","images/stimuli/spore_stims/complex_17_B_d.gif","","","","","6","complex_similar","images/stimuli/spore_stims/complex_17_B_d.gif","right",""
"","null","html-keyboard-response","118","333405","0.0-26.0-0.1","SS1613104229016","","","null","","","","","<p><img src= images/blank.png width =""200"" height = ""200"" style = ""float:right""></p><p><img src=images/blank.png width =""800"" height = ""200""></p>","","","","","","","",""
"","154.00000000954606","sequential-stimulus-presentation","119","334381","0.0-26.0-1.1","SS1613104229016","trial","","40","800","954.000000009546","images/stimuli/spore_stims/complex_17_A_d.gif","images/stimuli/spore_stims/complex_17_B_d.gif","","","","","6","complex_similar","images/stimuli/spore_stims/complex_17_B_d.gif","right",""
"","null","html-keyboard-response","120","335339","0.0-26.0-0.2","SS1613104229016","","","null","","","","","<p><img src= images/blank.png width =""200"" height = ""200"" style = ""float:right""></p><p><img src=images/blank.png width =""800"" height = ""200""></p>","","","","","","","",""
"","84.00000000256114","sequential-stimulus-presentation","121","336280","0.0-26.0-1.2","SS1613104229016","trial","","40","800","884.0000000025611","images/stimuli/spore_stims/complex_17_A_d.gif","images/stimuli/spore_stims/complex_17_B_d.gif","","","","","6","complex_similar","images/stimuli/spore_stims/complex_17_B_d.gif","right",""
"","null","html-keyboard-response","122","337457","0.0-26.0-0.3","SS1613104229016","","","null","","","","","<p><img src= images/blank.png width =""200"" height = ""200"" style = ""float:right""></p><p><img src=images/blank.png width =""800"" height = ""200""></p>","","","","","","","",""
"","97.99999999813735","sequential-stimulus-presentation","123","338373","0.0-26.0-1.3","SS1613104229016","trial","","40","800","897.9999999981374","images/stimuli/spore_stims/complex_17_A_d.gif","images/stimuli/spore_stims/complex_17_B_d.gif","","","","","6","complex_similar","images/stimuli/spore_stims/complex_17_A_d.gif","middle",""
"","null","html-keyboard-response","124","339675","0.0-26.0-0.4","SS1613104229016","","","null","","","","","<p><img src= images/blank.png width =""200"" height = ""200"" style = ""float:right""></p><p><img src=images/blank.png width =""800"" height = ""200""></p>","","","","","","","",""
"","858.9999999967404","sequential-stimulus-presentation","125","341357","0.0-26.0-1.4","SS1613104229016","trial","","40","800","1658.9999999967404","images/stimuli/spore_stims/complex_17_A_d.gif","images/stimuli/spore_stims/complex_17_B_d.gif","","","","","6","complex_similar","images/stimuli/spore_stims/complex_17_B_d.gif","right",""
"","null","html-keyboard-response","126","342567","0.0-26.0-0.5","SS1613104229016","","","null","","","","","<p><img src= images/blank.png width =""200"" height = ""200"" style = ""float:right""></p><p><img src=images/blank.png width =""800"" height = ""200""></p>","","","","","","","",""
"","1129.0000000153668","sequential-stimulus-presentation","127","344513","0.0-26.0-1.5","SS1613104229016","trial","","40","800","1929.0000000153668","images/stimuli/spore_stims/complex_17_A_d.gif","images/stimuli/spore_stims/complex_17_B_d.gif","","","","","6","complex_similar","images/stimuli/spore_stims/complex_17_B_d.gif","right",""
"","null","html-keyboard-response","128","345773","0.0-26.0-0.6","SS1613104229016","","","null","","","","","<p><img src= images/blank.png width =""200"" height = ""200"" style = ""float:right""></p><p><img src=images/blank.png width =""800"" height = ""200""></p>","","","","","","","",""
"","1277.0000000018626","sequential-stimulus-presentation","129","347871","0.0-26.0-1.6","SS1613104229016","trial","","40","800","2077.0000000018626","images/stimuli/spore_stims/complex_17_A_d.gif","images/stimuli/spore_stims/complex_17_B_d.gif","","","","","6","complex_similar","images/stimuli/spore_stims/complex_17_B_d.gif","right",""
"","null","html-keyboard-response","130","348885","0.0-26.0-0.7","SS1613104229016","","","null","","","","","<p><img src= images/blank.png width =""200"" height = ""200"" style = ""float:right""></p><p><img src=images/blank.png width =""800"" height = ""200""></p>","","","","","","","",""
"","3015.00000001397","sequential-stimulus-presentation","131","352718","0.0-26.0-1.7","SS1613104229016","trial","","40","800","3815.00000001397","images/stimuli/spore_stims/complex_17_A_d.gif","images/stimuli/spore_stims/complex_17_B_d.gif","","","","","6","complex_similar","images/stimuli/spore_stims/complex_17_B_d.gif","right",""
"","1749.0000000107102","html-keyboard-response","132","354488","0.0-27.0","SS1613104229016","pref_question","","99","","","","","<video width ='960' height = '540' style='padding-top:8%' autoplay muted><source src='images/stimuli/wall_pref.mp4' type='video/mp4'></video>","3","right","66%","6","","","",""
"","387.00000001699664","sequential-stimulus-presentation","133","355697","0.0-28.0","SS1613104229016","pref_reveal","","40","800","1187.0000000169966","null","null","","","","","6","","","","background"
"","null","html-keyboard-response","134","356829","0.0-29.0-0.0","SS1613104229016","","","null","","","","","<p><img src= images/blank.png width =""200"" height = ""200"" style = ""float:right""></p><p><img src=images/blank.png width =""800"" height = ""200""></p>","","","","","","","",""
"","135.99999999860302","sequential-stimulus-presentation","135","357791","0.0-29.0-1.0","SS1613104229016","trial","","40","800","935.999999998603","images/stimuli/spore_stims/complex_14_B_b.gif","images/stimuli/spore_stims/complex_14_A_b.gif","","","","","7","complex_similar","images/stimuli/spore_stims/complex_14_A_b.gif","middle",""
"","null","html-keyboard-response","136","358889","0.0-29.0-0.1","SS1613104229016","","","null","","","","","<p><img src= images/blank.png width =""200"" height = ""200"" style = ""float:right""></p><p><img src=images/blank.png width =""800"" height = ""200""></p>","","","","","","","",""
"","3489.000000001397","sequential-stimulus-presentation","137","363199","0.0-29.0-1.1","SS1613104229016","trial","","40","800","4289.000000001397","images/stimuli/spore_stims/complex_14_B_b.gif","images/stimuli/spore_stims/complex_14_A_b.gif","","","","","7","complex_similar","images/stimuli/spore_stims/complex_14_A_b.gif","middle",""
"","null","html-keyboard-response","138","364407","0.0-29.0-0.2","SS1613104229016","","","null","","","","","<p><img src= images/blank.png width =""200"" height = ""200"" style = ""float:right""></p><p><img src=images/blank.png width =""800"" height = ""200""></p>","","","","","","","",""
"","828.0000000086147","sequential-stimulus-presentation","139","366056","0.0-29.0-1.2","SS1613104229016","trial","","40","800","1628.0000000086147","images/stimuli/spore_stims/complex_14_B_b.gif","images/stimuli/spore_stims/complex_14_A_b.gif","","","","","7","complex_similar","images/stimuli/spore_stims/complex_14_A_b.gif","middle",""
"","null","html-keyboard-response","140","366890","0.0-29.0-0.3","SS1613104229016","","","null","","","","","<p><img src= images/blank.png width =""200"" height = ""200"" style = ""float:right""></p><p><img src=images/blank.png width =""800"" height = ""200""></p>","","","","","","","",""
"","652.9999999911524","sequential-stimulus-presentation","141","368367","0.0-29.0-1.3","SS1613104229016","trial","","40","800","1452.9999999911524","images/stimuli/spore_stims/complex_14_B_b.gif","images/stimuli/spore_stims/complex_14_A_b.gif","","","","","7","complex_similar","images/stimuli/spore_stims/complex_14_B_b.gif","right",""
"","null","html-keyboard-response","142","369263","0.0-29.0-0.4","SS1613104229016","","","null","","","","","<p><img src= images/blank.png width =""200"" height = ""200"" style = ""float:right""></p><p><img src=images/blank.png width =""800"" height = ""200""></p>","","","","","","","",""
"","527.0000000018626","sequential-stimulus-presentation","143","370607","0.0-29.0-1.4","SS1613104229016","trial","","40","800","1327.0000000018626","images/stimuli/spore_stims/complex_14_B_b.gif","images/stimuli/spore_stims/complex_14_A_b.gif","","","","","7","complex_similar","images/stimuli/spore_stims/complex_14_A_b.gif","middle",""
"","null","html-keyboard-response","144","371882","0.0-29.0-0.5","SS1613104229016","","","null","","","","","<p><img src= images/blank.png width =""200"" height = ""200"" style = ""float:right""></p><p><img src=images/blank.png width =""800"" height = ""200""></p>","","","","","","","",""
"","228.99999999208376","sequential-stimulus-presentation","145","372932","0.0-29.0-1.5","SS1613104229016","trial","","40","800","1028.9999999920838","images/stimuli/spore_stims/complex_14_B_b.gif","images/stimuli/spore_stims/complex_14_A_b.gif","","","","","7","complex_similar","images/stimuli/spore_stims/complex_14_A_b.gif","middle",""
"","null","html-keyboard-response","146","373996","0.0-29.0-0.6","SS1613104229016","","","null","","","","","<p><img src= images/blank.png width =""200"" height = ""200"" style = ""float:right""></p><p><img src=images/blank.png width =""800"" height = ""200""></p>","","","","","","","",""
"","191.00000002072193","sequential-stimulus-presentation","147","375010","0.0-29.0-1.6","SS1613104229016","trial","","40","800","991.0000000207219","images/stimuli/spore_stims/complex_14_B_b.gif","images/stimuli/spore_stims/complex_14_A_b.gif","","","","","7","complex_similar","images/stimuli/spore_stims/complex_14_A_b.gif","middle",""
"","null","html-keyboard-response","148","376201","0.0-29.0-0.7","SS1613104229016","","","null","","","","","<p><img src= images/blank.png width =""200"" height = ""200"" style = ""float:right""></p><p><img src=images/blank.png width =""800"" height = ""200""></p>","","","","","","","",""
"","55.99999998230487","sequential-stimulus-presentation","149","377080","0.0-29.0-1.7","SS1613104229016","trial","","40","800","855.9999999823049","images/stimuli/spore_stims/complex_14_B_b.gif","images/stimuli/spore_stims/complex_14_A_b.gif","","","","","7","complex_similar","images/stimuli/spore_stims/complex_14_A_b.gif","middle",""
"","1986.9999999937136","html-keyboard-response","150","379096","0.0-30.0","SS1613104229016","pref_question","","98","","","","","<video width ='960' height = '540' style='padding-top:8%' autoplay muted><source src='images/stimuli/wall_pref.mp4' type='video/mp4'></video>","2","middle","45%","7","","","",""
"","355.99999999976717","sequential-stimulus-presentation","151","380279","0.0-31.0","SS1613104229016","pref_reveal","","40","800","1155.9999999997672","null","null","","","","","7","","","","background"
"","null","html-keyboard-response","152","381169","0.0-32.0-0.0","SS1613104229016","","","null","","","","","<p><img src= images/blank.png width =""200"" height = ""200"" style = ""float:right""></p><p><img src=images/blank.png width =""800"" height = ""200""></p>","","","","","","","",""
"","163.00000000046566","sequential-stimulus-presentation","153","382171","0.0-32.0-1.0","SS1613104229016","trial","","40","800","963.0000000004657","images/stimuli/spore_stims/simple_12_B_a.gif","images/stimuli/spore_stims/simple_12_A_a.gif","","","","","8","simple_similar","images/stimuli/spore_stims/simple_12_A_a.gif","middle",""
"","null","html-keyboard-response","154","383130","0.0-32.0-0.1","SS1613104229016","","","null","","","","","<p><img src= images/blank.png width =""200"" height = ""200"" style = ""float:right""></p><p><img src=images/blank.png width =""800"" height = ""200""></p>","","","","","","","",""
"","406.00000001722947","sequential-stimulus-presentation","155","384362","0.0-32.0-1.1","SS1613104229016","trial","","40","800","1206.0000000172295","images/stimuli/spore_stims/simple_12_B_a.gif","images/stimuli/spore_stims/simple_12_A_a.gif","","","","","8","simple_similar","images/stimuli/spore_stims/simple_12_A_a.gif","middle",""
"","null","html-keyboard-response","156","385308","0.0-32.0-0.2","SS1613104229016","","","null","","","","","<p><img src= images/blank.png width =""200"" height = ""200"" style = ""float:right""></p><p><img src=images/blank.png width =""800"" height = ""200""></p>","","","","","","","",""
"","687.9999999946449","sequential-stimulus-presentation","157","386827","0.0-32.0-1.2","SS1613104229016","trial","","40","800","1487.999999994645","images/stimuli/spore_stims/simple_12_B_a.gif","images/stimuli/spore_stims/simple_12_A_a.gif","","","","","8","simple_similar","images/stimuli/spore_stims/simple_12_B_a.gif","left",""
"","null","html-keyboard-response","158","387910","0.0-32.0-0.3","SS1613104229016","","","null","","","","","<p><img src= images/blank.png width =""200"" height = ""200"" style = ""float:right""></p><p><img src=images/blank.png width =""800"" height = ""200""></p>","","","","","","","",""
"","20.00000001862645","sequential-stimulus-presentation","159","388758","0.0-32.0-1.3","SS1613104229016","trial","","40","800","820.0000000186265","images/stimuli/spore_stims/simple_12_B_a.gif","images/stimuli/spore_stims/simple_12_A_a.gif","","","","","8","simple_similar","images/stimuli/spore_stims/simple_12_A_a.gif","middle",""
"","null","html-keyboard-response","160","390031","0.0-32.0-0.4","SS1613104229016","","","null","","","","","<p><img src= images/blank.png width =""200"" height = ""200"" style = ""float:right""></p><p><img src=images/blank.png width =""800"" height = ""200""></p>","","","","","","","",""
"","266.9999999925494","sequential-stimulus-presentation","161","391122","0.0-32.0-1.4","SS1613104229016","trial","","40","800","1066.9999999925494","images/stimuli/spore_stims/simple_12_B_a.gif","images/stimuli/spore_stims/simple_12_A_a.gif","","","","","8","simple_similar","images/stimuli/spore_stims/simple_12_A_a.gif","middle",""
"","null","html-keyboard-response","162","392068","0.0-32.0-0.5","SS1613104229016","","","null","","","","","<p><img src= images/blank.png width =""200"" height = ""200"" style = ""float:right""></p><p><img src=images/blank.png width =""800"" height = ""200""></p>","","","","","","","",""
"","113.0000000121072","sequential-stimulus-presentation","163","393002","0.0-32.0-1.5","SS1613104229016","trial","","40","800","913.0000000121072","images/stimuli/spore_stims/simple_12_B_a.gif","images/stimuli/spore_stims/simple_12_A_a.gif","","","","","8","simple_similar","images/stimuli/spore_stims/simple_12_A_a.gif","middle",""
"","null","html-keyboard-response","164","394185","0.0-32.0-0.6","SS1613104229016","","","null","","","","","<p><img src= images/blank.png width =""200"" height = ""200"" style = ""float:right""></p><p><img src=images/blank.png width =""800"" height = ""200""></p>","","","","","","","",""
"","154.00000000954606","sequential-stimulus-presentation","165","395162","0.0-32.0-1.6","SS1613104229016","trial","","40","800","954.000000009546","images/stimuli/spore_stims/simple_12_B_a.gif","images/stimuli/spore_stims/simple_12_A_a.gif","","","","","8","simple_similar","images/stimuli/spore_stims/simple_12_A_a.gif","middle",""
"","null","html-keyboard-response","166","396064","0.0-32.0-0.7","SS1613104229016","","","null","","","","","<p><img src= images/blank.png width =""200"" height = ""200"" style = ""float:right""></p><p><img src=images/blank.png width =""800"" height = ""200""></p>","","","","","","","",""
"","2.9999999969732016","sequential-stimulus-presentation","167","396887","0.0-32.0-1.7","SS1613104229016","trial","","40","800","802.9999999969732","images/stimuli/spore_stims/simple_12_B_a.gif","images/stimuli/spore_stims/simple_12_A_a.gif","","","","","8","simple_similar","images/stimuli/spore_stims/simple_12_A_a.gif","middle",""
"","1704.9999999871943","html-keyboard-response","168","398607","0.0-33.0","SS1613104229016","pref_question","","98","","","","","<video width ='960' height = '540' style='padding-top:8%' autoplay muted><source src='images/stimuli/wall_pref.mp4' type='video/mp4'></video>","2","middle","45%","8","","","",""
"","108.99999999674037","sequential-stimulus-presentation","169","399538","0.0-34.0","SS1613104229016","pref_reveal","","40","800","908.9999999967404","null","null","","","","","8","","","","background"
"","null","html-keyboard-response","170","400661","0.0-35.0-0.0","SS1613104229016","","","null","","","","","<p><img src= images/blank.png width =""200"" height = ""200"" style = ""float:right""></p><p><img src=images/blank.png width =""800"" height = ""200""></p>","","","","","","","",""
"","750.9999999892898","sequential-stimulus-presentation","171","402274","0.0-35.0-1.0","SS1613104229016","trial","","40","800","1550.9999999892898","images/stimuli/spore_stims/complex_10_A_d.gif","images/stimuli/spore_stims/complex_10_B_d.gif","","","","","9","complex_similar","images/stimuli/spore_stims/complex_10_B_d.gif","middle",""
"","null","html-keyboard-response","172","403395","0.0-35.0-0.1","SS1613104229016","","","null","","","","","<p><img src= images/blank.png width =""200"" height = ""200"" style = ""float:right""></p><p><img src=images/blank.png width =""800"" height = ""200""></p>","","","","","","","",""
"","799.9999999883585","sequential-stimulus-presentation","173","405023","0.0-35.0-1.1","SS1613104229016","trial","","40","800","1599.9999999883585","images/stimuli/spore_stims/complex_10_A_d.gif","images/stimuli/spore_stims/complex_10_B_d.gif","","","","","9","complex_similar","images/stimuli/spore_stims/complex_10_B_d.gif","middle",""
"","null","html-keyboard-response","174","406047","0.0-35.0-0.2","SS1613104229016","","","null","","","","","<p><img src= images/blank.png width =""200"" height = ""200"" style = ""float:right""></p><p><img src=images/blank.png width =""800"" height = ""200""></p>","","","","","","","",""
"","391.00000000325963","sequential-stimulus-presentation","175","407264","0.0-35.0-1.2","SS1613104229016","trial","","40","800","1191.0000000032596","images/stimuli/spore_stims/complex_10_A_d.gif","images/stimuli/spore_stims/complex_10_B_d.gif","","","","","9","complex_similar","images/stimuli/spore_stims/complex_10_B_d.gif","middle",""
"","null","html-keyboard-response","176","408142","0.0-35.0-0.3","SS1613104229016","","","null","","","","","<p><img src= images/blank.png width =""200"" height = ""200"" style = ""float:right""></p><p><img src=images/blank.png width =""800"" height = ""200""></p>","","","","","","","",""
"","402.00000000186265","sequential-stimulus-presentation","177","409370","0.0-35.0-1.3","SS1613104229016","trial","","40","800","1202.0000000018626","images/stimuli/spore_stims/complex_10_A_d.gif","images/stimuli/spore_stims/complex_10_B_d.gif","","","","","9","complex_similar","images/stimuli/spore_stims/complex_10_B_d.gif","middle",""
"","null","html-keyboard-response","178","410623","0.0-35.0-0.4","SS1613104229016","","","null","","","","","<p><img src= images/blank.png width =""200"" height = ""200"" style = ""float:right""></p><p><img src=images/blank.png width =""800"" height = ""200""></p>","","","","","","","",""
"","470.00000000116415","sequential-stimulus-presentation","179","411914","0.0-35.0-1.4","SS1613104229016","trial","","40","800","1270.0000000011642","images/stimuli/spore_stims/complex_10_A_d.gif","images/stimuli/spore_stims/complex_10_B_d.gif","","","","","9","complex_similar","images/stimuli/spore_stims/complex_10_B_d.gif","middle",""
"","null","html-keyboard-response","180","413085","0.0-35.0-0.5","SS1613104229016","","","null","","","","","<p><img src= images/blank.png width =""200"" height = ""200"" style = ""float:right""></p><p><img src=images/blank.png width =""800"" height = ""200""></p>","","","","","","","",""
"","557.9999999899883","sequential-stimulus-presentation","181","414463","0.0-35.0-1.5","SS1613104229016","trial","","40","800","1357.9999999899883","images/stimuli/spore_stims/complex_10_A_d.gif","images/stimuli/spore_stims/complex_10_B_d.gif","","","","","9","complex_similar","images/stimuli/spore_stims/complex_10_A_d.gif","left",""
"","null","html-keyboard-response","182","415535","0.0-35.0-0.6","SS1613104229016","","","null","","","","","<p><img src= images/blank.png width =""200"" height = ""200"" style = ""float:right""></p><p><img src=images/blank.png width =""800"" height = ""200""></p>","","","","","","","",""
"","104.99999998137355","sequential-stimulus-presentation","183","416463","0.0-35.0-1.6","SS1613104229016","trial","","40","800","904.9999999813735","images/stimuli/spore_stims/complex_10_A_d.gif","images/stimuli/spore_stims/complex_10_B_d.gif","","","","","9","complex_similar","images/stimuli/spore_stims/complex_10_B_d.gif","middle",""
"","null","html-keyboard-response","184","417584","0.0-35.0-0.7","SS1613104229016","","","null","","","","","<p><img src= images/blank.png width =""200"" height = ""200"" style = ""float:right""></p><p><img src=images/blank.png width =""800"" height = ""200""></p>","","","","","","","",""
"","192.9999999993015","sequential-stimulus-presentation","185","418603","0.0-35.0-1.7","SS1613104229016","trial","","40","800","992.9999999993015","images/stimuli/spore_stims/complex_10_A_d.gif","images/stimuli/spore_stims/complex_10_B_d.gif","","","","","9","complex_similar","images/stimuli/spore_stims/complex_10_B_d.gif","middle",""
"","2668.0000000051223","html-keyboard-response","186","421289","0.0-36.0","SS1613104229016","pref_question","","98","","","","","<video width ='960' height = '540' style='padding-top:8%' autoplay muted><source src='images/stimuli/wall_pref.mp4' type='video/mp4'></video>","2","middle","45%","9","","","",""
"","600.9999999951106","sequential-stimulus-presentation","187","422713","0.0-37.0","SS1613104229016","pref_reveal","","40","800","1400.9999999951106","null","null","","","","","9","","","","background"
"","null","html-keyboard-response","188","423747","0.0-38.0-0.0","SS1613104229016","","","null","","","","","<p><img src= images/blank.png width =""200"" height = ""200"" style = ""float:right""></p><p><img src=images/blank.png width =""800"" height = ""200""></p>","","","","","","","",""
"","121.00000001373701","sequential-stimulus-presentation","189","424696","0.0-38.0-1.0","SS1613104229016","trial","","40","800","921.000000013737","images/stimuli/spore_stims/complex_01_A_d.gif","images/stimuli/spore_stims/complex_13_B_a.gif","","","","","10","complex_dissimilar","images/stimuli/spore_stims/complex_13_B_a.gif","middle",""
"","null","html-keyboard-response","190","425973","0.0-38.0-0.1","SS1613104229016","","","null","","","","","<p><img src= images/blank.png width =""200"" height = ""200"" style = ""float:right""></p><p><img src=images/blank.png width =""800"" height = ""200""></p>","","","","","","","",""
"","489.9999999906868","sequential-stimulus-presentation","191","427290","0.0-38.0-1.1","SS1613104229016","trial","","40","800","1289.9999999906868","images/stimuli/spore_stims/complex_01_A_d.gif","images/stimuli/spore_stims/complex_13_B_a.gif","","","","","10","complex_dissimilar","images/stimuli/spore_stims/complex_13_B_a.gif","middle",""
"","null","html-keyboard-response","192","428384","0.0-38.0-0.2","SS1613104229016","","","null","","","","","<p><img src= images/blank.png width =""200"" height = ""200"" style = ""float:right""></p><p><img src=images/blank.png width =""800"" height = ""200""></p>","","","","","","","",""
"","54.99999999301508","sequential-stimulus-presentation","193","429264","0.0-38.0-1.2","SS1613104229016","trial","","40","800","854.9999999930151","images/stimuli/spore_stims/complex_01_A_d.gif","images/stimuli/spore_stims/complex_13_B_a.gif","","","","","10","complex_dissimilar","images/stimuli/spore_stims/complex_13_B_a.gif","middle",""
"","null","html-keyboard-response","194","430323","0.0-38.0-0.3","SS1613104229016","","","null","","","","","<p><img src= images/blank.png width =""200"" height = ""200"" style = ""float:right""></p><p><img src=images/blank.png width =""800"" height = ""200""></p>","","","","","","","",""
"","655.9999999881256","sequential-stimulus-presentation","195","431808","0.0-38.0-1.3","SS1613104229016","trial","","40","800","1455.9999999881256","images/stimuli/spore_stims/complex_01_A_d.gif","images/stimuli/spore_stims/complex_13_B_a.gif","","","","","10","complex_dissimilar","images/stimuli/spore_stims/complex_13_B_a.gif","middle",""
"","null","html-keyboard-response","196","433143","0.0-38.0-0.4","SS1613104229016","","","null","","","","","<p><img src= images/blank.png width =""200"" height = ""200"" style = ""float:right""></p><p><img src=images/blank.png width =""800"" height = ""200""></p>","","","","","","","",""
"","1545.0000000128057","sequential-stimulus-presentation","197","435552","0.0-38.0-1.4","SS1613104229016","trial","","40","800","2345.0000000128057","images/stimuli/spore_stims/complex_01_A_d.gif","images/stimuli/spore_stims/complex_13_B_a.gif","","","","","10","complex_dissimilar","images/stimuli/spore_stims/complex_01_A_d.gif","right",""
"","null","html-keyboard-response","198","436700","0.0-38.0-0.5","SS1613104229016","","","null","","","","","<p><img src= images/blank.png width =""200"" height = ""200"" style = ""float:right""></p><p><img src=images/blank.png width =""800"" height = ""200""></p>","","","","","","","",""
"","380.0000000046566","sequential-stimulus-presentation","199","437906","0.0-38.0-1.5","SS1613104229016","trial","","40","800","1180.0000000046566","images/stimuli/spore_stims/complex_01_A_d.gif","images/stimuli/spore_stims/complex_13_B_a.gif","","","","","10","complex_dissimilar","images/stimuli/spore_stims/complex_13_B_a.gif","middle",""
"","null","html-keyboard-response","200","438895","0.0-38.0-0.6","SS1613104229016","","","null","","","","","<p><img src= images/blank.png width =""200"" height = ""200"" style = ""float:right""></p><p><img src=images/blank.png width =""800"" height = ""200""></p>","","","","","","","",""
"","377.9999999969732","sequential-stimulus-presentation","201","440098","0.0-38.0-1.6","SS1613104229016","trial","","40","800","1177.9999999969732","images/stimuli/spore_stims/complex_01_A_d.gif","images/stimuli/spore_stims/complex_13_B_a.gif","","","","","10","complex_dissimilar","images/stimuli/spore_stims/complex_13_B_a.gif","middle",""
"","null","html-keyboard-response","202","441341","0.0-38.0-0.7","SS1613104229016","","","null","","","","","<p><img src= images/blank.png width =""200"" height = ""200"" style = ""float:right""></p><p><img src=images/blank.png width =""800"" height = ""200""></p>","","","","","","","",""
"","396.00000000791624","sequential-stimulus-presentation","203","442569","0.0-38.0-1.7","SS1613104229016","trial","","40","800","1196.0000000079162","images/stimuli/spore_stims/complex_01_A_d.gif","images/stimuli/spore_stims/complex_13_B_a.gif","","","","","10","complex_dissimilar","images/stimuli/spore_stims/complex_13_B_a.gif","middle",""
"","1741.9999999983702","html-keyboard-response","204","444341","0.0-39.0","SS1613104229016","pref_question","","98","","","","","<video width ='960' height = '540' style='padding-top:8%' autoplay muted><source src='images/stimuli/wall_pref.mp4' type='video/mp4'></video>","2","middle","45%","10","","","",""
"","350.99999999511056","sequential-stimulus-presentation","205","445552","0.0-40.0","SS1613104229016","pref_reveal","","40","800","1150.9999999951106","null","null","","","","","10","","","","background"
"","null","html-keyboard-response","206","446432","0.0-41.0-0.0","SS1613104229016","","","null","","","","","<p><img src= images/blank.png width =""200"" height = ""200"" style = ""float:right""></p><p><img src=images/blank.png width =""800"" height = ""200""></p>","","","","","","","",""
"","517.9999999818392","sequential-stimulus-presentation","207","447776","0.0-41.0-1.0","SS1613104229016","trial","","40","800","1317.9999999818392","images/stimuli/spore_stims/simple_15_A_d.gif","images/stimuli/spore_stims/simple_15_B_d.gif","","","","","11","simple_similar","images/stimuli/spore_stims/simple_15_B_d.gif","middle",""
"","null","html-keyboard-response","208","448695","0.0-41.0-0.1","SS1613104229016","","","null","","","","","<p><img src= images/blank.png width =""200"" height = ""200"" style = ""float:right""></p><p><img src=images/blank.png width =""800"" height = ""200""></p>","","","","","","","",""
"","964.9999999965075","sequential-stimulus-presentation","209","450488","0.0-41.0-1.1","SS1613104229016","trial","","40","800","1764.9999999965075","images/stimuli/spore_stims/simple_15_A_d.gif","images/stimuli/spore_stims/simple_15_B_d.gif","","","","","11","simple_similar","images/stimuli/spore_stims/simple_15_B_d.gif","middle",""
"","null","html-keyboard-response","210","451718","0.0-41.0-0.2","SS1613104229016","","","null","","","","","<p><img src= images/blank.png width =""200"" height = ""200"" style = ""float:right""></p><p><img src=images/blank.png width =""800"" height = ""200""></p>","","","","","","","",""
"","394.00000000023283","sequential-stimulus-presentation","211","452971","0.0-41.0-1.2","SS1613104229016","trial","","40","800","1194.0000000002328","images/stimuli/spore_stims/simple_15_A_d.gif","images/stimuli/spore_stims/simple_15_B_d.gif","","","","","11","simple_similar","images/stimuli/spore_stims/simple_15_B_d.gif","middle",""
"","null","html-keyboard-response","212","454267","0.0-41.0-0.3","SS1613104229016","","","null","","","","","<p><img src= images/blank.png width =""200"" height = ""200"" style = ""float:right""></p><p><img src=images/blank.png width =""800"" height = ""200""></p>","","","","","","","",""
"","2829.9999999871943","sequential-stimulus-presentation","213","457922","0.0-41.0-1.3","SS1613104229016","trial","","40","800","3629.9999999871943","images/stimuli/spore_stims/simple_15_A_d.gif","images/stimuli/spore_stims/simple_15_B_d.gif","","","","","11","simple_similar","images/stimuli/spore_stims/simple_15_B_d.gif","middle",""
"","null","html-keyboard-response","214","459108","0.0-41.0-0.4","SS1613104229016","","","null","","","","","<p><img src= images/blank.png width =""200"" height = ""200"" style = ""float:right""></p><p><img src=images/blank.png width =""800"" height = ""200""></p>","","","","","","","",""
"","417.0000000158325","sequential-stimulus-presentation","215","460351","0.0-41.0-1.4","SS1613104229016","trial","","40","800","1217.0000000158325","images/stimuli/spore_stims/simple_15_A_d.gif","images/stimuli/spore_stims/simple_15_B_d.gif","","","","","11","simple_similar","images/stimuli/spore_stims/simple_15_A_d.gif","left",""
"","null","html-keyboard-response","216","461630","0.0-41.0-0.5","SS1613104229016","","","null","","","","","<p><img src= images/blank.png width =""200"" height = ""200"" style = ""float:right""></p><p><img src=images/blank.png width =""800"" height = ""200""></p>","","","","","","","",""
"","5201.000000000931","sequential-stimulus-presentation","217","467653","0.0-41.0-1.5","SS1613104229016","trial","","40","800","6001.000000000931","images/stimuli/spore_stims/simple_15_A_d.gif","images/stimuli/spore_stims/simple_15_B_d.gif","","","","","11","simple_similar","images/stimuli/spore_stims/simple_15_B_d.gif","middle",""
"","null","html-keyboard-response","218","468525","0.0-41.0-0.6","SS1613104229016","","","null","","","","","<p><img src= images/blank.png width =""200"" height = ""200"" style = ""float:right""></p><p><img src=images/blank.png width =""800"" height = ""200""></p>","","","","","","","",""
"","4045.0000000128057","sequential-stimulus-presentation","219","473433","0.0-41.0-1.6","SS1613104229016","trial","","40","800","4845.000000012806","images/stimuli/spore_stims/simple_15_A_d.gif","images/stimuli/spore_stims/simple_15_B_d.gif","","","","","11","simple_similar","images/stimuli/spore_stims/simple_15_B_d.gif","middle",""
"","null","html-keyboard-response","220","474740","0.0-41.0-0.7","SS1613104229016","","","null","","","","","<p><img src= images/blank.png width =""200"" height = ""200"" style = ""float:right""></p><p><img src=images/blank.png width =""800"" height = ""200""></p>","","","","","","","",""
"","1467.000000004191","sequential-stimulus-presentation","221","477031","0.0-41.0-1.7","SS1613104229016","trial","","40","800","2267.000000004191","images/stimuli/spore_stims/simple_15_A_d.gif","images/stimuli/spore_stims/simple_15_B_d.gif","","","","","11","simple_similar","images/stimuli/spore_stims/simple_15_B_d.gif","middle",""
"","2172.999999980675","html-keyboard-response","222","479232","0.0-42.0","SS1613104229016","pref_question","","98","","","","","<video width ='960' height = '540' style='padding-top:8%' autoplay muted><source src='images/stimuli/wall_pref.mp4' type='video/mp4'></video>","2","middle","45%","11","","","",""
"","440.0000000023283","sequential-stimulus-presentation","223","480499","0.0-43.0","SS1613104229016","pref_reveal","","40","800","1240.0000000023283","null","null","","","","","11","","","","background"
"","null","html-keyboard-response","224","481711","0.0-44.0-0.0","SS1613104229016","","","null","","","","","<p><img src= images/blank.png width =""200"" height = ""200"" style = ""float:right""></p><p><img src=images/blank.png width =""800"" height = ""200""></p>","","","","","","","",""
"","496.000000013737","sequential-stimulus-presentation","225","483034","0.0-44.0-1.0","SS1613104229016","trial","","40","800","1296.000000013737","images/stimuli/spore_stims/simple_14_A_a.gif","images/stimuli/spore_stims/simple_14_B_a.gif","","","","","12","simple_similar","images/stimuli/spore_stims/simple_14_B_a.gif","middle",""
"","null","html-keyboard-response","226","484287","0.0-44.0-0.1","SS1613104229016","","","null","","","","","<p><img src= images/blank.png width =""200"" height = ""200"" style = ""float:right""></p><p><img src=images/blank.png width =""800"" height = ""200""></p>","","","","","","","",""
"","998.9999999816064","sequential-stimulus-presentation","227","486169","0.0-44.0-1.1","SS1613104229016","trial","","40","800","1798.9999999816064","images/stimuli/spore_stims/simple_14_A_a.gif","images/stimuli/spore_stims/simple_14_B_a.gif","","","","","12","simple_similar","images/stimuli/spore_stims/simple_14_B_a.gif","middle",""
"","null","html-keyboard-response","228","487151","0.0-44.0-0.2","SS1613104229016","","","null","","","","","<p><img src= images/blank.png width =""200"" height = ""200"" style = ""float:right""></p><p><img src=images/blank.png width =""800"" height = ""200""></p>","","","","","","","",""
"","629.0000000153668","sequential-stimulus-presentation","229","488610","0.0-44.0-1.2","SS1613104229016","trial","","40","800","1429.0000000153668","images/stimuli/spore_stims/simple_14_A_a.gif","images/stimuli/spore_stims/simple_14_B_a.gif","","","","","12","simple_similar","images/stimuli/spore_stims/simple_14_B_a.gif","middle",""
"","null","html-keyboard-response","230","489474","0.0-44.0-0.3","SS1613104229016","","","null","","","","","<p><img src= images/blank.png width =""200"" height = ""200"" style = ""float:right""></p><p><img src=images/blank.png width =""800"" height = ""200""></p>","","","","","","","",""
"","48.99999999906868","sequential-stimulus-presentation","231","490347","0.0-44.0-1.3","SS1613104229016","trial","","40","800","848.9999999990687","images/stimuli/spore_stims/simple_14_A_a.gif","images/stimuli/spore_stims/simple_14_B_a.gif","","","","","12","simple_similar","images/stimuli/spore_stims/simple_14_B_a.gif","middle",""
"","null","html-keyboard-response","232","491491","0.0-44.0-0.4","SS1613104229016","","","null","","","","","<p><img src= images/blank.png width =""200"" height = ""200"" style = ""float:right""></p><p><img src=images/blank.png width =""800"" height = ""200""></p>","","","","","","","",""
"","1471.0000000195578","sequential-stimulus-presentation","233","493787","0.0-44.0-1.4","SS1613104229016","trial","","40","800","2271.000000019558","images/stimuli/spore_stims/simple_14_A_a.gif","images/stimuli/spore_stims/simple_14_B_a.gif","","","","","12","simple_similar","images/stimuli/spore_stims/simple_14_B_a.gif","middle",""
"","null","html-keyboard-response","234","495077","0.0-44.0-0.5","SS1613104229016","","","null","","","","","<p><img src= images/blank.png width =""200"" height = ""200"" style = ""float:right""></p><p><img src=images/blank.png width =""800"" height = ""200""></p>","","","","","","","",""
"","1565.0000000023283","sequential-stimulus-presentation","235","497473","0.0-44.0-1.5","SS1613104229016","trial","","40","800","2365.0000000023283","images/stimuli/spore_stims/simple_14_A_a.gif","images/stimuli/spore_stims/simple_14_B_a.gif","","","","","12","simple_similar","images/stimuli/spore_stims/simple_14_B_a.gif","middle",""
"","null","html-keyboard-response","236","498792","0.0-44.0-0.6","SS1613104229016","","","null","","","","","<p><img src= images/blank.png width =""200"" height = ""200"" style = ""float:right""></p><p><img src=images/blank.png width =""800"" height = ""200""></p>","","","","","","","",""
"","160.99999999278225","sequential-stimulus-presentation","237","499780","0.0-44.0-1.6","SS1613104229016","trial","","40","800","960.9999999927823","images/stimuli/spore_stims/simple_14_A_a.gif","images/stimuli/spore_stims/simple_14_B_a.gif","","","","","12","simple_similar","images/stimuli/spore_stims/simple_14_A_a.gif","right",""
"","null","html-keyboard-response","238","501061","0.0-44.0-0.7","SS1613104229016","","","null","","","","","<p><img src= images/blank.png width =""200"" height = ""200"" style = ""float:right""></p><p><img src=images/blank.png width =""800"" height = ""200""></p>","","","","","","","",""
"","375","sequential-stimulus-presentation","239","502263","0.0-44.0-1.7","SS1613104229016","trial","","40","800","1175","images/stimuli/spore_stims/simple_14_A_a.gif","images/stimuli/spore_stims/simple_14_B_a.gif","","","","","12","simple_similar","images/stimuli/spore_stims/simple_14_B_a.gif","middle",""
"","2018.000000010943","html-keyboard-response","240","504312","0.0-45.0","SS1613104229016","pref_question","","97","","","","","<video width ='960' height = '540' style='padding-top:8%' autoplay muted><source src='images/stimuli/wall_pref.mp4' type='video/mp4'></video>","1","left","25%","12","","","",""
"","489.000000001397","sequential-stimulus-presentation","241","505630","0.0-46.0","SS1613104229016","pref_reveal","","40","800","1289.000000001397","null","null","","","","","12","","","","novel"
"","null","html-keyboard-response","242","506895","0.0-47.0-0.0","SS1613104229016","","","null","","","","","<p><img src= images/blank.png width =""200"" height = ""200"" style = ""float:right""></p><p><img src=images/blank.png width =""800"" height = ""200""></p>","","","","","","","",""
"","1058.000000019092","sequential-stimulus-presentation","243","508841","0.0-47.0-1.0","SS1613104229016","trial","","40","800","1858.000000019092","images/stimuli/spore_stims/simple_20_A_c.gif","images/stimuli/spore_stims/simple_20_B_c.gif","","","","","13","simple_similar","images/stimuli/spore_stims/simple_20_B_c.gif","right",""
"","null","html-keyboard-response","244","510033","0.0-47.0-0.1","SS1613104229016","","","null","","","","","<p><img src= images/blank.png width =""200"" height = ""200"" style = ""float:right""></p><p><img src=images/blank.png width =""800"" height = ""200""></p>","","","","","","","",""
"","898.0000000155997","sequential-stimulus-presentation","245","511761","0.0-47.0-1.1","SS1613104229016","trial","","40","800","1698.0000000155997","images/stimuli/spore_stims/simple_20_A_c.gif","images/stimuli/spore_stims/simple_20_B_c.gif","","","","","13","simple_similar","images/stimuli/spore_stims/simple_20_B_c.gif","right",""
"","null","html-keyboard-response","246","512869","0.0-47.0-0.2","SS1613104229016","","","null","","","","","<p><img src= images/blank.png width =""200"" height = ""200"" style = ""float:right""></p><p><img src=images/blank.png width =""800"" height = ""200""></p>","","","","","","","",""
"","192.9999999993015","sequential-stimulus-presentation","247","513888","0.0-47.0-1.2","SS1613104229016","trial","","40","800","992.9999999993015","images/stimuli/spore_stims/simple_20_A_c.gif","images/stimuli/spore_stims/simple_20_B_c.gif","","","","","13","simple_similar","images/stimuli/spore_stims/simple_20_B_c.gif","right",""
"","null","html-keyboard-response","248","515175","0.0-47.0-0.3","SS1613104229016","","","null","","","","","<p><img src= images/blank.png width =""200"" height = ""200"" style = ""float:right""></p><p><img src=images/blank.png width =""800"" height = ""200""></p>","","","","","","","",""
"","796.9999999913853","sequential-stimulus-presentation","249","516800","0.0-47.0-1.3","SS1613104229016","trial","","40","800","1596.9999999913853","images/stimuli/spore_stims/simple_20_A_c.gif","images/stimuli/spore_stims/simple_20_B_c.gif","","","","","13","simple_similar","images/stimuli/spore_stims/simple_20_B_c.gif","right",""
"","null","html-keyboard-response","250","517865","0.0-47.0-0.4","SS1613104229016","","","null","","","","","<p><img src= images/blank.png width =""200"" height = ""200"" style = ""float:right""></p><p><img src=images/blank.png width =""800"" height = ""200""></p>","","","","","","","",""
"","902.0000000018626","sequential-stimulus-presentation","251","519602","0.0-47.0-1.4","SS1613104229016","trial","","40","800","1702.0000000018626","images/stimuli/spore_stims/simple_20_A_c.gif","images/stimuli/spore_stims/simple_20_B_c.gif","","","","","13","simple_similar","images/stimuli/spore_stims/simple_20_B_c.gif","right",""
"","null","html-keyboard-response","252","520692","0.0-47.0-0.5","SS1613104229016","","","null","","","","","<p><img src= images/blank.png width =""200"" height = ""200"" style = ""float:right""></p><p><img src=images/blank.png width =""800"" height = ""200""></p>","","","","","","","",""
"","22.999999986495823","sequential-stimulus-presentation","253","521545","0.0-47.0-1.5","SS1613104229016","trial","","40","800","822.9999999864958","images/stimuli/spore_stims/simple_20_A_c.gif","images/stimuli/spore_stims/simple_20_B_c.gif","","","","","13","simple_similar","images/stimuli/spore_stims/simple_20_B_c.gif","right",""
"","null","html-keyboard-response","254","522509","0.0-47.0-0.6","SS1613104229016","","","null","","","","","<p><img src= images/blank.png width =""200"" height = ""200"" style = ""float:right""></p><p><img src=images/blank.png width =""800"" height = ""200""></p>","","","","","","","",""
"","211.99999999953434","sequential-stimulus-presentation","255","523548","0.0-47.0-1.6","SS1613104229016","trial","","40","800","1011.9999999995343","images/stimuli/spore_stims/simple_20_A_c.gif","images/stimuli/spore_stims/simple_20_B_c.gif","","","","","13","simple_similar","images/stimuli/spore_stims/simple_20_A_c.gif","left",""
"","null","html-keyboard-response","256","524563","0.0-47.0-0.7","SS1613104229016","","","null","","","","","<p><img src= images/blank.png width =""200"" height = ""200"" style = ""float:right""></p><p><img src=images/blank.png width =""800"" height = ""200""></p>","","","","","","","",""
"","3315.999999991618","sequential-stimulus-presentation","257","528705","0.0-47.0-1.7","SS1613104229016","trial","","40","800","4115.999999991618","images/stimuli/spore_stims/simple_20_A_c.gif","images/stimuli/spore_stims/simple_20_B_c.gif","","","","","13","simple_similar","images/stimuli/spore_stims/simple_20_B_c.gif","right",""
"","3630.9999999939464","html-keyboard-response","258","532425","0.0-48.0","SS1613104229016","pref_question","","98","","","","","<video width ='960' height = '540' style='padding-top:8%' autoplay muted><source src='images/stimuli/wall_pref.mp4' type='video/mp4'></video>","2","middle","45%","13","","","",""
"","292.99999997601844","sequential-stimulus-presentation","259","533547","0.0-49.0","SS1613104229016","pref_reveal","","40","800","1092.9999999760184","null","null","","","","","13","","","","novel"
"","null","html-keyboard-response","260","534840","0.0-50.0-0.0","SS1613104229016","","","null","","","","","<p><img src= images/blank.png width =""200"" height = ""200"" style = ""float:right""></p><p><img src=images/blank.png width =""800"" height = ""200""></p>","","","","","","","",""
"","59.0000000083819","sequential-stimulus-presentation","261","535729","0.0-50.0-1.0","SS1613104229016","trial","","40","800","859.0000000083819","images/stimuli/spore_stims/complex_07_B_a.gif","images/stimuli/spore_stims/complex_09_B_b.gif","","","","","14","complex_dissimilar","images/stimuli/spore_stims/complex_09_B_b.gif","left",""
"","null","html-keyboard-response","262","536659","0.0-50.0-0.1","SS1613104229016","","","null","","","","","<p><img src= images/blank.png width =""200"" height = ""200"" style = ""float:right""></p><p><img src=images/blank.png width =""800"" height = ""200""></p>","","","","","","","",""
"","649.0000000048894","sequential-stimulus-presentation","263","538152","0.0-50.0-1.1","SS1613104229016","trial","","40","800","1449.0000000048894","images/stimuli/spore_stims/complex_07_B_a.gif","images/stimuli/spore_stims/complex_09_B_b.gif","","","","","14","complex_dissimilar","images/stimuli/spore_stims/complex_09_B_b.gif","left",""
"","null","html-keyboard-response","264","538990","0.0-50.0-0.2","SS1613104229016","","","null","","","","","<p><img src= images/blank.png width =""200"" height = ""200"" style = ""float:right""></p><p><img src=images/blank.png width =""800"" height = ""200""></p>","","","","","","","",""
"","756.0000000230502","sequential-stimulus-presentation","265","540576","0.0-50.0-1.2","SS1613104229016","trial","","40","800","1556.0000000230502","images/stimuli/spore_stims/complex_07_B_a.gif","images/stimuli/spore_stims/complex_09_B_b.gif","","","","","14","complex_dissimilar","images/stimuli/spore_stims/complex_09_B_b.gif","left",""
"","null","html-keyboard-response","266","541489","0.0-50.0-0.3","SS1613104229016","","","null","","","","","<p><img src= images/blank.png width =""200"" height = ""200"" style = ""float:right""></p><p><img src=images/blank.png width =""800"" height = ""200""></p>","","","","","","","",""
"","73.00000000395812","sequential-stimulus-presentation","267","542401","0.0-50.0-1.3","SS1613104229016","trial","","40","800","873.0000000039581","images/stimuli/spore_stims/complex_07_B_a.gif","images/stimuli/spore_stims/complex_09_B_b.gif","","","","","14","complex_dissimilar","images/stimuli/spore_stims/complex_09_B_b.gif","left",""
"","null","html-keyboard-response","268","543603","0.0-50.0-0.4","SS1613104229016","","","null","","","","","<p><img src= images/blank.png width =""200"" height = ""200"" style = ""float:right""></p><p><img src=images/blank.png width =""800"" height = ""200""></p>","","","","","","","",""
"","759.9999999802094","sequential-stimulus-presentation","269","545192","0.0-50.0-1.4","SS1613104229016","trial","","40","800","1559.9999999802094","images/stimuli/spore_stims/complex_07_B_a.gif","images/stimuli/spore_stims/complex_09_B_b.gif","","","","","14","complex_dissimilar","images/stimuli/spore_stims/complex_09_B_b.gif","left",""
"","null","html-keyboard-response","270","546332","0.0-50.0-0.5","SS1613104229016","","","null","","","","","<p><img src= images/blank.png width =""200"" height = ""200"" style = ""float:right""></p><p><img src=images/blank.png width =""800"" height = ""200""></p>","","","","","","","",""
"","284.00000001420267","sequential-stimulus-presentation","271","547449","0.0-50.0-1.5","SS1613104229016","trial","","40","800","1084.0000000142027","images/stimuli/spore_stims/complex_07_B_a.gif","images/stimuli/spore_stims/complex_09_B_b.gif","","","","","14","complex_dissimilar","images/stimuli/spore_stims/complex_07_B_a.gif","right",""
"","null","html-keyboard-response","272","548499","0.0-50.0-0.6","SS1613104229016","","","null","","","","","<p><img src= images/blank.png width =""200"" height = ""200"" style = ""float:right""></p><p><img src=images/blank.png width =""800"" height = ""200""></p>","","","","","","","",""
"","3230.0000000104774","sequential-stimulus-presentation","273","552569","0.0-50.0-1.6","SS1613104229016","trial","","40","800","4030.0000000104774","images/stimuli/spore_stims/complex_07_B_a.gif","images/stimuli/spore_stims/complex_09_B_b.gif","","","","","14","complex_dissimilar","images/stimuli/spore_stims/complex_09_B_b.gif","left",""
"","null","html-keyboard-response","274","553746","0.0-50.0-0.7","SS1613104229016","","","null","","","","","<p><img src= images/blank.png width =""200"" height = ""200"" style = ""float:right""></p><p><img src=images/blank.png width =""800"" height = ""200""></p>","","","","","","","",""
"","750","sequential-stimulus-presentation","275","555329","0.0-50.0-1.7","SS1613104229016","trial","","40","800","1550","images/stimuli/spore_stims/complex_07_B_a.gif","images/stimuli/spore_stims/complex_09_B_b.gif","","","","","14","complex_dissimilar","images/stimuli/spore_stims/complex_09_B_b.gif","left",""
"","2032.999999995809","html-keyboard-response","276","557393","0.0-51.0","SS1613104229016","pref_question","","97","","","","","<video width ='960' height = '540' style='padding-top:8%' autoplay muted><source src='images/stimuli/wall_pref.mp4' type='video/mp4'></video>","1","left","25%","14","","","",""
"","552.9999999853317","sequential-stimulus-presentation","277","558784","0.0-52.0","SS1613104229016","pref_reveal","","40","800","1352.9999999853317","null","null","","","","","14","","","","background"
"","null","html-keyboard-response","278","559979","0.0-53.0-0.0","SS1613104229016","","","null","","","","","<p><img src= images/blank.png width =""200"" height = ""200"" style = ""float:right""></p><p><img src=images/blank.png width =""800"" height = ""200""></p>","","","","","","","",""
"","2431.0000000114087","sequential-stimulus-presentation","279","563243","0.0-53.0-1.0","SS1613104229016","trial","","40","800","3231.0000000114087","images/stimuli/spore_stims/simple_04_A_d.gif","images/stimuli/spore_stims/simple_19_B_b.gif","","","","","15","simple_dissimilar","images/stimuli/spore_stims/simple_19_B_b.gif","right",""
"","null","html-keyboard-response","280","564426","0.0-53.0-0.1","SS1613104229016","","","null","","","","","<p><img src= images/blank.png width =""200"" height = ""200"" style = ""float:right""></p><p><img src=images/blank.png width =""800"" height = ""200""></p>","","","","","","","",""
"","1157.999999995809","sequential-stimulus-presentation","281","566417","0.0-53.0-1.1","SS1613104229016","trial","","40","800","1957.999999995809","images/stimuli/spore_stims/simple_04_A_d.gif","images/stimuli/spore_stims/simple_19_B_b.gif","","","","","15","simple_dissimilar","images/stimuli/spore_stims/simple_19_B_b.gif","right",""
"","null","html-keyboard-response","282","567536","0.0-53.0-0.2","SS1613104229016","","","null","","","","","<p><img src= images/blank.png width =""200"" height = ""200"" style = ""float:right""></p><p><img src=images/blank.png width =""800"" height = ""200""></p>","","","","","","","",""
"","399.99999999417923","sequential-stimulus-presentation","283","568769","0.0-53.0-1.2","SS1613104229016","trial","","40","800","1199.9999999941792","images/stimuli/spore_stims/simple_04_A_d.gif","images/stimuli/spore_stims/simple_19_B_b.gif","","","","","15","simple_dissimilar","images/stimuli/spore_stims/simple_19_B_b.gif","right",""
"","null","html-keyboard-response","284","570023","0.0-53.0-0.3","SS1613104229016","","","null","","","","","<p><img src= images/blank.png width =""200"" height = ""200"" style = ""float:right""></p><p><img src=images/blank.png width =""800"" height = ""200""></p>","","","","","","","",""
"","1715.9999999857973","sequential-stimulus-presentation","285","572570","0.0-53.0-1.3","SS1613104229016","trial","","40","800","2515.9999999857973","images/stimuli/spore_stims/simple_04_A_d.gif","images/stimuli/spore_stims/simple_19_B_b.gif","","","","","15","simple_dissimilar","images/stimuli/spore_stims/simple_04_A_d.gif","middle",""
"","null","html-keyboard-response","286","573896","0.0-53.0-0.4","SS1613104229016","","","null","","","","","<p><img src= images/blank.png width =""200"" height = ""200"" style = ""float:right""></p><p><img src=images/blank.png width =""800"" height = ""200""></p>","","","","","","","",""
"","1318.0000000284053","sequential-stimulus-presentation","287","576043","0.0-53.0-1.4","SS1613104229016","trial","","40","800","2118.0000000284053","images/stimuli/spore_stims/simple_04_A_d.gif","images/stimuli/spore_stims/simple_19_B_b.gif","","","","","15","simple_dissimilar","images/stimuli/spore_stims/simple_19_B_b.gif","right",""
"","null","html-keyboard-response","288","576996","0.0-53.0-0.5","SS1613104229016","","","null","","","","","<p><img src= images/blank.png width =""200"" height = ""200"" style = ""float:right""></p><p><img src=images/blank.png width =""800"" height = ""200""></p>","","","","","","","",""
"","2673.000000009779","sequential-stimulus-presentation","289","580593","0.0-53.0-1.5","SS1613104229016","trial","","40","800","3473.000000009779","images/stimuli/spore_stims/simple_04_A_d.gif","images/stimuli/spore_stims/simple_19_B_b.gif","","","","","15","simple_dissimilar","images/stimuli/spore_stims/simple_19_B_b.gif","right",""
"","null","html-keyboard-response","290","581522","0.0-53.0-0.6","SS1613104229016","","","null","","","","","<p><img src= images/blank.png width =""200"" height = ""200"" style = ""float:right""></p><p><img src=images/blank.png width =""800"" height = ""200""></p>","","","","","","","",""
"","1196.9999999855645","sequential-stimulus-presentation","291","583552","0.0-53.0-1.6","SS1613104229016","trial","","40","800","1996.9999999855645","images/stimuli/spore_stims/simple_04_A_d.gif","images/stimuli/spore_stims/simple_19_B_b.gif","","","","","15","simple_dissimilar","images/stimuli/spore_stims/simple_19_B_b.gif","right",""
"","null","html-keyboard-response","292","584490","0.0-53.0-0.7","SS1613104229016","","","null","","","","","<p><img src= images/blank.png width =""200"" height = ""200"" style = ""float:right""></p><p><img src=images/blank.png width =""800"" height = ""200""></p>","","","","","","","",""
"","975.9999999951106","sequential-stimulus-presentation","293","586298","0.0-53.0-1.7","SS1613104229016","trial","","40","800","1775.9999999951106","images/stimuli/spore_stims/simple_04_A_d.gif","images/stimuli/spore_stims/simple_19_B_b.gif","","","","","15","simple_dissimilar","images/stimuli/spore_stims/simple_19_B_b.gif","right",""
"","2183.999999979278","html-keyboard-response","294","588512","0.0-54.0","SS1613104229016","pref_question","","99","","","","","<video width ='960' height = '540' style='padding-top:8%' autoplay muted><source src='images/stimuli/wall_pref.mp4' type='video/mp4'></video>","3","right","66%","15","","","",""
"","7596.000000019558","sequential-stimulus-presentation","295","596945","0.0-55.0","SS1613104229016","pref_reveal","","40","800","8396.000000019558","null","null","","","","","15","","","","background"
"","null","html-keyboard-response","296","598037","0.0-56.0-0.0","SS1613104229016","","","null","","","","","<p><img src= images/blank.png width =""200"" height = ""200"" style = ""float:right""></p><p><img src=images/blank.png width =""800"" height = ""200""></p>","","","","","","","",""
"","49.99999998835847","sequential-stimulus-presentation","297","598943","0.0-56.0-1.0","SS1613104229016","trial","","40","800","849.9999999883585","images/stimuli/spore_stims/simple_06_A_d.gif","images/stimuli/spore_stims/simple_06_B_d.gif","","","","","16","simple_similar","images/stimuli/spore_stims/simple_06_B_d.gif","right",""
"","null","html-keyboard-response","298","600200","0.0-56.0-0.1","SS1613104229016","","","null","","","","","<p><img src= images/blank.png width =""200"" height = ""200"" style = ""float:right""></p><p><img src=images/blank.png width =""800"" height = ""200""></p>","","","","","","","",""
