"view_history","rt","trial_type","trial_index","time_elapsed","internal_node_id","subject","stimulus_type","trial_stimulus","key_press","minimum_viewing_duration","trial_looking_time","block_deviant","block_background","stimulus","wall_pref","location","location_percent","block_number","block_type","stimulus_displayed","position_displayed","stim_type_selected","responses","question_order","stimulus_left","stimulus_right"
"[{""page_index"":0,""viewing_time"":4545.915000002424}]","4546.519999999873","instructions","0","4548","0.0-0.0","SS1613172016376","","","","","","","","","","","","","","","","","","","",""
"[{""page_index"":0,""viewing_time"":8338.999999999942},{""page_index"":1,""viewing_time"":4176.565000001574}]","12515.855000001466","instructions","1","19064","0.0-1.0","SS1613172016376","instructions","","","","","","","","","","","","","","","","","","",""
"","6235.140000000683","sequential-stimulus-presentation","2","26103","0.0-2.0","SS1613172016376","","","40","800","7035.140000000683","null","null","","","","","","","","","","","","",""
"","2432.3249999979453","sequential-stimulus-presentation","3","29342","0.0-3.0","SS1613172016376","","","40","800","3232.3249999979453","null","null","","","","","","","","","","","","",""
"[{""page_index"":0,""viewing_time"":2672.8750000002037}]","2673.1550000004063","instructions","4","32016","0.0-4.0","SS1613172016376","instructions","","","","","","","","","","","","","","","","","","",""
"","2715.359999998327","html-keyboard-response","5","34734","0.0-5.0","SS1613172016376","instructions","","49","","","","","<video width ='960' height = '540' autoplay muted><source src='images/stimuli/wall_pref.mp4' type='video/mp4'></video>","1","left","25%","","","","","","","","",""
"","2099.7999999999593","sequential-stimulus-presentation","6","37637","0.0-6.0","SS1613172016376","pref_reveal","","40","800","2899.7999999999593","null","null","","","","","","","","","","","","",""
"[{""page_index"":0,""viewing_time"":11439.739999997983},{""page_index"":1,""viewing_time"":5339.735000001383},{""page_index"":2,""viewing_time"":1521.9149999975343},{""page_index"":3,""viewing_time"":653.6550000018906}]","18955.324999998993","instructions","7","56593","0.0-7.0","SS1613172016376","instructions","","","","","","","","","","","","","","","","","","",""
"","null","html-keyboard-response","8","57890","0.0-8.0-0.0","SS1613172016376","","","null","","","","","<p><img src= images/blank.png width =""200"" height = ""200"" style = ""float:right""></p><p><img src=images/blank.png width =""800"" height = ""200""></p>","","","","","","","","","","","",""
"","1803.4049999987474","sequential-stimulus-presentation","9","60499","0.0-8.0-1.0","SS1613172016376","trial","","40","800","2603.4049999987474","images/stimuli/spore_stims/simple_14_A_a.gif","images/stimuli/spore_stims/simple_14_B_a.gif","","","","","0","simple_similar","images/stimuli/spore_stims/simple_14_B_a.gif","middle","","","","",""
"","null","html-keyboard-response","10","61746","0.0-8.0-0.1","SS1613172016376","","","null","","","","","<p><img src= images/blank.png width =""200"" height = ""200"" style = ""float:right""></p><p><img src=images/blank.png width =""800"" height = ""200""></p>","","","","","","","","","","","",""
"","2323.774999997113","sequential-stimulus-presentation","11","64875","0.0-8.0-1.1","SS1613172016376","trial","","40","800","3123.774999997113","images/stimuli/spore_stims/simple_14_A_a.gif","images/stimuli/spore_stims/simple_14_B_a.gif","","","","","0","simple_similar","images/stimuli/spore_stims/simple_14_B_a.gif","middle","","","","",""
"","null","html-keyboard-response","12","65979","0.0-8.0-0.2","SS1613172016376","","","null","","","","","<p><img src= images/blank.png width =""200"" height = ""200"" style = ""float:right""></p><p><img src=images/blank.png width =""800"" height = ""200""></p>","","","","","","","","","","","",""
"","2170.619999997143","sequential-stimulus-presentation","13","68953","0.0-8.0-1.2","SS1613172016376","trial","","40","800","2970.619999997143","images/stimuli/spore_stims/simple_14_A_a.gif","images/stimuli/spore_stims/simple_14_B_a.gif","","","","","0","simple_similar","images/stimuli/spore_stims/simple_14_B_a.gif","middle","","","","",""
"","null","html-keyboard-response","14","70151","0.0-8.0-0.3","SS1613172016376","","","null","","","","","<p><img src= images/blank.png width =""200"" height = ""200"" style = ""float:right""></p><p><img src=images/blank.png width =""800"" height = ""200""></p>","","","","","","","","","","","",""
"","3396.9249999972817","sequential-stimulus-presentation","15","74353","0.0-8.0-1.3","SS1613172016376","trial","","40","800","4196.924999997282","images/stimuli/spore_stims/simple_14_A_a.gif","images/stimuli/spore_stims/simple_14_B_a.gif","","","","","0","simple_similar","images/stimuli/spore_stims/simple_14_B_a.gif","middle","","","","",""
"","null","html-keyboard-response","16","75225","0.0-8.0-0.4","SS1613172016376","","","null","","","","","<p><img src= images/blank.png width =""200"" height = ""200"" style = ""float:right""></p><p><img src=images/blank.png width =""800"" height = ""200""></p>","","","","","","","","","","","",""
"","2026.030000000901","sequential-stimulus-presentation","17","78056","0.0-8.0-1.4","SS1613172016376","trial","","40","800","2826.030000000901","images/stimuli/spore_stims/simple_14_A_a.gif","images/stimuli/spore_stims/simple_14_B_a.gif","","","","","0","simple_similar","images/stimuli/spore_stims/simple_14_B_a.gif","middle","","","","",""
"","null","html-keyboard-response","18","78966","0.0-8.0-0.5","SS1613172016376","","","null","","","","","<p><img src= images/blank.png width =""200"" height = ""200"" style = ""float:right""></p><p><img src=images/blank.png width =""800"" height = ""200""></p>","","","","","","","","","","","",""
"","2419.6949999968638","sequential-stimulus-presentation","19","82192","0.0-8.0-1.5","SS1613172016376","trial","","40","800","3219.6949999968638","images/stimuli/spore_stims/simple_14_A_a.gif","images/stimuli/spore_stims/simple_14_B_a.gif","","","","","0","simple_similar","images/stimuli/spore_stims/simple_14_A_a.gif","left","","","","",""
"","null","html-keyboard-response","20","83225","0.0-8.0-0.6","SS1613172016376","","","null","","","","","<p><img src= images/blank.png width =""200"" height = ""200"" style = ""float:right""></p><p><img src=images/blank.png width =""800"" height = ""200""></p>","","","","","","","","","","","",""
"","2778.5250000015367","sequential-stimulus-presentation","21","86808","0.0-8.0-1.6","SS1613172016376","trial","","40","800","3578.5250000015367","images/stimuli/spore_stims/simple_14_A_a.gif","images/stimuli/spore_stims/simple_14_B_a.gif","","","","","0","simple_similar","images/stimuli/spore_stims/simple_14_B_a.gif","middle","","","","",""
"","null","html-keyboard-response","22","87858","0.0-8.0-0.7","SS1613172016376","","","null","","","","","<p><img src= images/blank.png width =""200"" height = ""200"" style = ""float:right""></p><p><img src=images/blank.png width =""800"" height = ""200""></p>","","","","","","","","","","","",""
"","807.329999999638","sequential-stimulus-presentation","23","89471","0.0-8.0-1.7","SS1613172016376","trial","","40","800","1607.329999999638","images/stimuli/spore_stims/simple_14_A_a.gif","images/stimuli/spore_stims/simple_14_B_a.gif","","","","","0","simple_similar","images/stimuli/spore_stims/simple_14_B_a.gif","middle","","","","",""
"","2252.4650000013935","html-keyboard-response","24","91727","0.0-9.0","SS1613172016376","pref_question","","51","","","","","<video width ='960' height = '540' style='padding-top:8%' autoplay muted><source src='images/stimuli/wall_pref.mp4' type='video/mp4'></video>","3","right","66%","0","","","","","","","",""
"","2172.085000001971","sequential-stimulus-presentation","25","94702","0.0-10.0","SS1613172016376","pref_reveal","","40","800","2972.085000001971","null","null","","","","","0","","","","novel","","","",""
"","null","html-keyboard-response","26","95838","0.0-11.0-0.0","SS1613172016376","","","null","","","","","<p><img src= images/blank.png width =""200"" height = ""200"" style = ""float:right""></p><p><img src=images/blank.png width =""800"" height = ""200""></p>","","","","","","","","","","","",""
"","3149.5149999973364","sequential-stimulus-presentation","27","99791","0.0-11.0-1.0","SS1613172016376","trial","","40","800","3949.5149999973364","images/stimuli/spore_stims/complex_05_B_d.gif","images/stimuli/spore_stims/complex_05_A_d.gif","","","","","1","complex_similar","images/stimuli/spore_stims/complex_05_A_d.gif","right","","","","",""
"","null","html-keyboard-response","28","100926","0.0-11.0-0.1","SS1613172016376","","","null","","","","","<p><img src= images/blank.png width =""200"" height = ""200"" style = ""float:right""></p><p><img src=images/blank.png width =""800"" height = ""200""></p>","","","","","","","","","","","",""
"","2507.614999998623","sequential-stimulus-presentation","29","104237","0.0-11.0-1.1","SS1613172016376","trial","","40","800","3307.614999998623","images/stimuli/spore_stims/complex_05_B_d.gif","images/stimuli/spore_stims/complex_05_A_d.gif","","","","","1","complex_similar","images/stimuli/spore_stims/complex_05_A_d.gif","right","","","","",""
"","null","html-keyboard-response","30","105181","0.0-11.0-0.2","SS1613172016376","","","null","","","","","<p><img src= images/blank.png width =""200"" height = ""200"" style = ""float:right""></p><p><img src=images/blank.png width =""800"" height = ""200""></p>","","","","","","","","","","","",""
"","2601.344999999128","sequential-stimulus-presentation","31","108589","0.0-11.0-1.2","SS1613172016376","trial","","40","800","3401.344999999128","images/stimuli/spore_stims/complex_05_B_d.gif","images/stimuli/spore_stims/complex_05_A_d.gif","","","","","1","complex_similar","images/stimuli/spore_stims/complex_05_A_d.gif","right","","","","",""
"","null","html-keyboard-response","32","109608","0.0-11.0-0.3","SS1613172016376","","","null","","","","","<p><img src= images/blank.png width =""200"" height = ""200"" style = ""float:right""></p><p><img src=images/blank.png width =""800"" height = ""200""></p>","","","","","","","","","","","",""
"","2392.8049999994982","sequential-stimulus-presentation","33","112806","0.0-11.0-1.3","SS1613172016376","trial","","40","800","3192.8049999994982","images/stimuli/spore_stims/complex_05_B_d.gif","images/stimuli/spore_stims/complex_05_A_d.gif","","","","","1","complex_similar","images/stimuli/spore_stims/complex_05_B_d.gif","left","","","","",""
"","null","html-keyboard-response","34","113965","0.0-11.0-0.4","SS1613172016376","","","null","","","","","<p><img src= images/blank.png width =""200"" height = ""200"" style = ""float:right""></p><p><img src=images/blank.png width =""800"" height = ""200""></p>","","","","","","","","","","","",""
"","1003.3900000016729","sequential-stimulus-presentation","35","115773","0.0-11.0-1.4","SS1613172016376","trial","","40","800","1803.390000001673","images/stimuli/spore_stims/complex_05_B_d.gif","images/stimuli/spore_stims/complex_05_A_d.gif","","","","","1","complex_similar","images/stimuli/spore_stims/complex_05_A_d.gif","right","","","","",""
"","null","html-keyboard-response","36","116675","0.0-11.0-0.5","SS1613172016376","","","null","","","","","<p><img src= images/blank.png width =""200"" height = ""200"" style = ""float:right""></p><p><img src=images/blank.png width =""800"" height = ""200""></p>","","","","","","","","","","","",""
"","812.8550000001269","sequential-stimulus-presentation","37","118291","0.0-11.0-1.5","SS1613172016376","trial","","40","800","1612.855000000127","images/stimuli/spore_stims/complex_05_B_d.gif","images/stimuli/spore_stims/complex_05_A_d.gif","","","","","1","complex_similar","images/stimuli/spore_stims/complex_05_A_d.gif","right","","","","",""
"","null","html-keyboard-response","38","119208","0.0-11.0-0.6","SS1613172016376","","","null","","","","","<p><img src= images/blank.png width =""200"" height = ""200"" style = ""float:right""></p><p><img src=images/blank.png width =""800"" height = ""200""></p>","","","","","","","","","","","",""
"","550.3700000008394","sequential-stimulus-presentation","39","120564","0.0-11.0-1.6","SS1613172016376","trial","","40","800","1350.3700000008394","images/stimuli/spore_stims/complex_05_B_d.gif","images/stimuli/spore_stims/complex_05_A_d.gif","","","","","1","complex_similar","images/stimuli/spore_stims/complex_05_A_d.gif","right","","","","",""
"","null","html-keyboard-response","40","121808","0.0-11.0-0.7","SS1613172016376","","","null","","","","","<p><img src= images/blank.png width =""200"" height = ""200"" style = ""float:right""></p><p><img src=images/blank.png width =""800"" height = ""200""></p>","","","","","","","","","","","",""
"","776.2750000001688","sequential-stimulus-presentation","41","123389","0.0-11.0-1.7","SS1613172016376","trial","","40","800","1576.2750000001688","images/stimuli/spore_stims/complex_05_B_d.gif","images/stimuli/spore_stims/complex_05_A_d.gif","","","","","1","complex_similar","images/stimuli/spore_stims/complex_05_A_d.gif","right","","","","",""
"","1258.4600000009232","html-keyboard-response","42","124651","0.0-12.0","SS1613172016376","pref_question","","50","","","","","<video width ='960' height = '540' style='padding-top:8%' autoplay muted><source src='images/stimuli/wall_pref.mp4' type='video/mp4'></video>","2","middle","45%","1","","","","","","","",""
"","1330.8450000004086","sequential-stimulus-presentation","43","126789","0.0-13.0","SS1613172016376","pref_reveal","","40","800","2130.8450000004086","null","null","","","","","1","","","","novel","","","",""
"","null","html-keyboard-response","44","127961","0.0-14.0-0.0","SS1613172016376","","","null","","","","","<p><img src= images/blank.png width =""200"" height = ""200"" style = ""float:right""></p><p><img src=images/blank.png width =""800"" height = ""200""></p>","","","","","","","","","","","",""
"","1764.5149999989371","sequential-stimulus-presentation","45","130530","0.0-14.0-1.0","SS1613172016376","trial","","40","800","2564.514999998937","images/stimuli/spore_stims/simple_12_A_a.gif","images/stimuli/spore_stims/simple_12_B_a.gif","","","","","2","simple_similar","images/stimuli/spore_stims/simple_12_B_a.gif","left","","","","",""
"","null","html-keyboard-response","46","131444","0.0-14.0-0.1","SS1613172016376","","","null","","","","","<p><img src= images/blank.png width =""200"" height = ""200"" style = ""float:right""></p><p><img src=images/blank.png width =""800"" height = ""200""></p>","","","","","","","","","","","",""
"","1024.940000002971","sequential-stimulus-presentation","47","133274","0.0-14.0-1.1","SS1613172016376","trial","","40","800","1824.940000002971","images/stimuli/spore_stims/simple_12_A_a.gif","images/stimuli/spore_stims/simple_12_B_a.gif","","","","","2","simple_similar","images/stimuli/spore_stims/simple_12_B_a.gif","left","","","","",""
"","null","html-keyboard-response","48","134324","0.0-14.0-0.2","SS1613172016376","","","null","","","","","<p><img src= images/blank.png width =""200"" height = ""200"" style = ""float:right""></p><p><img src=images/blank.png width =""800"" height = ""200""></p>","","","","","","","","","","","",""
"","768.5249999994994","sequential-stimulus-presentation","49","135897","0.0-14.0-1.2","SS1613172016376","trial","","40","800","1568.5249999994994","images/stimuli/spore_stims/simple_12_A_a.gif","images/stimuli/spore_stims/simple_12_B_a.gif","","","","","2","simple_similar","images/stimuli/spore_stims/simple_12_B_a.gif","left","","","","",""
"","null","html-keyboard-response","50","136924","0.0-14.0-0.3","SS1613172016376","","","null","","","","","<p><img src= images/blank.png width =""200"" height = ""200"" style = ""float:right""></p><p><img src=images/blank.png width =""800"" height = ""200""></p>","","","","","","","","","","","",""
"","984.1549999982817","sequential-stimulus-presentation","51","138713","0.0-14.0-1.3","SS1613172016376","trial","","40","800","1784.1549999982817","images/stimuli/spore_stims/simple_12_A_a.gif","images/stimuli/spore_stims/simple_12_B_a.gif","","","","","2","simple_similar","images/stimuli/spore_stims/simple_12_B_a.gif","left","","","","",""
"","null","html-keyboard-response","52","139912","0.0-14.0-0.4","SS1613172016376","","","null","","","","","<p><img src= images/blank.png width =""200"" height = ""200"" style = ""float:right""></p><p><img src=images/blank.png width =""800"" height = ""200""></p>","","","","","","","","","","","",""
"","1897.9849999996077","sequential-stimulus-presentation","53","142617","0.0-14.0-1.4","SS1613172016376","trial","","40","800","2697.9849999996077","images/stimuli/spore_stims/simple_12_A_a.gif","images/stimuli/spore_stims/simple_12_B_a.gif","","","","","2","simple_similar","images/stimuli/spore_stims/simple_12_A_a.gif","right","","","","",""
"","null","html-keyboard-response","54","143659","0.0-14.0-0.5","SS1613172016376","","","null","","","","","<p><img src= images/blank.png width =""200"" height = ""200"" style = ""float:right""></p><p><img src=images/blank.png width =""800"" height = ""200""></p>","","","","","","","","","","","",""
"","888.9450000024226","sequential-stimulus-presentation","55","145353","0.0-14.0-1.5","SS1613172016376","trial","","40","800","1688.9450000024226","images/stimuli/spore_stims/simple_12_A_a.gif","images/stimuli/spore_stims/simple_12_B_a.gif","","","","","2","simple_similar","images/stimuli/spore_stims/simple_12_B_a.gif","left","","","","",""
"","null","html-keyboard-response","56","146176","0.0-14.0-0.6","SS1613172016376","","","null","","","","","<p><img src= images/blank.png width =""200"" height = ""200"" style = ""float:right""></p><p><img src=images/blank.png width =""800"" height = ""200""></p>","","","","","","","","","","","",""
"","535.8449999985169","sequential-stimulus-presentation","57","147520","0.0-14.0-1.6","SS1613172016376","trial","","40","800","1335.8449999985169","images/stimuli/spore_stims/simple_12_A_a.gif","images/stimuli/spore_stims/simple_12_B_a.gif","","","","","2","simple_similar","images/stimuli/spore_stims/simple_12_B_a.gif","left","","","","",""
"","null","html-keyboard-response","58","148418","0.0-14.0-0.7","SS1613172016376","","","null","","","","","<p><img src= images/blank.png width =""200"" height = ""200"" style = ""float:right""></p><p><img src=images/blank.png width =""800"" height = ""200""></p>","","","","","","","","","","","",""
"","471.81500000078813","sequential-stimulus-presentation","59","149696","0.0-14.0-1.7","SS1613172016376","trial","","40","800","1271.8150000007881","images/stimuli/spore_stims/simple_12_A_a.gif","images/stimuli/spore_stims/simple_12_B_a.gif","","","","","2","simple_similar","images/stimuli/spore_stims/simple_12_B_a.gif","left","","","","",""
"","1308.3149999984016","html-keyboard-response","60","151008","0.0-15.0","SS1613172016376","pref_question","","50","","","","","<video width ='960' height = '540' style='padding-top:8%' autoplay muted><source src='images/stimuli/wall_pref.mp4' type='video/mp4'></video>","2","middle","45%","2","","","","","","","",""
"","3010.1250000006985","sequential-stimulus-presentation","61","154824","0.0-16.0","SS1613172016376","pref_reveal","","40","800","3810.1250000006985","null","null","","","","","2","","","","novel","","","",""
"","null","html-keyboard-response","62","156048","0.0-17.0-0.0","SS1613172016376","","","null","","","","","<p><img src= images/blank.png width =""200"" height = ""200"" style = ""float:right""></p><p><img src=images/blank.png width =""800"" height = ""200""></p>","","","","","","","","","","","",""
"","1142.0099999995728","sequential-stimulus-presentation","63","157999","0.0-17.0-1.0","SS1613172016376","trial","","40","800","1942.0099999995728","images/stimuli/spore_stims/complex_11_A_b.gif","images/stimuli/spore_stims/complex_04_B_a.gif","","","","","3","complex_dissimilar","images/stimuli/spore_stims/complex_04_B_a.gif","right","","","","",""
"","null","html-keyboard-response","64","159228","0.0-17.0-0.1","SS1613172016376","","","null","","","","","<p><img src= images/blank.png width =""200"" height = ""200"" style = ""float:right""></p><p><img src=images/blank.png width =""800"" height = ""200""></p>","","","","","","","","","","","",""
"","1132.9350000014529","sequential-stimulus-presentation","65","161166","0.0-17.0-1.1","SS1613172016376","trial","","40","800","1932.9350000014529","images/stimuli/spore_stims/complex_11_A_b.gif","images/stimuli/spore_stims/complex_04_B_a.gif","","","","","3","complex_dissimilar","images/stimuli/spore_stims/complex_04_B_a.gif","right","","","","",""
"","null","html-keyboard-response","66","162334","0.0-17.0-0.2","SS1613172016376","","","null","","","","","<p><img src= images/blank.png width =""200"" height = ""200"" style = ""float:right""></p><p><img src=images/blank.png width =""800"" height = ""200""></p>","","","","","","","","","","","",""
"","1098.0349999990722","sequential-stimulus-presentation","67","164238","0.0-17.0-1.2","SS1613172016376","trial","","40","800","1898.0349999990722","images/stimuli/spore_stims/complex_11_A_b.gif","images/stimuli/spore_stims/complex_04_B_a.gif","","","","","3","complex_dissimilar","images/stimuli/spore_stims/complex_04_B_a.gif","right","","","","",""
"","null","html-keyboard-response","68","165156","0.0-17.0-0.3","SS1613172016376","","","null","","","","","<p><img src= images/blank.png width =""200"" height = ""200"" style = ""float:right""></p><p><img src=images/blank.png width =""800"" height = ""200""></p>","","","","","","","","","","","",""
"","996.7100000030769","sequential-stimulus-presentation","69","166958","0.0-17.0-1.3","SS1613172016376","trial","","40","800","1796.7100000030769","images/stimuli/spore_stims/complex_11_A_b.gif","images/stimuli/spore_stims/complex_04_B_a.gif","","","","","3","complex_dissimilar","images/stimuli/spore_stims/complex_04_B_a.gif","right","","","","",""
"","null","html-keyboard-response","70","168140","0.0-17.0-0.4","SS1613172016376","","","null","","","","","<p><img src= images/blank.png width =""200"" height = ""200"" style = ""float:right""></p><p><img src=images/blank.png width =""800"" height = ""200""></p>","","","","","","","","","","","",""
"","876.5700000003562","sequential-stimulus-presentation","71","169821","0.0-17.0-1.4","SS1613172016376","trial","","40","800","1676.5700000003562","images/stimuli/spore_stims/complex_11_A_b.gif","images/stimuli/spore_stims/complex_04_B_a.gif","","","","","3","complex_dissimilar","images/stimuli/spore_stims/complex_04_B_a.gif","right","","","","",""
"","null","html-keyboard-response","72","170699","0.0-17.0-0.5","SS1613172016376","","","null","","","","","<p><img src= images/blank.png width =""200"" height = ""200"" style = ""float:right""></p><p><img src=images/blank.png width =""800"" height = ""200""></p>","","","","","","","","","","","",""
"","1178.794999999809","sequential-stimulus-presentation","73","172686","0.0-17.0-1.5","SS1613172016376","trial","","40","800","1978.794999999809","images/stimuli/spore_stims/complex_11_A_b.gif","images/stimuli/spore_stims/complex_04_B_a.gif","","","","","3","complex_dissimilar","images/stimuli/spore_stims/complex_04_B_a.gif","right","","","","",""
"","null","html-keyboard-response","74","173544","0.0-17.0-0.6","SS1613172016376","","","null","","","","","<p><img src= images/blank.png width =""200"" height = ""200"" style = ""float:right""></p><p><img src=images/blank.png width =""800"" height = ""200""></p>","","","","","","","","","","","",""
"","2110.8449999992445","sequential-stimulus-presentation","75","176461","0.0-17.0-1.6","SS1613172016376","trial","","40","800","2910.8449999992445","images/stimuli/spore_stims/complex_11_A_b.gif","images/stimuli/spore_stims/complex_04_B_a.gif","","","","","3","complex_dissimilar","images/stimuli/spore_stims/complex_11_A_b.gif","left","","","","",""
"","null","html-keyboard-response","76","177627","0.0-17.0-0.7","SS1613172016376","","","null","","","","","<p><img src= images/blank.png width =""200"" height = ""200"" style = ""float:right""></p><p><img src=images/blank.png width =""800"" height = ""200""></p>","","","","","","","","","","","",""
"","1442.4800000015239","sequential-stimulus-presentation","77","179876","0.0-17.0-1.7","SS1613172016376","trial","","40","800","2242.480000001524","images/stimuli/spore_stims/complex_11_A_b.gif","images/stimuli/spore_stims/complex_04_B_a.gif","","","","","3","complex_dissimilar","images/stimuli/spore_stims/complex_04_B_a.gif","right","","","","",""
"","1555.3949999994074","html-keyboard-response","78","181436","0.0-18.0","SS1613172016376","pref_question","","50","","","","","<video width ='960' height = '540' style='padding-top:8%' autoplay muted><source src='images/stimuli/wall_pref.mp4' type='video/mp4'></video>","2","middle","45%","3","","","","","","","",""
"","1626.414999998815","sequential-stimulus-presentation","79","183869","0.0-19.0","SS1613172016376","pref_reveal","","40","800","2426.414999998815","null","null","","","","","3","","","","novel","","","",""
"","null","html-keyboard-response","80","184735","0.0-20.0-0.0","SS1613172016376","","","null","","","","","<p><img src= images/blank.png width =""200"" height = ""200"" style = ""float:right""></p><p><img src=images/blank.png width =""800"" height = ""200""></p>","","","","","","","","","","","",""
"","1667.8549999996903","sequential-stimulus-presentation","81","187211","0.0-20.0-1.0","SS1613172016376","trial","","40","800","2467.8549999996903","images/stimuli/spore_stims/complex_06_A_d.gif","images/stimuli/spore_stims/complex_06_B_d.gif","","","","","4","complex_similar","images/stimuli/spore_stims/complex_06_B_d.gif","right","","","","",""
"","null","html-keyboard-response","82","188415","0.0-20.0-0.1","SS1613172016376","","","null","","","","","<p><img src= images/blank.png width =""200"" height = ""200"" style = ""float:right""></p><p><img src=images/blank.png width =""800"" height = ""200""></p>","","","","","","","","","","","",""
"","1412.945000000036","sequential-stimulus-presentation","83","190636","0.0-20.0-1.1","SS1613172016376","trial","","40","800","2212.945000000036","images/stimuli/spore_stims/complex_06_A_d.gif","images/stimuli/spore_stims/complex_06_B_d.gif","","","","","4","complex_similar","images/stimuli/spore_stims/complex_06_B_d.gif","right","","","","",""
"","null","html-keyboard-response","84","191820","0.0-20.0-0.2","SS1613172016376","","","null","","","","","<p><img src= images/blank.png width =""200"" height = ""200"" style = ""float:right""></p><p><img src=images/blank.png width =""800"" height = ""200""></p>","","","","","","","","","","","",""
"","1065.36000000051","sequential-stimulus-presentation","85","193691","0.0-20.0-1.2","SS1613172016376","trial","","40","800","1865.36000000051","images/stimuli/spore_stims/complex_06_A_d.gif","images/stimuli/spore_stims/complex_06_B_d.gif","","","","","4","complex_similar","images/stimuli/spore_stims/complex_06_A_d.gif","left","","","","",""
"","null","html-keyboard-response","86","194822","0.0-20.0-0.3","SS1613172016376","","","null","","","","","<p><img src= images/blank.png width =""200"" height = ""200"" style = ""float:right""></p><p><img src=images/blank.png width =""800"" height = ""200""></p>","","","","","","","","","","","",""
"","853.0849999988277","sequential-stimulus-presentation","87","196484","0.0-20.0-1.3","SS1613172016376","trial","","40","800","1653.0849999988277","images/stimuli/spore_stims/complex_06_A_d.gif","images/stimuli/spore_stims/complex_06_B_d.gif","","","","","4","complex_similar","images/stimuli/spore_stims/complex_06_B_d.gif","right","","","","",""
"","null","html-keyboard-response","88","197391","0.0-20.0-0.4","SS1613172016376","","","null","","","","","<p><img src= images/blank.png width =""200"" height = ""200"" style = ""float:right""></p><p><img src=images/blank.png width =""800"" height = ""200""></p>","","","","","","","","","","","",""
"","854.81499999878","sequential-stimulus-presentation","89","199051","0.0-20.0-1.4","SS1613172016376","trial","","40","800","1654.81499999878","images/stimuli/spore_stims/complex_06_A_d.gif","images/stimuli/spore_stims/complex_06_B_d.gif","","","","","4","complex_similar","images/stimuli/spore_stims/complex_06_B_d.gif","right","","","","",""
"","null","html-keyboard-response","90","200275","0.0-20.0-0.5","SS1613172016376","","","null","","","","","<p><img src= images/blank.png width =""200"" height = ""200"" style = ""float:right""></p><p><img src=images/blank.png width =""800"" height = ""200""></p>","","","","","","","","","","","",""
"","576.9450000007055","sequential-stimulus-presentation","91","201658","0.0-20.0-1.5","SS1613172016376","trial","","40","800","1376.9450000007055","images/stimuli/spore_stims/complex_06_A_d.gif","images/stimuli/spore_stims/complex_06_B_d.gif","","","","","4","complex_similar","images/stimuli/spore_stims/complex_06_B_d.gif","right","","","","",""
"","null","html-keyboard-response","92","202650","0.0-20.0-0.6","SS1613172016376","","","null","","","","","<p><img src= images/blank.png width =""200"" height = ""200"" style = ""float:right""></p><p><img src=images/blank.png width =""800"" height = ""200""></p>","","","","","","","","","","","",""
"","577.1249999997963","sequential-stimulus-presentation","93","204033","0.0-20.0-1.6","SS1613172016376","trial","","40","800","1377.1249999997963","images/stimuli/spore_stims/complex_06_A_d.gif","images/stimuli/spore_stims/complex_06_B_d.gif","","","","","4","complex_similar","images/stimuli/spore_stims/complex_06_B_d.gif","right","","","","",""
"","null","html-keyboard-response","94","204918","0.0-20.0-0.7","SS1613172016376","","","null","","","","","<p><img src= images/blank.png width =""200"" height = ""200"" style = ""float:right""></p><p><img src=images/blank.png width =""800"" height = ""200""></p>","","","","","","","","","","","",""
"","842.4200000008568","sequential-stimulus-presentation","95","206569","0.0-20.0-1.7","SS1613172016376","trial","","40","800","1642.4200000008568","images/stimuli/spore_stims/complex_06_A_d.gif","images/stimuli/spore_stims/complex_06_B_d.gif","","","","","4","complex_similar","images/stimuli/spore_stims/complex_06_B_d.gif","right","","","","",""
"","1146.6650000002119","html-keyboard-response","96","207721","0.0-21.0","SS1613172016376","pref_question","","50","","","","","<video width ='960' height = '540' style='padding-top:8%' autoplay muted><source src='images/stimuli/wall_pref.mp4' type='video/mp4'></video>","2","middle","45%","4","","","","","","","",""
"","1038.1500000003143","sequential-stimulus-presentation","97","209568","0.0-22.0","SS1613172016376","pref_reveal","","40","800","1838.1500000003143","null","null","","","","","4","","","","novel","","","",""
"","null","html-keyboard-response","98","210746","0.0-23.0-0.0","SS1613172016376","","","null","","","","","<p><img src= images/blank.png width =""200"" height = ""200"" style = ""float:right""></p><p><img src=images/blank.png width =""800"" height = ""200""></p>","","","","","","","","","","","",""
"","389.76499999989755","sequential-stimulus-presentation","99","211944","0.0-23.0-1.0","SS1613172016376","trial","","40","800","1189.7649999998976","images/stimuli/spore_stims/complex_20_A_c.gif","images/stimuli/spore_stims/complex_11_B_a.gif","","","","","5","complex_dissimilar","images/stimuli/spore_stims/complex_11_B_a.gif","right","","","","",""
"","null","html-keyboard-response","100","213058","0.0-23.0-0.1","SS1613172016376","","","null","","","","","<p><img src= images/blank.png width =""200"" height = ""200"" style = ""float:right""></p><p><img src=images/blank.png width =""800"" height = ""200""></p>","","","","","","","","","","","",""
"","285.58500000144704","sequential-stimulus-presentation","101","214152","0.0-23.0-1.1","SS1613172016376","trial","","40","800","1085.585000001447","images/stimuli/spore_stims/complex_20_A_c.gif","images/stimuli/spore_stims/complex_11_B_a.gif","","","","","5","complex_dissimilar","images/stimuli/spore_stims/complex_11_B_a.gif","right","","","","",""
"","null","html-keyboard-response","102","215258","0.0-23.0-0.2","SS1613172016376","","","null","","","","","<p><img src= images/blank.png width =""200"" height = ""200"" style = ""float:right""></p><p><img src=images/blank.png width =""800"" height = ""200""></p>","","","","","","","","","","","",""
"","400.72000000145636","sequential-stimulus-presentation","103","216466","0.0-23.0-1.2","SS1613172016376","trial","","40","800","1200.7200000014564","images/stimuli/spore_stims/complex_20_A_c.gif","images/stimuli/spore_stims/complex_11_B_a.gif","","","","","5","complex_dissimilar","images/stimuli/spore_stims/complex_11_B_a.gif","right","","","","",""
"","null","html-keyboard-response","104","217349","0.0-23.0-0.3","SS1613172016376","","","null","","","","","<p><img src= images/blank.png width =""200"" height = ""200"" style = ""float:right""></p><p><img src=images/blank.png width =""800"" height = ""200""></p>","","","","","","","","","","","",""
"","781.3199999982317","sequential-stimulus-presentation","105","218936","0.0-23.0-1.3","SS1613172016376","trial","","40","800","1581.3199999982317","images/stimuli/spore_stims/complex_20_A_c.gif","images/stimuli/spore_stims/complex_11_B_a.gif","","","","","5","complex_dissimilar","images/stimuli/spore_stims/complex_11_B_a.gif","right","","","","",""
"","null","html-keyboard-response","106","219922","0.0-23.0-0.4","SS1613172016376","","","null","","","","","<p><img src= images/blank.png width =""200"" height = ""200"" style = ""float:right""></p><p><img src=images/blank.png width =""800"" height = ""200""></p>","","","","","","","","","","","",""
"","389.6249999997963","sequential-stimulus-presentation","107","221119","0.0-23.0-1.4","SS1613172016376","trial","","40","800","1189.6249999997963","images/stimuli/spore_stims/complex_20_A_c.gif","images/stimuli/spore_stims/complex_11_B_a.gif","","","","","5","complex_dissimilar","images/stimuli/spore_stims/complex_11_B_a.gif","right","","","","",""
"","null","html-keyboard-response","108","222040","0.0-23.0-0.5","SS1613172016376","","","null","","","","","<p><img src= images/blank.png width =""200"" height = ""200"" style = ""float:right""></p><p><img src=images/blank.png width =""800"" height = ""200""></p>","","","","","","","","","","","",""
"","375.11000000085915","sequential-stimulus-presentation","109","223382","0.0-23.0-1.5","SS1613172016376","trial","","40","800","1175.1100000008591","images/stimuli/spore_stims/complex_20_A_c.gif","images/stimuli/spore_stims/complex_11_B_a.gif","","","","","5","complex_dissimilar","images/stimuli/spore_stims/complex_11_B_a.gif","right","","","","",""
"","null","html-keyboard-response","110","224511","0.0-23.0-0.6","SS1613172016376","","","null","","","","","<p><img src= images/blank.png width =""200"" height = ""200"" style = ""float:right""></p><p><img src=images/blank.png width =""800"" height = ""200""></p>","","","","","","","","","","","",""
"","544.3549999981769","sequential-stimulus-presentation","111","225868","0.0-23.0-1.6","SS1613172016376","trial","","40","800","1344.354999998177","images/stimuli/spore_stims/complex_20_A_c.gif","images/stimuli/spore_stims/complex_11_B_a.gif","","","","","5","complex_dissimilar","images/stimuli/spore_stims/complex_20_A_c.gif","left","","","","",""
"","null","html-keyboard-response","112","226697","0.0-23.0-0.7","SS1613172016376","","","null","","","","","<p><img src= images/blank.png width =""200"" height = ""200"" style = ""float:right""></p><p><img src=images/blank.png width =""800"" height = ""200""></p>","","","","","","","","","","","",""
"","434.12499999976717","sequential-stimulus-presentation","113","227941","0.0-23.0-1.7","SS1613172016376","trial","","40","800","1234.1249999997672","images/stimuli/spore_stims/complex_20_A_c.gif","images/stimuli/spore_stims/complex_11_B_a.gif","","","","","5","complex_dissimilar","images/stimuli/spore_stims/complex_11_B_a.gif","right","","","","",""
"","1112.779999999475","html-keyboard-response","114","229059","0.0-24.0","SS1613172016376","pref_question","","50","","","","","<video width ='960' height = '540' style='padding-top:8%' autoplay muted><source src='images/stimuli/wall_pref.mp4' type='video/mp4'></video>","2","middle","45%","5","","","","","","","",""
"","1495.6249999995634","sequential-stimulus-presentation","115","231363","0.0-25.0","SS1613172016376","pref_reveal","","40","800","2295.6249999995634","null","null","","","","","5","","","","novel","","","",""
"","null","html-keyboard-response","116","232415","0.0-26.0-0.0","SS1613172016376","","","null","","","","","<p><img src= images/blank.png width =""200"" height = ""200"" style = ""float:right""></p><p><img src=images/blank.png width =""800"" height = ""200""></p>","","","","","","","","","","","",""
"","1077.1250000034343","sequential-stimulus-presentation","117","234299","0.0-26.0-1.0","SS1613172016376","trial","","40","800","1877.1250000034343","images/stimuli/spore_stims/simple_01_A_b.gif","images/stimuli/spore_stims/simple_02_A_d.gif","","","","","6","simple_dissimilar","images/stimuli/spore_stims/simple_02_A_d.gif","middle","","","","",""
"","null","html-keyboard-response","118","235370","0.0-26.0-0.1","SS1613172016376","","","null","","","","","<p><img src= images/blank.png width =""200"" height = ""200"" style = ""float:right""></p><p><img src=images/blank.png width =""800"" height = ""200""></p>","","","","","","","","","","","",""
"","1254.304999998567","sequential-stimulus-presentation","119","237434","0.0-26.0-1.1","SS1613172016376","trial","","40","800","2054.304999998567","images/stimuli/spore_stims/simple_01_A_b.gif","images/stimuli/spore_stims/simple_02_A_d.gif","","","","","6","simple_dissimilar","images/stimuli/spore_stims/simple_02_A_d.gif","middle","","","","",""
"","null","html-keyboard-response","120","238642","0.0-26.0-0.2","SS1613172016376","","","null","","","","","<p><img src= images/blank.png width =""200"" height = ""200"" style = ""float:right""></p><p><img src=images/blank.png width =""800"" height = ""200""></p>","","","","","","","","","","","",""
"","911.3149999975576","sequential-stimulus-presentation","121","240362","0.0-26.0-1.2","SS1613172016376","trial","","40","800","1711.3149999975576","images/stimuli/spore_stims/simple_01_A_b.gif","images/stimuli/spore_stims/simple_02_A_d.gif","","","","","6","simple_dissimilar","images/stimuli/spore_stims/simple_02_A_d.gif","middle","","","","",""
"","null","html-keyboard-response","122","241453","0.0-26.0-0.3","SS1613172016376","","","null","","","","","<p><img src= images/blank.png width =""200"" height = ""200"" style = ""float:right""></p><p><img src=images/blank.png width =""800"" height = ""200""></p>","","","","","","","","","","","",""
"","770.5849999983911","sequential-stimulus-presentation","123","243034","0.0-26.0-1.3","SS1613172016376","trial","","40","800","1570.5849999983911","images/stimuli/spore_stims/simple_01_A_b.gif","images/stimuli/spore_stims/simple_02_A_d.gif","","","","","6","simple_dissimilar","images/stimuli/spore_stims/simple_01_A_b.gif","right","","","","",""
"","null","html-keyboard-response","124","244018","0.0-26.0-0.4","SS1613172016376","","","null","","","","","<p><img src= images/blank.png width =""200"" height = ""200"" style = ""float:right""></p><p><img src=images/blank.png width =""800"" height = ""200""></p>","","","","","","","","","","","",""
"","709.1850000033446","sequential-stimulus-presentation","125","245539","0.0-26.0-1.4","SS1613172016376","trial","","40","800","1509.1850000033446","images/stimuli/spore_stims/simple_01_A_b.gif","images/stimuli/spore_stims/simple_02_A_d.gif","","","","","6","simple_dissimilar","images/stimuli/spore_stims/simple_02_A_d.gif","middle","","","","",""
"","null","html-keyboard-response","126","246783","0.0-26.0-0.5","SS1613172016376","","","null","","","","","<p><img src= images/blank.png width =""200"" height = ""200"" style = ""float:right""></p><p><img src=images/blank.png width =""800"" height = ""200""></p>","","","","","","","","","","","",""
"","546.5650000005553","sequential-stimulus-presentation","127","248137","0.0-26.0-1.5","SS1613172016376","trial","","40","800","1346.5650000005553","images/stimuli/spore_stims/simple_01_A_b.gif","images/stimuli/spore_stims/simple_02_A_d.gif","","","","","6","simple_dissimilar","images/stimuli/spore_stims/simple_02_A_d.gif","middle","","","","",""
"","null","html-keyboard-response","128","249143","0.0-26.0-0.6","SS1613172016376","","","null","","","","","<p><img src= images/blank.png width =""200"" height = ""200"" style = ""float:right""></p><p><img src=images/blank.png width =""800"" height = ""200""></p>","","","","","","","","","","","",""
"","496.05499999961467","sequential-stimulus-presentation","129","250449","0.0-26.0-1.6","SS1613172016376","trial","","40","800","1296.0549999996147","images/stimuli/spore_stims/simple_01_A_b.gif","images/stimuli/spore_stims/simple_02_A_d.gif","","","","","6","simple_dissimilar","images/stimuli/spore_stims/simple_02_A_d.gif","middle","","","","",""
"","null","html-keyboard-response","130","251620","0.0-26.0-0.7","SS1613172016376","","","null","","","","","<p><img src= images/blank.png width =""200"" height = ""200"" style = ""float:right""></p><p><img src=images/blank.png width =""800"" height = ""200""></p>","","","","","","","","","","","",""
"","697.5500000007742","sequential-stimulus-presentation","131","253128","0.0-26.0-1.7","SS1613172016376","trial","","40","800","1497.5500000007742","images/stimuli/spore_stims/simple_01_A_b.gif","images/stimuli/spore_stims/simple_02_A_d.gif","","","","","6","simple_dissimilar","images/stimuli/spore_stims/simple_02_A_d.gif","middle","","","","",""
"","1126.2599999972736","html-keyboard-response","132","254265","0.0-27.0","SS1613172016376","pref_question","","49","","","","","<video width ='960' height = '540' style='padding-top:8%' autoplay muted><source src='images/stimuli/wall_pref.mp4' type='video/mp4'></video>","1","left","25%","6","","","","","","","",""
"","959.0750000024855","sequential-stimulus-presentation","133","256032","0.0-28.0","SS1613172016376","pref_reveal","","40","800","1759.0750000024855","null","null","","","","","6","","","","novel","","","",""
"","null","html-keyboard-response","134","257019","0.0-29.0-0.0","SS1613172016376","","","null","","","","","<p><img src= images/blank.png width =""200"" height = ""200"" style = ""float:right""></p><p><img src=images/blank.png width =""800"" height = ""200""></p>","","","","","","","","","","","",""
"","450.78499999729684","sequential-stimulus-presentation","135","258280","0.0-29.0-1.0","SS1613172016376","trial","","40","800","1250.7849999972968","images/stimuli/spore_stims/simple_05_A_a.gif","images/stimuli/spore_stims/simple_10_A_c.gif","","","","","7","simple_dissimilar","images/stimuli/spore_stims/simple_10_A_c.gif","right","","","","",""
"","null","html-keyboard-response","136","259353","0.0-29.0-0.1","SS1613172016376","","","null","","","","","<p><img src= images/blank.png width =""200"" height = ""200"" style = ""float:right""></p><p><img src=images/blank.png width =""800"" height = ""200""></p>","","","","","","","","","","","",""
"","1166.7899999993388","sequential-stimulus-presentation","137","261328","0.0-29.0-1.1","SS1613172016376","trial","","40","800","1966.7899999993388","images/stimuli/spore_stims/simple_05_A_a.gif","images/stimuli/spore_stims/simple_10_A_c.gif","","","","","7","simple_dissimilar","images/stimuli/spore_stims/simple_10_A_c.gif","right","","","","",""
"","null","html-keyboard-response","138","262379","0.0-29.0-0.2","SS1613172016376","","","null","","","","","<p><img src= images/blank.png width =""200"" height = ""200"" style = ""float:right""></p><p><img src=images/blank.png width =""800"" height = ""200""></p>","","","","","","","","","","","",""
"","421.2100000004284","sequential-stimulus-presentation","139","263607","0.0-29.0-1.2","SS1613172016376","trial","","40","800","1221.2100000004284","images/stimuli/spore_stims/simple_05_A_a.gif","images/stimuli/spore_stims/simple_10_A_c.gif","","","","","7","simple_dissimilar","images/stimuli/spore_stims/simple_10_A_c.gif","right","","","","",""
"","null","html-keyboard-response","140","264890","0.0-29.0-0.3","SS1613172016376","","","null","","","","","<p><img src= images/blank.png width =""200"" height = ""200"" style = ""float:right""></p><p><img src=images/blank.png width =""800"" height = ""200""></p>","","","","","","","","","","","",""
"","203.6999999982072","sequential-stimulus-presentation","141","265905","0.0-29.0-1.3","SS1613172016376","trial","","40","800","1003.6999999982072","images/stimuli/spore_stims/simple_05_A_a.gif","images/stimuli/spore_stims/simple_10_A_c.gif","","","","","7","simple_dissimilar","images/stimuli/spore_stims/simple_10_A_c.gif","right","","","","",""
"","null","html-keyboard-response","142","267154","0.0-29.0-0.4","SS1613172016376","","","null","","","","","<p><img src= images/blank.png width =""200"" height = ""200"" style = ""float:right""></p><p><img src=images/blank.png width =""800"" height = ""200""></p>","","","","","","","","","","","",""
"","417.5599999980768","sequential-stimulus-presentation","143","268383","0.0-29.0-1.4","SS1613172016376","trial","","40","800","1217.5599999980768","images/stimuli/spore_stims/simple_05_A_a.gif","images/stimuli/spore_stims/simple_10_A_c.gif","","","","","7","simple_dissimilar","images/stimuli/spore_stims/simple_10_A_c.gif","right","","","","",""
"","null","html-keyboard-response","144","269262","0.0-29.0-0.5","SS1613172016376","","","null","","","","","<p><img src= images/blank.png width =""200"" height = ""200"" style = ""float:right""></p><p><img src=images/blank.png width =""800"" height = ""200""></p>","","","","","","","","","","","",""
"","840.7449999977252","sequential-stimulus-presentation","145","270910","0.0-29.0-1.5","SS1613172016376","trial","","40","800","1640.7449999977252","images/stimuli/spore_stims/simple_05_A_a.gif","images/stimuli/spore_stims/simple_10_A_c.gif","","","","","7","simple_dissimilar","images/stimuli/spore_stims/simple_10_A_c.gif","right","","","","",""
"","null","html-keyboard-response","146","271824","0.0-29.0-0.6","SS1613172016376","","","null","","","","","<p><img src= images/blank.png width =""200"" height = ""200"" style = ""float:right""></p><p><img src=images/blank.png width =""800"" height = ""200""></p>","","","","","","","","","","","",""
"","804.0550000005169","sequential-stimulus-presentation","147","273439","0.0-29.0-1.6","SS1613172016376","trial","","40","800","1604.0550000005169","images/stimuli/spore_stims/simple_05_A_a.gif","images/stimuli/spore_stims/simple_10_A_c.gif","","","","","7","simple_dissimilar","images/stimuli/spore_stims/simple_10_A_c.gif","right","","","","",""
"","null","html-keyboard-response","148","274409","0.0-29.0-0.7","SS1613172016376","","","null","","","","","<p><img src= images/blank.png width =""200"" height = ""200"" style = ""float:right""></p><p><img src=images/blank.png width =""800"" height = ""200""></p>","","","","","","","","","","","",""
"","838.6200000022654","sequential-stimulus-presentation","149","276055","0.0-29.0-1.7","SS1613172016376","trial","","40","800","1638.6200000022654","images/stimuli/spore_stims/simple_05_A_a.gif","images/stimuli/spore_stims/simple_10_A_c.gif","","","","","7","simple_dissimilar","images/stimuli/spore_stims/simple_05_A_a.gif","left","","","","",""
"","879.9749999998603","html-keyboard-response","150","276942","0.0-30.0","SS1613172016376","pref_question","","49","","","","","<video width ='960' height = '540' style='padding-top:8%' autoplay muted><source src='images/stimuli/wall_pref.mp4' type='video/mp4'></video>","1","left","25%","7","","","","","","","",""
"","1057.2399999982445","sequential-stimulus-presentation","151","278814","0.0-31.0","SS1613172016376","pref_reveal","","40","800","1857.2399999982445","null","null","","","","","7","","","","deviant","","","",""
"","null","html-keyboard-response","152","280079","0.0-32.0-0.0","SS1613172016376","","","null","","","","","<p><img src= images/blank.png width =""200"" height = ""200"" style = ""float:right""></p><p><img src=images/blank.png width =""800"" height = ""200""></p>","","","","","","","","","","","",""
"","686.0150000029244","sequential-stimulus-presentation","153","281573","0.0-32.0-1.0","SS1613172016376","trial","","40","800","1486.0150000029244","images/stimuli/spore_stims/simple_13_B_d.gif","images/stimuli/spore_stims/simple_13_A_d.gif","","","","","8","simple_similar","images/stimuli/spore_stims/simple_13_A_d.gif","middle","","","","",""
"","null","html-keyboard-response","154","282721","0.0-32.0-0.1","SS1613172016376","","","null","","","","","<p><img src= images/blank.png width =""200"" height = ""200"" style = ""float:right""></p><p><img src=images/blank.png width =""800"" height = ""200""></p>","","","","","","","","","","","",""
"","651.3650000015623","sequential-stimulus-presentation","155","284181","0.0-32.0-1.1","SS1613172016376","trial","","40","800","1451.3650000015623","images/stimuli/spore_stims/simple_13_B_d.gif","images/stimuli/spore_stims/simple_13_A_d.gif","","","","","8","simple_similar","images/stimuli/spore_stims/simple_13_A_d.gif","middle","","","","",""
"","null","html-keyboard-response","156","285238","0.0-32.0-0.2","SS1613172016376","","","null","","","","","<p><img src= images/blank.png width =""200"" height = ""200"" style = ""float:right""></p><p><img src=images/blank.png width =""800"" height = ""200""></p>","","","","","","","","","","","",""
"","679.0399999991059","sequential-stimulus-presentation","157","286725","0.0-32.0-1.2","SS1613172016376","trial","","40","800","1479.039999999106","images/stimuli/spore_stims/simple_13_B_d.gif","images/stimuli/spore_stims/simple_13_A_d.gif","","","","","8","simple_similar","images/stimuli/spore_stims/simple_13_B_d.gif","right","","","","",""
"","null","html-keyboard-response","158","287990","0.0-32.0-0.3","SS1613172016376","","","null","","","","","<p><img src= images/blank.png width =""200"" height = ""200"" style = ""float:right""></p><p><img src=images/blank.png width =""800"" height = ""200""></p>","","","","","","","","","","","",""
"","435.33000000024913","sequential-stimulus-presentation","159","289237","0.0-32.0-1.3","SS1613172016376","trial","","40","800","1235.3300000002491","images/stimuli/spore_stims/simple_13_B_d.gif","images/stimuli/spore_stims/simple_13_A_d.gif","","","","","8","simple_similar","images/stimuli/spore_stims/simple_13_A_d.gif","middle","","","","",""
"","null","html-keyboard-response","160","290185","0.0-32.0-0.4","SS1613172016376","","","null","","","","","<p><img src= images/blank.png width =""200"" height = ""200"" style = ""float:right""></p><p><img src=images/blank.png width =""800"" height = ""200""></p>","","","","","","","","","","","",""
"","335.81499999854714","sequential-stimulus-presentation","161","291334","0.0-32.0-1.4","SS1613172016376","trial","","40","800","1135.8149999985471","images/stimuli/spore_stims/simple_13_B_d.gif","images/stimuli/spore_stims/simple_13_A_d.gif","","","","","8","simple_similar","images/stimuli/spore_stims/simple_13_A_d.gif","middle","","","","",""
"","null","html-keyboard-response","162","292320","0.0-32.0-0.5","SS1613172016376","","","null","","","","","<p><img src= images/blank.png width =""200"" height = ""200"" style = ""float:right""></p><p><img src=images/blank.png width =""800"" height = ""200""></p>","","","","","","","","","","","",""
"","1029.900000001362","sequential-stimulus-presentation","163","294164","0.0-32.0-1.5","SS1613172016376","trial","","40","800","1829.900000001362","images/stimuli/spore_stims/simple_13_B_d.gif","images/stimuli/spore_stims/simple_13_A_d.gif","","","","","8","simple_similar","images/stimuli/spore_stims/simple_13_A_d.gif","middle","","","","",""
"","null","html-keyboard-response","164","295219","0.0-32.0-0.6","SS1613172016376","","","null","","","","","<p><img src= images/blank.png width =""200"" height = ""200"" style = ""float:right""></p><p><img src=images/blank.png width =""800"" height = ""200""></p>","","","","","","","","","","","",""
"","518.6150000008638","sequential-stimulus-presentation","165","296547","0.0-32.0-1.6","SS1613172016376","trial","","40","800","1318.6150000008638","images/stimuli/spore_stims/simple_13_B_d.gif","images/stimuli/spore_stims/simple_13_A_d.gif","","","","","8","simple_similar","images/stimuli/spore_stims/simple_13_A_d.gif","middle","","","","",""
"","null","html-keyboard-response","166","297646","0.0-32.0-0.7","SS1613172016376","","","null","","","","","<p><img src= images/blank.png width =""200"" height = ""200"" style = ""float:right""></p><p><img src=images/blank.png width =""800"" height = ""200""></p>","","","","","","","","","","","",""
"","403.1649999997462","sequential-stimulus-presentation","167","298859","0.0-32.0-1.7","SS1613172016376","trial","","40","800","1203.1649999997462","images/stimuli/spore_stims/simple_13_B_d.gif","images/stimuli/spore_stims/simple_13_A_d.gif","","","","","8","simple_similar","images/stimuli/spore_stims/simple_13_A_d.gif","middle","","","","",""
"","1114.3550000014948","html-keyboard-response","168","299987","0.0-33.0","SS1613172016376","pref_question","","51","","","","","<video width ='960' height = '540' style='padding-top:8%' autoplay muted><source src='images/stimuli/wall_pref.mp4' type='video/mp4'></video>","3","right","66%","8","","","","","","","",""
"","731.4349999979022","sequential-stimulus-presentation","169","301531","0.0-34.0","SS1613172016376","pref_reveal","","40","800","1531.4349999979022","null","null","","","","","8","","","","deviant","","","",""
"","null","html-keyboard-response","170","302557","0.0-35.0-0.0","SS1613172016376","","","null","","","","","<p><img src= images/blank.png width =""200"" height = ""200"" style = ""float:right""></p><p><img src=images/blank.png width =""800"" height = ""200""></p>","","","","","","","","","","","",""
"","826.1099999981234","sequential-stimulus-presentation","171","304195","0.0-35.0-1.0","SS1613172016376","trial","","40","800","1626.1099999981234","images/stimuli/spore_stims/simple_08_B_b.gif","images/stimuli/spore_stims/simple_09_A_c.gif","","","","","9","simple_dissimilar","images/stimuli/spore_stims/simple_09_A_c.gif","right","","","","",""
"","null","html-keyboard-response","172","305032","0.0-35.0-0.1","SS1613172016376","","","null","","","","","<p><img src= images/blank.png width =""200"" height = ""200"" style = ""float:right""></p><p><img src=images/blank.png width =""800"" height = ""200""></p>","","","","","","","","","","","",""
"","765.1199999999953","sequential-stimulus-presentation","173","306610","0.0-35.0-1.1","SS1613172016376","trial","","40","800","1565.1199999999953","images/stimuli/spore_stims/simple_08_B_b.gif","images/stimuli/spore_stims/simple_09_A_c.gif","","","","","9","simple_dissimilar","images/stimuli/spore_stims/simple_09_A_c.gif","right","","","","",""
"","null","html-keyboard-response","174","307457","0.0-35.0-0.2","SS1613172016376","","","null","","","","","<p><img src= images/blank.png width =""200"" height = ""200"" style = ""float:right""></p><p><img src=images/blank.png width =""800"" height = ""200""></p>","","","","","","","","","","","",""
"","599.804999998014","sequential-stimulus-presentation","175","308866","0.0-35.0-1.2","SS1613172016376","trial","","40","800","1399.804999998014","images/stimuli/spore_stims/simple_08_B_b.gif","images/stimuli/spore_stims/simple_09_A_c.gif","","","","","9","simple_dissimilar","images/stimuli/spore_stims/simple_09_A_c.gif","right","","","","",""
"","null","html-keyboard-response","176","310145","0.0-35.0-0.3","SS1613172016376","","","null","","","","","<p><img src= images/blank.png width =""200"" height = ""200"" style = ""float:right""></p><p><img src=images/blank.png width =""800"" height = ""200""></p>","","","","","","","","","","","",""
"","944.455000000773","sequential-stimulus-presentation","177","311898","0.0-35.0-1.3","SS1613172016376","trial","","40","800","1744.455000000773","images/stimuli/spore_stims/simple_08_B_b.gif","images/stimuli/spore_stims/simple_09_A_c.gif","","","","","9","simple_dissimilar","images/stimuli/spore_stims/simple_09_A_c.gif","right","","","","",""
"","null","html-keyboard-response","178","312895","0.0-35.0-0.4","SS1613172016376","","","null","","","","","<p><img src= images/blank.png width =""200"" height = ""200"" style = ""float:right""></p><p><img src=images/blank.png width =""800"" height = ""200""></p>","","","","","","","","","","","",""
"","1800.7550000001793","sequential-stimulus-presentation","179","315505","0.0-35.0-1.4","SS1613172016376","trial","","40","800","2600.7550000001793","images/stimuli/spore_stims/simple_08_B_b.gif","images/stimuli/spore_stims/simple_09_A_c.gif","","","","","9","simple_dissimilar","images/stimuli/spore_stims/simple_09_A_c.gif","right","","","","",""
"","null","html-keyboard-response","180","316355","0.0-35.0-0.5","SS1613172016376","","","null","","","","","<p><img src= images/blank.png width =""200"" height = ""200"" style = ""float:right""></p><p><img src=images/blank.png width =""800"" height = ""200""></p>","","","","","","","","","","","",""
"","1277.8649999999907","sequential-stimulus-presentation","181","318442","0.0-35.0-1.5","SS1613172016376","trial","","40","800","2077.8649999999907","images/stimuli/spore_stims/simple_08_B_b.gif","images/stimuli/spore_stims/simple_09_A_c.gif","","","","","9","simple_dissimilar","images/stimuli/spore_stims/simple_08_B_b.gif","middle","","","","",""
"","null","html-keyboard-response","182","319340","0.0-35.0-0.6","SS1613172016376","","","null","","","","","<p><img src= images/blank.png width =""200"" height = ""200"" style = ""float:right""></p><p><img src=images/blank.png width =""800"" height = ""200""></p>","","","","","","","","","","","",""
"","1175.4600000021746","sequential-stimulus-presentation","183","321329","0.0-35.0-1.6","SS1613172016376","trial","","40","800","1975.4600000021746","images/stimuli/spore_stims/simple_08_B_b.gif","images/stimuli/spore_stims/simple_09_A_c.gif","","","","","9","simple_dissimilar","images/stimuli/spore_stims/simple_09_A_c.gif","right","","","","",""
"","null","html-keyboard-response","184","322203","0.0-35.0-0.7","SS1613172016376","","","null","","","","","<p><img src= images/blank.png width =""200"" height = ""200"" style = ""float:right""></p><p><img src=images/blank.png width =""800"" height = ""200""></p>","","","","","","","","","","","",""
"","713.3149999972666","sequential-stimulus-presentation","185","323729","0.0-35.0-1.7","SS1613172016376","trial","","40","800","1513.3149999972666","images/stimuli/spore_stims/simple_08_B_b.gif","images/stimuli/spore_stims/simple_09_A_c.gif","","","","","9","simple_dissimilar","images/stimuli/spore_stims/simple_09_A_c.gif","right","","","","",""
"","1006.2699999980396","html-keyboard-response","186","324744","0.0-36.0","SS1613172016376","pref_question","","50","","","","","<video width ='960' height = '540' style='padding-top:8%' autoplay muted><source src='images/stimuli/wall_pref.mp4' type='video/mp4'></video>","2","middle","45%","9","","","","","","","",""
"","692.6649999986985","sequential-stimulus-presentation","187","326248","0.0-37.0","SS1613172016376","pref_reveal","","40","800","1492.6649999986985","null","null","","","","","9","","","","deviant","","","",""
"","null","html-keyboard-response","188","327331","0.0-38.0-0.0","SS1613172016376","","","null","","","","","<p><img src= images/blank.png width =""200"" height = ""200"" style = ""float:right""></p><p><img src=images/blank.png width =""800"" height = ""200""></p>","","","","","","","","","","","",""
"","412.00499999837484","sequential-stimulus-presentation","189","328552","0.0-38.0-1.0","SS1613172016376","trial","","40","800","1212.0049999983748","images/stimuli/spore_stims/simple_04_A_b.gif","images/stimuli/spore_stims/simple_04_B_b.gif","","","","","10","simple_similar","images/stimuli/spore_stims/simple_04_B_b.gif","middle","","","","",""
"","null","html-keyboard-response","190","329474","0.0-38.0-0.1","SS1613172016376","","","null","","","","","<p><img src= images/blank.png width =""200"" height = ""200"" style = ""float:right""></p><p><img src=images/blank.png width =""800"" height = ""200""></p>","","","","","","","","","","","",""
"","899.7950000011479","sequential-stimulus-presentation","191","331184","0.0-38.0-1.1","SS1613172016376","trial","","40","800","1699.7950000011479","images/stimuli/spore_stims/simple_04_A_b.gif","images/stimuli/spore_stims/simple_04_B_b.gif","","","","","10","simple_similar","images/stimuli/spore_stims/simple_04_B_b.gif","middle","","","","",""
"","null","html-keyboard-response","192","332269","0.0-38.0-0.2","SS1613172016376","","","null","","","","","<p><img src= images/blank.png width =""200"" height = ""200"" style = ""float:right""></p><p><img src=images/blank.png width =""800"" height = ""200""></p>","","","","","","","","","","","",""
"","895.1999999990221","sequential-stimulus-presentation","193","333975","0.0-38.0-1.2","SS1613172016376","trial","","40","800","1695.199999999022","images/stimuli/spore_stims/simple_04_A_b.gif","images/stimuli/spore_stims/simple_04_B_b.gif","","","","","10","simple_similar","images/stimuli/spore_stims/simple_04_B_b.gif","middle","","","","",""
"","null","html-keyboard-response","194","335161","0.0-38.0-0.3","SS1613172016376","","","null","","","","","<p><img src= images/blank.png width =""200"" height = ""200"" style = ""float:right""></p><p><img src=images/blank.png width =""800"" height = ""200""></p>","","","","","","","","","","","",""
"","1580.1199999987148","sequential-stimulus-presentation","195","337552","0.0-38.0-1.3","SS1613172016376","trial","","40","800","2380.119999998715","images/stimuli/spore_stims/simple_04_A_b.gif","images/stimuli/spore_stims/simple_04_B_b.gif","","","","","10","simple_similar","images/stimuli/spore_stims/simple_04_B_b.gif","middle","","","","",""
"","null","html-keyboard-response","196","338364","0.0-38.0-0.4","SS1613172016376","","","null","","","","","<p><img src= images/blank.png width =""200"" height = ""200"" style = ""float:right""></p><p><img src=images/blank.png width =""800"" height = ""200""></p>","","","","","","","","","","","",""
"","1974.6449999983888","sequential-stimulus-presentation","197","341150","0.0-38.0-1.4","SS1613172016376","trial","","40","800","2774.644999998389","images/stimuli/spore_stims/simple_04_A_b.gif","images/stimuli/spore_stims/simple_04_B_b.gif","","","","","10","simple_similar","images/stimuli/spore_stims/simple_04_B_b.gif","middle","","","","",""
"","null","html-keyboard-response","198","342291","0.0-38.0-0.5","SS1613172016376","","","null","","","","","<p><img src= images/blank.png width =""200"" height = ""200"" style = ""float:right""></p><p><img src=images/blank.png width =""800"" height = ""200""></p>","","","","","","","","","","","",""
"","654.6400000006543","sequential-stimulus-presentation","199","343758","0.0-38.0-1.5","SS1613172016376","trial","","40","800","1454.6400000006543","images/stimuli/spore_stims/simple_04_A_b.gif","images/stimuli/spore_stims/simple_04_B_b.gif","","","","","10","simple_similar","images/stimuli/spore_stims/simple_04_B_b.gif","middle","","","","",""
"","null","html-keyboard-response","200","345028","0.0-38.0-0.6","SS1613172016376","","","null","","","","","<p><img src= images/blank.png width =""200"" height = ""200"" style = ""float:right""></p><p><img src=images/blank.png width =""800"" height = ""200""></p>","","","","","","","","","","","",""
"","727.4749999996857","sequential-stimulus-presentation","201","346567","0.0-38.0-1.6","SS1613172016376","trial","","40","800","1527.4749999996857","images/stimuli/spore_stims/simple_04_A_b.gif","images/stimuli/spore_stims/simple_04_B_b.gif","","","","","10","simple_similar","images/stimuli/spore_stims/simple_04_B_b.gif","middle","","","","",""
"","null","html-keyboard-response","202","347435","0.0-38.0-0.7","SS1613172016376","","","null","","","","","<p><img src= images/blank.png width =""200"" height = ""200"" style = ""float:right""></p><p><img src=images/blank.png width =""800"" height = ""200""></p>","","","","","","","","","","","",""
"","654.8199999997742","sequential-stimulus-presentation","203","348902","0.0-38.0-1.7","SS1613172016376","trial","","40","800","1454.8199999997742","images/stimuli/spore_stims/simple_04_A_b.gif","images/stimuli/spore_stims/simple_04_B_b.gif","","","","","10","simple_similar","images/stimuli/spore_stims/simple_04_A_b.gif","left","","","","",""
"","1462.7549999968032","html-keyboard-response","204","350373","0.0-39.0","SS1613172016376","pref_question","","51","","","","","<video width ='960' height = '540' style='padding-top:8%' autoplay muted><source src='images/stimuli/wall_pref.mp4' type='video/mp4'></video>","3","right","66%","10","","","","","","","",""
"","982.1450000017649","sequential-stimulus-presentation","205","352166","0.0-40.0","SS1613172016376","pref_reveal","","40","800","1782.1450000017649","null","null","","","","","10","","","","novel","","","",""
"","null","html-keyboard-response","206","353264","0.0-41.0-0.0","SS1613172016376","","","null","","","","","<p><img src= images/blank.png width =""200"" height = ""200"" style = ""float:right""></p><p><img src=images/blank.png width =""800"" height = ""200""></p>","","","","","","","","","","","",""
"","831.2149999983376","sequential-stimulus-presentation","207","354909","0.0-41.0-1.0","SS1613172016376","trial","","40","800","1631.2149999983376","images/stimuli/spore_stims/simple_10_A_d.gif","images/stimuli/spore_stims/simple_10_B_d.gif","","","","","11","simple_similar","images/stimuli/spore_stims/simple_10_B_d.gif","middle","","","","",""
"","null","html-keyboard-response","208","355804","0.0-41.0-0.1","SS1613172016376","","","null","","","","","<p><img src= images/blank.png width =""200"" height = ""200"" style = ""float:right""></p><p><img src=images/blank.png width =""800"" height = ""200""></p>","","","","","","","","","","","",""
"","502.08999999810476","sequential-stimulus-presentation","209","357117","0.0-41.0-1.1","SS1613172016376","trial","","40","800","1302.0899999981048","images/stimuli/spore_stims/simple_10_A_d.gif","images/stimuli/spore_stims/simple_10_B_d.gif","","","","","11","simple_similar","images/stimuli/spore_stims/simple_10_B_d.gif","middle","","","","",""
"","null","html-keyboard-response","210","358415","0.0-41.0-0.2","SS1613172016376","","","null","","","","","<p><img src= images/blank.png width =""200"" height = ""200"" style = ""float:right""></p><p><img src=images/blank.png width =""800"" height = ""200""></p>","","","","","","","","","","","",""
"","275.0250000026426","sequential-stimulus-presentation","211","359500","0.0-41.0-1.2","SS1613172016376","trial","","40","800","1075.0250000026426","images/stimuli/spore_stims/simple_10_A_d.gif","images/stimuli/spore_stims/simple_10_B_d.gif","","","","","11","simple_similar","images/stimuli/spore_stims/simple_10_A_d.gif","left","","","","",""
"","null","html-keyboard-response","212","360760","0.0-41.0-0.3","SS1613172016376","","","null","","","","","<p><img src= images/blank.png width =""200"" height = ""200"" style = ""float:right""></p><p><img src=images/blank.png width =""800"" height = ""200""></p>","","","","","","","","","","","",""
"","439.58500000007916","sequential-stimulus-presentation","213","362012","0.0-41.0-1.3","SS1613172016376","trial","","40","800","1239.5850000000792","images/stimuli/spore_stims/simple_10_A_d.gif","images/stimuli/spore_stims/simple_10_B_d.gif","","","","","11","simple_similar","images/stimuli/spore_stims/simple_10_B_d.gif","middle","","","","",""
"","null","html-keyboard-response","214","362934","0.0-41.0-0.4","SS1613172016376","","","null","","","","","<p><img src= images/blank.png width =""200"" height = ""200"" style = ""float:right""></p><p><img src=images/blank.png width =""800"" height = ""200""></p>","","","","","","","","","","","",""
"","392.7049999983865","sequential-stimulus-presentation","215","364140","0.0-41.0-1.4","SS1613172016376","trial","","40","800","1192.7049999983865","images/stimuli/spore_stims/simple_10_A_d.gif","images/stimuli/spore_stims/simple_10_B_d.gif","","","","","11","simple_similar","images/stimuli/spore_stims/simple_10_B_d.gif","middle","","","","",""
"","null","html-keyboard-response","216","365395","0.0-41.0-0.5","SS1613172016376","","","null","","","","","<p><img src= images/blank.png width =""200"" height = ""200"" style = ""float:right""></p><p><img src=images/blank.png width =""800"" height = ""200""></p>","","","","","","","","","","","",""
"","339.94999999779975","sequential-stimulus-presentation","217","366547","0.0-41.0-1.5","SS1613172016376","trial","","40","800","1139.9499999977998","images/stimuli/spore_stims/simple_10_A_d.gif","images/stimuli/spore_stims/simple_10_B_d.gif","","","","","11","simple_similar","images/stimuli/spore_stims/simple_10_B_d.gif","middle","","","","",""
"","null","html-keyboard-response","218","367751","0.0-41.0-0.6","SS1613172016376","","","null","","","","","<p><img src= images/blank.png width =""200"" height = ""200"" style = ""float:right""></p><p><img src=images/blank.png width =""800"" height = ""200""></p>","","","","","","","","","","","",""
"","432.49500000092667","sequential-stimulus-presentation","219","368996","0.0-41.0-1.6","SS1613172016376","trial","","40","800","1232.4950000009267","images/stimuli/spore_stims/simple_10_A_d.gif","images/stimuli/spore_stims/simple_10_B_d.gif","","","","","11","simple_similar","images/stimuli/spore_stims/simple_10_B_d.gif","middle","","","","",""
"","null","html-keyboard-response","220","369819","0.0-41.0-0.7","SS1613172016376","","","null","","","","","<p><img src= images/blank.png width =""200"" height = ""200"" style = ""float:right""></p><p><img src=images/blank.png width =""800"" height = ""200""></p>","","","","","","","","","","","",""
"","351.95999999996275","sequential-stimulus-presentation","221","370981","0.0-41.0-1.7","SS1613172016376","trial","","40","800","1151.9599999999627","images/stimuli/spore_stims/simple_10_A_d.gif","images/stimuli/spore_stims/simple_10_B_d.gif","","","","","11","simple_similar","images/stimuli/spore_stims/simple_10_B_d.gif","middle","","","","",""
"","1002.4599999997299","html-keyboard-response","222","371995","0.0-42.0","SS1613172016376","pref_question","","51","","","","","<video width ='960' height = '540' style='padding-top:8%' autoplay muted><source src='images/stimuli/wall_pref.mp4' type='video/mp4'></video>","3","right","66%","11","","","","","","","",""
"","1087.0299999988056","sequential-stimulus-presentation","223","373899","0.0-43.0","SS1613172016376","pref_reveal","","40","800","1887.0299999988056","null","null","","","","","11","","","","novel","","","",""
"","null","html-keyboard-response","224","374830","0.0-44.0-0.0","SS1613172016376","","","null","","","","","<p><img src= images/blank.png width =""200"" height = ""200"" style = ""float:right""></p><p><img src=images/blank.png width =""800"" height = ""200""></p>","","","","","","","","","","","",""
"","573.6299999989569","sequential-stimulus-presentation","225","376218","0.0-44.0-1.0","SS1613172016376","trial","","40","800","1373.629999998957","images/stimuli/spore_stims/simple_15_A_d.gif","images/stimuli/spore_stims/simple_06_A_b.gif","","","","","12","simple_dissimilar","images/stimuli/spore_stims/simple_06_A_b.gif","middle","","","","",""
"","null","html-keyboard-response","226","377319","0.0-44.0-0.1","SS1613172016376","","","null","","","","","<p><img src= images/blank.png width =""200"" height = ""200"" style = ""float:right""></p><p><img src=images/blank.png width =""800"" height = ""200""></p>","","","","","","","","","","","",""
"","326.5399999982328","sequential-stimulus-presentation","227","378458","0.0-44.0-1.1","SS1613172016376","trial","","40","800","1126.5399999982328","images/stimuli/spore_stims/simple_15_A_d.gif","images/stimuli/spore_stims/simple_06_A_b.gif","","","","","12","simple_dissimilar","images/stimuli/spore_stims/simple_06_A_b.gif","middle","","","","",""
"","null","html-keyboard-response","228","379463","0.0-44.0-0.2","SS1613172016376","","","null","","","","","<p><img src= images/blank.png width =""200"" height = ""200"" style = ""float:right""></p><p><img src=images/blank.png width =""800"" height = ""200""></p>","","","","","","","","","","","",""
"","340.9350000001723","sequential-stimulus-presentation","229","380618","0.0-44.0-1.2","SS1613172016376","trial","","40","800","1140.9350000001723","images/stimuli/spore_stims/simple_15_A_d.gif","images/stimuli/spore_stims/simple_06_A_b.gif","","","","","12","simple_dissimilar","images/stimuli/spore_stims/simple_06_A_b.gif","middle","","","","",""
"","null","html-keyboard-response","230","381815","0.0-44.0-0.3","SS1613172016376","","","null","","","","","<p><img src= images/blank.png width =""200"" height = ""200"" style = ""float:right""></p><p><img src=images/blank.png width =""800"" height = ""200""></p>","","","","","","","","","","","",""
"","295.31499999936204","sequential-stimulus-presentation","231","382922","0.0-44.0-1.3","SS1613172016376","trial","","40","800","1095.314999999362","images/stimuli/spore_stims/simple_15_A_d.gif","images/stimuli/spore_stims/simple_06_A_b.gif","","","","","12","simple_dissimilar","images/stimuli/spore_stims/simple_06_A_b.gif","middle","","","","",""
"","null","html-keyboard-response","232","383795","0.0-44.0-0.4","SS1613172016376","","","null","","","","","<p><img src= images/blank.png width =""200"" height = ""200"" style = ""float:right""></p><p><img src=images/blank.png width =""800"" height = ""200""></p>","","","","","","","","","","","",""
"","419.86000000179047","sequential-stimulus-presentation","233","385025","0.0-44.0-1.4","SS1613172016376","trial","","40","800","1219.8600000017905","images/stimuli/spore_stims/simple_15_A_d.gif","images/stimuli/spore_stims/simple_06_A_b.gif","","","","","12","simple_dissimilar","images/stimuli/spore_stims/simple_06_A_b.gif","middle","","","","",""
"","null","html-keyboard-response","234","386182","0.0-44.0-0.5","SS1613172016376","","","null","","","","","<p><img src= images/blank.png width =""200"" height = ""200"" style = ""float:right""></p><p><img src=images/blank.png width =""800"" height = ""200""></p>","","","","","","","","","","","",""
"","1293.904999998631","sequential-stimulus-presentation","235","388289","0.0-44.0-1.5","SS1613172016376","trial","","40","800","2093.904999998631","images/stimuli/spore_stims/simple_15_A_d.gif","images/stimuli/spore_stims/simple_06_A_b.gif","","","","","12","simple_dissimilar","images/stimuli/spore_stims/simple_15_A_d.gif","right","","","","",""
"","null","html-keyboard-response","236","389560","0.0-44.0-0.6","SS1613172016376","","","null","","","","","<p><img src= images/blank.png width =""200"" height = ""200"" style = ""float:right""></p><p><img src=images/blank.png width =""800"" height = ""200""></p>","","","","","","","","","","","",""
"","293.47499999857973","sequential-stimulus-presentation","237","390665","0.0-44.0-1.6","SS1613172016376","trial","","40","800","1093.4749999985797","images/stimuli/spore_stims/simple_15_A_d.gif","images/stimuli/spore_stims/simple_06_A_b.gif","","","","","12","simple_dissimilar","images/stimuli/spore_stims/simple_06_A_b.gif","middle","","","","",""
"","null","html-keyboard-response","238","391918","0.0-44.0-0.7","SS1613172016376","","","null","","","","","<p><img src= images/blank.png width =""200"" height = ""200"" style = ""float:right""></p><p><img src=images/blank.png width =""800"" height = ""200""></p>","","","","","","","","","","","",""
"","430.73999999975786","sequential-stimulus-presentation","239","393160","0.0-44.0-1.7","SS1613172016376","trial","","40","800","1230.7399999997579","images/stimuli/spore_stims/simple_15_A_d.gif","images/stimuli/spore_stims/simple_06_A_b.gif","","","","","12","simple_dissimilar","images/stimuli/spore_stims/simple_06_A_b.gif","middle","","","","",""
"","1143.9700000010198","html-keyboard-response","240","394313","0.0-45.0","SS1613172016376","pref_question","","51","","","","","<video width ='960' height = '540' style='padding-top:8%' autoplay muted><source src='images/stimuli/wall_pref.mp4' type='video/mp4'></video>","3","right","66%","12","","","","","","","",""
"","384.96999999915715","sequential-stimulus-presentation","241","395512","0.0-46.0","SS1613172016376","pref_reveal","","40","800","1184.9699999991572","null","null","","","","","12","","","","deviant","","","",""
"","null","html-keyboard-response","242","396427","0.0-47.0-0.0","SS1613172016376","","","null","","","","","<p><img src= images/blank.png width =""200"" height = ""200"" style = ""float:right""></p><p><img src=images/blank.png width =""800"" height = ""200""></p>","","","","","","","","","","","",""
"","898.3100000004633","sequential-stimulus-presentation","243","398136","0.0-47.0-1.0","SS1613172016376","trial","","40","800","1698.3100000004633","images/stimuli/spore_stims/complex_13_B_c.gif","images/stimuli/spore_stims/complex_13_A_c.gif","","","","","13","complex_similar","images/stimuli/spore_stims/complex_13_A_c.gif","middle","","","","",""
"","null","html-keyboard-response","244","399210","0.0-47.0-0.1","SS1613172016376","","","null","","","","","<p><img src= images/blank.png width =""200"" height = ""200"" style = ""float:right""></p><p><img src=images/blank.png width =""800"" height = ""200""></p>","","","","","","","","","","","",""
"","321.45000000309665","sequential-stimulus-presentation","245","400344","0.0-47.0-1.1","SS1613172016376","trial","","40","800","1121.4500000030966","images/stimuli/spore_stims/complex_13_B_c.gif","images/stimuli/spore_stims/complex_13_A_c.gif","","","","","13","complex_similar","images/stimuli/spore_stims/complex_13_A_c.gif","middle","","","","",""
"","null","html-keyboard-response","246","401494","0.0-47.0-0.2","SS1613172016376","","","null","","","","","<p><img src= images/blank.png width =""200"" height = ""200"" style = ""float:right""></p><p><img src=images/blank.png width =""800"" height = ""200""></p>","","","","","","","","","","","",""
"","656.9349999990663","sequential-stimulus-presentation","247","402967","0.0-47.0-1.2","SS1613172016376","trial","","40","800","1456.9349999990663","images/stimuli/spore_stims/complex_13_B_c.gif","images/stimuli/spore_stims/complex_13_A_c.gif","","","","","13","complex_similar","images/stimuli/spore_stims/complex_13_B_c.gif","left","","","","",""
"","null","html-keyboard-response","248","404050","0.0-47.0-0.3","SS1613172016376","","","null","","","","","<p><img src= images/blank.png width =""200"" height = ""200"" style = ""float:right""></p><p><img src=images/blank.png width =""800"" height = ""200""></p>","","","","","","","","","","","",""
"","424.9449999987846","sequential-stimulus-presentation","249","405287","0.0-47.0-1.3","SS1613172016376","trial","","40","800","1224.9449999987846","images/stimuli/spore_stims/complex_13_B_c.gif","images/stimuli/spore_stims/complex_13_A_c.gif","","","","","13","complex_similar","images/stimuli/spore_stims/complex_13_A_c.gif","middle","","","","",""
"","null","html-keyboard-response","250","406162","0.0-47.0-0.4","SS1613172016376","","","null","","","","","<p><img src= images/blank.png width =""200"" height = ""200"" style = ""float:right""></p><p><img src=images/blank.png width =""800"" height = ""200""></p>","","","","","","","","","","","",""
"","414.4449999985518","sequential-stimulus-presentation","251","407391","0.0-47.0-1.4","SS1613172016376","trial","","40","800","1214.4449999985518","images/stimuli/spore_stims/complex_13_B_c.gif","images/stimuli/spore_stims/complex_13_A_c.gif","","","","","13","complex_similar","images/stimuli/spore_stims/complex_13_A_c.gif","middle","","","","",""
"","null","html-keyboard-response","252","408679","0.0-47.0-0.5","SS1613172016376","","","null","","","","","<p><img src= images/blank.png width =""200"" height = ""200"" style = ""float:right""></p><p><img src=images/blank.png width =""800"" height = ""200""></p>","","","","","","","","","","","",""
"","488.32499999844003","sequential-stimulus-presentation","253","409982","0.0-47.0-1.5","SS1613172016376","trial","","40","800","1288.32499999844","images/stimuli/spore_stims/complex_13_B_c.gif","images/stimuli/spore_stims/complex_13_A_c.gif","","","","","13","complex_similar","images/stimuli/spore_stims/complex_13_A_c.gif","middle","","","","",""
"","null","html-keyboard-response","254","411059","0.0-47.0-0.6","SS1613172016376","","","null","","","","","<p><img src= images/blank.png width =""200"" height = ""200"" style = ""float:right""></p><p><img src=images/blank.png width =""800"" height = ""200""></p>","","","","","","","","","","","",""
"","496.36999999714317","sequential-stimulus-presentation","255","412366","0.0-47.0-1.6","SS1613172016376","trial","","40","800","1296.3699999971432","images/stimuli/spore_stims/complex_13_B_c.gif","images/stimuli/spore_stims/complex_13_A_c.gif","","","","","13","complex_similar","images/stimuli/spore_stims/complex_13_A_c.gif","middle","","","","",""
"","null","html-keyboard-response","256","413633","0.0-47.0-0.7","SS1613172016376","","","null","","","","","<p><img src= images/blank.png width =""200"" height = ""200"" style = ""float:right""></p><p><img src=images/blank.png width =""800"" height = ""200""></p>","","","","","","","","","","","",""
"","420.6300000004703","sequential-stimulus-presentation","257","414870","0.0-47.0-1.7","SS1613172016376","trial","","40","800","1220.6300000004703","images/stimuli/spore_stims/complex_13_B_c.gif","images/stimuli/spore_stims/complex_13_A_c.gif","","","","","13","complex_similar","images/stimuli/spore_stims/complex_13_A_c.gif","middle","","","","",""
"","1084.9249999992317","html-keyboard-response","258","415966","0.0-48.0","SS1613172016376","pref_question","","49","","","","","<video width ='960' height = '540' style='padding-top:8%' autoplay muted><source src='images/stimuli/wall_pref.mp4' type='video/mp4'></video>","1","left","25%","13","","","","","","","",""
"","2476.6549999985145","sequential-stimulus-presentation","259","419253","0.0-49.0","SS1613172016376","pref_reveal","","40","800","3276.6549999985145","null","null","","","","","13","","","","deviant","","","",""
"","null","html-keyboard-response","260","420326","0.0-50.0-0.0","SS1613172016376","","","null","","","","","<p><img src= images/blank.png width =""200"" height = ""200"" style = ""float:right""></p><p><img src=images/blank.png width =""800"" height = ""200""></p>","","","","","","","","","","","",""
"","347.91499999846565","sequential-stimulus-presentation","261","421485","0.0-50.0-1.0","SS1613172016376","trial","","40","800","1147.9149999984656","images/stimuli/spore_stims/complex_15_B_a.gif","images/stimuli/spore_stims/complex_06_A_b.gif","","","","","14","complex_dissimilar","images/stimuli/spore_stims/complex_06_A_b.gif","left","","","","",""
"","null","html-keyboard-response","262","422509","0.0-50.0-0.1","SS1613172016376","","","null","","","","","<p><img src= images/blank.png width =""200"" height = ""200"" style = ""float:right""></p><p><img src=images/blank.png width =""800"" height = ""200""></p>","","","","","","","","","","","",""
"","388.2999999987078","sequential-stimulus-presentation","263","423709","0.0-50.0-1.1","SS1613172016376","trial","","40","800","1188.2999999987078","images/stimuli/spore_stims/complex_15_B_a.gif","images/stimuli/spore_stims/complex_06_A_b.gif","","","","","14","complex_dissimilar","images/stimuli/spore_stims/complex_06_A_b.gif","left","","","","",""
"","null","html-keyboard-response","264","424955","0.0-50.0-0.2","SS1613172016376","","","null","","","","","<p><img src= images/blank.png width =""200"" height = ""200"" style = ""float:right""></p><p><img src=images/blank.png width =""800"" height = ""200""></p>","","","","","","","","","","","",""
"","348.2799999983981","sequential-stimulus-presentation","265","426117","0.0-50.0-1.2","SS1613172016376","trial","","40","800","1148.2799999983981","images/stimuli/spore_stims/complex_15_B_a.gif","images/stimuli/spore_stims/complex_06_A_b.gif","","","","","14","complex_dissimilar","images/stimuli/spore_stims/complex_06_A_b.gif","left","","","","",""
"","null","html-keyboard-response","266","427344","0.0-50.0-0.3","SS1613172016376","","","null","","","","","<p><img src= images/blank.png width =""200"" height = ""200"" style = ""float:right""></p><p><img src=images/blank.png width =""800"" height = ""200""></p>","","","","","","","","","","","",""
"","468.9250000010943","sequential-stimulus-presentation","267","428628","0.0-50.0-1.3","SS1613172016376","trial","","40","800","1268.9250000010943","images/stimuli/spore_stims/complex_15_B_a.gif","images/stimuli/spore_stims/complex_06_A_b.gif","","","","","14","complex_dissimilar","images/stimuli/spore_stims/complex_06_A_b.gif","left","","","","",""
"","null","html-keyboard-response","268","429889","0.0-50.0-0.4","SS1613172016376","","","null","","","","","<p><img src= images/blank.png width =""200"" height = ""200"" style = ""float:right""></p><p><img src=images/blank.png width =""800"" height = ""200""></p>","","","","","","","","","","","",""
"","302.48000000213506","sequential-stimulus-presentation","269","431004","0.0-50.0-1.4","SS1613172016376","trial","","40","800","1102.480000002135","images/stimuli/spore_stims/complex_15_B_a.gif","images/stimuli/spore_stims/complex_06_A_b.gif","","","","","14","complex_dissimilar","images/stimuli/spore_stims/complex_15_B_a.gif","middle","","","","",""
"","null","html-keyboard-response","270","432113","0.0-50.0-0.5","SS1613172016376","","","null","","","","","<p><img src= images/blank.png width =""200"" height = ""200"" style = ""float:right""></p><p><img src=images/blank.png width =""800"" height = ""200""></p>","","","","","","","","","","","",""
"","332.8750000000582","sequential-stimulus-presentation","271","433261","0.0-50.0-1.5","SS1613172016376","trial","","40","800","1132.8750000000582","images/stimuli/spore_stims/complex_15_B_a.gif","images/stimuli/spore_stims/complex_06_A_b.gif","","","","","14","complex_dissimilar","images/stimuli/spore_stims/complex_06_A_b.gif","left","","","","",""
"","null","html-keyboard-response","272","434229","0.0-50.0-0.6","SS1613172016376","","","null","","","","","<p><img src= images/blank.png width =""200"" height = ""200"" style = ""float:right""></p><p><img src=images/blank.png width =""800"" height = ""200""></p>","","","","","","","","","","","",""
"","4221.274999999849","sequential-stimulus-presentation","273","439262","0.0-50.0-1.6","SS1613172016376","trial","","40","800","5021.274999999849","images/stimuli/spore_stims/complex_15_B_a.gif","images/stimuli/spore_stims/complex_06_A_b.gif","","","","","14","complex_dissimilar","images/stimuli/spore_stims/complex_06_A_b.gif","left","","","","",""
"","null","html-keyboard-response","274","440193","0.0-50.0-0.7","SS1613172016376","","","null","","","","","<p><img src= images/blank.png width =""200"" height = ""200"" style = ""float:right""></p><p><img src=images/blank.png width =""800"" height = ""200""></p>","","","","","","","","","","","",""
"","969.8150000003516","sequential-stimulus-presentation","275","441979","0.0-50.0-1.7","SS1613172016376","trial","","40","800","1769.8150000003516","images/stimuli/spore_stims/complex_15_B_a.gif","images/stimuli/spore_stims/complex_06_A_b.gif","","","","","14","complex_dissimilar","images/stimuli/spore_stims/complex_06_A_b.gif","left","","","","",""
"","2140.3250000003027","html-keyboard-response","276","444131","0.0-51.0","SS1613172016376","pref_question","","51","","","","","<video width ='960' height = '540' style='padding-top:8%' autoplay muted><source src='images/stimuli/wall_pref.mp4' type='video/mp4'></video>","3","right","66%","14","","","","","","","",""
"","1883.4199999982957","sequential-stimulus-presentation","277","446826","0.0-52.0","SS1613172016376","pref_reveal","","40","800","2683.4199999982957","null","null","","","","","14","","","","novel","","","",""
"","null","html-keyboard-response","278","447942","0.0-53.0-0.0","SS1613172016376","","","null","","","","","<p><img src= images/blank.png width =""200"" height = ""200"" style = ""float:right""></p><p><img src=images/blank.png width =""800"" height = ""200""></p>","","","","","","","","","","","",""
"","923.3549999989918","sequential-stimulus-presentation","279","449682","0.0-53.0-1.0","SS1613172016376","trial","","40","800","1723.3549999989918","images/stimuli/spore_stims/complex_17_B_d.gif","images/stimuli/spore_stims/complex_17_A_d.gif","","","","","15","complex_similar","images/stimuli/spore_stims/complex_17_A_d.gif","left","","","","",""
"","null","html-keyboard-response","280","450725","0.0-53.0-0.1","SS1613172016376","","","null","","","","","<p><img src= images/blank.png width =""200"" height = ""200"" style = ""float:right""></p><p><img src=images/blank.png width =""800"" height = ""200""></p>","","","","","","","","","","","",""
"","496.6999999997206","sequential-stimulus-presentation","281","452033","0.0-53.0-1.1","SS1613172016376","trial","","40","800","1296.6999999997206","images/stimuli/spore_stims/complex_17_B_d.gif","images/stimuli/spore_stims/complex_17_A_d.gif","","","","","15","complex_similar","images/stimuli/spore_stims/complex_17_A_d.gif","left","","","","",""
"","null","html-keyboard-response","282","453165","0.0-53.0-0.2","SS1613172016376","","","null","","","","","<p><img src= images/blank.png width =""200"" height = ""200"" style = ""float:right""></p><p><img src=images/blank.png width =""800"" height = ""200""></p>","","","","","","","","","","","",""
"","989.499999999709","sequential-stimulus-presentation","283","454969","0.0-53.0-1.2","SS1613172016376","trial","","40","800","1789.499999999709","images/stimuli/spore_stims/complex_17_B_d.gif","images/stimuli/spore_stims/complex_17_A_d.gif","","","","","15","complex_similar","images/stimuli/spore_stims/complex_17_A_d.gif","left","","","","",""
"","null","html-keyboard-response","284","456190","0.0-53.0-0.3","SS1613172016376","","","null","","","","","<p><img src= images/blank.png width =""200"" height = ""200"" style = ""float:right""></p><p><img src=images/blank.png width =""800"" height = ""200""></p>","","","","","","","","","","","",""
"","486.69499999959953","sequential-stimulus-presentation","285","457489","0.0-53.0-1.3","SS1613172016376","trial","","40","800","1286.6949999995995","images/stimuli/spore_stims/complex_17_B_d.gif","images/stimuli/spore_stims/complex_17_A_d.gif","","","","","15","complex_similar","images/stimuli/spore_stims/complex_17_A_d.gif","left","","","","",""
"","null","html-keyboard-response","286","458425","0.0-53.0-0.4","SS1613172016376","","","null","","","","","<p><img src= images/blank.png width =""200"" height = ""200"" style = ""float:right""></p><p><img src=images/blank.png width =""800"" height = ""200""></p>","","","","","","","","","","","",""
"","595.4449999990175","sequential-stimulus-presentation","287","459833","0.0-53.0-1.4","SS1613172016376","trial","","40","800","1395.4449999990175","images/stimuli/spore_stims/complex_17_B_d.gif","images/stimuli/spore_stims/complex_17_A_d.gif","","","","","15","complex_similar","images/stimuli/spore_stims/complex_17_A_d.gif","left","","","","",""
"","null","html-keyboard-response","288","460648","0.0-53.0-0.5","SS1613172016376","","","null","","","","","<p><img src= images/blank.png width =""200"" height = ""200"" style = ""float:right""></p><p><img src=images/blank.png width =""800"" height = ""200""></p>","","","","","","","","","","","",""
"","955.7599999970989","sequential-stimulus-presentation","289","462416","0.0-53.0-1.5","SS1613172016376","trial","","40","800","1755.759999997099","images/stimuli/spore_stims/complex_17_B_d.gif","images/stimuli/spore_stims/complex_17_A_d.gif","","","","","15","complex_similar","images/stimuli/spore_stims/complex_17_A_d.gif","left","","","","",""
"","null","html-keyboard-response","290","463481","0.0-53.0-0.6","SS1613172016376","","","null","","","","","<p><img src= images/blank.png width =""200"" height = ""200"" style = ""float:right""></p><p><img src=images/blank.png width =""800"" height = ""200""></p>","","","","","","","","","","","",""
"","795.5900000015972","sequential-stimulus-presentation","291","465088","0.0-53.0-1.6","SS1613172016376","trial","","40","800","1595.5900000015972","images/stimuli/spore_stims/complex_17_B_d.gif","images/stimuli/spore_stims/complex_17_A_d.gif","","","","","15","complex_similar","images/stimuli/spore_stims/complex_17_B_d.gif","right","","","","",""
"","null","html-keyboard-response","292","466297","0.0-53.0-0.7","SS1613172016376","","","null","","","","","<p><img src= images/blank.png width =""200"" height = ""200"" style = ""float:right""></p><p><img src=images/blank.png width =""800"" height = ""200""></p>","","","","","","","","","","","",""
"","579.3349999985658","sequential-stimulus-presentation","293","467688","0.0-53.0-1.7","SS1613172016376","trial","","40","800","1379.3349999985658","images/stimuli/spore_stims/complex_17_B_d.gif","images/stimuli/spore_stims/complex_17_A_d.gif","","","","","15","complex_similar","images/stimuli/spore_stims/complex_17_A_d.gif","left","","","","",""
"","1044.1350000001257","html-keyboard-response","294","468744","0.0-54.0","SS1613172016376","pref_question","","50","","","","","<video width ='960' height = '540' style='padding-top:8%' autoplay muted><source src='images/stimuli/wall_pref.mp4' type='video/mp4'></video>","2","middle","45%","15","","","","","","","",""
"","843.4249999991152","sequential-stimulus-presentation","295","470400","0.0-55.0","SS1613172016376","pref_reveal","","40","800","1643.4249999991152","null","null","","","","","15","","","","novel","","","",""
"","null","html-keyboard-response","296","471648","0.0-56.0-0.0","SS1613172016376","","","null","","","","","<p><img src= images/blank.png width =""200"" height = ""200"" style = ""float:right""></p><p><img src=images/blank.png width =""800"" height = ""200""></p>","","","","","","","","","","","",""
"","770.795000000333","sequential-stimulus-presentation","297","473231","0.0-56.0-1.0","SS1613172016376","trial","","40","800","1570.795000000333","images/stimuli/spore_stims/complex_10_A_c.gif","images/stimuli/spore_stims/complex_20_B_d.gif","","","","","16","complex_dissimilar","images/stimuli/spore_stims/complex_20_B_d.gif","right","","","","",""
"","null","html-keyboard-response","298","474184","0.0-56.0-0.1","SS1613172016376","","","null","","","","","<p><img src= images/blank.png width =""200"" height = ""200"" style = ""float:right""></p><p><img src=images/blank.png width =""800"" height = ""200""></p>","","","","","","","","","","","",""
"","655.6550000022398","sequential-stimulus-presentation","299","475655","0.0-56.0-1.1","SS1613172016376","trial","","40","800","1455.6550000022398","images/stimuli/spore_stims/complex_10_A_c.gif","images/stimuli/spore_stims/complex_20_B_d.gif","","","","","16","complex_dissimilar","images/stimuli/spore_stims/complex_20_B_d.gif","right","","","","",""
"","null","html-keyboard-response","300","476713","0.0-56.0-0.2","SS1613172016376","","","null","","","","","<p><img src= images/blank.png width =""200"" height = ""200"" style = ""float:right""></p><p><img src=images/blank.png width =""800"" height = ""200""></p>","","","","","","","","","","","",""
"","529.6449999986799","sequential-stimulus-presentation","301","478055","0.0-56.0-1.2","SS1613172016376","trial","","40","800","1329.6449999986799","images/stimuli/spore_stims/complex_10_A_c.gif","images/stimuli/spore_stims/complex_20_B_d.gif","","","","","16","complex_dissimilar","images/stimuli/spore_stims/complex_20_B_d.gif","right","","","","",""
"","null","html-keyboard-response","302","479351","0.0-56.0-0.3","SS1613172016376","","","null","","","","","<p><img src= images/blank.png width =""200"" height = ""200"" style = ""float:right""></p><p><img src=images/blank.png width =""800"" height = ""200""></p>","","","","","","","","","","","",""
"","338.4599999990314","sequential-stimulus-presentation","303","480502","0.0-56.0-1.3","SS1613172016376","trial","","40","800","1138.4599999990314","images/stimuli/spore_stims/complex_10_A_c.gif","images/stimuli/spore_stims/complex_20_B_d.gif","","","","","16","complex_dissimilar","images/stimuli/spore_stims/complex_20_B_d.gif","right","","","","",""
"","null","html-keyboard-response","304","481505","0.0-56.0-0.4","SS1613172016376","","","null","","","","","<p><img src= images/blank.png width =""200"" height = ""200"" style = ""float:right""></p><p><img src=images/blank.png width =""800"" height = ""200""></p>","","","","","","","","","","","",""
"","292.6649999972433","sequential-stimulus-presentation","305","482614","0.0-56.0-1.4","SS1613172016376","trial","","40","800","1092.6649999972433","images/stimuli/spore_stims/complex_10_A_c.gif","images/stimuli/spore_stims/complex_20_B_d.gif","","","","","16","complex_dissimilar","images/stimuli/spore_stims/complex_10_A_c.gif","middle","","","","",""
"","null","html-keyboard-response","306","483764","0.0-56.0-0.5","SS1613172016376","","","null","","","","","<p><img src= images/blank.png width =""200"" height = ""200"" style = ""float:right""></p><p><img src=images/blank.png width =""800"" height = ""200""></p>","","","","","","","","","","","",""
"","269.1500000000815","sequential-stimulus-presentation","307","484846","0.0-56.0-1.5","SS1613172016376","trial","","40","800","1069.1500000000815","images/stimuli/spore_stims/complex_10_A_c.gif","images/stimuli/spore_stims/complex_20_B_d.gif","","","","","16","complex_dissimilar","images/stimuli/spore_stims/complex_20_B_d.gif","right","","","","",""
"","null","html-keyboard-response","308","485860","0.0-56.0-0.6","SS1613172016376","","","null","","","","","<p><img src= images/blank.png width =""200"" height = ""200"" style = ""float:right""></p><p><img src=images/blank.png width =""800"" height = ""200""></p>","","","","","","","","","","","",""
"","425.86999999912223","sequential-stimulus-presentation","309","487101","0.0-56.0-1.6","SS1613172016376","trial","","40","800","1225.8699999991222","images/stimuli/spore_stims/complex_10_A_c.gif","images/stimuli/spore_stims/complex_20_B_d.gif","","","","","16","complex_dissimilar","images/stimuli/spore_stims/complex_20_B_d.gif","right","","","","",""
"","null","html-keyboard-response","310","488360","0.0-56.0-0.7","SS1613172016376","","","null","","","","","<p><img src= images/blank.png width =""200"" height = ""200"" style = ""float:right""></p><p><img src=images/blank.png width =""800"" height = ""200""></p>","","","","","","","","","","","",""
"","321.15500000148313","sequential-stimulus-presentation","311","489493","0.0-56.0-1.7","SS1613172016376","trial","","40","800","1121.1550000014831","images/stimuli/spore_stims/complex_10_A_c.gif","images/stimuli/spore_stims/complex_20_B_d.gif","","","","","16","complex_dissimilar","images/stimuli/spore_stims/complex_20_B_d.gif","right","","","","",""
"","779.8450000009034","html-keyboard-response","312","490285","0.0-57.0","SS1613172016376","pref_question","","49","","","","","<video width ='960' height = '540' style='padding-top:8%' autoplay muted><source src='images/stimuli/wall_pref.mp4' type='video/mp4'></video>","1","left","25%","16","","","","","","","",""
