"view_history","rt","trial_type","trial_index","time_elapsed","internal_node_id","subject","stimulus_type","trial_stimulus","key_press","minimum_viewing_duration","trial_looking_time","stimulus","wall_pref","location","location_percent","block_number","block_type","stimulus_displayed","position_displayed","stim_type_selected","responses","question_order","stimulus_left","stimulus_right"
"[{""page_index"":0,""viewing_time"":10604.86500011757}]","10605.409999843687","instructions","0","10606","0.0-0.0","SS1612925950673","","","","","","","","","","","","","","","","","",""
"[{""page_index"":0,""viewing_time"":15154.039999935776},{""page_index"":1,""viewing_time"":9247.740000020713}]","24401.964999735355","instructions","1","37009","0.0-1.0","SS1612925950673","instructions","","","","","","","","","","","","","","","","",""
"","12555.570000316948","sequential-stimulus-presentation","2","50373","0.0-2.0","SS1612925950673","","","40","800","13355.570000316948","","","","","","","","","","","","",""
"","4335.23999992758","sequential-stimulus-presentation","3","55513","0.0-3.0","SS1612925950673","","","40","800","5135.23999992758","","","","","","","","","","","","",""
"[{""page_index"":0,""viewing_time"":5289.489999879152}]","5289.6699998527765","instructions","4","60804","0.0-4.0","SS1612925950673","instructions","","","","","","","","","","","","","","","","",""
"","13192.339999601245","html-keyboard-response","5","73998","0.0-5.0","SS1612925950673","instructions","","49","","","<video width ='960' height = '540' autoplay muted><source src='images/stimuli/wall_pref.mp4' type='video/mp4'></video>","1","left","25%","","","","","","","","",""
"","1582.0650001987815","sequential-stimulus-presentation","6","76382","0.0-6.0","SS1612925950673","pref_reveal","","40","800","2382.0650001987815","","","","","","","","","","","","",""
"[{""page_index"":0,""viewing_time"":11668.345000129193},{""page_index"":1,""viewing_time"":6840.229999739677},{""page_index"":2,""viewing_time"":1822.4300001747906},{""page_index"":3,""viewing_time"":2182.6900001615286}]","22513.86999990791","instructions","7","98897","0.0-7.0","SS1612925950673","instructions","","","","","","","","","","","","","","","","",""
"","null","html-keyboard-response","8","99764","0.0-8.0-0.0","SS1612925950673","","","null","","","<p><img src= images/blank.png width =""200"" height = ""200"" style = ""float:right""></p><p><img src=images/blank.png width =""800"" height = ""200""></p>","","","","","","","","","","","",""
"","574.324999935925","sequential-stimulus-presentation","9","101144","0.0-8.0-1.0","SS1612925950673","trial","","40","800","1374.324999935925","","","","","0","complex_similar","images/stimuli/spore_stims/complex_09_B_b.gif","right","","","","",""
"","null","html-keyboard-response","10","102106","0.0-8.0-0.1","SS1612925950673","","","null","","","<p><img src= images/blank.png width =""200"" height = ""200"" style = ""float:right""></p><p><img src=images/blank.png width =""800"" height = ""200""></p>","","","","","","","","","","","",""
"","1475.1300001516938","sequential-stimulus-presentation","11","104384","0.0-8.0-1.1","SS1612925950673","trial","","40","800","2275.130000151694","","","","","0","complex_similar","images/stimuli/spore_stims/complex_09_B_b.gif","right","","","","",""
"","null","html-keyboard-response","12","105463","0.0-8.0-0.2","SS1612925950673","","","null","","","<p><img src= images/blank.png width =""200"" height = ""200"" style = ""float:right""></p><p><img src=images/blank.png width =""800"" height = ""200""></p>","","","","","","","","","","","",""
"","1604.9750000238419","sequential-stimulus-presentation","13","107872","0.0-8.0-1.2","SS1612925950673","trial","","40","800","2404.975000023842","","","","","0","complex_similar","images/stimuli/spore_stims/complex_09_B_b.gif","right","","","","",""
"","null","html-keyboard-response","14","108771","0.0-8.0-0.3","SS1612925950673","","","null","","","<p><img src= images/blank.png width =""200"" height = ""200"" style = ""float:right""></p><p><img src=images/blank.png width =""800"" height = ""200""></p>","","","","","","","","","","","",""
"","1041.495000012219","sequential-stimulus-presentation","15","110617","0.0-8.0-1.3","SS1612925950673","trial","","40","800","1841.495000012219","","","","","0","complex_similar","images/stimuli/spore_stims/complex_09_B_b.gif","right","","","","",""
"","null","html-keyboard-response","16","111425","0.0-8.0-0.4","SS1612925950673","","","null","","","<p><img src= images/blank.png width =""200"" height = ""200"" style = ""float:right""></p><p><img src=images/blank.png width =""800"" height = ""200""></p>","","","","","","","","","","","",""
"","694.4599999114871","sequential-stimulus-presentation","17","112924","0.0-8.0-1.4","SS1612925950673","trial","","40","800","1494.459999911487","","","","","0","complex_similar","images/stimuli/spore_stims/complex_09_B_b.gif","right","","","","",""
"","null","html-keyboard-response","18","113795","0.0-8.0-0.5","SS1612925950673","","","null","","","<p><img src= images/blank.png width =""200"" height = ""200"" style = ""float:right""></p><p><img src=images/blank.png width =""800"" height = ""200""></p>","","","","","","","","","","","",""
"","845.1450001448393","sequential-stimulus-presentation","19","115443","0.0-8.0-1.5","SS1612925950673","trial","","40","800","1645.1450001448393","","","","","0","complex_similar","images/stimuli/spore_stims/complex_09_B_b.gif","right","","","","",""
"","null","html-keyboard-response","20","116451","0.0-8.0-0.6","SS1612925950673","","","null","","","<p><img src= images/blank.png width =""200"" height = ""200"" style = ""float:right""></p><p><img src=images/blank.png width =""800"" height = ""200""></p>","","","","","","","","","","","",""
"","1462.8749997355044","sequential-stimulus-presentation","21","118717","0.0-8.0-1.6","SS1612925950673","trial","","40","800","2262.8749997355044","","","","","0","complex_similar","images/stimuli/spore_stims/complex_09_A_b.gif","left","","","","",""
"","null","html-keyboard-response","22","119589","0.0-8.0-0.7","SS1612925950673","","","null","","","<p><img src= images/blank.png width =""200"" height = ""200"" style = ""float:right""></p><p><img src=images/blank.png width =""800"" height = ""200""></p>","","","","","","","","","","","",""
"","617.6299997605383","sequential-stimulus-presentation","23","121012","0.0-8.0-1.7","SS1612925950673","trial","","40","800","1417.6299997605383","","","","","0","complex_similar","images/stimuli/spore_stims/complex_09_B_b.gif","right","","","","",""
"","5926.6050001606345","html-keyboard-response","24","126941","0.0-9.0","SS1612925950673","pref_question","","50","","","<video width ='960' height = '540' style='padding-top:8%' autoplay muted><source src='images/stimuli/wall_pref.mp4' type='video/mp4'></video>","2","middle","45%","0","","","","","","","",""
"","1118.650000076741","sequential-stimulus-presentation","25","128864","0.0-10.0","SS1612925950673","pref_reveal","","40","800","1918.650000076741","","","","","0","","","","novel","","","",""
"","null","html-keyboard-response","26","130007","0.0-11.0-0.0","SS1612925950673","","","null","","","<p><img src= images/blank.png width =""200"" height = ""200"" style = ""float:right""></p><p><img src=images/blank.png width =""800"" height = ""200""></p>","","","","","","","","","","","",""
"","2989.530000369996","sequential-stimulus-presentation","27","133803","0.0-11.0-1.0","SS1612925950673","trial","","40","800","3789.530000369996","","","","","1","complex_similar","images/stimuli/spore_stims/complex_08_A_d.gif","middle","","","","",""
"","null","html-keyboard-response","28","134790","0.0-11.0-0.1","SS1612925950673","","","null","","","<p><img src= images/blank.png width =""200"" height = ""200"" style = ""float:right""></p><p><img src=images/blank.png width =""800"" height = ""200""></p>","","","","","","","","","","","",""
"","321.80000003427267","sequential-stimulus-presentation","29","135918","0.0-11.0-1.1","SS1612925950673","trial","","40","800","1121.8000000342727","","","","","1","complex_similar","images/stimuli/spore_stims/complex_08_A_d.gif","middle","","","","",""
"","null","html-keyboard-response","30","137141","0.0-11.0-0.2","SS1612925950673","","","null","","","<p><img src= images/blank.png width =""200"" height = ""200"" style = ""float:right""></p><p><img src=images/blank.png width =""800"" height = ""200""></p>","","","","","","","","","","","",""
"","514.6250003017485","sequential-stimulus-presentation","31","138461","0.0-11.0-1.2","SS1612925950673","trial","","40","800","1314.6250003017485","","","","","1","complex_similar","images/stimuli/spore_stims/complex_08_A_d.gif","middle","","","","",""
"","null","html-keyboard-response","32","139573","0.0-11.0-0.3","SS1612925950673","","","null","","","<p><img src= images/blank.png width =""200"" height = ""200"" style = ""float:right""></p><p><img src=images/blank.png width =""800"" height = ""200""></p>","","","","","","","","","","","",""
"","837.4200002290308","sequential-stimulus-presentation","33","141217","0.0-11.0-1.3","SS1612925950673","trial","","40","800","1637.4200002290308","","","","","1","complex_similar","images/stimuli/spore_stims/complex_08_B_d.gif","right","","","","",""
"","null","html-keyboard-response","34","142350","0.0-11.0-0.4","SS1612925950673","","","null","","","<p><img src= images/blank.png width =""200"" height = ""200"" style = ""float:right""></p><p><img src=images/blank.png width =""800"" height = ""200""></p>","","","","","","","","","","","",""
"","539.8699999786913","sequential-stimulus-presentation","35","143692","0.0-11.0-1.4","SS1612925950673","trial","","40","800","1339.8699999786913","","","","","1","complex_similar","images/stimuli/spore_stims/complex_08_A_d.gif","middle","","","","",""
"","null","html-keyboard-response","36","144511","0.0-11.0-0.5","SS1612925950673","","","null","","","<p><img src= images/blank.png width =""200"" height = ""200"" style = ""float:right""></p><p><img src=images/blank.png width =""800"" height = ""200""></p>","","","","","","","","","","","",""
"","523.64999987185","sequential-stimulus-presentation","37","145841","0.0-11.0-1.5","SS1612925950673","trial","","40","800","1323.64999987185","","","","","1","complex_similar","images/stimuli/spore_stims/complex_08_A_d.gif","middle","","","","",""
"","null","html-keyboard-response","38","146736","0.0-11.0-0.6","SS1612925950673","","","null","","","<p><img src= images/blank.png width =""200"" height = ""200"" style = ""float:right""></p><p><img src=images/blank.png width =""800"" height = ""200""></p>","","","","","","","","","","","",""
"","966.4149996824563","sequential-stimulus-presentation","39","148507","0.0-11.0-1.6","SS1612925950673","trial","","40","800","1766.4149996824563","","","","","1","complex_similar","images/stimuli/spore_stims/complex_08_A_d.gif","middle","","","","",""
"","null","html-keyboard-response","40","149599","0.0-11.0-0.7","SS1612925950673","","","null","","","<p><img src= images/blank.png width =""200"" height = ""200"" style = ""float:right""></p><p><img src=images/blank.png width =""800"" height = ""200""></p>","","","","","","","","","","","",""
"","512.980000115931","sequential-stimulus-presentation","41","150915","0.0-11.0-1.7","SS1612925950673","trial","","40","800","1312.980000115931","","","","","1","complex_similar","images/stimuli/spore_stims/complex_08_A_d.gif","middle","","","","",""
"","2878.2749995589256","html-keyboard-response","42","153795","0.0-12.0","SS1612925950673","pref_question","","49","","","<video width ='960' height = '540' style='padding-top:8%' autoplay muted><source src='images/stimuli/wall_pref.mp4' type='video/mp4'></video>","1","left","25%","1","","","","","","","",""
"","756.249999627471","sequential-stimulus-presentation","43","155359","0.0-13.0","SS1612925950673","pref_reveal","","40","800","1556.249999627471","","","","","1","","","","novel","","","",""
"","null","html-keyboard-response","44","156625","0.0-14.0-0.0","SS1612925950673","","","null","","","<p><img src= images/blank.png width =""200"" height = ""200"" style = ""float:right""></p><p><img src=images/blank.png width =""800"" height = ""200""></p>","","","","","","","","","","","",""
"","3318.2649998925626","sequential-stimulus-presentation","45","160748","0.0-14.0-1.0","SS1612925950673","trial","","40","800","4118.264999892563","","","","","2","simple_similar","images/stimuli/spore_stims/simple_19_A_a.gif","middle","","","","",""
"","null","html-keyboard-response","46","161790","0.0-14.0-0.1","SS1612925950673","","","null","","","<p><img src= images/blank.png width =""200"" height = ""200"" style = ""float:right""></p><p><img src=images/blank.png width =""800"" height = ""200""></p>","","","","","","","","","","","",""
"","607.7649998478591","sequential-stimulus-presentation","47","163211","0.0-14.0-1.1","SS1612925950673","trial","","40","800","1407.7649998478591","","","","","2","simple_similar","images/stimuli/spore_stims/simple_19_A_a.gif","middle","","","","",""
"","null","html-keyboard-response","48","164448","0.0-14.0-0.2","SS1612925950673","","","null","","","<p><img src= images/blank.png width =""200"" height = ""200"" style = ""float:right""></p><p><img src=images/blank.png width =""800"" height = ""200""></p>","","","","","","","","","","","",""
"","195.1299998909235","sequential-stimulus-presentation","49","165450","0.0-14.0-1.2","SS1612925950673","trial","","40","800","995.1299998909235","","","","","2","simple_similar","images/stimuli/spore_stims/simple_19_A_a.gif","middle","","","","",""
"","null","html-keyboard-response","50","166714","0.0-14.0-0.3","SS1612925950673","","","null","","","<p><img src= images/blank.png width =""200"" height = ""200"" style = ""float:right""></p><p><img src=images/blank.png width =""800"" height = ""200""></p>","","","","","","","","","","","",""
"","499.08499978482723","sequential-stimulus-presentation","51","168015","0.0-14.0-1.3","SS1612925950673","trial","","40","800","1299.0849997848272","","","","","2","simple_similar","images/stimuli/spore_stims/simple_19_B_a.gif","right","","","","",""
"","null","html-keyboard-response","52","168824","0.0-14.0-0.4","SS1612925950673","","","null","","","<p><img src= images/blank.png width =""200"" height = ""200"" style = ""float:right""></p><p><img src=images/blank.png width =""800"" height = ""200""></p>","","","","","","","","","","","",""
"","154.07499996945262","sequential-stimulus-presentation","53","169781","0.0-14.0-1.4","SS1612925950673","trial","","40","800","954.0749999694526","","","","","2","simple_similar","images/stimuli/spore_stims/simple_19_A_a.gif","middle","","","","",""
"","null","html-keyboard-response","54","171072","0.0-14.0-0.5","SS1612925950673","","","null","","","<p><img src= images/blank.png width =""200"" height = ""200"" style = ""float:right""></p><p><img src=images/blank.png width =""800"" height = ""200""></p>","","","","","","","","","","","",""
"","310.7649995945394","sequential-stimulus-presentation","55","172189","0.0-14.0-1.5","SS1612925950673","trial","","40","800","1110.7649995945394","","","","","2","simple_similar","images/stimuli/spore_stims/simple_19_A_a.gif","middle","","","","",""
"","null","html-keyboard-response","56","173336","0.0-14.0-0.6","SS1612925950673","","","null","","","<p><img src= images/blank.png width =""200"" height = ""200"" style = ""float:right""></p><p><img src=images/blank.png width =""800"" height = ""200""></p>","","","","","","","","","","","",""
"","376.86000019311905","sequential-stimulus-presentation","57","174518","0.0-14.0-1.6","SS1612925950673","trial","","40","800","1176.860000193119","","","","","2","simple_similar","images/stimuli/spore_stims/simple_19_A_a.gif","middle","","","","",""
"","null","html-keyboard-response","58","175547","0.0-14.0-0.7","SS1612925950673","","","null","","","<p><img src= images/blank.png width =""200"" height = ""200"" style = ""float:right""></p><p><img src=images/blank.png width =""800"" height = ""200""></p>","","","","","","","","","","","",""
"","469.59999995306134","sequential-stimulus-presentation","59","176824","0.0-14.0-1.7","SS1612925950673","trial","","40","800","1269.5999999530613","","","","","2","simple_similar","images/stimuli/spore_stims/simple_19_A_a.gif","middle","","","","",""
"","3114.8749999701977","html-keyboard-response","60","179941","0.0-15.0","SS1612925950673","pref_question","","49","","","<video width ='960' height = '540' style='padding-top:8%' autoplay muted><source src='images/stimuli/wall_pref.mp4' type='video/mp4'></video>","1","left","25%","2","","","","","","","",""
"","792.6150001585484","sequential-stimulus-presentation","61","181538","0.0-16.0","SS1612925950673","pref_reveal","","40","800","1592.6150001585484","","","","","2","","","","novel","","","",""
"","null","html-keyboard-response","62","182386","0.0-17.0-0.0","SS1612925950673","","","null","","","<p><img src= images/blank.png width =""200"" height = ""200"" style = ""float:right""></p><p><img src=images/blank.png width =""800"" height = ""200""></p>","","","","","","","","","","","",""
"","483.6800000630319","sequential-stimulus-presentation","63","183676","0.0-17.0-1.0","SS1612925950673","trial","","40","800","1283.680000063032","","","","","3","complex_dissimilar","images/stimuli/spore_stims/complex_13_A_d.gif","left","","","","",""
"","null","html-keyboard-response","64","184503","0.0-17.0-0.1","SS1612925950673","","","null","","","<p><img src= images/blank.png width =""200"" height = ""200"" style = ""float:right""></p><p><img src=images/blank.png width =""800"" height = ""200""></p>","","","","","","","","","","","",""
"","391.695000231266","sequential-stimulus-presentation","65","185701","0.0-17.0-1.1","SS1612925950673","trial","","40","800","1191.695000231266","","","","","3","complex_dissimilar","images/stimuli/spore_stims/complex_13_A_d.gif","left","","","","",""
"","null","html-keyboard-response","66","186691","0.0-17.0-0.2","SS1612925950673","","","null","","","<p><img src= images/blank.png width =""200"" height = ""200"" style = ""float:right""></p><p><img src=images/blank.png width =""800"" height = ""200""></p>","","","","","","","","","","","",""
"","387.8049999475479","sequential-stimulus-presentation","67","187883","0.0-17.0-1.2","SS1612925950673","trial","","40","800","1187.804999947548","","","","","3","complex_dissimilar","images/stimuli/spore_stims/complex_10_B_a.gif","middle","","","","",""
"","null","html-keyboard-response","68","188804","0.0-17.0-0.3","SS1612925950673","","","null","","","<p><img src= images/blank.png width =""200"" height = ""200"" style = ""float:right""></p><p><img src=images/blank.png width =""800"" height = ""200""></p>","","","","","","","","","","","",""
"","414.56499975174665","sequential-stimulus-presentation","69","190021","0.0-17.0-1.3","SS1612925950673","trial","","40","800","1214.5649997517467","","","","","3","complex_dissimilar","images/stimuli/spore_stims/complex_13_A_d.gif","left","","","","",""
"","null","html-keyboard-response","70","190830","0.0-17.0-0.4","SS1612925950673","","","null","","","<p><img src= images/blank.png width =""200"" height = ""200"" style = ""float:right""></p><p><img src=images/blank.png width =""800"" height = ""200""></p>","","","","","","","","","","","",""
"","357.23500000312924","sequential-stimulus-presentation","71","191990","0.0-17.0-1.4","SS1612925950673","trial","","40","800","1157.2350000031292","","","","","3","complex_dissimilar","images/stimuli/spore_stims/complex_13_A_d.gif","left","","","","",""
"","null","html-keyboard-response","72","193187","0.0-17.0-0.5","SS1612925950673","","","null","","","<p><img src= images/blank.png width =""200"" height = ""200"" style = ""float:right""></p><p><img src=images/blank.png width =""800"" height = ""200""></p>","","","","","","","","","","","",""
"","393.56999984011054","sequential-stimulus-presentation","73","194385","0.0-17.0-1.5","SS1612925950673","trial","","40","800","1193.5699998401105","","","","","3","complex_dissimilar","images/stimuli/spore_stims/complex_13_A_d.gif","left","","","","",""
"","null","html-keyboard-response","74","195680","0.0-17.0-0.6","SS1612925950673","","","null","","","<p><img src= images/blank.png width =""200"" height = ""200"" style = ""float:right""></p><p><img src=images/blank.png width =""800"" height = ""200""></p>","","","","","","","","","","","",""
"","287.5900003127754","sequential-stimulus-presentation","75","196770","0.0-17.0-1.6","SS1612925950673","trial","","40","800","1087.5900003127754","","","","","3","complex_dissimilar","images/stimuli/spore_stims/complex_13_A_d.gif","left","","","","",""
"","null","html-keyboard-response","76","197802","0.0-17.0-0.7","SS1612925950673","","","null","","","<p><img src= images/blank.png width =""200"" height = ""200"" style = ""float:right""></p><p><img src=images/blank.png width =""800"" height = ""200""></p>","","","","","","","","","","","",""
"","303.6449998617172","sequential-stimulus-presentation","77","198908","0.0-17.0-1.7","SS1612925950673","trial","","40","800","1103.6449998617172","","","","","3","complex_dissimilar","images/stimuli/spore_stims/complex_13_A_d.gif","left","","","","",""
"","1809.3650001101196","html-keyboard-response","78","200720","0.0-18.0","SS1612925950673","pref_question","","51","","","<video width ='960' height = '540' style='padding-top:8%' autoplay muted><source src='images/stimuli/wall_pref.mp4' type='video/mp4'></video>","3","right","66%","3","","","","","","","",""
"","229.46499986574054","sequential-stimulus-presentation","79","201754","0.0-19.0","SS1612925950673","pref_reveal","","40","800","1029.4649998657405","","","","","3","","","","novel","","","",""
"","null","html-keyboard-response","80","202638","0.0-20.0-0.0","SS1612925950673","","","null","","","<p><img src= images/blank.png width =""200"" height = ""200"" style = ""float:right""></p><p><img src=images/blank.png width =""800"" height = ""200""></p>","","","","","","","","","","","",""
"","447.8349997662008","sequential-stimulus-presentation","81","203893","0.0-20.0-1.0","SS1612925950673","trial","","40","800","1247.8349997662008","","","","","4","simple_dissimilar","images/stimuli/spore_stims/simple_01_B_d.gif","left","","","","",""
"","null","html-keyboard-response","82","205034","0.0-20.0-0.1","SS1612925950673","","","null","","","<p><img src= images/blank.png width =""200"" height = ""200"" style = ""float:right""></p><p><img src=images/blank.png width =""800"" height = ""200""></p>","","","","","","","","","","","",""
"","291.5050000883639","sequential-stimulus-presentation","83","206131","0.0-20.0-1.1","SS1612925950673","trial","","40","800","1091.5050000883639","","","","","4","simple_dissimilar","images/stimuli/spore_stims/simple_01_B_d.gif","left","","","","",""
"","null","html-keyboard-response","84","207261","0.0-20.0-0.2","SS1612925950673","","","null","","","<p><img src= images/blank.png width =""200"" height = ""200"" style = ""float:right""></p><p><img src=images/blank.png width =""800"" height = ""200""></p>","","","","","","","","","","","",""
"","247.07000004127622","sequential-stimulus-presentation","85","208313","0.0-20.0-1.2","SS1612925950673","trial","","40","800","1047.0700000412762","","","","","4","simple_dissimilar","images/stimuli/spore_stims/simple_01_B_d.gif","left","","","","",""
"","null","html-keyboard-response","86","209446","0.0-20.0-0.3","SS1612925950673","","","null","","","<p><img src= images/blank.png width =""200"" height = ""200"" style = ""float:right""></p><p><img src=images/blank.png width =""800"" height = ""200""></p>","","","","","","","","","","","",""
"","61.714999843388796","sequential-stimulus-presentation","87","210316","0.0-20.0-1.3","SS1612925950673","trial","","40","800","861.7149998433888","","","","","4","simple_dissimilar","images/stimuli/spore_stims/simple_01_B_d.gif","left","","","","",""
"","null","html-keyboard-response","88","211501","0.0-20.0-0.4","SS1612925950673","","","null","","","<p><img src= images/blank.png width =""200"" height = ""200"" style = ""float:right""></p><p><img src=images/blank.png width =""800"" height = ""200""></p>","","","","","","","","","","","",""
"","149.56500008702278","sequential-stimulus-presentation","89","212453","0.0-20.0-1.4","SS1612925950673","trial","","40","800","949.5650000870228","","","","","4","simple_dissimilar","images/stimuli/spore_stims/simple_01_B_d.gif","left","","","","",""
"","null","html-keyboard-response","90","213708","0.0-20.0-0.5","SS1612925950673","","","null","","","<p><img src= images/blank.png width =""200"" height = ""200"" style = ""float:right""></p><p><img src=images/blank.png width =""800"" height = ""200""></p>","","","","","","","","","","","",""
"","46.03500012308359","sequential-stimulus-presentation","91","214557","0.0-20.0-1.5","SS1612925950673","trial","","40","800","846.0350001230836","","","","","4","simple_dissimilar","images/stimuli/spore_stims/simple_01_B_d.gif","left","","","","",""
"","null","html-keyboard-response","92","215545","0.0-20.0-0.6","SS1612925950673","","","null","","","<p><img src= images/blank.png width =""200"" height = ""200"" style = ""float:right""></p><p><img src=images/blank.png width =""800"" height = ""200""></p>","","","","","","","","","","","",""
"","182.85500025376678","sequential-stimulus-presentation","93","216538","0.0-20.0-1.6","SS1612925950673","trial","","40","800","982.8550002537668","","","","","4","simple_dissimilar","images/stimuli/spore_stims/simple_01_B_d.gif","left","","","","",""
"","null","html-keyboard-response","94","217561","0.0-20.0-0.7","SS1612925950673","","","null","","","<p><img src= images/blank.png width =""200"" height = ""200"" style = ""float:right""></p><p><img src=images/blank.png width =""800"" height = ""200""></p>","","","","","","","","","","","",""
"","497.9400001466274","sequential-stimulus-presentation","95","218866","0.0-20.0-1.7","SS1612925950673","trial","","40","800","1297.9400001466274","","","","","4","simple_dissimilar","images/stimuli/spore_stims/simple_02_B_c.gif","middle","","","","",""
"","1628.764999564737","html-keyboard-response","96","220498","0.0-21.0","SS1612925950673","pref_question","","51","","","<video width ='960' height = '540' style='padding-top:8%' autoplay muted><source src='images/stimuli/wall_pref.mp4' type='video/mp4'></video>","3","right","66%","4","","","","","","","",""
"","363.0599998869002","sequential-stimulus-presentation","97","221667","0.0-22.0","SS1612925950673","pref_reveal","","40","800","1163.0599998869002","","","","","4","","","","novel","","","",""
"","null","html-keyboard-response","98","222775","0.0-23.0-0.0","SS1612925950673","","","null","","","<p><img src= images/blank.png width =""200"" height = ""200"" style = ""float:right""></p><p><img src=images/blank.png width =""800"" height = ""200""></p>","","","","","","","","","","","",""
"","372.254999820143","sequential-stimulus-presentation","99","223957","0.0-23.0-1.0","SS1612925950673","trial","","40","800","1172.254999820143","","","","","5","complex_dissimilar","images/stimuli/spore_stims/complex_19_A_d.gif","middle","","","","",""
"","null","html-keyboard-response","100","224919","0.0-23.0-0.1","SS1612925950673","","","null","","","<p><img src= images/blank.png width =""200"" height = ""200"" style = ""float:right""></p><p><img src=images/blank.png width =""800"" height = ""200""></p>","","","","","","","","","","","",""
"","139.27000015974045","sequential-stimulus-presentation","101","225864","0.0-23.0-1.1","SS1612925950673","trial","","40","800","939.2700001597404","","","","","5","complex_dissimilar","images/stimuli/spore_stims/complex_19_A_d.gif","middle","","","","",""
"","null","html-keyboard-response","102","226718","0.0-23.0-0.2","SS1612925950673","","","null","","","<p><img src= images/blank.png width =""200"" height = ""200"" style = ""float:right""></p><p><img src=images/blank.png width =""800"" height = ""200""></p>","","","","","","","","","","","",""
"","1031.700000166893","sequential-stimulus-presentation","103","228552","0.0-23.0-1.2","SS1612925950673","trial","","40","800","1831.700000166893","","","","","5","complex_dissimilar","images/stimuli/spore_stims/complex_19_A_d.gif","middle","","","","",""
"","null","html-keyboard-response","104","229536","0.0-23.0-0.3","SS1612925950673","","","null","","","<p><img src= images/blank.png width =""200"" height = ""200"" style = ""float:right""></p><p><img src=images/blank.png width =""800"" height = ""200""></p>","","","","","","","","","","","",""
"","57.080000173300505","sequential-stimulus-presentation","105","230397","0.0-23.0-1.3","SS1612925950673","trial","","40","800","857.0800001733005","","","","","5","complex_dissimilar","images/stimuli/spore_stims/complex_19_A_d.gif","middle","","","","",""
"","null","html-keyboard-response","106","231383","0.0-23.0-0.4","SS1612925950673","","","null","","","<p><img src= images/blank.png width =""200"" height = ""200"" style = ""float:right""></p><p><img src=images/blank.png width =""800"" height = ""200""></p>","","","","","","","","","","","",""
"","88.75999972224236","sequential-stimulus-presentation","107","232277","0.0-23.0-1.4","SS1612925950673","trial","","40","800","888.7599997222424","","","","","5","complex_dissimilar","images/stimuli/spore_stims/complex_19_A_d.gif","middle","","","","",""
"","null","html-keyboard-response","108","233417","0.0-23.0-0.5","SS1612925950673","","","null","","","<p><img src= images/blank.png width =""200"" height = ""200"" style = ""float:right""></p><p><img src=images/blank.png width =""800"" height = ""200""></p>","","","","","","","","","","","",""
"","401.56499994918704","sequential-stimulus-presentation","109","234628","0.0-23.0-1.5","SS1612925950673","trial","","40","800","1201.564999949187","","","","","5","complex_dissimilar","images/stimuli/spore_stims/complex_19_A_d.gif","middle","","","","",""
"","null","html-keyboard-response","110","235799","0.0-23.0-0.6","SS1612925950673","","","null","","","<p><img src= images/blank.png width =""200"" height = ""200"" style = ""float:right""></p><p><img src=images/blank.png width =""800"" height = ""200""></p>","","","","","","","","","","","",""
"","38.86500000953674","sequential-stimulus-presentation","111","236645","0.0-23.0-1.6","SS1612925950673","trial","","40","800","838.8650000095367","","","","","5","complex_dissimilar","images/stimuli/spore_stims/complex_19_A_d.gif","middle","","","","",""
"","null","html-keyboard-response","112","237631","0.0-23.0-0.7","SS1612925950673","","","null","","","<p><img src= images/blank.png width =""200"" height = ""200"" style = ""float:right""></p><p><img src=images/blank.png width =""800"" height = ""200""></p>","","","","","","","","","","","",""
"","659.7849996760488","sequential-stimulus-presentation","113","239094","0.0-23.0-1.7","SS1612925950673","trial","","40","800","1459.7849996760488","","","","","5","complex_dissimilar","images/stimuli/spore_stims/complex_13_B_b.gif","right","","","","",""
"","1662.7199999056756","html-keyboard-response","114","240759","0.0-24.0","SS1612925950673","pref_question","","49","","","<video width ='960' height = '540' style='padding-top:8%' autoplay muted><source src='images/stimuli/wall_pref.mp4' type='video/mp4'></video>","1","left","25%","5","","","","","","","",""
"","603.3399999141693","sequential-stimulus-presentation","115","242165","0.0-25.0","SS1612925950673","pref_reveal","","40","800","1403.3399999141693","","","","","5","","","","novel","","","",""
"","null","html-keyboard-response","116","243117","0.0-26.0-0.0","SS1612925950673","","","null","","","<p><img src= images/blank.png width =""200"" height = ""200"" style = ""float:right""></p><p><img src=images/blank.png width =""800"" height = ""200""></p>","","","","","","","","","","","",""
"","391.1850000731647","sequential-stimulus-presentation","117","244314","0.0-26.0-1.0","SS1612925950673","trial","","40","800","1191.1850000731647","","","","","6","complex_similar","images/stimuli/spore_stims/complex_18_B_a.gif","right","","","","",""
"","null","html-keyboard-response","118","245399","0.0-26.0-0.1","SS1612925950673","","","null","","","<p><img src= images/blank.png width =""200"" height = ""200"" style = ""float:right""></p><p><img src=images/blank.png width =""800"" height = ""200""></p>","","","","","","","","","","","",""
"","64.56000031903386","sequential-stimulus-presentation","119","246271","0.0-26.0-1.1","SS1612925950673","trial","","40","800","864.5600003190339","","","","","6","complex_similar","images/stimuli/spore_stims/complex_18_B_a.gif","right","","","","",""
"","null","html-keyboard-response","120","247510","0.0-26.0-0.2","SS1612925950673","","","null","","","<p><img src= images/blank.png width =""200"" height = ""200"" style = ""float:right""></p><p><img src=images/blank.png width =""800"" height = ""200""></p>","","","","","","","","","","","",""
"","377.97999987378716","sequential-stimulus-presentation","121","248691","0.0-26.0-1.2","SS1612925950673","trial","","40","800","1177.9799998737872","","","","","6","complex_similar","images/stimuli/spore_stims/complex_18_B_a.gif","right","","","","",""
"","null","html-keyboard-response","122","249926","0.0-26.0-0.3","SS1612925950673","","","null","","","<p><img src= images/blank.png width =""200"" height = ""200"" style = ""float:right""></p><p><img src=images/blank.png width =""800"" height = ""200""></p>","","","","","","","","","","","",""
"","355.8449996635318","sequential-stimulus-presentation","123","251087","0.0-26.0-1.3","SS1612925950673","trial","","40","800","1155.8449996635318","","","","","6","complex_similar","images/stimuli/spore_stims/complex_18_B_a.gif","right","","","","",""
"","null","html-keyboard-response","124","252386","0.0-26.0-0.4","SS1612925950673","","","null","","","<p><img src= images/blank.png width =""200"" height = ""200"" style = ""float:right""></p><p><img src=images/blank.png width =""800"" height = ""200""></p>","","","","","","","","","","","",""
"","289.7399999201298","sequential-stimulus-presentation","125","253483","0.0-26.0-1.4","SS1612925950673","trial","","40","800","1089.7399999201298","","","","","6","complex_similar","images/stimuli/spore_stims/complex_18_B_a.gif","right","","","","",""
"","null","html-keyboard-response","126","254731","0.0-26.0-0.5","SS1612925950673","","","null","","","<p><img src= images/blank.png width =""200"" height = ""200"" style = ""float:right""></p><p><img src=images/blank.png width =""800"" height = ""200""></p>","","","","","","","","","","","",""
"","723.1000000610948","sequential-stimulus-presentation","127","256262","0.0-26.0-1.5","SS1612925950673","trial","","40","800","1523.1000000610948","","","","","6","complex_similar","images/stimuli/spore_stims/complex_18_A_a.gif","middle","","","","",""
"","null","html-keyboard-response","128","257128","0.0-26.0-0.6","SS1612925950673","","","null","","","<p><img src= images/blank.png width =""200"" height = ""200"" style = ""float:right""></p><p><img src=images/blank.png width =""800"" height = ""200""></p>","","","","","","","","","","","",""
"","206.29000011831522","sequential-stimulus-presentation","129","258140","0.0-26.0-1.6","SS1612925950673","trial","","40","800","1006.2900001183152","","","","","6","complex_similar","images/stimuli/spore_stims/complex_18_B_a.gif","right","","","","",""
"","null","html-keyboard-response","130","259310","0.0-26.0-0.7","SS1612925950673","","","null","","","<p><img src= images/blank.png width =""200"" height = ""200"" style = ""float:right""></p><p><img src=images/blank.png width =""800"" height = ""200""></p>","","","","","","","","","","","",""
"","236.98000004515052","sequential-stimulus-presentation","131","260357","0.0-26.0-1.7","SS1612925950673","trial","","40","800","1036.9800000451505","","","","","6","complex_similar","images/stimuli/spore_stims/complex_18_B_a.gif","right","","","","",""
"","1347.7100003510714","html-keyboard-response","132","261707","0.0-27.0","SS1612925950673","pref_question","","49","","","<video width ='960' height = '540' style='padding-top:8%' autoplay muted><source src='images/stimuli/wall_pref.mp4' type='video/mp4'></video>","1","left","25%","6","","","","","","","",""
"","1894.3199999630451","sequential-stimulus-presentation","133","264407","0.0-28.0","SS1612925950673","pref_reveal","","40","800","2694.319999963045","","","","","6","","","","novel","","","",""
"","null","html-keyboard-response","134","265505","0.0-29.0-0.0","SS1612925950673","","","null","","","<p><img src= images/blank.png width =""200"" height = ""200"" style = ""float:right""></p><p><img src=images/blank.png width =""800"" height = ""200""></p>","","","","","","","","","","","",""
"","4371.644999831915","sequential-stimulus-presentation","135","270685","0.0-29.0-1.0","SS1612925950673","trial","","40","800","5171.644999831915","","","","","7","complex_dissimilar","images/stimuli/spore_stims/complex_14_A_a.gif","right","","","","",""
"","null","html-keyboard-response","136","271818","0.0-29.0-0.1","SS1612925950673","","","null","","","<p><img src= images/blank.png width =""200"" height = ""200"" style = ""float:right""></p><p><img src=images/blank.png width =""800"" height = ""200""></p>","","","","","","","","","","","",""
"","527.3049999959767","sequential-stimulus-presentation","137","273149","0.0-29.0-1.1","SS1612925950673","trial","","40","800","1327.3049999959767","","","","","7","complex_dissimilar","images/stimuli/spore_stims/complex_14_A_a.gif","right","","","","",""
"","null","html-keyboard-response","138","274175","0.0-29.0-0.2","SS1612925950673","","","null","","","<p><img src= images/blank.png width =""200"" height = ""200"" style = ""float:right""></p><p><img src=images/blank.png width =""800"" height = ""200""></p>","","","","","","","","","","","",""
"","281.1099998652935","sequential-stimulus-presentation","139","275263","0.0-29.0-1.2","SS1612925950673","trial","","40","800","1081.1099998652935","","","","","7","complex_dissimilar","images/stimuli/spore_stims/complex_14_A_a.gif","right","","","","",""
"","null","html-keyboard-response","140","276116","0.0-29.0-0.3","SS1612925950673","","","null","","","<p><img src= images/blank.png width =""200"" height = ""200"" style = ""float:right""></p><p><img src=images/blank.png width =""800"" height = ""200""></p>","","","","","","","","","","","",""
"","266.414999961853","sequential-stimulus-presentation","141","277187","0.0-29.0-1.3","SS1612925950673","trial","","40","800","1066.414999961853","","","","","7","complex_dissimilar","images/stimuli/spore_stims/complex_14_A_a.gif","right","","","","",""
"","null","html-keyboard-response","142","278304","0.0-29.0-0.4","SS1612925950673","","","null","","","<p><img src= images/blank.png width =""200"" height = ""200"" style = ""float:right""></p><p><img src=images/blank.png width =""800"" height = ""200""></p>","","","","","","","","","","","",""
"","272.7549998089671","sequential-stimulus-presentation","143","279381","0.0-29.0-1.4","SS1612925950673","trial","","40","800","1072.754999808967","","","","","7","complex_dissimilar","images/stimuli/spore_stims/complex_14_A_a.gif","right","","","","",""
"","null","html-keyboard-response","144","280575","0.0-29.0-0.5","SS1612925950673","","","null","","","<p><img src= images/blank.png width =""200"" height = ""200"" style = ""float:right""></p><p><img src=images/blank.png width =""800"" height = ""200""></p>","","","","","","","","","","","",""
"","203.24999978765845","sequential-stimulus-presentation","145","281586","0.0-29.0-1.5","SS1612925950673","trial","","40","800","1003.2499997876585","","","","","7","complex_dissimilar","images/stimuli/spore_stims/complex_01_B_a.gif","middle","","","","",""
"","null","html-keyboard-response","146","282809","0.0-29.0-0.6","SS1612925950673","","","null","","","<p><img src= images/blank.png width =""200"" height = ""200"" style = ""float:right""></p><p><img src=images/blank.png width =""800"" height = ""200""></p>","","","","","","","","","","","",""
"","6.009999662637711","sequential-stimulus-presentation","147","283622","0.0-29.0-1.6","SS1612925950673","trial","","40","800","806.0099996626377","","","","","7","complex_dissimilar","images/stimuli/spore_stims/complex_14_A_a.gif","right","","","","",""
"","null","html-keyboard-response","148","284507","0.0-29.0-0.7","SS1612925950673","","","null","","","<p><img src= images/blank.png width =""200"" height = ""200"" style = ""float:right""></p><p><img src=images/blank.png width =""800"" height = ""200""></p>","","","","","","","","","","","",""
"","257.1299998089671","sequential-stimulus-presentation","149","285572","0.0-29.0-1.7","SS1612925950673","trial","","40","800","1057.129999808967","","","","","7","complex_dissimilar","images/stimuli/spore_stims/complex_14_A_a.gif","right","","","","",""
"","1344.1400001756847","html-keyboard-response","150","286919","0.0-30.0","SS1612925950673","pref_question","","49","","","<video width ='960' height = '540' style='padding-top:8%' autoplay muted><source src='images/stimuli/wall_pref.mp4' type='video/mp4'></video>","1","left","25%","7","","","","","","","",""
"","14.159999787807465","sequential-stimulus-presentation","151","287740","0.0-31.0","SS1612925950673","pref_reveal","","40","800","814.1599997878075","","","","","7","","","","novel","","","",""
"","null","html-keyboard-response","152","288903","0.0-32.0-0.0","SS1612925950673","","","null","","","<p><img src= images/blank.png width =""200"" height = ""200"" style = ""float:right""></p><p><img src=images/blank.png width =""800"" height = ""200""></p>","","","","","","","","","","","",""
"","280.7399998418987","sequential-stimulus-presentation","153","289990","0.0-32.0-1.0","SS1612925950673","trial","","40","800","1080.7399998418987","","","","","8","simple_similar","images/stimuli/spore_stims/simple_15_B_b.gif","right","","","","",""
"","null","html-keyboard-response","154","291043","0.0-32.0-0.1","SS1612925950673","","","null","","","<p><img src= images/blank.png width =""200"" height = ""200"" style = ""float:right""></p><p><img src=images/blank.png width =""800"" height = ""200""></p>","","","","","","","","","","","",""
"","201.9250001758337","sequential-stimulus-presentation","155","292049","0.0-32.0-1.1","SS1612925950673","trial","","40","800","1001.9250001758337","","","","","8","simple_similar","images/stimuli/spore_stims/simple_15_B_b.gif","right","","","","",""
"","null","html-keyboard-response","156","293300","0.0-32.0-0.2","SS1612925950673","","","null","","","<p><img src= images/blank.png width =""200"" height = ""200"" style = ""float:right""></p><p><img src=images/blank.png width =""800"" height = ""200""></p>","","","","","","","","","","","",""
"","38.18000014871359","sequential-stimulus-presentation","157","294142","0.0-32.0-1.2","SS1612925950673","trial","","40","800","838.1800001487136","","","","","8","simple_similar","images/stimuli/spore_stims/simple_15_B_b.gif","right","","","","",""
"","null","html-keyboard-response","158","295243","0.0-32.0-0.3","SS1612925950673","","","null","","","<p><img src= images/blank.png width =""200"" height = ""200"" style = ""float:right""></p><p><img src=images/blank.png width =""800"" height = ""200""></p>","","","","","","","","","","","",""
"","174.34999998658895","sequential-stimulus-presentation","159","296222","0.0-32.0-1.3","SS1612925950673","trial","","40","800","974.349999986589","","","","","8","simple_similar","images/stimuli/spore_stims/simple_15_A_b.gif","left","","","","",""
"","null","html-keyboard-response","160","297410","0.0-32.0-0.4","SS1612925950673","","","null","","","<p><img src= images/blank.png width =""200"" height = ""200"" style = ""float:right""></p><p><img src=images/blank.png width =""800"" height = ""200""></p>","","","","","","","","","","","",""
"","830.420000012964","sequential-stimulus-presentation","161","299047","0.0-32.0-1.4","SS1612925950673","trial","","40","800","1630.420000012964","","","","","8","simple_similar","images/stimuli/spore_stims/simple_15_B_b.gif","right","","","","",""
"","null","html-keyboard-response","162","300345","0.0-32.0-0.5","SS1612925950673","","","null","","","<p><img src= images/blank.png width =""200"" height = ""200"" style = ""float:right""></p><p><img src=images/blank.png width =""800"" height = ""200""></p>","","","","","","","","","","","",""
"","345.42000014334917","sequential-stimulus-presentation","163","301499","0.0-32.0-1.5","SS1612925950673","trial","","40","800","1145.4200001433492","","","","","8","simple_similar","images/stimuli/spore_stims/simple_15_B_b.gif","right","","","","",""
"","null","html-keyboard-response","164","302704","0.0-32.0-0.6","SS1612925950673","","","null","","","<p><img src= images/blank.png width =""200"" height = ""200"" style = ""float:right""></p><p><img src=images/blank.png width =""800"" height = ""200""></p>","","","","","","","","","","","",""
"","94.24000000581145","sequential-stimulus-presentation","165","303603","0.0-32.0-1.6","SS1612925950673","trial","","40","800","894.2400000058115","","","","","8","simple_similar","images/stimuli/spore_stims/simple_15_B_b.gif","right","","","","",""
"","null","html-keyboard-response","166","304849","0.0-32.0-0.7","SS1612925950673","","","null","","","<p><img src= images/blank.png width =""200"" height = ""200"" style = ""float:right""></p><p><img src=images/blank.png width =""800"" height = ""200""></p>","","","","","","","","","","","",""
"","16.940000001341105","sequential-stimulus-presentation","167","305673","0.0-32.0-1.7","SS1612925950673","trial","","40","800","816.9400000013411","","","","","8","simple_similar","images/stimuli/spore_stims/simple_15_B_b.gif","right","","","","",""
"","1841.879999730736","html-keyboard-response","168","307518","0.0-33.0","SS1612925950673","pref_question","","50","","","<video width ='960' height = '540' style='padding-top:8%' autoplay muted><source src='images/stimuli/wall_pref.mp4' type='video/mp4'></video>","2","middle","45%","8","","","","","","","",""
"","489.62000012397766","sequential-stimulus-presentation","169","308811","0.0-34.0","SS1612925950673","pref_reveal","","40","800","1289.6200001239777","","","","","8","","","","novel","","","",""
"","null","html-keyboard-response","170","309937","0.0-35.0-0.0","SS1612925950673","","","null","","","<p><img src= images/blank.png width =""200"" height = ""200"" style = ""float:right""></p><p><img src=images/blank.png width =""800"" height = ""200""></p>","","","","","","","","","","","",""
"","1834.3350002542138","sequential-stimulus-presentation","171","312581","0.0-35.0-1.0","SS1612925950673","trial","","40","800","2634.335000254214","","","","","9","complex_dissimilar","images/stimuli/spore_stims/complex_11_B_d.gif","right","","","","",""
"","null","html-keyboard-response","172","313476","0.0-35.0-0.1","SS1612925950673","","","null","","","<p><img src= images/blank.png width =""200"" height = ""200"" style = ""float:right""></p><p><img src=images/blank.png width =""800"" height = ""200""></p>","","","","","","","","","","","",""
"","281.46500000730157","sequential-stimulus-presentation","173","314561","0.0-35.0-1.1","SS1612925950673","trial","","40","800","1081.4650000073016","","","","","9","complex_dissimilar","images/stimuli/spore_stims/complex_11_B_d.gif","right","","","","",""
"","null","html-keyboard-response","174","315723","0.0-35.0-0.2","SS1612925950673","","","null","","","<p><img src= images/blank.png width =""200"" height = ""200"" style = ""float:right""></p><p><img src=images/blank.png width =""800"" height = ""200""></p>","","","","","","","","","","","",""
"","1173.4099998138845","sequential-stimulus-presentation","175","317699","0.0-35.0-1.2","SS1612925950673","trial","","40","800","1973.4099998138845","","","","","9","complex_dissimilar","images/stimuli/spore_stims/complex_11_B_d.gif","right","","","","",""
"","null","html-keyboard-response","176","318999","0.0-35.0-0.3","SS1612925950673","","","null","","","<p><img src= images/blank.png width =""200"" height = ""200"" style = ""float:right""></p><p><img src=images/blank.png width =""800"" height = ""200""></p>","","","","","","","","","","","",""
"","1002.5800000876188","sequential-stimulus-presentation","177","320805","0.0-35.0-1.3","SS1612925950673","trial","","40","800","1802.5800000876188","","","","","9","complex_dissimilar","images/stimuli/spore_stims/complex_11_B_d.gif","right","","","","",""
"","null","html-keyboard-response","178","321993","0.0-35.0-0.4","SS1612925950673","","","null","","","<p><img src= images/blank.png width =""200"" height = ""200"" style = ""float:right""></p><p><img src=images/blank.png width =""800"" height = ""200""></p>","","","","","","","","","","","",""
"","797.6949997246265","sequential-stimulus-presentation","179","323595","0.0-35.0-1.4","SS1612925950673","trial","","40","800","1597.6949997246265","","","","","9","complex_dissimilar","images/stimuli/spore_stims/complex_11_B_d.gif","right","","","","",""
"","null","html-keyboard-response","180","324581","0.0-35.0-0.5","SS1612925950673","","","null","","","<p><img src= images/blank.png width =""200"" height = ""200"" style = ""float:right""></p><p><img src=images/blank.png width =""800"" height = ""200""></p>","","","","","","","","","","","",""
"","117.93499998748302","sequential-stimulus-presentation","181","325507","0.0-35.0-1.5","SS1612925950673","trial","","40","800","917.934999987483","","","","","9","complex_dissimilar","images/stimuli/spore_stims/complex_11_B_d.gif","right","","","","",""
"","null","html-keyboard-response","182","326578","0.0-35.0-0.6","SS1612925950673","","","null","","","<p><img src= images/blank.png width =""200"" height = ""200"" style = ""float:right""></p><p><img src=images/blank.png width =""800"" height = ""200""></p>","","","","","","","","","","","",""
"","408.629999961704","sequential-stimulus-presentation","183","327791","0.0-35.0-1.6","SS1612925950673","trial","","40","800","1208.629999961704","","","","","9","complex_dissimilar","images/stimuli/spore_stims/complex_11_B_d.gif","right","","","","",""
"","null","html-keyboard-response","184","328950","0.0-35.0-0.7","SS1612925950673","","","null","","","<p><img src= images/blank.png width =""200"" height = ""200"" style = ""float:right""></p><p><img src=images/blank.png width =""800"" height = ""200""></p>","","","","","","","","","","","",""
"","34.669999964535236","sequential-stimulus-presentation","185","329793","0.0-35.0-1.7","SS1612925950673","trial","","40","800","834.6699999645352","","","","","9","complex_dissimilar","images/stimuli/spore_stims/complex_12_A_a.gif","middle","","","","",""
"","1408.985000103712","html-keyboard-response","186","331211","0.0-36.0","SS1612925950673","pref_question","","49","","","<video width ='960' height = '540' style='padding-top:8%' autoplay muted><source src='images/stimuli/wall_pref.mp4' type='video/mp4'></video>","1","left","25%","9","","","","","","","",""
"","770.0800001621246","sequential-stimulus-presentation","187","332786","0.0-37.0","SS1612925950673","pref_reveal","","40","800","1570.0800001621246","","","","","9","","","","novel","","","",""
"","null","html-keyboard-response","188","334055","0.0-38.0-0.0","SS1612925950673","","","null","","","<p><img src= images/blank.png width =""200"" height = ""200"" style = ""float:right""></p><p><img src=images/blank.png width =""800"" height = ""200""></p>","","","","","","","","","","","",""
"","723.8700003363192","sequential-stimulus-presentation","189","335587","0.0-38.0-1.0","SS1612925950673","trial","","40","800","1523.8700003363192","","","","","10","complex_similar","images/stimuli/spore_stims/complex_17_A_c.gif","left","","","","",""
"","null","html-keyboard-response","190","336460","0.0-38.0-0.1","SS1612925950673","","","null","","","<p><img src= images/blank.png width =""200"" height = ""200"" style = ""float:right""></p><p><img src=images/blank.png width =""800"" height = ""200""></p>","","","","","","","","","","","",""
"","874.984999652952","sequential-stimulus-presentation","191","338141","0.0-38.0-1.1","SS1612925950673","trial","","40","800","1674.984999652952","","","","","10","complex_similar","images/stimuli/spore_stims/complex_17_A_c.gif","left","","","","",""
"","null","html-keyboard-response","192","338984","0.0-38.0-0.2","SS1612925950673","","","null","","","<p><img src= images/blank.png width =""200"" height = ""200"" style = ""float:right""></p><p><img src=images/blank.png width =""800"" height = ""200""></p>","","","","","","","","","","","",""
"","646.8450003303587","sequential-stimulus-presentation","193","340436","0.0-38.0-1.2","SS1612925950673","trial","","40","800","1446.8450003303587","","","","","10","complex_similar","images/stimuli/spore_stims/complex_17_A_c.gif","left","","","","",""
"","null","html-keyboard-response","194","341263","0.0-38.0-0.3","SS1612925950673","","","null","","","<p><img src= images/blank.png width =""200"" height = ""200"" style = ""float:right""></p><p><img src=images/blank.png width =""800"" height = ""200""></p>","","","","","","","","","","","",""
"","416.0000002011657","sequential-stimulus-presentation","195","342483","0.0-38.0-1.3","SS1612925950673","trial","","40","800","1216.0000002011657","","","","","10","complex_similar","images/stimuli/spore_stims/complex_17_A_c.gif","left","","","","",""
"","null","html-keyboard-response","196","343552","0.0-38.0-0.4","SS1612925950673","","","null","","","<p><img src= images/blank.png width =""200"" height = ""200"" style = ""float:right""></p><p><img src=images/blank.png width =""800"" height = ""200""></p>","","","","","","","","","","","",""
"","354.5750002376735","sequential-stimulus-presentation","197","344711","0.0-38.0-1.4","SS1612925950673","trial","","40","800","1154.5750002376735","","","","","10","complex_similar","images/stimuli/spore_stims/complex_17_A_c.gif","left","","","","",""
"","null","html-keyboard-response","198","345695","0.0-38.0-0.5","SS1612925950673","","","null","","","<p><img src= images/blank.png width =""200"" height = ""200"" style = ""float:right""></p><p><img src=images/blank.png width =""800"" height = ""200""></p>","","","","","","","","","","","",""
"","33.59000012278557","sequential-stimulus-presentation","199","346534","0.0-38.0-1.5","SS1612925950673","trial","","40","800","833.5900001227856","","","","","10","complex_similar","images/stimuli/spore_stims/complex_17_B_c.gif","right","","","","",""
"","null","html-keyboard-response","200","347694","0.0-38.0-0.6","SS1612925950673","","","null","","","<p><img src= images/blank.png width =""200"" height = ""200"" style = ""float:right""></p><p><img src=images/blank.png width =""800"" height = ""200""></p>","","","","","","","","","","","",""
"","407.474999781698","sequential-stimulus-presentation","201","348908","0.0-38.0-1.6","SS1612925950673","trial","","40","800","1207.474999781698","","","","","10","complex_similar","images/stimuli/spore_stims/complex_17_A_c.gif","left","","","","",""
"","null","html-keyboard-response","202","349722","0.0-38.0-0.7","SS1612925950673","","","null","","","<p><img src= images/blank.png width =""200"" height = ""200"" style = ""float:right""></p><p><img src=images/blank.png width =""800"" height = ""200""></p>","","","","","","","","","","","",""
"","339.37499998137355","sequential-stimulus-presentation","203","350865","0.0-38.0-1.7","SS1612925950673","trial","","40","800","1139.3749999813735","","","","","10","complex_similar","images/stimuli/spore_stims/complex_17_A_c.gif","left","","","","",""
"","1246.4899998158216","html-keyboard-response","204","352114","0.0-39.0","SS1612925950673","pref_question","","50","","","<video width ='960' height = '540' style='padding-top:8%' autoplay muted><source src='images/stimuli/wall_pref.mp4' type='video/mp4'></video>","2","middle","45%","10","","","","","","","",""
"","903.180000372231","sequential-stimulus-presentation","205","353824","0.0-40.0","SS1612925950673","pref_reveal","","40","800","1703.180000372231","","","","","10","","","","novel","","","",""
"","null","html-keyboard-response","206","355078","0.0-41.0-0.0","SS1612925950673","","","null","","","<p><img src= images/blank.png width =""200"" height = ""200"" style = ""float:right""></p><p><img src=images/blank.png width =""800"" height = ""200""></p>","","","","","","","","","","","",""
"","98.56999991461635","sequential-stimulus-presentation","207","355984","0.0-41.0-1.0","SS1612925950673","trial","","40","800","898.5699999146163","","","","","11","simple_dissimilar","images/stimuli/spore_stims/simple_17_A_b.gif","left","","","","",""
"","null","html-keyboard-response","208","356926","0.0-41.0-0.1","SS1612925950673","","","null","","","<p><img src= images/blank.png width =""200"" height = ""200"" style = ""float:right""></p><p><img src=images/blank.png width =""800"" height = ""200""></p>","","","","","","","","","","","",""
"","154.00499990209937","sequential-stimulus-presentation","209","357885","0.0-41.0-1.1","SS1612925950673","trial","","40","800","954.0049999020994","","","","","11","simple_dissimilar","images/stimuli/spore_stims/simple_17_A_b.gif","left","","","","",""
"","null","html-keyboard-response","210","358736","0.0-41.0-0.2","SS1612925950673","","","null","","","<p><img src= images/blank.png width =""200"" height = ""200"" style = ""float:right""></p><p><img src=images/blank.png width =""800"" height = ""200""></p>","","","","","","","","","","","",""
"","224.46499997749925","sequential-stimulus-presentation","211","359764","0.0-41.0-1.2","SS1612925950673","trial","","40","800","1024.4649999774992","","","","","11","simple_dissimilar","images/stimuli/spore_stims/simple_10_B_d.gif","right","","","","",""
"","null","html-keyboard-response","212","360634","0.0-41.0-0.3","SS1612925950673","","","null","","","<p><img src= images/blank.png width =""200"" height = ""200"" style = ""float:right""></p><p><img src=images/blank.png width =""800"" height = ""200""></p>","","","","","","","","","","","",""
"","147.4449997767806","sequential-stimulus-presentation","213","361586","0.0-41.0-1.3","SS1612925950673","trial","","40","800","947.4449997767806","","","","","11","simple_dissimilar","images/stimuli/spore_stims/simple_17_A_b.gif","left","","","","",""
"","null","html-keyboard-response","214","362770","0.0-41.0-0.4","SS1612925950673","","","null","","","<p><img src= images/blank.png width =""200"" height = ""200"" style = ""float:right""></p><p><img src=images/blank.png width =""800"" height = ""200""></p>","","","","","","","","","","","",""
"","46.19499994441867","sequential-stimulus-presentation","215","363623","0.0-41.0-1.4","SS1612925950673","trial","","40","800","846.1949999444187","","","","","11","simple_dissimilar","images/stimuli/spore_stims/simple_17_A_b.gif","left","","","","",""
"","null","html-keyboard-response","216","364653","0.0-41.0-0.5","SS1612925950673","","","null","","","<p><img src= images/blank.png width =""200"" height = ""200"" style = ""float:right""></p><p><img src=images/blank.png width =""800"" height = ""200""></p>","","","","","","","","","","","",""
"","112.1149999089539","sequential-stimulus-presentation","217","365569","0.0-41.0-1.5","SS1612925950673","trial","","40","800","912.1149999089539","","","","","11","simple_dissimilar","images/stimuli/spore_stims/simple_17_A_b.gif","left","","","","",""
"","null","html-keyboard-response","218","366561","0.0-41.0-0.6","SS1612925950673","","","null","","","<p><img src= images/blank.png width =""200"" height = ""200"" style = ""float:right""></p><p><img src=images/blank.png width =""800"" height = ""200""></p>","","","","","","","","","","","",""
"","100.42499983683228","sequential-stimulus-presentation","219","367470","0.0-41.0-1.6","SS1612925950673","trial","","40","800","900.4249998368323","","","","","11","simple_dissimilar","images/stimuli/spore_stims/simple_17_A_b.gif","left","","","","",""
"","null","html-keyboard-response","220","368343","0.0-41.0-0.7","SS1612925950673","","","null","","","<p><img src= images/blank.png width =""200"" height = ""200"" style = ""float:right""></p><p><img src=images/blank.png width =""800"" height = ""200""></p>","","","","","","","","","","","",""
"","157.04500023275614","sequential-stimulus-presentation","221","369304","0.0-41.0-1.7","SS1612925950673","trial","","40","800","957.0450002327561","","","","","11","simple_dissimilar","images/stimuli/spore_stims/simple_17_A_b.gif","left","","","","",""
"","1178.5599999129772","html-keyboard-response","222","370485","0.0-42.0","SS1612925950673","pref_question","","50","","","<video width ='960' height = '540' style='padding-top:8%' autoplay muted><source src='images/stimuli/wall_pref.mp4' type='video/mp4'></video>","2","middle","45%","11","","","","","","","",""
"","613.0349999293685","sequential-stimulus-presentation","223","371903","0.0-43.0","SS1612925950673","pref_reveal","","40","800","1413.0349999293685","","","","","11","","","","novel","","","",""
"","null","html-keyboard-response","224","372746","0.0-44.0-0.0","SS1612925950673","","","null","","","<p><img src= images/blank.png width =""200"" height = ""200"" style = ""float:right""></p><p><img src=images/blank.png width =""800"" height = ""200""></p>","","","","","","","","","","","",""
"","146.44999988377094","sequential-stimulus-presentation","225","373703","0.0-44.0-1.0","SS1612925950673","trial","","40","800","946.4499998837709","","","","","12","simple_dissimilar","images/stimuli/spore_stims/simple_16_A_b.gif","left","","","","",""
"","null","html-keyboard-response","226","374550","0.0-44.0-0.1","SS1612925950673","","","null","","","<p><img src= images/blank.png width =""200"" height = ""200"" style = ""float:right""></p><p><img src=images/blank.png width =""800"" height = ""200""></p>","","","","","","","","","","","",""
"","202.4499997496605","sequential-stimulus-presentation","227","375559","0.0-44.0-1.1","SS1612925950673","trial","","40","800","1002.4499997496605","","","","","12","simple_dissimilar","images/stimuli/spore_stims/simple_16_A_b.gif","left","","","","",""
"","null","html-keyboard-response","228","376806","0.0-44.0-0.2","SS1612925950673","","","null","","","<p><img src= images/blank.png width =""200"" height = ""200"" style = ""float:right""></p><p><img src=images/blank.png width =""800"" height = ""200""></p>","","","","","","","","","","","",""
"","255.55000035092235","sequential-stimulus-presentation","229","377865","0.0-44.0-1.2","SS1612925950673","trial","","40","800","1055.5500003509223","","","","","12","simple_dissimilar","images/stimuli/spore_stims/simple_16_A_b.gif","left","","","","",""
"","null","html-keyboard-response","230","379031","0.0-44.0-0.3","SS1612925950673","","","null","","","<p><img src= images/blank.png width =""200"" height = ""200"" style = ""float:right""></p><p><img src=images/blank.png width =""800"" height = ""200""></p>","","","","","","","","","","","",""
"","334.4649998471141","sequential-stimulus-presentation","231","380172","0.0-44.0-1.3","SS1612925950673","trial","","40","800","1134.464999847114","","","","","12","simple_dissimilar","images/stimuli/spore_stims/simple_16_A_b.gif","left","","","","",""
"","null","html-keyboard-response","232","381298","0.0-44.0-0.4","SS1612925950673","","","null","","","<p><img src= images/blank.png width =""200"" height = ""200"" style = ""float:right""></p><p><img src=images/blank.png width =""800"" height = ""200""></p>","","","","","","","","","","","",""
"","179.55499980598688","sequential-stimulus-presentation","233","382286","0.0-44.0-1.4","SS1612925950673","trial","","40","800","979.5549998059869","","","","","12","simple_dissimilar","images/stimuli/spore_stims/simple_16_A_b.gif","left","","","","",""
"","null","html-keyboard-response","234","383439","0.0-44.0-0.5","SS1612925950673","","","null","","","<p><img src= images/blank.png width =""200"" height = ""200"" style = ""float:right""></p><p><img src=images/blank.png width =""800"" height = ""200""></p>","","","","","","","","","","","",""
"","674.5400000363588","sequential-stimulus-presentation","235","384919","0.0-44.0-1.5","SS1612925950673","trial","","40","800","1474.5400000363588","","","","","12","simple_dissimilar","images/stimuli/spore_stims/simple_18_A_d.gif","middle","","","","",""
"","null","html-keyboard-response","236","386182","0.0-44.0-0.6","SS1612925950673","","","null","","","<p><img src= images/blank.png width =""200"" height = ""200"" style = ""float:right""></p><p><img src=images/blank.png width =""800"" height = ""200""></p>","","","","","","","","","","","",""
"","145.81500040367246","sequential-stimulus-presentation","237","387135","0.0-44.0-1.6","SS1612925950673","trial","","40","800","945.8150004036725","","","","","12","simple_dissimilar","images/stimuli/spore_stims/simple_16_A_b.gif","left","","","","",""
"","null","html-keyboard-response","238","387988","0.0-44.0-0.7","SS1612925950673","","","null","","","<p><img src= images/blank.png width =""200"" height = ""200"" style = ""float:right""></p><p><img src=images/blank.png width =""800"" height = ""200""></p>","","","","","","","","","","","",""
"","211.19499998167157","sequential-stimulus-presentation","239","389003","0.0-44.0-1.7","SS1612925950673","trial","","40","800","1011.1949999816716","","","","","12","simple_dissimilar","images/stimuli/spore_stims/simple_16_A_b.gif","left","","","","",""
"","1605.5650003254414","html-keyboard-response","240","390612","0.0-45.0","SS1612925950673","pref_question","","51","","","<video width ='960' height = '540' style='padding-top:8%' autoplay muted><source src='images/stimuli/wall_pref.mp4' type='video/mp4'></video>","3","right","66%","12","","","","","","","",""
"","644.494999665767","sequential-stimulus-presentation","241","392063","0.0-46.0","SS1612925950673","pref_reveal","","40","800","1444.494999665767","","","","","12","","","","novel","","","",""
"","null","html-keyboard-response","242","393210","0.0-47.0-0.0","SS1612925950673","","","null","","","<p><img src= images/blank.png width =""200"" height = ""200"" style = ""float:right""></p><p><img src=images/blank.png width =""800"" height = ""200""></p>","","","","","","","","","","","",""
"","389.0100000426173","sequential-stimulus-presentation","243","394403","0.0-47.0-1.0","SS1612925950673","trial","","40","800","1189.0100000426173","","","","","13","complex_dissimilar","images/stimuli/spore_stims/complex_20_A_c.gif","right","","","","",""
"","null","html-keyboard-response","244","395526","0.0-47.0-0.1","SS1612925950673","","","null","","","<p><img src= images/blank.png width =""200"" height = ""200"" style = ""float:right""></p><p><img src=images/blank.png width =""800"" height = ""200""></p>","","","","","","","","","","","",""
"","93.2200001552701","sequential-stimulus-presentation","245","396428","0.0-47.0-1.1","SS1612925950673","trial","","40","800","893.2200001552701","","","","","13","complex_dissimilar","images/stimuli/spore_stims/complex_20_A_c.gif","right","","","","",""
"","null","html-keyboard-response","246","397656","0.0-47.0-0.2","SS1612925950673","","","null","","","<p><img src= images/blank.png width =""200"" height = ""200"" style = ""float:right""></p><p><img src=images/blank.png width =""800"" height = ""200""></p>","","","","","","","","","","","",""
"","249.57499979063869","sequential-stimulus-presentation","247","398712","0.0-47.0-1.2","SS1612925950673","trial","","40","800","1049.5749997906387","","","","","13","complex_dissimilar","images/stimuli/spore_stims/complex_20_A_c.gif","right","","","","",""
"","null","html-keyboard-response","248","399591","0.0-47.0-0.3","SS1612925950673","","","null","","","<p><img src= images/blank.png width =""200"" height = ""200"" style = ""float:right""></p><p><img src=images/blank.png width =""800"" height = ""200""></p>","","","","","","","","","","","",""
"","194.84499981626868","sequential-stimulus-presentation","249","400591","0.0-47.0-1.3","SS1612925950673","trial","","40","800","994.8449998162687","","","","","13","complex_dissimilar","images/stimuli/spore_stims/complex_20_A_c.gif","right","","","","",""
"","null","html-keyboard-response","250","401406","0.0-47.0-0.4","SS1612925950673","","","null","","","<p><img src= images/blank.png width =""200"" height = ""200"" style = ""float:right""></p><p><img src=images/blank.png width =""800"" height = ""200""></p>","","","","","","","","","","","",""
"","177.350000012666","sequential-stimulus-presentation","251","402391","0.0-47.0-1.4","SS1612925950673","trial","","40","800","977.350000012666","","","","","13","complex_dissimilar","images/stimuli/spore_stims/complex_20_A_c.gif","right","","","","",""
"","null","html-keyboard-response","252","403262","0.0-47.0-0.5","SS1612925950673","","","null","","","<p><img src= images/blank.png width =""200"" height = ""200"" style = ""float:right""></p><p><img src=images/blank.png width =""800"" height = ""200""></p>","","","","","","","","","","","",""
"","1929.6150002628565","sequential-stimulus-presentation","253","406002","0.0-47.0-1.5","SS1612925950673","trial","","40","800","2729.6150002628565","","","","","13","complex_dissimilar","images/stimuli/spore_stims/complex_11_A_c.gif","middle","","","","",""
"","null","html-keyboard-response","254","406812","0.0-47.0-0.6","SS1612925950673","","","null","","","<p><img src= images/blank.png width =""200"" height = ""200"" style = ""float:right""></p><p><img src=images/blank.png width =""800"" height = ""200""></p>","","","","","","","","","","","",""
"","680.1200001500547","sequential-stimulus-presentation","255","408298","0.0-47.0-1.6","SS1612925950673","trial","","40","800","1480.1200001500547","","","","","13","complex_dissimilar","images/stimuli/spore_stims/complex_20_A_c.gif","right","","","","",""
"","null","html-keyboard-response","256","409108","0.0-47.0-0.7","SS1612925950673","","","null","","","<p><img src= images/blank.png width =""200"" height = ""200"" style = ""float:right""></p><p><img src=images/blank.png width =""800"" height = ""200""></p>","","","","","","","","","","","",""
"","497.5899998098612","sequential-stimulus-presentation","257","410412","0.0-47.0-1.7","SS1612925950673","trial","","40","800","1297.5899998098612","","","","","13","complex_dissimilar","images/stimuli/spore_stims/complex_20_A_c.gif","right","","","","",""
"","1166.0799998790026","html-keyboard-response","258","411582","0.0-48.0","SS1612925950673","pref_question","","50","","","<video width ='960' height = '540' style='padding-top:8%' autoplay muted><source src='images/stimuli/wall_pref.mp4' type='video/mp4'></video>","2","middle","45%","13","","","","","","","",""
"","681.515000294894","sequential-stimulus-presentation","259","413067","0.0-49.0","SS1612925950673","pref_reveal","","40","800","1481.515000294894","","","","","13","","","","deviant","","","",""
"","null","html-keyboard-response","260","414238","0.0-50.0-0.0","SS1612925950673","","","null","","","<p><img src= images/blank.png width =""200"" height = ""200"" style = ""float:right""></p><p><img src=images/blank.png width =""800"" height = ""200""></p>","","","","","","","","","","","",""
"","452.4300000630319","sequential-stimulus-presentation","261","415498","0.0-50.0-1.0","SS1612925950673","trial","","40","800","1252.430000063032","","","","","14","simple_dissimilar","images/stimuli/spore_stims/simple_05_A_a.gif","middle","","","","",""
"","null","html-keyboard-response","262","416471","0.0-50.0-0.1","SS1612925950673","","","null","","","<p><img src= images/blank.png width =""200"" height = ""200"" style = ""float:right""></p><p><img src=images/blank.png width =""800"" height = ""200""></p>","","","","","","","","","","","",""
"","414.87500024959445","sequential-stimulus-presentation","263","417691","0.0-50.0-1.1","SS1612925950673","trial","","40","800","1214.8750002495944","","","","","14","simple_dissimilar","images/stimuli/spore_stims/simple_05_A_a.gif","middle","","","","",""
"","null","html-keyboard-response","264","418559","0.0-50.0-0.2","SS1612925950673","","","null","","","<p><img src= images/blank.png width =""200"" height = ""200"" style = ""float:right""></p><p><img src=images/blank.png width =""800"" height = ""200""></p>","","","","","","","","","","","",""
"","171.8699997290969","sequential-stimulus-presentation","265","419539","0.0-50.0-1.2","SS1612925950673","trial","","40","800","971.8699997290969","","","","","14","simple_dissimilar","images/stimuli/spore_stims/simple_05_A_a.gif","middle","","","","",""
"","null","html-keyboard-response","266","420524","0.0-50.0-0.3","SS1612925950673","","","null","","","<p><img src= images/blank.png width =""200"" height = ""200"" style = ""float:right""></p><p><img src=images/blank.png width =""800"" height = ""200""></p>","","","","","","","","","","","",""
"","744.4750000722706","sequential-stimulus-presentation","267","422079","0.0-50.0-1.3","SS1612925950673","trial","","40","800","1544.4750000722706","","","","","14","simple_dissimilar","images/stimuli/spore_stims/simple_14_A_c.gif","left","","","","",""
"","null","html-keyboard-response","268","423113","0.0-50.0-0.4","SS1612925950673","","","null","","","<p><img src= images/blank.png width =""200"" height = ""200"" style = ""float:right""></p><p><img src=images/blank.png width =""800"" height = ""200""></p>","","","","","","","","","","","",""
"","1771.9600000418723","sequential-stimulus-presentation","269","425690","0.0-50.0-1.4","SS1612925950673","trial","","40","800","2571.9600000418723","","","","","14","simple_dissimilar","images/stimuli/spore_stims/simple_05_A_a.gif","middle","","","","",""
"","null","html-keyboard-response","270","426669","0.0-50.0-0.5","SS1612925950673","","","null","","","<p><img src= images/blank.png width =""200"" height = ""200"" style = ""float:right""></p><p><img src=images/blank.png width =""800"" height = ""200""></p>","","","","","","","","","","","",""
"","208.12000008299947","sequential-stimulus-presentation","271","427681","0.0-50.0-1.5","SS1612925950673","trial","","40","800","1008.1200000829995","","","","","14","simple_dissimilar","images/stimuli/spore_stims/simple_05_A_a.gif","middle","","","","",""
"","null","html-keyboard-response","272","428535","0.0-50.0-0.6","SS1612925950673","","","null","","","<p><img src= images/blank.png width =""200"" height = ""200"" style = ""float:right""></p><p><img src=images/blank.png width =""800"" height = ""200""></p>","","","","","","","","","","","",""
"","219.96000036597252","sequential-stimulus-presentation","273","429560","0.0-50.0-1.6","SS1612925950673","trial","","40","800","1019.9600003659725","","","","","14","simple_dissimilar","images/stimuli/spore_stims/simple_05_A_a.gif","middle","","","","",""
"","null","html-keyboard-response","274","430803","0.0-50.0-0.7","SS1612925950673","","","null","","","<p><img src= images/blank.png width =""200"" height = ""200"" style = ""float:right""></p><p><img src=images/blank.png width =""800"" height = ""200""></p>","","","","","","","","","","","",""
"","101.55500005930662","sequential-stimulus-presentation","275","431709","0.0-50.0-1.7","SS1612925950673","trial","","40","800","901.5550000593066","","","","","14","simple_dissimilar","images/stimuli/spore_stims/simple_05_A_a.gif","middle","","","","",""
"","3000.4099998623133","html-keyboard-response","276","434713","0.0-51.0","SS1612925950673","pref_question","","51","","","<video width ='960' height = '540' style='padding-top:8%' autoplay muted><source src='images/stimuli/wall_pref.mp4' type='video/mp4'></video>","3","right","66%","14","","","","","","","",""
"","823.1099997647107","sequential-stimulus-presentation","277","436344","0.0-52.0","SS1612925950673","pref_reveal","","40","800","1623.1099997647107","","","","","14","","","","novel","","","",""
"","null","html-keyboard-response","278","437409","0.0-53.0-0.0","SS1612925950673","","","null","","","<p><img src= images/blank.png width =""200"" height = ""200"" style = ""float:right""></p><p><img src=images/blank.png width =""800"" height = ""200""></p>","","","","","","","","","","","",""
"","108.52999985218048","sequential-stimulus-presentation","279","438327","0.0-53.0-1.0","SS1612925950673","trial","","40","800","908.5299998521805","","","","","15","simple_similar","images/stimuli/spore_stims/simple_06_B_a.gif","middle","","","","",""
"","null","html-keyboard-response","280","439483","0.0-53.0-0.1","SS1612925950673","","","null","","","<p><img src= images/blank.png width =""200"" height = ""200"" style = ""float:right""></p><p><img src=images/blank.png width =""800"" height = ""200""></p>","","","","","","","","","","","",""
"","45.03499995917082","sequential-stimulus-presentation","281","440338","0.0-53.0-1.1","SS1612925950673","trial","","40","800","845.0349999591708","","","","","15","simple_similar","images/stimuli/spore_stims/simple_06_B_a.gif","middle","","","","",""
"","null","html-keyboard-response","282","441420","0.0-53.0-0.2","SS1612925950673","","","null","","","<p><img src= images/blank.png width =""200"" height = ""200"" style = ""float:right""></p><p><img src=images/blank.png width =""800"" height = ""200""></p>","","","","","","","","","","","",""
"","158.1199998036027","sequential-stimulus-presentation","283","442385","0.0-53.0-1.2","SS1612925950673","trial","","40","800","958.1199998036027","","","","","15","simple_similar","images/stimuli/spore_stims/simple_06_B_a.gif","middle","","","","",""
"","null","html-keyboard-response","284","443229","0.0-53.0-0.3","SS1612925950673","","","null","","","<p><img src= images/blank.png width =""200"" height = ""200"" style = ""float:right""></p><p><img src=images/blank.png width =""800"" height = ""200""></p>","","","","","","","","","","","",""
"","253.33999982103705","sequential-stimulus-presentation","285","444287","0.0-53.0-1.3","SS1612925950673","trial","","40","800","1053.339999821037","","","","","15","simple_similar","images/stimuli/spore_stims/simple_06_B_a.gif","middle","","","","",""
"","null","html-keyboard-response","286","445460","0.0-53.0-0.4","SS1612925950673","","","null","","","<p><img src= images/blank.png width =""200"" height = ""200"" style = ""float:right""></p><p><img src=images/blank.png width =""800"" height = ""200""></p>","","","","","","","","","","","",""
"","172.4900002591312","sequential-stimulus-presentation","287","446447","0.0-53.0-1.4","SS1612925950673","trial","","40","800","972.4900002591312","","","","","15","simple_similar","images/stimuli/spore_stims/simple_06_B_a.gif","middle","","","","",""
"","null","html-keyboard-response","288","447503","0.0-53.0-0.5","SS1612925950673","","","null","","","<p><img src= images/blank.png width =""200"" height = ""200"" style = ""float:right""></p><p><img src=images/blank.png width =""800"" height = ""200""></p>","","","","","","","","","","","",""
"","96.4899999089539","sequential-stimulus-presentation","289","448404","0.0-53.0-1.5","SS1612925950673","trial","","40","800","896.4899999089539","","","","","15","simple_similar","images/stimuli/spore_stims/simple_06_B_a.gif","middle","","","","",""
"","null","html-keyboard-response","290","449641","0.0-53.0-0.6","SS1612925950673","","","null","","","<p><img src= images/blank.png width =""200"" height = ""200"" style = ""float:right""></p><p><img src=images/blank.png width =""800"" height = ""200""></p>","","","","","","","","","","","",""
"","51.4600002206862","sequential-stimulus-presentation","291","450497","0.0-53.0-1.6","SS1612925950673","trial","","40","800","851.4600002206862","","","","","15","simple_similar","images/stimuli/spore_stims/simple_06_B_a.gif","middle","","","","",""
"","null","html-keyboard-response","292","451525","0.0-53.0-0.7","SS1612925950673","","","null","","","<p><img src= images/blank.png width =""200"" height = ""200"" style = ""float:right""></p><p><img src=images/blank.png width =""800"" height = ""200""></p>","","","","","","","","","","","",""
"","91.5700001642108","sequential-stimulus-presentation","293","452420","0.0-53.0-1.7","SS1612925950673","trial","","40","800","891.5700001642108","","","","","15","simple_similar","images/stimuli/spore_stims/simple_06_A_a.gif","right","","","","",""
"","1932.125000283122","html-keyboard-response","294","454356","0.0-54.0","SS1612925950673","pref_question","","49","","","<video width ='960' height = '540' style='padding-top:8%' autoplay muted><source src='images/stimuli/wall_pref.mp4' type='video/mp4'></video>","1","left","25%","15","","","","","","","",""
"","588.0050002597272","sequential-stimulus-presentation","295","455751","0.0-55.0","SS1612925950673","pref_reveal","","40","800","1388.0050002597272","","","","","15","","","","novel","","","",""
"","null","html-keyboard-response","296","456579","0.0-56.0-0.0","SS1612925950673","","","null","","","<p><img src= images/blank.png width =""200"" height = ""200"" style = ""float:right""></p><p><img src=images/blank.png width =""800"" height = ""200""></p>","","","","","","","","","","","",""
"","278.65999983623624","sequential-stimulus-presentation","297","457663","0.0-56.0-1.0","SS1612925950673","trial","","40","800","1078.6599998362362","","","","","16","simple_similar","images/stimuli/spore_stims/simple_10_A_a.gif","right","","","","",""
"","null","html-keyboard-response","298","458640","0.0-56.0-0.1","SS1612925950673","","","null","","","<p><img src= images/blank.png width =""200"" height = ""200"" style = ""float:right""></p><p><img src=images/blank.png width =""800"" height = ""200""></p>","","","","","","","","","","","",""
"","140.16499975696206","sequential-stimulus-presentation","299","459587","0.0-56.0-1.1","SS1612925950673","trial","","40","800","940.1649997569621","","","","","16","simple_similar","images/stimuli/spore_stims/simple_10_A_a.gif","right","","","","",""
"","null","html-keyboard-response","300","460726","0.0-56.0-0.2","SS1612925950673","","","null","","","<p><img src= images/blank.png width =""200"" height = ""200"" style = ""float:right""></p><p><img src=images/blank.png width =""800"" height = ""200""></p>","","","","","","","","","","","",""
"","250.23499969393015","sequential-stimulus-presentation","301","461781","0.0-56.0-1.2","SS1612925950673","trial","","40","800","1050.2349996939301","","","","","16","simple_similar","images/stimuli/spore_stims/simple_10_A_a.gif","right","","","","",""
"","null","html-keyboard-response","302","462801","0.0-56.0-0.3","SS1612925950673","","","null","","","<p><img src= images/blank.png width =""200"" height = ""200"" style = ""float:right""></p><p><img src=images/blank.png width =""800"" height = ""200""></p>","","","","","","","","","","","",""
"","155.22500034421682","sequential-stimulus-presentation","303","463761","0.0-56.0-1.3","SS1612925950673","trial","","40","800","955.2250003442168","","","","","16","simple_similar","images/stimuli/spore_stims/simple_10_A_a.gif","right","","","","",""
"","null","html-keyboard-response","304","464707","0.0-56.0-0.4","SS1612925950673","","","null","","","<p><img src= images/blank.png width =""200"" height = ""200"" style = ""float:right""></p><p><img src=images/blank.png width =""800"" height = ""200""></p>","","","","","","","","","","","",""
"","172.84499993547797","sequential-stimulus-presentation","305","465684","0.0-56.0-1.4","SS1612925950673","trial","","40","800","972.844999935478","","","","","16","simple_similar","images/stimuli/spore_stims/simple_10_A_a.gif","right","","","","",""
"","null","html-keyboard-response","306","466778","0.0-56.0-0.5","SS1612925950673","","","null","","","<p><img src= images/blank.png width =""200"" height = ""200"" style = ""float:right""></p><p><img src=images/blank.png width =""800"" height = ""200""></p>","","","","","","","","","","","",""
"","59.78999985381961","sequential-stimulus-presentation","307","467642","0.0-56.0-1.5","SS1612925950673","trial","","40","800","859.7899998538196","","","","","16","simple_similar","images/stimuli/spore_stims/simple_10_A_a.gif","right","","","","",""
"","null","html-keyboard-response","308","468646","0.0-56.0-0.6","SS1612925950673","","","null","","","<p><img src= images/blank.png width =""200"" height = ""200"" style = ""float:right""></p><p><img src=images/blank.png width =""800"" height = ""200""></p>","","","","","","","","","","","",""
"","814.089999999851","sequential-stimulus-presentation","309","470264","0.0-56.0-1.6","SS1612925950673","trial","","40","800","1614.089999999851","","","","","16","simple_similar","images/stimuli/spore_stims/simple_10_A_a.gif","right","","","","",""
"","null","html-keyboard-response","310","471526","0.0-56.0-0.7","SS1612925950673","","","null","","","<p><img src= images/blank.png width =""200"" height = ""200"" style = ""float:right""></p><p><img src=images/blank.png width =""800"" height = ""200""></p>","","","","","","","","","","","",""
"","157.21999993547797","sequential-stimulus-presentation","311","472491","0.0-56.0-1.7","SS1612925950673","trial","","40","800","957.219999935478","","","","","16","simple_similar","images/stimuli/spore_stims/simple_10_B_a.gif","left","","","","",""
"","1318.8200001604855","html-keyboard-response","312","473819","0.0-57.0","SS1612925950673","pref_question","","50","","","<video width ='960' height = '540' style='padding-top:8%' autoplay muted><source src='images/stimuli/wall_pref.mp4' type='video/mp4'></video>","2","middle","45%","16","","","","","","","",""
"","238.71499998494983","sequential-stimulus-presentation","313","474864","0.0-58.0","SS1612925950673","pref_reveal","","40","800","1038.7149999849498","","","","","16","","","","novel","","","",""
"","null","html-keyboard-response","314","475957","0.0-59.0-0.0","SS1612925950673","","","null","","","<p><img src= images/blank.png width =""200"" height = ""200"" style = ""float:right""></p><p><img src=images/blank.png width =""800"" height = ""200""></p>","","","","","","","","","","","",""
"","605.0100000575185","sequential-stimulus-presentation","315","477373","0.0-59.0-1.0","SS1612925950673","trial","","40","800","1405.0100000575185","","","","","17","simple_dissimilar","images/stimuli/spore_stims/simple_04_A_b.gif","left","","","","",""
"","null","html-keyboard-response","316","478498","0.0-59.0-0.1","SS1612925950673","","","null","","","<p><img src= images/blank.png width =""200"" height = ""200"" style = ""float:right""></p><p><img src=images/blank.png width =""800"" height = ""200""></p>","","","","","","","","","","","",""
"","140.9599999897182","sequential-stimulus-presentation","317","479443","0.0-59.0-1.1","SS1612925950673","trial","","40","800","940.9599999897182","","","","","17","simple_dissimilar","images/stimuli/spore_stims/simple_04_A_b.gif","left","","","","",""
"","null","html-keyboard-response","318","480465","0.0-59.0-0.2","SS1612925950673","","","null","","","<p><img src= images/blank.png width =""200"" height = ""200"" style = ""float:right""></p><p><img src=images/blank.png width =""800"" height = ""200""></p>","","","","","","","","","","","",""
"","87.60999981313944","sequential-stimulus-presentation","319","481367","0.0-59.0-1.2","SS1612925950673","trial","","40","800","887.6099998131394","","","","","17","simple_dissimilar","images/stimuli/spore_stims/simple_04_A_b.gif","left","","","","",""
"","null","html-keyboard-response","320","482499","0.0-59.0-0.3","SS1612925950673","","","null","","","<p><img src= images/blank.png width =""200"" height = ""200"" style = ""float:right""></p><p><img src=images/blank.png width =""800"" height = ""200""></p>","","","","","","","","","","","",""
"","404.69500003382564","sequential-stimulus-presentation","321","483708","0.0-59.0-1.3","SS1612925950673","trial","","40","800","1204.6950000338256","","","","","17","simple_dissimilar","images/stimuli/spore_stims/simple_04_A_b.gif","left","","","","",""
"","null","html-keyboard-response","322","484545","0.0-59.0-0.4","SS1612925950673","","","null","","","<p><img src= images/blank.png width =""200"" height = ""200"" style = ""float:right""></p><p><img src=images/blank.png width =""800"" height = ""200""></p>","","","","","","","","","","","",""
"","428.04000014439225","sequential-stimulus-presentation","323","485778","0.0-59.0-1.4","SS1612925950673","trial","","40","800","1228.0400001443923","","","","","17","simple_dissimilar","images/stimuli/spore_stims/simple_04_A_b.gif","left","","","","",""
"","null","html-keyboard-response","324","486942","0.0-59.0-0.5","SS1612925950673","","","null","","","<p><img src= images/blank.png width =""200"" height = ""200"" style = ""float:right""></p><p><img src=images/blank.png width =""800"" height = ""200""></p>","","","","","","","","","","","",""
"","389.4549999386072","sequential-stimulus-presentation","325","488140","0.0-59.0-1.5","SS1612925950673","trial","","40","800","1189.4549999386072","","","","","17","simple_dissimilar","images/stimuli/spore_stims/simple_04_A_b.gif","left","","","","",""
"","null","html-keyboard-response","326","488990","0.0-59.0-0.6","SS1612925950673","","","null","","","<p><img src= images/blank.png width =""200"" height = ""200"" style = ""float:right""></p><p><img src=images/blank.png width =""800"" height = ""200""></p>","","","","","","","","","","","",""
"","133.87000001966953","sequential-stimulus-presentation","327","489929","0.0-59.0-1.6","SS1612925950673","trial","","40","800","933.8700000196695","","","","","17","simple_dissimilar","images/stimuli/spore_stims/simple_13_B_c.gif","middle","","","","",""
"","null","html-keyboard-response","328","490893","0.0-59.0-0.7","SS1612925950673","","","null","","","<p><img src= images/blank.png width =""200"" height = ""200"" style = ""float:right""></p><p><img src=images/blank.png width =""800"" height = ""200""></p>","","","","","","","","","","","",""
"","142.48500019311905","sequential-stimulus-presentation","329","491842","0.0-59.0-1.7","SS1612925950673","trial","","40","800","942.485000193119","","","","","17","simple_dissimilar","images/stimuli/spore_stims/simple_04_A_b.gif","left","","","","",""
"","1300.8150001987815","html-keyboard-response","330","493147","0.0-60.0","SS1612925950673","pref_question","","51","","","<video width ='960' height = '540' style='padding-top:8%' autoplay muted><source src='images/stimuli/wall_pref.mp4' type='video/mp4'></video>","3","right","66%","17","","","","","","","",""
"","701.0500002652407","sequential-stimulus-presentation","331","494655","0.0-61.0","SS1612925950673","pref_reveal","","40","800","1501.0500002652407","","","","","17","","","","novel","","","",""
"","null","html-keyboard-response","332","495489","0.0-62.0-0.0","SS1612925950673","","","null","","","<p><img src= images/blank.png width =""200"" height = ""200"" style = ""float:right""></p><p><img src=images/blank.png width =""800"" height = ""200""></p>","","","","","","","","","","","",""
"","194.06000012531877","sequential-stimulus-presentation","333","496488","0.0-62.0-1.0","SS1612925950673","trial","","40","800","994.0600001253188","","","","","18","complex_similar","images/stimuli/spore_stims/complex_16_A_c.gif","middle","","","","",""
"","null","html-keyboard-response","334","497726","0.0-62.0-0.1","SS1612925950673","","","null","","","<p><img src= images/blank.png width =""200"" height = ""200"" style = ""float:right""></p><p><img src=images/blank.png width =""800"" height = ""200""></p>","","","","","","","","","","","",""
"","370.65500020980835","sequential-stimulus-presentation","335","498906","0.0-62.0-1.1","SS1612925950673","trial","","40","800","1170.6550002098083","","","","","18","complex_similar","images/stimuli/spore_stims/complex_16_A_c.gif","middle","","","","",""
"","null","html-keyboard-response","336","500158","0.0-62.0-0.2","SS1612925950673","","","null","","","<p><img src= images/blank.png width =""200"" height = ""200"" style = ""float:right""></p><p><img src=images/blank.png width =""800"" height = ""200""></p>","","","","","","","","","","","",""
"","149.1749999113381","sequential-stimulus-presentation","337","501112","0.0-62.0-1.2","SS1612925950673","trial","","40","800","949.1749999113381","","","","","18","complex_similar","images/stimuli/spore_stims/complex_16_B_c.gif","right","","","","",""
"","null","html-keyboard-response","338","502074","0.0-62.0-0.3","SS1612925950673","","","null","","","<p><img src= images/blank.png width =""200"" height = ""200"" style = ""float:right""></p><p><img src=images/blank.png width =""800"" height = ""200""></p>","","","","","","","","","","","",""
"","323.2399998232722","sequential-stimulus-presentation","339","503204","0.0-62.0-1.3","SS1612925950673","trial","","40","800","1123.2399998232722","","","","","18","complex_similar","images/stimuli/spore_stims/complex_16_A_c.gif","middle","","","","",""
"","null","html-keyboard-response","340","504095","0.0-62.0-0.4","SS1612925950673","","","null","","","<p><img src= images/blank.png width =""200"" height = ""200"" style = ""float:right""></p><p><img src=images/blank.png width =""800"" height = ""200""></p>","","","","","","","","","","","",""
"","267.59999990463257","sequential-stimulus-presentation","341","505173","0.0-62.0-1.4","SS1612925950673","trial","","40","800","1067.5999999046326","","","","","18","complex_similar","images/stimuli/spore_stims/complex_16_A_c.gif","middle","","","","",""
"","null","html-keyboard-response","342","506011","0.0-62.0-0.5","SS1612925950673","","","null","","","<p><img src= images/blank.png width =""200"" height = ""200"" style = ""float:right""></p><p><img src=images/blank.png width =""800"" height = ""200""></p>","","","","","","","","","","","",""
"","332.32499985024333","sequential-stimulus-presentation","343","507153","0.0-62.0-1.5","SS1612925950673","trial","","40","800","1132.3249998502433","","","","","18","complex_similar","images/stimuli/spore_stims/complex_16_A_c.gif","middle","","","","",""
"","null","html-keyboard-response","344","508161","0.0-62.0-0.6","SS1612925950673","","","null","","","<p><img src= images/blank.png width =""200"" height = ""200"" style = ""float:right""></p><p><img src=images/blank.png width =""800"" height = ""200""></p>","","","","","","","","","","","",""
"","400.24999994784594","sequential-stimulus-presentation","345","509369","0.0-62.0-1.6","SS1612925950673","trial","","40","800","1200.249999947846","","","","","18","complex_similar","images/stimuli/spore_stims/complex_16_A_c.gif","middle","","","","",""
"","null","html-keyboard-response","346","510497","0.0-62.0-0.7","SS1612925950673","","","null","","","<p><img src= images/blank.png width =""200"" height = ""200"" style = ""float:right""></p><p><img src=images/blank.png width =""800"" height = ""200""></p>","","","","","","","","","","","",""
"","278.69499986991286","sequential-stimulus-presentation","347","511585","0.0-62.0-1.7","SS1612925950673","trial","","40","800","1078.6949998699129","","","","","18","complex_similar","images/stimuli/spore_stims/complex_16_A_c.gif","middle","","","","",""
"","1774.354999884963","html-keyboard-response","348","513364","0.0-63.0","SS1612925950673","pref_question","","49","","","<video width ='960' height = '540' style='padding-top:8%' autoplay muted><source src='images/stimuli/wall_pref.mp4' type='video/mp4'></video>","1","left","25%","18","","","","","","","",""
"","621.7100000940263","sequential-stimulus-presentation","349","514793","0.0-64.0","SS1612925950673","pref_reveal","","40","800","1421.7100000940263","","","","","18","","","","novel","","","",""
"","null","html-keyboard-response","350","515915","0.0-65.0-0.0","SS1612925950673","","","null","","","<p><img src= images/blank.png width =""200"" height = ""200"" style = ""float:right""></p><p><img src=images/blank.png width =""800"" height = ""200""></p>","","","","","","","","","","","",""
"","128.49000003188848","sequential-stimulus-presentation","351","516850","0.0-65.0-1.0","SS1612925950673","trial","","40","800","928.4900000318885","","","","","19","simple_similar","images/stimuli/spore_stims/simple_11_B_d.gif","middle","","","","",""
"","null","html-keyboard-response","352","518155","0.0-65.0-0.1","SS1612925950673","","","null","","","<p><img src= images/blank.png width =""200"" height = ""200"" style = ""float:right""></p><p><img src=images/blank.png width =""800"" height = ""200""></p>","","","","","","","","","","","",""
"","93.63500028848648","sequential-stimulus-presentation","353","519056","0.0-65.0-1.1","SS1612925950673","trial","","40","800","893.6350002884865","","","","","19","simple_similar","images/stimuli/spore_stims/simple_11_B_d.gif","middle","","","","",""
"","null","html-keyboard-response","354","520162","0.0-65.0-0.2","SS1612925950673","","","null","","","<p><img src= images/blank.png width =""200"" height = ""200"" style = ""float:right""></p><p><img src=images/blank.png width =""800"" height = ""200""></p>","","","","","","","","","","","",""
"","190.5449996702373","sequential-stimulus-presentation","355","521159","0.0-65.0-1.2","SS1612925950673","trial","","40","800","990.5449996702373","","","","","19","simple_similar","images/stimuli/spore_stims/simple_11_B_d.gif","middle","","","","",""
"","null","html-keyboard-response","356","522209","0.0-65.0-0.3","SS1612925950673","","","null","","","<p><img src= images/blank.png width =""200"" height = ""200"" style = ""float:right""></p><p><img src=images/blank.png width =""800"" height = ""200""></p>","","","","","","","","","","","",""
"","30.205000191926956","sequential-stimulus-presentation","357","523049","0.0-65.0-1.3","SS1612925950673","trial","","40","800","830.205000191927","","","","","19","simple_similar","images/stimuli/spore_stims/simple_11_A_d.gif","right","","","","",""
"","null","html-keyboard-response","358","523953","0.0-65.0-0.4","SS1612925950673","","","null","","","<p><img src= images/blank.png width =""200"" height = ""200"" style = ""float:right""></p><p><img src=images/blank.png width =""800"" height = ""200""></p>","","","","","","","","","","","",""
"","157.43499994277954","sequential-stimulus-presentation","359","524917","0.0-65.0-1.4","SS1612925950673","trial","","40","800","957.4349999427795","","","","","19","simple_similar","images/stimuli/spore_stims/simple_11_B_d.gif","middle","","","","",""
"","null","html-keyboard-response","360","526118","0.0-65.0-0.5","SS1612925950673","","","null","","","<p><img src= images/blank.png width =""200"" height = ""200"" style = ""float:right""></p><p><img src=images/blank.png width =""800"" height = ""200""></p>","","","","","","","","","","","",""
"","105.83500005304813","sequential-stimulus-presentation","361","527032","0.0-65.0-1.5","SS1612925950673","trial","","40","800","905.8350000530481","","","","","19","simple_similar","images/stimuli/spore_stims/simple_11_B_d.gif","middle","","","","",""
"","null","html-keyboard-response","362","527979","0.0-65.0-0.6","SS1612925950673","","","null","","","<p><img src= images/blank.png width =""200"" height = ""200"" style = ""float:right""></p><p><img src=images/blank.png width =""800"" height = ""200""></p>","","","","","","","","","","","",""
"","55.939999874681234","sequential-stimulus-presentation","363","528843","0.0-65.0-1.6","SS1612925950673","trial","","40","800","855.9399998746812","","","","","19","simple_similar","images/stimuli/spore_stims/simple_11_B_d.gif","middle","","","","",""
