"view_history","rt","trial_type","trial_index","time_elapsed","internal_node_id","subject","stimulus_type","trial_stimulus","key_press","minimum_viewing_duration","trial_looking_time","block_deviant","block_background","stimulus","wall_pref","location","location_percent","block_number","block_type","stimulus_displayed","position_displayed","stim_type_selected"
"[{""page_index"":0,""viewing_time"":34905.99999999904}]","34907.99999999945","instructions","0","34912","0.0-0.0","SS1613098743872","","","","","","","","","","","","","","","",""
"[{""page_index"":0,""viewing_time"":10122.999999999593},{""page_index"":1,""viewing_time"":12584.000000000742}]","22707.99999999872","instructions","1","59633","0.0-1.0","SS1613098743872","instructions","","","","","","","","","","","","","","",""
"","9870.999999999185","sequential-stimulus-presentation","2","70331","0.0-2.0","SS1613098743872","","","40","800","10670.999999999185","null","null","","","","","","","","",""
"","2364.9999999997817","sequential-stimulus-presentation","3","73513","0.0-3.0","SS1613098743872","","","40","800","3164.9999999997817","null","null","","","","","","","","",""
"[{""page_index"":0,""viewing_time"":2331.9999999985157}]","2343.9999999991414","instructions","4","75860","0.0-4.0","SS1613098743872","instructions","","","","","","","","","","","","","","",""
"","11400.99999999984","html-keyboard-response","5","87269","0.0-5.0","SS1613098743872","instructions","","99","","","","","<video width ='960' height = '540' autoplay muted><source src='images/stimuli/wall_pref.mp4' type='video/mp4'></video>","3","right","66%","","","","",""
"","3778.999999998632","sequential-stimulus-presentation","6","91885","0.0-6.0","SS1613098743872","pref_reveal","","40","800","4578.999999998632","null","null","","","","","","","","",""
"[{""page_index"":0,""viewing_time"":2259.0000000000146},{""page_index"":1,""viewing_time"":2234.999999998763},{""page_index"":2,""viewing_time"":1311.9999999998981},{""page_index"":3,""viewing_time"":2243.000000000393}]","8049.999999999272","instructions","7","99940","0.0-7.0","SS1613098743872","instructions","","","","","","","","","","","","","","",""
"","null","html-keyboard-response","8","100988","0.0-8.0-0.0","SS1613098743872","","","null","","","","","<p><img src= images/blank.png width =""200"" height = ""200"" style = ""float:right""></p><p><img src=images/blank.png width =""800"" height = ""200""></p>","","","","","","","",""
"","6180.000000000291","sequential-stimulus-presentation","9","107984","0.0-8.0-1.0","SS1613098743872","trial","","40","800","6980.000000000291","images/stimuli/spore_stims/simple_20_B_c.gif","images/stimuli/spore_stims/simple_20_A_c.gif","","","","","0","simple_similar","images/stimuli/spore_stims/simple_20_A_c.gif","middle",""
"","null","html-keyboard-response","10","108886","0.0-8.0-0.1","SS1613098743872","","","null","","","","","<p><img src= images/blank.png width =""200"" height = ""200"" style = ""float:right""></p><p><img src=images/blank.png width =""800"" height = ""200""></p>","","","","","","","",""
"","1382.9999999998254","sequential-stimulus-presentation","11","111103","0.0-8.0-1.1","SS1613098743872","trial","","40","800","2182.9999999998254","images/stimuli/spore_stims/simple_20_B_c.gif","images/stimuli/spore_stims/simple_20_A_c.gif","","","","","0","simple_similar","images/stimuli/spore_stims/simple_20_A_c.gif","middle",""
"","null","html-keyboard-response","12","112205","0.0-8.0-0.2","SS1613098743872","","","null","","","","","<p><img src= images/blank.png width =""200"" height = ""200"" style = ""float:right""></p><p><img src=images/blank.png width =""800"" height = ""200""></p>","","","","","","","",""
"","987.9999999993888","sequential-stimulus-presentation","13","114008","0.0-8.0-1.2","SS1613098743872","trial","","40","800","1787.9999999993888","images/stimuli/spore_stims/simple_20_B_c.gif","images/stimuli/spore_stims/simple_20_A_c.gif","","","","","0","simple_similar","images/stimuli/spore_stims/simple_20_A_c.gif","middle",""
"","null","html-keyboard-response","14","115283","0.0-8.0-0.3","SS1613098743872","","","null","","","","","<p><img src= images/blank.png width =""200"" height = ""200"" style = ""float:right""></p><p><img src=images/blank.png width =""800"" height = ""200""></p>","","","","","","","",""
"","842.000000000553","sequential-stimulus-presentation","15","117048","0.0-8.0-1.3","SS1613098743872","trial","","40","800","1642.000000000553","images/stimuli/spore_stims/simple_20_B_c.gif","images/stimuli/spore_stims/simple_20_A_c.gif","","","","","0","simple_similar","images/stimuli/spore_stims/simple_20_A_c.gif","middle",""
"","null","html-keyboard-response","16","118255","0.0-8.0-0.4","SS1613098743872","","","null","","","","","<p><img src= images/blank.png width =""200"" height = ""200"" style = ""float:right""></p><p><img src=images/blank.png width =""800"" height = ""200""></p>","","","","","","","",""
"","5524.999999999622","sequential-stimulus-presentation","17","124638","0.0-8.0-1.4","SS1613098743872","trial","","40","800","6324.999999999622","images/stimuli/spore_stims/simple_20_B_c.gif","images/stimuli/spore_stims/simple_20_A_c.gif","","","","","0","simple_similar","images/stimuli/spore_stims/simple_20_B_c.gif","left",""
"","null","html-keyboard-response","18","125709","0.0-8.0-0.5","SS1613098743872","","","null","","","","","<p><img src= images/blank.png width =""200"" height = ""200"" style = ""float:right""></p><p><img src=images/blank.png width =""800"" height = ""200""></p>","","","","","","","",""
"","1090.0000000001746","sequential-stimulus-presentation","19","127716","0.0-8.0-1.5","SS1613098743872","trial","","40","800","1890.0000000001746","images/stimuli/spore_stims/simple_20_B_c.gif","images/stimuli/spore_stims/simple_20_A_c.gif","","","","","0","simple_similar","images/stimuli/spore_stims/simple_20_A_c.gif","middle",""
"","null","html-keyboard-response","20","128916","0.0-8.0-0.6","SS1613098743872","","","null","","","","","<p><img src= images/blank.png width =""200"" height = ""200"" style = ""float:right""></p><p><img src=images/blank.png width =""800"" height = ""200""></p>","","","","","","","",""
"","913.0000000004657","sequential-stimulus-presentation","21","130746","0.0-8.0-1.6","SS1613098743872","trial","","40","800","1713.0000000004657","images/stimuli/spore_stims/simple_20_B_c.gif","images/stimuli/spore_stims/simple_20_A_c.gif","","","","","0","simple_similar","images/stimuli/spore_stims/simple_20_A_c.gif","middle",""
"","null","html-keyboard-response","22","131896","0.0-8.0-0.7","SS1613098743872","","","null","","","","","<p><img src= images/blank.png width =""200"" height = ""200"" style = ""float:right""></p><p><img src=images/blank.png width =""800"" height = ""200""></p>","","","","","","","",""
"","1413.9999999988358","sequential-stimulus-presentation","23","134177","0.0-8.0-1.7","SS1613098743872","trial","","40","800","2213.999999998836","images/stimuli/spore_stims/simple_20_B_c.gif","images/stimuli/spore_stims/simple_20_A_c.gif","","","","","0","simple_similar","images/stimuli/spore_stims/simple_20_A_c.gif","middle",""
"","1171.9999999986612","html-keyboard-response","24","135367","0.0-9.0","SS1613098743872","pref_question","","98","","","","","<video width ='960' height = '540' style='padding-top:8%' autoplay muted><source src='images/stimuli/wall_pref.mp4' type='video/mp4'></video>","2","middle","45%","0","","","",""
"","1765.0000000012515","sequential-stimulus-presentation","25","137990","0.0-10.0","SS1613098743872","pref_reveal","","40","800","2565.0000000012515","null","null","","","","","0","","","","background"
"","null","html-keyboard-response","26","139105","0.0-11.0-0.0","SS1613098743872","","","null","","","","","<p><img src= images/blank.png width =""200"" height = ""200"" style = ""float:right""></p><p><img src=images/blank.png width =""800"" height = ""200""></p>","","","","","","","",""
"","1126.0000000002037","sequential-stimulus-presentation","27","141048","0.0-11.0-1.0","SS1613098743872","trial","","40","800","1926.0000000002037","images/stimuli/spore_stims/simple_04_B_b.gif","images/stimuli/spore_stims/simple_14_B_a.gif","","","","","1","simple_dissimilar","images/stimuli/spore_stims/simple_14_B_a.gif","left",""
"","null","html-keyboard-response","28","141865","0.0-11.0-0.1","SS1613098743872","","","null","","","","","<p><img src= images/blank.png width =""200"" height = ""200"" style = ""float:right""></p><p><img src=images/blank.png width =""800"" height = ""200""></p>","","","","","","","",""
"","974.0000000001455","sequential-stimulus-presentation","29","143732","0.0-11.0-1.1","SS1613098743872","trial","","40","800","1774.0000000001455","images/stimuli/spore_stims/simple_04_B_b.gif","images/stimuli/spore_stims/simple_14_B_a.gif","","","","","1","simple_dissimilar","images/stimuli/spore_stims/simple_14_B_a.gif","left",""
"","null","html-keyboard-response","30","144954","0.0-11.0-0.2","SS1613098743872","","","null","","","","","<p><img src= images/blank.png width =""200"" height = ""200"" style = ""float:right""></p><p><img src=images/blank.png width =""800"" height = ""200""></p>","","","","","","","",""
"","988.9999999995925","sequential-stimulus-presentation","31","146760","0.0-11.0-1.2","SS1613098743872","trial","","40","800","1788.9999999995925","images/stimuli/spore_stims/simple_04_B_b.gif","images/stimuli/spore_stims/simple_14_B_a.gif","","","","","1","simple_dissimilar","images/stimuli/spore_stims/simple_14_B_a.gif","left",""
"","null","html-keyboard-response","32","147614","0.0-11.0-0.3","SS1613098743872","","","null","","","","","<p><img src= images/blank.png width =""200"" height = ""200"" style = ""float:right""></p><p><img src=images/blank.png width =""800"" height = ""200""></p>","","","","","","","",""
"","777.0000000000291","sequential-stimulus-presentation","33","149238","0.0-11.0-1.3","SS1613098743872","trial","","40","800","1577.000000000029","images/stimuli/spore_stims/simple_04_B_b.gif","images/stimuli/spore_stims/simple_14_B_a.gif","","","","","1","simple_dissimilar","images/stimuli/spore_stims/simple_14_B_a.gif","left",""
"","null","html-keyboard-response","34","150234","0.0-11.0-0.4","SS1613098743872","","","null","","","","","<p><img src= images/blank.png width =""200"" height = ""200"" style = ""float:right""></p><p><img src=images/blank.png width =""800"" height = ""200""></p>","","","","","","","",""
"","904.0000000004657","sequential-stimulus-presentation","35","151988","0.0-11.0-1.4","SS1613098743872","trial","","40","800","1704.0000000004657","images/stimuli/spore_stims/simple_04_B_b.gif","images/stimuli/spore_stims/simple_14_B_a.gif","","","","","1","simple_dissimilar","images/stimuli/spore_stims/simple_04_B_b.gif","right",""
"","null","html-keyboard-response","36","153021","0.0-11.0-0.5","SS1613098743872","","","null","","","","","<p><img src= images/blank.png width =""200"" height = ""200"" style = ""float:right""></p><p><img src=images/blank.png width =""800"" height = ""200""></p>","","","","","","","",""
"","1513.9999999992142","sequential-stimulus-presentation","37","155349","0.0-11.0-1.5","SS1613098743872","trial","","40","800","2313.999999999214","images/stimuli/spore_stims/simple_04_B_b.gif","images/stimuli/spore_stims/simple_14_B_a.gif","","","","","1","simple_dissimilar","images/stimuli/spore_stims/simple_14_B_a.gif","left",""
"","null","html-keyboard-response","38","156165","0.0-11.0-0.6","SS1613098743872","","","null","","","","","<p><img src= images/blank.png width =""200"" height = ""200"" style = ""float:right""></p><p><img src=images/blank.png width =""800"" height = ""200""></p>","","","","","","","",""
"","9429.000000000058","sequential-stimulus-presentation","39","166437","0.0-11.0-1.6","SS1613098743872","trial","","40","800","10229.000000000058","images/stimuli/spore_stims/simple_04_B_b.gif","images/stimuli/spore_stims/simple_14_B_a.gif","","","","","1","simple_dissimilar","images/stimuli/spore_stims/simple_14_B_a.gif","left",""
"","null","html-keyboard-response","40","167625","0.0-11.0-0.7","SS1613098743872","","","null","","","","","<p><img src= images/blank.png width =""200"" height = ""200"" style = ""float:right""></p><p><img src=images/blank.png width =""800"" height = ""200""></p>","","","","","","","",""
"","704.9999999999418","sequential-stimulus-presentation","41","169169","0.0-11.0-1.7","SS1613098743872","trial","","40","800","1504.9999999999418","images/stimuli/spore_stims/simple_04_B_b.gif","images/stimuli/spore_stims/simple_14_B_a.gif","","","","","1","simple_dissimilar","images/stimuli/spore_stims/simple_14_B_a.gif","left",""
"","1210.9999999993306","html-keyboard-response","42","170385","0.0-12.0","SS1613098743872","pref_question","","97","","","","","<video width ='960' height = '540' style='padding-top:8%' autoplay muted><source src='images/stimuli/wall_pref.mp4' type='video/mp4'></video>","1","left","25%","1","","","",""
"","742.0000000001746","sequential-stimulus-presentation","43","171969","0.0-13.0","SS1613098743872","pref_reveal","","40","800","1542.0000000001746","null","null","","","","","1","","","","background"
"","null","html-keyboard-response","44","173271","0.0-14.0-0.0","SS1613098743872","","","null","","","","","<p><img src= images/blank.png width =""200"" height = ""200"" style = ""float:right""></p><p><img src=images/blank.png width =""800"" height = ""200""></p>","","","","","","","",""
"","706.0000000001455","sequential-stimulus-presentation","45","174794","0.0-14.0-1.0","SS1613098743872","trial","","40","800","1506.0000000001455","images/stimuli/spore_stims/simple_16_B_c.gif","images/stimuli/spore_stims/simple_16_A_c.gif","","","","","2","simple_similar","images/stimuli/spore_stims/simple_16_A_c.gif","left",""
"","null","html-keyboard-response","46","176018","0.0-14.0-0.1","SS1613098743872","","","null","","","","","<p><img src= images/blank.png width =""200"" height = ""200"" style = ""float:right""></p><p><img src=images/blank.png width =""800"" height = ""200""></p>","","","","","","","",""
"","646.0000000006403","sequential-stimulus-presentation","47","177499","0.0-14.0-1.1","SS1613098743872","trial","","40","800","1446.0000000006403","images/stimuli/spore_stims/simple_16_B_c.gif","images/stimuli/spore_stims/simple_16_A_c.gif","","","","","2","simple_similar","images/stimuli/spore_stims/simple_16_A_c.gif","left",""
"","null","html-keyboard-response","48","178779","0.0-14.0-0.2","SS1613098743872","","","null","","","","","<p><img src= images/blank.png width =""200"" height = ""200"" style = ""float:right""></p><p><img src=images/blank.png width =""800"" height = ""200""></p>","","","","","","","",""
"","649.9999999996508","sequential-stimulus-presentation","49","180262","0.0-14.0-1.2","SS1613098743872","trial","","40","800","1449.9999999996508","images/stimuli/spore_stims/simple_16_B_c.gif","images/stimuli/spore_stims/simple_16_A_c.gif","","","","","2","simple_similar","images/stimuli/spore_stims/simple_16_A_c.gif","left",""
"","null","html-keyboard-response","50","181553","0.0-14.0-0.3","SS1613098743872","","","null","","","","","<p><img src= images/blank.png width =""200"" height = ""200"" style = ""float:right""></p><p><img src=images/blank.png width =""800"" height = ""200""></p>","","","","","","","",""
"","637.0000000006403","sequential-stimulus-presentation","51","183042","0.0-14.0-1.3","SS1613098743872","trial","","40","800","1437.0000000006403","images/stimuli/spore_stims/simple_16_B_c.gif","images/stimuli/spore_stims/simple_16_A_c.gif","","","","","2","simple_similar","images/stimuli/spore_stims/simple_16_A_c.gif","left",""
"","null","html-keyboard-response","52","183887","0.0-14.0-0.4","SS1613098743872","","","null","","","","","<p><img src= images/blank.png width =""200"" height = ""200"" style = ""float:right""></p><p><img src=images/blank.png width =""800"" height = ""200""></p>","","","","","","","",""
"","675.0000000010768","sequential-stimulus-presentation","53","185381","0.0-14.0-1.4","SS1613098743872","trial","","40","800","1475.0000000010768","images/stimuli/spore_stims/simple_16_B_c.gif","images/stimuli/spore_stims/simple_16_A_c.gif","","","","","2","simple_similar","images/stimuli/spore_stims/simple_16_B_c.gif","right",""
"","null","html-keyboard-response","54","186349","0.0-14.0-0.5","SS1613098743872","","","null","","","","","<p><img src= images/blank.png width =""200"" height = ""200"" style = ""float:right""></p><p><img src=images/blank.png width =""800"" height = ""200""></p>","","","","","","","",""
"","505.00000000104774","sequential-stimulus-presentation","55","187702","0.0-14.0-1.5","SS1613098743872","trial","","40","800","1305.0000000010477","images/stimuli/spore_stims/simple_16_B_c.gif","images/stimuli/spore_stims/simple_16_A_c.gif","","","","","2","simple_similar","images/stimuli/spore_stims/simple_16_A_c.gif","left",""
"","null","html-keyboard-response","56","188843","0.0-14.0-0.6","SS1613098743872","","","null","","","","","<p><img src= images/blank.png width =""200"" height = ""200"" style = ""float:right""></p><p><img src=images/blank.png width =""800"" height = ""200""></p>","","","","","","","",""
"","579.9999999999418","sequential-stimulus-presentation","57","190235","0.0-14.0-1.6","SS1613098743872","trial","","40","800","1379.9999999999418","images/stimuli/spore_stims/simple_16_B_c.gif","images/stimuli/spore_stims/simple_16_A_c.gif","","","","","2","simple_similar","images/stimuli/spore_stims/simple_16_A_c.gif","left",""
"","null","html-keyboard-response","58","191415","0.0-14.0-0.7","SS1613098743872","","","null","","","","","<p><img src= images/blank.png width =""200"" height = ""200"" style = ""float:right""></p><p><img src=images/blank.png width =""800"" height = ""200""></p>","","","","","","","",""
"","727.999999999156","sequential-stimulus-presentation","59","192974","0.0-14.0-1.7","SS1613098743872","trial","","40","800","1527.999999999156","images/stimuli/spore_stims/simple_16_B_c.gif","images/stimuli/spore_stims/simple_16_A_c.gif","","","","","2","simple_similar","images/stimuli/spore_stims/simple_16_A_c.gif","left",""
"","960.0000000009604","html-keyboard-response","60","193943","0.0-15.0","SS1613098743872","pref_question","","97","","","","","<video width ='960' height = '540' style='padding-top:8%' autoplay muted><source src='images/stimuli/wall_pref.mp4' type='video/mp4'></video>","1","left","25%","2","","","",""
"","652.9999999984284","sequential-stimulus-presentation","61","195412","0.0-16.0","SS1613098743872","pref_reveal","","40","800","1452.9999999984284","null","null","","","","","2","","","","background"
"","null","html-keyboard-response","62","196250","0.0-17.0-0.0","SS1613098743872","","","null","","","","","<p><img src= images/blank.png width =""200"" height = ""200"" style = ""float:right""></p><p><img src=images/blank.png width =""800"" height = ""200""></p>","","","","","","","",""
"","594.0000000009604","sequential-stimulus-presentation","63","197655","0.0-17.0-1.0","SS1613098743872","trial","","40","800","1394.0000000009604","images/stimuli/spore_stims/complex_03_B_c.gif","images/stimuli/spore_stims/complex_03_A_c.gif","","","","","3","complex_similar","images/stimuli/spore_stims/complex_03_A_c.gif","right",""
"","null","html-keyboard-response","64","198570","0.0-17.0-0.1","SS1613098743872","","","null","","","","","<p><img src= images/blank.png width =""200"" height = ""200"" style = ""float:right""></p><p><img src=images/blank.png width =""800"" height = ""200""></p>","","","","","","","",""
"","399.99999999962165","sequential-stimulus-presentation","65","199803","0.0-17.0-1.1","SS1613098743872","trial","","40","800","1199.9999999996217","images/stimuli/spore_stims/complex_03_B_c.gif","images/stimuli/spore_stims/complex_03_A_c.gif","","","","","3","complex_similar","images/stimuli/spore_stims/complex_03_A_c.gif","right",""
"","null","html-keyboard-response","66","200984","0.0-17.0-0.2","SS1613098743872","","","null","","","","","<p><img src= images/blank.png width =""200"" height = ""200"" style = ""float:right""></p><p><img src=images/blank.png width =""800"" height = ""200""></p>","","","","","","","",""
"","556.999999998894","sequential-stimulus-presentation","67","202412","0.0-17.0-1.2","SS1613098743872","trial","","40","800","1356.999999998894","images/stimuli/spore_stims/complex_03_B_c.gif","images/stimuli/spore_stims/complex_03_A_c.gif","","","","","3","complex_similar","images/stimuli/spore_stims/complex_03_A_c.gif","right",""
"","null","html-keyboard-response","68","203695","0.0-17.0-0.3","SS1613098743872","","","null","","","","","<p><img src= images/blank.png width =""200"" height = ""200"" style = ""float:right""></p><p><img src=images/blank.png width =""800"" height = ""200""></p>","","","","","","","",""
"","1630.999999999418","sequential-stimulus-presentation","69","206205","0.0-17.0-1.3","SS1613098743872","trial","","40","800","2430.999999999418","images/stimuli/spore_stims/complex_03_B_c.gif","images/stimuli/spore_stims/complex_03_A_c.gif","","","","","3","complex_similar","images/stimuli/spore_stims/complex_03_A_c.gif","right",""
"","null","html-keyboard-response","70","207145","0.0-17.0-0.4","SS1613098743872","","","null","","","","","<p><img src= images/blank.png width =""200"" height = ""200"" style = ""float:right""></p><p><img src=images/blank.png width =""800"" height = ""200""></p>","","","","","","","",""
"","779.0000000004657","sequential-stimulus-presentation","71","208766","0.0-17.0-1.4","SS1613098743872","trial","","40","800","1579.0000000004657","images/stimuli/spore_stims/complex_03_B_c.gif","images/stimuli/spore_stims/complex_03_A_c.gif","","","","","3","complex_similar","images/stimuli/spore_stims/complex_03_A_c.gif","right",""
"","null","html-keyboard-response","72","209917","0.0-17.0-0.5","SS1613098743872","","","null","","","","","<p><img src= images/blank.png width =""200"" height = ""200"" style = ""float:right""></p><p><img src=images/blank.png width =""800"" height = ""200""></p>","","","","","","","",""
"","960.0000000009604","sequential-stimulus-presentation","73","211748","0.0-17.0-1.5","SS1613098743872","trial","","40","800","1760.0000000009604","images/stimuli/spore_stims/complex_03_B_c.gif","images/stimuli/spore_stims/complex_03_A_c.gif","","","","","3","complex_similar","images/stimuli/spore_stims/complex_03_B_c.gif","middle",""
"","null","html-keyboard-response","74","212580","0.0-17.0-0.6","SS1613098743872","","","null","","","","","<p><img src= images/blank.png width =""200"" height = ""200"" style = ""float:right""></p><p><img src=images/blank.png width =""800"" height = ""200""></p>","","","","","","","",""
"","619.0000000006112","sequential-stimulus-presentation","75","214211","0.0-17.0-1.6","SS1613098743872","trial","","40","800","1419.0000000006112","images/stimuli/spore_stims/complex_03_B_c.gif","images/stimuli/spore_stims/complex_03_A_c.gif","","","","","3","complex_similar","images/stimuli/spore_stims/complex_03_A_c.gif","right",""
"","null","html-keyboard-response","76","215314","0.0-17.0-0.7","SS1613098743872","","","null","","","","","<p><img src= images/blank.png width =""200"" height = ""200"" style = ""float:right""></p><p><img src=images/blank.png width =""800"" height = ""200""></p>","","","","","","","",""
"","549.0000000009022","sequential-stimulus-presentation","77","216674","0.0-17.0-1.7","SS1613098743872","trial","","40","800","1349.0000000009022","images/stimuli/spore_stims/complex_03_B_c.gif","images/stimuli/spore_stims/complex_03_A_c.gif","","","","","3","complex_similar","images/stimuli/spore_stims/complex_03_A_c.gif","right",""
"","1592.9999999989523","html-keyboard-response","78","218279","0.0-18.0","SS1613098743872","pref_question","","98","","","","","<video width ='960' height = '540' style='padding-top:8%' autoplay muted><source src='images/stimuli/wall_pref.mp4' type='video/mp4'></video>","2","middle","45%","3","","","",""
"","671.000000000291","sequential-stimulus-presentation","79","219766","0.0-19.0","SS1613098743872","pref_reveal","","40","800","1471.000000000291","null","null","","","","","3","","","","deviant"
"","null","html-keyboard-response","80","220951","0.0-20.0-0.0","SS1613098743872","","","null","","","","","<p><img src= images/blank.png width =""200"" height = ""200"" style = ""float:right""></p><p><img src=images/blank.png width =""800"" height = ""200""></p>","","","","","","","",""
"","515.0000000012224","sequential-stimulus-presentation","81","222275","0.0-20.0-1.0","SS1613098743872","trial","","40","800","1315.0000000012224","images/stimuli/spore_stims/complex_06_A_d.gif","images/stimuli/spore_stims/complex_03_B_a.gif","","","","","4","complex_dissimilar","images/stimuli/spore_stims/complex_03_B_a.gif","left",""
"","null","html-keyboard-response","82","223134","0.0-20.0-0.1","SS1613098743872","","","null","","","","","<p><img src= images/blank.png width =""200"" height = ""200"" style = ""float:right""></p><p><img src=images/blank.png width =""800"" height = ""200""></p>","","","","","","","",""
"","509.0000000000291","sequential-stimulus-presentation","83","224505","0.0-20.0-1.1","SS1613098743872","trial","","40","800","1309.000000000029","images/stimuli/spore_stims/complex_06_A_d.gif","images/stimuli/spore_stims/complex_03_B_a.gif","","","","","4","complex_dissimilar","images/stimuli/spore_stims/complex_03_B_a.gif","left",""
"","null","html-keyboard-response","84","225527","0.0-20.0-0.2","SS1613098743872","","","null","","","","","<p><img src= images/blank.png width =""200"" height = ""200"" style = ""float:right""></p><p><img src=images/blank.png width =""800"" height = ""200""></p>","","","","","","","",""
"","503.0000000006403","sequential-stimulus-presentation","85","226863","0.0-20.0-1.2","SS1613098743872","trial","","40","800","1303.0000000006403","images/stimuli/spore_stims/complex_06_A_d.gif","images/stimuli/spore_stims/complex_03_B_a.gif","","","","","4","complex_dissimilar","images/stimuli/spore_stims/complex_03_B_a.gif","left",""
"","null","html-keyboard-response","86","229122","0.0-20.0-0.3","SS1613098743872","","","null","","","","","<p><img src= images/blank.png width =""200"" height = ""200"" style = ""float:right""></p><p><img src=images/blank.png width =""800"" height = ""200""></p>","","","","","","","",""
"","37643","sequential-stimulus-presentation","87","267786","0.0-20.0-1.3","SS1613098743872","trial","","40","800","38443","images/stimuli/spore_stims/complex_06_A_d.gif","images/stimuli/spore_stims/complex_03_B_a.gif","","","","","4","complex_dissimilar","images/stimuli/spore_stims/complex_03_B_a.gif","left",""
"","null","html-keyboard-response","88","268941","0.0-20.0-0.4","SS1613098743872","","","null","","","","","<p><img src= images/blank.png width =""200"" height = ""200"" style = ""float:right""></p><p><img src=images/blank.png width =""800"" height = ""200""></p>","","","","","","","",""
"","457.00000000034925","sequential-stimulus-presentation","89","270351","0.0-20.0-1.4","SS1613098743872","trial","","40","800","1257.0000000003492","images/stimuli/spore_stims/complex_06_A_d.gif","images/stimuli/spore_stims/complex_03_B_a.gif","","","","","4","complex_dissimilar","images/stimuli/spore_stims/complex_03_B_a.gif","left",""
"","null","html-keyboard-response","90","271443","0.0-20.0-0.5","SS1613098743872","","","null","","","","","<p><img src= images/blank.png width =""200"" height = ""200"" style = ""float:right""></p><p><img src=images/blank.png width =""800"" height = ""200""></p>","","","","","","","",""
"","420.0000000000582","sequential-stimulus-presentation","91","272676","0.0-20.0-1.5","SS1613098743872","trial","","40","800","1220.0000000000582","images/stimuli/spore_stims/complex_06_A_d.gif","images/stimuli/spore_stims/complex_03_B_a.gif","","","","","4","complex_dissimilar","images/stimuli/spore_stims/complex_06_A_d.gif","right",""
"","null","html-keyboard-response","92","273498","0.0-20.0-0.6","SS1613098743872","","","null","","","","","<p><img src= images/blank.png width =""200"" height = ""200"" style = ""float:right""></p><p><img src=images/blank.png width =""800"" height = ""200""></p>","","","","","","","",""
"","304.0000000001164","sequential-stimulus-presentation","93","274661","0.0-20.0-1.6","SS1613098743872","trial","","40","800","1104.0000000001164","images/stimuli/spore_stims/complex_06_A_d.gif","images/stimuli/spore_stims/complex_03_B_a.gif","","","","","4","complex_dissimilar","images/stimuli/spore_stims/complex_03_B_a.gif","left",""
"","null","html-keyboard-response","94","275555","0.0-20.0-0.7","SS1613098743872","","","null","","","","","<p><img src= images/blank.png width =""200"" height = ""200"" style = ""float:right""></p><p><img src=images/blank.png width =""800"" height = ""200""></p>","","","","","","","",""
"","895.0000000004657","sequential-stimulus-presentation","95","277280","0.0-20.0-1.7","SS1613098743872","trial","","40","800","1695.0000000004657","images/stimuli/spore_stims/complex_06_A_d.gif","images/stimuli/spore_stims/complex_03_B_a.gif","","","","","4","complex_dissimilar","images/stimuli/spore_stims/complex_03_B_a.gif","left",""
"","1212.000000001397","html-keyboard-response","96","278498","0.0-21.0","SS1613098743872","pref_question","","97","","","","","<video width ='960' height = '540' style='padding-top:8%' autoplay muted><source src='images/stimuli/wall_pref.mp4' type='video/mp4'></video>","1","left","25%","4","","","",""
"","507.000000001397","sequential-stimulus-presentation","97","279819","0.0-22.0","SS1613098743872","pref_reveal","","40","800","1307.000000001397","null","null","","","","","4","","","","background"
"","null","html-keyboard-response","98","281076","0.0-23.0-0.0","SS1613098743872","","","null","","","","","<p><img src= images/blank.png width =""200"" height = ""200"" style = ""float:right""></p><p><img src=images/blank.png width =""800"" height = ""200""></p>","","","","","","","",""
"","604.9999999995925","sequential-stimulus-presentation","99","282495","0.0-23.0-1.0","SS1613098743872","trial","","40","800","1404.9999999995925","images/stimuli/spore_stims/simple_06_A_d.gif","images/stimuli/spore_stims/simple_06_B_d.gif","","","","","5","simple_similar","images/stimuli/spore_stims/simple_06_B_d.gif","right",""
"","null","html-keyboard-response","100","283652","0.0-23.0-0.1","SS1613098743872","","","null","","","","","<p><img src= images/blank.png width =""200"" height = ""200"" style = ""float:right""></p><p><img src=images/blank.png width =""800"" height = ""200""></p>","","","","","","","",""
"","427.9999999998836","sequential-stimulus-presentation","101","284923","0.0-23.0-1.1","SS1613098743872","trial","","40","800","1227.9999999998836","images/stimuli/spore_stims/simple_06_A_d.gif","images/stimuli/spore_stims/simple_06_B_d.gif","","","","","5","simple_similar","images/stimuli/spore_stims/simple_06_B_d.gif","right",""
"","null","html-keyboard-response","102","285740","0.0-23.0-0.2","SS1613098743872","","","null","","","","","<p><img src= images/blank.png width =""200"" height = ""200"" style = ""float:right""></p><p><img src=images/blank.png width =""800"" height = ""200""></p>","","","","","","","",""
"","361.0000000008149","sequential-stimulus-presentation","103","286954","0.0-23.0-1.2","SS1613098743872","trial","","40","800","1161.000000000815","images/stimuli/spore_stims/simple_06_A_d.gif","images/stimuli/spore_stims/simple_06_B_d.gif","","","","","5","simple_similar","images/stimuli/spore_stims/simple_06_A_d.gif","left",""
"","null","html-keyboard-response","104","288188","0.0-23.0-0.3","SS1613098743872","","","null","","","","","<p><img src= images/blank.png width =""200"" height = ""200"" style = ""float:right""></p><p><img src=images/blank.png width =""800"" height = ""200""></p>","","","","","","","",""
"","209.0000000007567","sequential-stimulus-presentation","105","289275","0.0-23.0-1.3","SS1613098743872","trial","","40","800","1009.0000000007567","images/stimuli/spore_stims/simple_06_A_d.gif","images/stimuli/spore_stims/simple_06_B_d.gif","","","","","5","simple_similar","images/stimuli/spore_stims/simple_06_B_d.gif","right",""
"","null","html-keyboard-response","106","290494","0.0-23.0-0.4","SS1613098743872","","","null","","","","","<p><img src= images/blank.png width =""200"" height = ""200"" style = ""float:right""></p><p><img src=images/blank.png width =""800"" height = ""200""></p>","","","","","","","",""
"","343.0000000007567","sequential-stimulus-presentation","107","291817","0.0-23.0-1.4","SS1613098743872","trial","","40","800","1143.0000000007567","images/stimuli/spore_stims/simple_06_A_d.gif","images/stimuli/spore_stims/simple_06_B_d.gif","","","","","5","simple_similar","images/stimuli/spore_stims/simple_06_B_d.gif","right",""
"","null","html-keyboard-response","108","292847","0.0-23.0-0.5","SS1613098743872","","","null","","","","","<p><img src= images/blank.png width =""200"" height = ""200"" style = ""float:right""></p><p><img src=images/blank.png width =""800"" height = ""200""></p>","","","","","","","",""
"","494.99999999901047","sequential-stimulus-presentation","109","294164","0.0-23.0-1.5","SS1613098743872","trial","","40","800","1294.9999999990105","images/stimuli/spore_stims/simple_06_A_d.gif","images/stimuli/spore_stims/simple_06_B_d.gif","","","","","5","simple_similar","images/stimuli/spore_stims/simple_06_B_d.gif","right",""
"","null","html-keyboard-response","110","295314","0.0-23.0-0.6","SS1613098743872","","","null","","","","","<p><img src= images/blank.png width =""200"" height = ""200"" style = ""float:right""></p><p><img src=images/blank.png width =""800"" height = ""200""></p>","","","","","","","",""
"","1582.000000000291","sequential-stimulus-presentation","111","297739","0.0-23.0-1.6","SS1613098743872","trial","","40","800","2382.000000000291","images/stimuli/spore_stims/simple_06_A_d.gif","images/stimuli/spore_stims/simple_06_B_d.gif","","","","","5","simple_similar","images/stimuli/spore_stims/simple_06_B_d.gif","right",""
"","null","html-keyboard-response","112","298781","0.0-23.0-0.7","SS1613098743872","","","null","","","","","<p><img src= images/blank.png width =""200"" height = ""200"" style = ""float:right""></p><p><img src=images/blank.png width =""800"" height = ""200""></p>","","","","","","","",""
"","10076.000000000931","sequential-stimulus-presentation","113","309702","0.0-23.0-1.7","SS1613098743872","trial","","40","800","10876.000000000931","images/stimuli/spore_stims/simple_06_A_d.gif","images/stimuli/spore_stims/simple_06_B_d.gif","","","","","5","simple_similar","images/stimuli/spore_stims/simple_06_B_d.gif","right",""
"","1296.000000000291","html-keyboard-response","114","311014","0.0-24.0","SS1613098743872","pref_question","","97","","","","","<video width ='960' height = '540' style='padding-top:8%' autoplay muted><source src='images/stimuli/wall_pref.mp4' type='video/mp4'></video>","1","left","25%","5","","","",""
"","1450.9999999990687","sequential-stimulus-presentation","115","313286","0.0-25.0","SS1613098743872","pref_reveal","","40","800","2250.9999999990687","null","null","","","","","5","","","","deviant"
"","null","html-keyboard-response","116","314236","0.0-26.0-0.0","SS1613098743872","","","null","","","","","<p><img src= images/blank.png width =""200"" height = ""200"" style = ""float:right""></p><p><img src=images/blank.png width =""800"" height = ""200""></p>","","","","","","","",""
"","485.0000000005821","sequential-stimulus-presentation","117","315594","0.0-26.0-1.0","SS1613098743872","trial","","40","800","1285.000000000582","images/stimuli/spore_stims/simple_18_B_c.gif","images/stimuli/spore_stims/simple_13_B_a.gif","","","","","6","simple_dissimilar","images/stimuli/spore_stims/simple_13_B_a.gif","right",""
"","null","html-keyboard-response","118","316696","0.0-26.0-0.1","SS1613098743872","","","null","","","","","<p><img src= images/blank.png width =""200"" height = ""200"" style = ""float:right""></p><p><img src=images/blank.png width =""800"" height = ""200""></p>","","","","","","","",""
"","353.9999999993597","sequential-stimulus-presentation","119","317889","0.0-26.0-1.1","SS1613098743872","trial","","40","800","1153.9999999993597","images/stimuli/spore_stims/simple_18_B_c.gif","images/stimuli/spore_stims/simple_13_B_a.gif","","","","","6","simple_dissimilar","images/stimuli/spore_stims/simple_13_B_a.gif","right",""
"","null","html-keyboard-response","120","319164","0.0-26.0-0.2","SS1613098743872","","","null","","","","","<p><img src= images/blank.png width =""200"" height = ""200"" style = ""float:right""></p><p><img src=images/blank.png width =""800"" height = ""200""></p>","","","","","","","",""
"","293.9999999998836","sequential-stimulus-presentation","121","320284","0.0-26.0-1.2","SS1613098743872","trial","","40","800","1093.9999999998836","images/stimuli/spore_stims/simple_18_B_c.gif","images/stimuli/spore_stims/simple_13_B_a.gif","","","","","6","simple_dissimilar","images/stimuli/spore_stims/simple_13_B_a.gif","right",""
"","null","html-keyboard-response","122","321397","0.0-26.0-0.3","SS1613098743872","","","null","","","","","<p><img src= images/blank.png width =""200"" height = ""200"" style = ""float:right""></p><p><img src=images/blank.png width =""800"" height = ""200""></p>","","","","","","","",""
"","307.0000000006985","sequential-stimulus-presentation","123","322624","0.0-26.0-1.3","SS1613098743872","trial","","40","800","1107.0000000006985","images/stimuli/spore_stims/simple_18_B_c.gif","images/stimuli/spore_stims/simple_13_B_a.gif","","","","","6","simple_dissimilar","images/stimuli/spore_stims/simple_13_B_a.gif","right",""
"","null","html-keyboard-response","124","323546","0.0-26.0-0.4","SS1613098743872","","","null","","","","","<p><img src= images/blank.png width =""200"" height = ""200"" style = ""float:right""></p><p><img src=images/blank.png width =""800"" height = ""200""></p>","","","","","","","",""
"","99.00000000017462","sequential-stimulus-presentation","125","324517","0.0-26.0-1.4","SS1613098743872","trial","","40","800","899.0000000001746","images/stimuli/spore_stims/simple_18_B_c.gif","images/stimuli/spore_stims/simple_13_B_a.gif","","","","","6","simple_dissimilar","images/stimuli/spore_stims/simple_13_B_a.gif","right",""
"","null","html-keyboard-response","126","325333","0.0-26.0-0.5","SS1613098743872","","","null","","","","","<p><img src= images/blank.png width =""200"" height = ""200"" style = ""float:right""></p><p><img src=images/blank.png width =""800"" height = ""200""></p>","","","","","","","",""
"","1677.9999999998836","sequential-stimulus-presentation","127","327868","0.0-26.0-1.5","SS1613098743872","trial","","40","800","2477.9999999998836","images/stimuli/spore_stims/simple_18_B_c.gif","images/stimuli/spore_stims/simple_13_B_a.gif","","","","","6","simple_dissimilar","images/stimuli/spore_stims/simple_13_B_a.gif","right",""
"","null","html-keyboard-response","128","328840","0.0-26.0-0.6","SS1613098743872","","","null","","","","","<p><img src= images/blank.png width =""200"" height = ""200"" style = ""float:right""></p><p><img src=images/blank.png width =""800"" height = ""200""></p>","","","","","","","",""
"","413.99999999883585","sequential-stimulus-presentation","129","330119","0.0-26.0-1.6","SS1613098743872","trial","","40","800","1213.9999999988358","images/stimuli/spore_stims/simple_18_B_c.gif","images/stimuli/spore_stims/simple_13_B_a.gif","","","","","6","simple_dissimilar","images/stimuli/spore_stims/simple_18_B_c.gif","middle",""
"","null","html-keyboard-response","130","331164","0.0-26.0-0.7","SS1613098743872","","","null","","","","","<p><img src= images/blank.png width =""200"" height = ""200"" style = ""float:right""></p><p><img src=images/blank.png width =""800"" height = ""200""></p>","","","","","","","",""
"","265.99999999959255","sequential-stimulus-presentation","131","332288","0.0-26.0-1.7","SS1613098743872","trial","","40","800","1065.9999999995925","images/stimuli/spore_stims/simple_18_B_c.gif","images/stimuli/spore_stims/simple_13_B_a.gif","","","","","6","simple_dissimilar","images/stimuli/spore_stims/simple_13_B_a.gif","right",""
"","3655.9999999990105","html-keyboard-response","132","335957","0.0-27.0","SS1613098743872","pref_question","","97","","","","","<video width ='960' height = '540' style='padding-top:8%' autoplay muted><source src='images/stimuli/wall_pref.mp4' type='video/mp4'></video>","1","left","25%","6","","","",""
"","1369.000000000582","sequential-stimulus-presentation","133","338143","0.0-28.0","SS1613098743872","pref_reveal","","40","800","2169.000000000582","null","null","","","","","6","","","","novel"
"","null","html-keyboard-response","134","339137","0.0-29.0-0.0","SS1613098743872","","","null","","","","","<p><img src= images/blank.png width =""200"" height = ""200"" style = ""float:right""></p><p><img src=images/blank.png width =""800"" height = ""200""></p>","","","","","","","",""
"","421.99999999871943","sequential-stimulus-presentation","135","340384","0.0-29.0-1.0","SS1613098743872","trial","","40","800","1221.9999999987194","images/stimuli/spore_stims/complex_11_A_a.gif","images/stimuli/spore_stims/complex_11_B_a.gif","","","","","7","complex_similar","images/stimuli/spore_stims/complex_11_B_a.gif","right",""
"","null","html-keyboard-response","136","341510","0.0-29.0-0.1","SS1613098743872","","","null","","","","","<p><img src= images/blank.png width =""200"" height = ""200"" style = ""float:right""></p><p><img src=images/blank.png width =""800"" height = ""200""></p>","","","","","","","",""
"","119716.00000000035","sequential-stimulus-presentation","137","462100","0.0-29.0-1.1","SS1613098743872","trial","","40","800","120516.00000000035","images/stimuli/spore_stims/complex_11_A_a.gif","images/stimuli/spore_stims/complex_11_B_a.gif","","","","","7","complex_similar","images/stimuli/spore_stims/complex_11_B_a.gif","right",""
"","null","html-keyboard-response","138","463126","0.0-29.0-0.2","SS1613098743872","","","null","","","","","<p><img src= images/blank.png width =""200"" height = ""200"" style = ""float:right""></p><p><img src=images/blank.png width =""800"" height = ""200""></p>","","","","","","","",""
"","130.00000000104774","sequential-stimulus-presentation","139","464088","0.0-29.0-1.2","SS1613098743872","trial","","40","800","930.0000000010477","images/stimuli/spore_stims/complex_11_A_a.gif","images/stimuli/spore_stims/complex_11_B_a.gif","","","","","7","complex_similar","images/stimuli/spore_stims/complex_11_B_a.gif","right",""
"","null","html-keyboard-response","140","465164","0.0-29.0-0.3","SS1613098743872","","","null","","","","","<p><img src= images/blank.png width =""200"" height = ""200"" style = ""float:right""></p><p><img src=images/blank.png width =""800"" height = ""200""></p>","","","","","","","",""
"","167.99999999965075","sequential-stimulus-presentation","141","466148","0.0-29.0-1.3","SS1613098743872","trial","","40","800","967.9999999996508","images/stimuli/spore_stims/complex_11_A_a.gif","images/stimuli/spore_stims/complex_11_B_a.gif","","","","","7","complex_similar","images/stimuli/spore_stims/complex_11_B_a.gif","right",""
"","null","html-keyboard-response","142","467199","0.0-29.0-0.4","SS1613098743872","","","null","","","","","<p><img src= images/blank.png width =""200"" height = ""200"" style = ""float:right""></p><p><img src=images/blank.png width =""800"" height = ""200""></p>","","","","","","","",""
"","43.999999999883585","sequential-stimulus-presentation","143","468083","0.0-29.0-1.4","SS1613098743872","trial","","40","800","843.9999999998836","images/stimuli/spore_stims/complex_11_A_a.gif","images/stimuli/spore_stims/complex_11_B_a.gif","","","","","7","complex_similar","images/stimuli/spore_stims/complex_11_B_a.gif","right",""
"","null","html-keyboard-response","144","468957","0.0-29.0-0.5","SS1613098743872","","","null","","","","","<p><img src= images/blank.png width =""200"" height = ""200"" style = ""float:right""></p><p><img src=images/blank.png width =""800"" height = ""200""></p>","","","","","","","",""
"","7381.999999999593","sequential-stimulus-presentation","145","477189","0.0-29.0-1.5","SS1613098743872","trial","","40","800","8181.999999999593","images/stimuli/spore_stims/complex_11_A_a.gif","images/stimuli/spore_stims/complex_11_B_a.gif","","","","","7","complex_similar","images/stimuli/spore_stims/complex_11_B_a.gif","right",""
"","null","html-keyboard-response","146","478120","0.0-29.0-0.6","SS1613098743872","","","null","","","","","<p><img src= images/blank.png width =""200"" height = ""200"" style = ""float:right""></p><p><img src=images/blank.png width =""800"" height = ""200""></p>","","","","","","","",""
"","613.0000000012224","sequential-stimulus-presentation","147","479560","0.0-29.0-1.6","SS1613098743872","trial","","40","800","1413.0000000012224","images/stimuli/spore_stims/complex_11_A_a.gif","images/stimuli/spore_stims/complex_11_B_a.gif","","","","","7","complex_similar","images/stimuli/spore_stims/complex_11_A_a.gif","left",""
"","null","html-keyboard-response","148","480863","0.0-29.0-0.7","SS1613098743872","","","null","","","","","<p><img src= images/blank.png width =""200"" height = ""200"" style = ""float:right""></p><p><img src=images/blank.png width =""800"" height = ""200""></p>","","","","","","","",""
"","217.00000000052387","sequential-stimulus-presentation","149","481932","0.0-29.0-1.7","SS1613098743872","trial","","40","800","1017.0000000005239","images/stimuli/spore_stims/complex_11_A_a.gif","images/stimuli/spore_stims/complex_11_B_a.gif","","","","","7","complex_similar","images/stimuli/spore_stims/complex_11_B_a.gif","right",""
"","1209.0000000006985","html-keyboard-response","150","483156","0.0-30.0","SS1613098743872","pref_question","","97","","","","","<video width ='960' height = '540' style='padding-top:8%' autoplay muted><source src='images/stimuli/wall_pref.mp4' type='video/mp4'></video>","1","left","25%","7","","","",""
"","1338.0000000015716","sequential-stimulus-presentation","151","485392","0.0-31.0","SS1613098743872","pref_reveal","","40","800","2138.0000000015716","null","null","","","","","7","","","","deviant"
"","null","html-keyboard-response","152","486570","0.0-32.0-0.0","SS1613098743872","","","null","","","","","<p><img src= images/blank.png width =""200"" height = ""200"" style = ""float:right""></p><p><img src=images/blank.png width =""800"" height = ""200""></p>","","","","","","","",""
"","268.0000000000582","sequential-stimulus-presentation","153","487702","0.0-32.0-1.0","SS1613098743872","trial","","40","800","1068.0000000000582","images/stimuli/spore_stims/complex_06_B_a.gif","images/stimuli/spore_stims/complex_09_A_c.gif","","","","","8","complex_dissimilar","images/stimuli/spore_stims/complex_09_A_c.gif","right",""
"","null","html-keyboard-response","154","488909","0.0-32.0-0.1","SS1613098743872","","","null","","","","","<p><img src= images/blank.png width =""200"" height = ""200"" style = ""float:right""></p><p><img src=images/blank.png width =""800"" height = ""200""></p>","","","","","","","",""
"","36.00000000005821","sequential-stimulus-presentation","155","489774","0.0-32.0-1.1","SS1613098743872","trial","","40","800","836.0000000000582","images/stimuli/spore_stims/complex_06_B_a.gif","images/stimuli/spore_stims/complex_09_A_c.gif","","","","","8","complex_dissimilar","images/stimuli/spore_stims/complex_09_A_c.gif","right",""
"","null","html-keyboard-response","156","490711","0.0-32.0-0.2","SS1613098743872","","","null","","","","","<p><img src= images/blank.png width =""200"" height = ""200"" style = ""float:right""></p><p><img src=images/blank.png width =""800"" height = ""200""></p>","","","","","","","",""
"","233.9999999985448","sequential-stimulus-presentation","157","491813","0.0-32.0-1.2","SS1613098743872","trial","","40","800","1033.9999999985448","images/stimuli/spore_stims/complex_06_B_a.gif","images/stimuli/spore_stims/complex_09_A_c.gif","","","","","8","complex_dissimilar","images/stimuli/spore_stims/complex_09_A_c.gif","right",""
"","null","html-keyboard-response","158","493120","0.0-32.0-0.3","SS1613098743872","","","null","","","","","<p><img src= images/blank.png width =""200"" height = ""200"" style = ""float:right""></p><p><img src=images/blank.png width =""800"" height = ""200""></p>","","","","","","","",""
"","41.00000000104774","sequential-stimulus-presentation","159","493996","0.0-32.0-1.3","SS1613098743872","trial","","40","800","841.0000000010477","images/stimuli/spore_stims/complex_06_B_a.gif","images/stimuli/spore_stims/complex_09_A_c.gif","","","","","8","complex_dissimilar","images/stimuli/spore_stims/complex_09_A_c.gif","right",""
"","null","html-keyboard-response","160","494904","0.0-32.0-0.4","SS1613098743872","","","null","","","","","<p><img src= images/blank.png width =""200"" height = ""200"" style = ""float:right""></p><p><img src=images/blank.png width =""800"" height = ""200""></p>","","","","","","","",""
"","1489.000000001397","sequential-stimulus-presentation","161","497213","0.0-32.0-1.4","SS1613098743872","trial","","40","800","2289.000000001397","images/stimuli/spore_stims/complex_06_B_a.gif","images/stimuli/spore_stims/complex_09_A_c.gif","","","","","8","complex_dissimilar","images/stimuli/spore_stims/complex_06_B_a.gif","left",""
"","null","html-keyboard-response","162","498105","0.0-32.0-0.5","SS1613098743872","","","null","","","","","<p><img src= images/blank.png width =""200"" height = ""200"" style = ""float:right""></p><p><img src=images/blank.png width =""800"" height = ""200""></p>","","","","","","","",""
"","138.0000000008149","sequential-stimulus-presentation","163","499107","0.0-32.0-1.5","SS1613098743872","trial","","40","800","938.0000000008149","images/stimuli/spore_stims/complex_06_B_a.gif","images/stimuli/spore_stims/complex_09_A_c.gif","","","","","8","complex_dissimilar","images/stimuli/spore_stims/complex_09_A_c.gif","right",""
"","null","html-keyboard-response","164","499986","0.0-32.0-0.6","SS1613098743872","","","null","","","","","<p><img src= images/blank.png width =""200"" height = ""200"" style = ""float:right""></p><p><img src=images/blank.png width =""800"" height = ""200""></p>","","","","","","","",""
"","75.00000000069849","sequential-stimulus-presentation","165","500887","0.0-32.0-1.6","SS1613098743872","trial","","40","800","875.0000000006985","images/stimuli/spore_stims/complex_06_B_a.gif","images/stimuli/spore_stims/complex_09_A_c.gif","","","","","8","complex_dissimilar","images/stimuli/spore_stims/complex_09_A_c.gif","right",""
"","null","html-keyboard-response","166","502170","0.0-32.0-0.7","SS1613098743872","","","null","","","","","<p><img src= images/blank.png width =""200"" height = ""200"" style = ""float:right""></p><p><img src=images/blank.png width =""800"" height = ""200""></p>","","","","","","","",""
"","22.999999999185093","sequential-stimulus-presentation","167","503049","0.0-32.0-1.7","SS1613098743872","trial","","40","800","822.9999999991851","images/stimuli/spore_stims/complex_06_B_a.gif","images/stimuli/spore_stims/complex_09_A_c.gif","","","","","8","complex_dissimilar","images/stimuli/spore_stims/complex_09_A_c.gif","right",""
"","1110.000000000582","html-keyboard-response","168","504168","0.0-33.0","SS1613098743872","pref_question","","99","","","","","<video width ='960' height = '540' style='padding-top:8%' autoplay muted><source src='images/stimuli/wall_pref.mp4' type='video/mp4'></video>","3","right","66%","8","","","",""
"","676.0000000012806","sequential-stimulus-presentation","169","505685","0.0-34.0","SS1613098743872","pref_reveal","","40","800","1476.0000000012806","null","null","","","","","8","","","","background"
"","null","html-keyboard-response","170","506576","0.0-35.0-0.0","SS1613098743872","","","null","","","","","<p><img src= images/blank.png width =""200"" height = ""200"" style = ""float:right""></p><p><img src=images/blank.png width =""800"" height = ""200""></p>","","","","","","","",""
"","415.9999999993015","sequential-stimulus-presentation","171","507815","0.0-35.0-1.0","SS1613098743872","trial","","40","800","1215.9999999993015","images/stimuli/spore_stims/simple_17_A_a.gif","images/stimuli/spore_stims/simple_17_B_a.gif","","","","","9","simple_similar","images/stimuli/spore_stims/simple_17_B_a.gif","left",""
"","null","html-keyboard-response","172","509167","0.0-35.0-0.1","SS1613098743872","","","null","","","","","<p><img src= images/blank.png width =""200"" height = ""200"" style = ""float:right""></p><p><img src=images/blank.png width =""800"" height = ""200""></p>","","","","","","","",""
"","70.0000000015134","sequential-stimulus-presentation","173","510052","0.0-35.0-1.1","SS1613098743872","trial","","40","800","870.0000000015134","images/stimuli/spore_stims/simple_17_A_a.gif","images/stimuli/spore_stims/simple_17_B_a.gif","","","","","9","simple_similar","images/stimuli/spore_stims/simple_17_B_a.gif","left",""
"","null","html-keyboard-response","174","511239","0.0-35.0-0.2","SS1613098743872","","","null","","","","","<p><img src= images/blank.png width =""200"" height = ""200"" style = ""float:right""></p><p><img src=images/blank.png width =""800"" height = ""200""></p>","","","","","","","",""
"","55.999999998603016","sequential-stimulus-presentation","175","512128","0.0-35.0-1.2","SS1613098743872","trial","","40","800","855.999999998603","images/stimuli/spore_stims/simple_17_A_a.gif","images/stimuli/spore_stims/simple_17_B_a.gif","","","","","9","simple_similar","images/stimuli/spore_stims/simple_17_B_a.gif","left",""
"","null","html-keyboard-response","176","513011","0.0-35.0-0.3","SS1613098743872","","","null","","","","","<p><img src= images/blank.png width =""200"" height = ""200"" style = ""float:right""></p><p><img src=images/blank.png width =""800"" height = ""200""></p>","","","","","","","",""
"","40.00000000081491","sequential-stimulus-presentation","177","513862","0.0-35.0-1.3","SS1613098743872","trial","","40","800","840.0000000008149","images/stimuli/spore_stims/simple_17_A_a.gif","images/stimuli/spore_stims/simple_17_B_a.gif","","","","","9","simple_similar","images/stimuli/spore_stims/simple_17_A_a.gif","right",""
"","null","html-keyboard-response","178","514850","0.0-35.0-0.4","SS1613098743872","","","null","","","","","<p><img src= images/blank.png width =""200"" height = ""200"" style = ""float:right""></p><p><img src=images/blank.png width =""800"" height = ""200""></p>","","","","","","","",""
"","272.0000000008149","sequential-stimulus-presentation","179","516042","0.0-35.0-1.4","SS1613098743872","trial","","40","800","1072.000000000815","images/stimuli/spore_stims/simple_17_A_a.gif","images/stimuli/spore_stims/simple_17_B_a.gif","","","","","9","simple_similar","images/stimuli/spore_stims/simple_17_B_a.gif","left",""
"","null","html-keyboard-response","180","517150","0.0-35.0-0.5","SS1613098743872","","","null","","","","","<p><img src= images/blank.png width =""200"" height = ""200"" style = ""float:right""></p><p><img src=images/blank.png width =""800"" height = ""200""></p>","","","","","","","",""
"","1637.9999999990687","sequential-stimulus-presentation","181","519628","0.0-35.0-1.5","SS1613098743872","trial","","40","800","2437.9999999990687","images/stimuli/spore_stims/simple_17_A_a.gif","images/stimuli/spore_stims/simple_17_B_a.gif","","","","","9","simple_similar","images/stimuli/spore_stims/simple_17_B_a.gif","left",""
"","null","html-keyboard-response","182","520658","0.0-35.0-0.6","SS1613098743872","","","null","","","","","<p><img src= images/blank.png width =""200"" height = ""200"" style = ""float:right""></p><p><img src=images/blank.png width =""800"" height = ""200""></p>","","","","","","","",""
"","93174.99999999919","sequential-stimulus-presentation","183","614670","0.0-35.0-1.6","SS1613098743872","trial","","40","800","93974.99999999919","images/stimuli/spore_stims/simple_17_A_a.gif","images/stimuli/spore_stims/simple_17_B_a.gif","","","","","9","simple_similar","images/stimuli/spore_stims/simple_17_B_a.gif","left",""
"","null","html-keyboard-response","184","615847","0.0-35.0-0.7","SS1613098743872","","","null","","","","","<p><img src= images/blank.png width =""200"" height = ""200"" style = ""float:right""></p><p><img src=images/blank.png width =""800"" height = ""200""></p>","","","","","","","",""
"","181.99999999883585","sequential-stimulus-presentation","185","616886","0.0-35.0-1.7","SS1613098743872","trial","","40","800","981.9999999988358","images/stimuli/spore_stims/simple_17_A_a.gif","images/stimuli/spore_stims/simple_17_B_a.gif","","","","","9","simple_similar","images/stimuli/spore_stims/simple_17_B_a.gif","left",""
"","1297.0000000004657","html-keyboard-response","186","618257","0.0-36.0","SS1613098743872","pref_question","","97","","","","","<video width ='960' height = '540' style='padding-top:8%' autoplay muted><source src='images/stimuli/wall_pref.mp4' type='video/mp4'></video>","1","left","25%","9","","","",""
"","710.9999999994179","sequential-stimulus-presentation","187","619806","0.0-37.0","SS1613098743872","pref_reveal","","40","800","1510.999999999418","null","null","","","","","9","","","","background"
"","null","html-keyboard-response","188","620638","0.0-38.0-0.0","SS1613098743872","","","null","","","","","<p><img src= images/blank.png width =""200"" height = ""200"" style = ""float:right""></p><p><img src=images/blank.png width =""800"" height = ""200""></p>","","","","","","","",""
"","915.0000000008149","sequential-stimulus-presentation","189","622363","0.0-38.0-1.0","SS1613098743872","trial","","40","800","1715.000000000815","images/stimuli/spore_stims/complex_16_A_a.gif","images/stimuli/spore_stims/complex_16_B_a.gif","","","","","10","complex_similar","images/stimuli/spore_stims/complex_16_B_a.gif","right",""
"","null","html-keyboard-response","190","623222","0.0-38.0-0.1","SS1613098743872","","","null","","","","","<p><img src= images/blank.png width =""200"" height = ""200"" style = ""float:right""></p><p><img src=images/blank.png width =""800"" height = ""200""></p>","","","","","","","",""
"","122.00000000128057","sequential-stimulus-presentation","191","624221","0.0-38.0-1.1","SS1613098743872","trial","","40","800","922.0000000012806","images/stimuli/spore_stims/complex_16_A_a.gif","images/stimuli/spore_stims/complex_16_B_a.gif","","","","","10","complex_similar","images/stimuli/spore_stims/complex_16_B_a.gif","right",""
"","null","html-keyboard-response","192","625307","0.0-38.0-0.2","SS1613098743872","","","null","","","","","<p><img src= images/blank.png width =""200"" height = ""200"" style = ""float:right""></p><p><img src=images/blank.png width =""800"" height = ""200""></p>","","","","","","","",""
"","1416.999999999418","sequential-stimulus-presentation","193","627559","0.0-38.0-1.2","SS1613098743872","trial","","40","800","2216.999999999418","images/stimuli/spore_stims/complex_16_A_a.gif","images/stimuli/spore_stims/complex_16_B_a.gif","","","","","10","complex_similar","images/stimuli/spore_stims/complex_16_B_a.gif","right",""
"","null","html-keyboard-response","194","628621","0.0-38.0-0.3","SS1613098743872","","","null","","","","","<p><img src= images/blank.png width =""200"" height = ""200"" style = ""float:right""></p><p><img src=images/blank.png width =""800"" height = ""200""></p>","","","","","","","",""
"","882.9999999998836","sequential-stimulus-presentation","195","630375","0.0-38.0-1.3","SS1613098743872","trial","","40","800","1682.9999999998836","images/stimuli/spore_stims/complex_16_A_a.gif","images/stimuli/spore_stims/complex_16_B_a.gif","","","","","10","complex_similar","images/stimuli/spore_stims/complex_16_B_a.gif","right",""
"","null","html-keyboard-response","196","631306","0.0-38.0-0.4","SS1613098743872","","","null","","","","","<p><img src= images/blank.png width =""200"" height = ""200"" style = ""float:right""></p><p><img src=images/blank.png width =""800"" height = ""200""></p>","","","","","","","",""
"","48206.00000000012","sequential-stimulus-presentation","197","681340","0.0-38.0-1.4","SS1613098743872","trial","","40","800","49006.00000000012","images/stimuli/spore_stims/complex_16_A_a.gif","images/stimuli/spore_stims/complex_16_B_a.gif","","","","","10","complex_similar","images/stimuli/spore_stims/complex_16_B_a.gif","right",""
"","null","html-keyboard-response","198","682607","0.0-38.0-0.5","SS1613098743872","","","null","","","","","<p><img src= images/blank.png width =""200"" height = ""200"" style = ""float:right""></p><p><img src=images/blank.png width =""800"" height = ""200""></p>","","","","","","","",""
"","76.99999999930151","sequential-stimulus-presentation","199","683519","0.0-38.0-1.5","SS1613098743872","trial","","40","800","876.9999999993015","images/stimuli/spore_stims/complex_16_A_a.gif","images/stimuli/spore_stims/complex_16_B_a.gif","","","","","10","complex_similar","images/stimuli/spore_stims/complex_16_B_a.gif","right",""
"","null","html-keyboard-response","200","684743","0.0-38.0-0.6","SS1613098743872","","","null","","","","","<p><img src= images/blank.png width =""200"" height = ""200"" style = ""float:right""></p><p><img src=images/blank.png width =""800"" height = ""200""></p>","","","","","","","",""
"","585.9999999993015","sequential-stimulus-presentation","201","686196","0.0-38.0-1.6","SS1613098743872","trial","","40","800","1385.9999999993015","images/stimuli/spore_stims/complex_16_A_a.gif","images/stimuli/spore_stims/complex_16_B_a.gif","","","","","10","complex_similar","images/stimuli/spore_stims/complex_16_B_a.gif","right",""
"","null","html-keyboard-response","202","687051","0.0-38.0-0.7","SS1613098743872","","","null","","","","","<p><img src= images/blank.png width =""200"" height = ""200"" style = ""float:right""></p><p><img src=images/blank.png width =""800"" height = ""200""></p>","","","","","","","",""
"","246.00000000104774","sequential-stimulus-presentation","203","688142","0.0-38.0-1.7","SS1613098743872","trial","","40","800","1046.0000000010477","images/stimuli/spore_stims/complex_16_A_a.gif","images/stimuli/spore_stims/complex_16_B_a.gif","","","","","10","complex_similar","images/stimuli/spore_stims/complex_16_A_a.gif","left",""
"","727.9999999991851","html-keyboard-response","204","688884","0.0-39.0","SS1613098743872","pref_question","","97","","","","","<video width ='960' height = '540' style='padding-top:8%' autoplay muted><source src='images/stimuli/wall_pref.mp4' type='video/mp4'></video>","1","left","25%","10","","","",""
"","320.9999999998836","sequential-stimulus-presentation","205","690022","0.0-40.0","SS1613098743872","pref_reveal","","40","800","1120.9999999998836","null","null","","","","","10","","","","deviant"
"","null","html-keyboard-response","206","691186","0.0-41.0-0.0","SS1613098743872","","","null","","","","","<p><img src= images/blank.png width =""200"" height = ""200"" style = ""float:right""></p><p><img src=images/blank.png width =""800"" height = ""200""></p>","","","","","","","",""
"","72423.0000000007","sequential-stimulus-presentation","207","764426","0.0-41.0-1.0","SS1613098743872","trial","","40","800","73223.0000000007","images/stimuli/spore_stims/complex_20_A_d.gif","images/stimuli/spore_stims/complex_01_A_c.gif","","","","","11","complex_dissimilar","images/stimuli/spore_stims/complex_01_A_c.gif","left",""
"","null","html-keyboard-response","208","765707","0.0-41.0-0.1","SS1613098743872","","","null","","","","","<p><img src= images/blank.png width =""200"" height = ""200"" style = ""float:right""></p><p><img src=images/blank.png width =""800"" height = ""200""></p>","","","","","","","",""
"","9.000000000116415","sequential-stimulus-presentation","209","766529","0.0-41.0-1.1","SS1613098743872","trial","","40","800","809.0000000001164","images/stimuli/spore_stims/complex_20_A_d.gif","images/stimuli/spore_stims/complex_01_A_c.gif","","","","","11","complex_dissimilar","images/stimuli/spore_stims/complex_01_A_c.gif","left",""
"","null","html-keyboard-response","210","767761","0.0-41.0-0.2","SS1613098743872","","","null","","","","","<p><img src= images/blank.png width =""200"" height = ""200"" style = ""float:right""></p><p><img src=images/blank.png width =""800"" height = ""200""></p>","","","","","","","",""
"","13282.999999999534","sequential-stimulus-presentation","211","781932","0.0-41.0-1.2","SS1613098743872","trial","","40","800","14082.999999999534","images/stimuli/spore_stims/complex_20_A_d.gif","images/stimuli/spore_stims/complex_01_A_c.gif","","","","","11","complex_dissimilar","images/stimuli/spore_stims/complex_01_A_c.gif","left",""
"","null","html-keyboard-response","212","782867","0.0-41.0-0.3","SS1613098743872","","","null","","","","","<p><img src= images/blank.png width =""200"" height = ""200"" style = ""float:right""></p><p><img src=images/blank.png width =""800"" height = ""200""></p>","","","","","","","",""
"","1154.9999999988358","sequential-stimulus-presentation","213","784850","0.0-41.0-1.3","SS1613098743872","trial","","40","800","1954.9999999988358","images/stimuli/spore_stims/complex_20_A_d.gif","images/stimuli/spore_stims/complex_01_A_c.gif","","","","","11","complex_dissimilar","images/stimuli/spore_stims/complex_01_A_c.gif","left",""
"","null","html-keyboard-response","214","785848","0.0-41.0-0.4","SS1613098743872","","","null","","","","","<p><img src= images/blank.png width =""200"" height = ""200"" style = ""float:right""></p><p><img src=images/blank.png width =""800"" height = ""200""></p>","","","","","","","",""
"","117.00000000011642","sequential-stimulus-presentation","215","786813","0.0-41.0-1.4","SS1613098743872","trial","","40","800","917.0000000001164","images/stimuli/spore_stims/complex_20_A_d.gif","images/stimuli/spore_stims/complex_01_A_c.gif","","","","","11","complex_dissimilar","images/stimuli/spore_stims/complex_20_A_d.gif","right",""
"","null","html-keyboard-response","216","787854","0.0-41.0-0.5","SS1613098743872","","","null","","","","","<p><img src= images/blank.png width =""200"" height = ""200"" style = ""float:right""></p><p><img src=images/blank.png width =""800"" height = ""200""></p>","","","","","","","",""
"","930.0000000002328","sequential-stimulus-presentation","217","789646","0.0-41.0-1.5","SS1613098743872","trial","","40","800","1730.0000000002328","images/stimuli/spore_stims/complex_20_A_d.gif","images/stimuli/spore_stims/complex_01_A_c.gif","","","","","11","complex_dissimilar","images/stimuli/spore_stims/complex_01_A_c.gif","left",""
"","null","html-keyboard-response","218","790924","0.0-41.0-0.6","SS1613098743872","","","null","","","","","<p><img src= images/blank.png width =""200"" height = ""200"" style = ""float:right""></p><p><img src=images/blank.png width =""800"" height = ""200""></p>","","","","","","","",""
"","728.0000000009313","sequential-stimulus-presentation","219","792477","0.0-41.0-1.6","SS1613098743872","trial","","40","800","1528.0000000009313","images/stimuli/spore_stims/complex_20_A_d.gif","images/stimuli/spore_stims/complex_01_A_c.gif","","","","","11","complex_dissimilar","images/stimuli/spore_stims/complex_01_A_c.gif","left",""
"","null","html-keyboard-response","220","793616","0.0-41.0-0.7","SS1613098743872","","","null","","","","","<p><img src= images/blank.png width =""200"" height = ""200"" style = ""float:right""></p><p><img src=images/blank.png width =""800"" height = ""200""></p>","","","","","","","",""
"","476.99999999883585","sequential-stimulus-presentation","221","794938","0.0-41.0-1.7","SS1613098743872","trial","","40","800","1276.9999999988358","images/stimuli/spore_stims/complex_20_A_d.gif","images/stimuli/spore_stims/complex_01_A_c.gif","","","","","11","complex_dissimilar","images/stimuli/spore_stims/complex_01_A_c.gif","left",""
"","931.0000000005821","html-keyboard-response","222","795883","0.0-42.0","SS1613098743872","pref_question","","97","","","","","<video width ='960' height = '540' style='padding-top:8%' autoplay muted><source src='images/stimuli/wall_pref.mp4' type='video/mp4'></video>","1","left","25%","11","","","",""
"","588.9999999998836","sequential-stimulus-presentation","223","797318","0.0-43.0","SS1613098743872","pref_reveal","","40","800","1388.9999999998836","null","null","","","","","11","","","","background"
"","null","html-keyboard-response","224","798456","0.0-44.0-0.0","SS1613098743872","","","null","","","","","<p><img src= images/blank.png width =""200"" height = ""200"" style = ""float:right""></p><p><img src=images/blank.png width =""800"" height = ""200""></p>","","","","","","","",""
"","498.9999999998836","sequential-stimulus-presentation","225","799780","0.0-44.0-1.0","SS1613098743872","trial","","40","800","1298.9999999998836","images/stimuli/spore_stims/complex_18_B_c.gif","images/stimuli/spore_stims/complex_18_A_c.gif","","","","","12","complex_similar","images/stimuli/spore_stims/complex_18_A_c.gif","left",""
"","null","html-keyboard-response","226","801050","0.0-44.0-0.1","SS1613098743872","","","null","","","","","<p><img src= images/blank.png width =""200"" height = ""200"" style = ""float:right""></p><p><img src=images/blank.png width =""800"" height = ""200""></p>","","","","","","","",""
"","61564.00000000035","sequential-stimulus-presentation","227","863443","0.0-44.0-1.1","SS1613098743872","trial","","40","800","62364.00000000035","images/stimuli/spore_stims/complex_18_B_c.gif","images/stimuli/spore_stims/complex_18_A_c.gif","","","","","12","complex_similar","images/stimuli/spore_stims/complex_18_A_c.gif","left",""
"","null","html-keyboard-response","228","864480","0.0-44.0-0.2","SS1613098743872","","","null","","","","","<p><img src= images/blank.png width =""200"" height = ""200"" style = ""float:right""></p><p><img src=images/blank.png width =""800"" height = ""200""></p>","","","","","","","",""
"","756.9999999995343","sequential-stimulus-presentation","229","866166","0.0-44.0-1.2","SS1613098743872","trial","","40","800","1556.9999999995343","images/stimuli/spore_stims/complex_18_B_c.gif","images/stimuli/spore_stims/complex_18_A_c.gif","","","","","12","complex_similar","images/stimuli/spore_stims/complex_18_A_c.gif","left",""
"","null","html-keyboard-response","230","866991","0.0-44.0-0.3","SS1613098743872","","","null","","","","","<p><img src= images/blank.png width =""200"" height = ""200"" style = ""float:right""></p><p><img src=images/blank.png width =""800"" height = ""200""></p>","","","","","","","",""
"","5.999999999301508","sequential-stimulus-presentation","231","867814","0.0-44.0-1.3","SS1613098743872","trial","","40","800","805.9999999993015","images/stimuli/spore_stims/complex_18_B_c.gif","images/stimuli/spore_stims/complex_18_A_c.gif","","","","","12","complex_similar","images/stimuli/spore_stims/complex_18_A_c.gif","left",""
"","null","html-keyboard-response","232","868863","0.0-44.0-0.4","SS1613098743872","","","null","","","","","<p><img src= images/blank.png width =""200"" height = ""200"" style = ""float:right""></p><p><img src=images/blank.png width =""800"" height = ""200""></p>","","","","","","","",""
"","869.9999999989523","sequential-stimulus-presentation","233","870564","0.0-44.0-1.4","SS1613098743872","trial","","40","800","1669.9999999989523","images/stimuli/spore_stims/complex_18_B_c.gif","images/stimuli/spore_stims/complex_18_A_c.gif","","","","","12","complex_similar","images/stimuli/spore_stims/complex_18_A_c.gif","left",""
"","null","html-keyboard-response","234","871878","0.0-44.0-0.5","SS1613098743872","","","null","","","","","<p><img src= images/blank.png width =""200"" height = ""200"" style = ""float:right""></p><p><img src=images/blank.png width =""800"" height = ""200""></p>","","","","","","","",""
"","882.9999999997672","sequential-stimulus-presentation","235","873573","0.0-44.0-1.5","SS1613098743872","trial","","40","800","1682.9999999997672","images/stimuli/spore_stims/complex_18_B_c.gif","images/stimuli/spore_stims/complex_18_A_c.gif","","","","","12","complex_similar","images/stimuli/spore_stims/complex_18_B_c.gif","right",""
"","null","html-keyboard-response","236","874836","0.0-44.0-0.6","SS1613098743872","","","null","","","","","<p><img src= images/blank.png width =""200"" height = ""200"" style = ""float:right""></p><p><img src=images/blank.png width =""800"" height = ""200""></p>","","","","","","","",""
"","195.99999999988358","sequential-stimulus-presentation","237","875850","0.0-44.0-1.6","SS1613098743872","trial","","40","800","995.9999999998836","images/stimuli/spore_stims/complex_18_B_c.gif","images/stimuli/spore_stims/complex_18_A_c.gif","","","","","12","complex_similar","images/stimuli/spore_stims/complex_18_A_c.gif","left",""
"","null","html-keyboard-response","238","876709","0.0-44.0-0.7","SS1613098743872","","","null","","","","","<p><img src= images/blank.png width =""200"" height = ""200"" style = ""float:right""></p><p><img src=images/blank.png width =""800"" height = ""200""></p>","","","","","","","",""
"","149958.00000000047","sequential-stimulus-presentation","239","1027524","0.0-44.0-1.7","SS1613098743872","trial","","40","800","150758.00000000047","images/stimuli/spore_stims/complex_18_B_c.gif","images/stimuli/spore_stims/complex_18_A_c.gif","","","","","12","complex_similar","images/stimuli/spore_stims/complex_18_A_c.gif","left",""
"","900.9999999997672","html-keyboard-response","240","1028448","0.0-45.0","SS1613098743872","pref_question","","97","","","","","<video width ='960' height = '540' style='padding-top:8%' autoplay muted><source src='images/stimuli/wall_pref.mp4' type='video/mp4'></video>","1","left","25%","12","","","",""
"","20.00000000046566","sequential-stimulus-presentation","241","1029297","0.0-46.0","SS1613098743872","pref_reveal","","40","800","820.0000000004657","null","null","","","","","12","","","","background"
"","null","html-keyboard-response","242","1030452","0.0-47.0-0.0","SS1613098743872","","","null","","","","","<p><img src= images/blank.png width =""200"" height = ""200"" style = ""float:right""></p><p><img src=images/blank.png width =""800"" height = ""200""></p>","","","","","","","",""
"","1207.0000000002328","sequential-stimulus-presentation","243","1032593","0.0-47.0-1.0","SS1613098743872","trial","","40","800","2007.0000000002328","images/stimuli/spore_stims/simple_20_B_b.gif","images/stimuli/spore_stims/simple_08_A_c.gif","","","","","13","simple_dissimilar","images/stimuli/spore_stims/simple_08_A_c.gif","middle",""
"","null","html-keyboard-response","244","1033443","0.0-47.0-0.1","SS1613098743872","","","null","","","","","<p><img src= images/blank.png width =""200"" height = ""200"" style = ""float:right""></p><p><img src=images/blank.png width =""800"" height = ""200""></p>","","","","","","","",""
"","478.0000000009313","sequential-stimulus-presentation","245","1034768","0.0-47.0-1.1","SS1613098743872","trial","","40","800","1278.0000000009313","images/stimuli/spore_stims/simple_20_B_b.gif","images/stimuli/spore_stims/simple_08_A_c.gif","","","","","13","simple_dissimilar","images/stimuli/spore_stims/simple_08_A_c.gif","middle",""
"","null","html-keyboard-response","246","1035667","0.0-47.0-0.2","SS1613098743872","","","null","","","","","<p><img src= images/blank.png width =""200"" height = ""200"" style = ""float:right""></p><p><img src=images/blank.png width =""800"" height = ""200""></p>","","","","","","","",""
"","653.0000000002328","sequential-stimulus-presentation","247","1037199","0.0-47.0-1.2","SS1613098743872","trial","","40","800","1453.0000000002328","images/stimuli/spore_stims/simple_20_B_b.gif","images/stimuli/spore_stims/simple_08_A_c.gif","","","","","13","simple_dissimilar","images/stimuli/spore_stims/simple_08_A_c.gif","middle",""
"","null","html-keyboard-response","248","1038320","0.0-47.0-0.3","SS1613098743872","","","null","","","","","<p><img src= images/blank.png width =""200"" height = ""200"" style = ""float:right""></p><p><img src=images/blank.png width =""800"" height = ""200""></p>","","","","","","","",""
