"view_history","rt","trial_type","trial_index","time_elapsed","internal_node_id","subject","stimulus_type","trial_stimulus","key_press","minimum_viewing_duration","trial_looking_time","block_deviant","block_background","stimulus","wall_pref","location","location_percent","block_number","block_type","stimulus_displayed","position_displayed","stim_type_selected","responses","question_order","stimulus_left","stimulus_right"
"[{""page_index"":0,""viewing_time"":42903.60000000146}]","42905.09500000189","instructions","0","42907","0.0-0.0","SS1613169692985","","","","","","","","","","","","","","","","","","","",""
"[{""page_index"":0,""viewing_time"":17787.58000000016},{""page_index"":1,""viewing_time"":7861.539999998058}]","25649.82500000042","instructions","1","70562","0.0-1.0","SS1613169692985","instructions","","","","","","","","","","","","","","","","","","",""
"","10815.890000001673","sequential-stimulus-presentation","2","82217","0.0-2.0","SS1613169692985","","","40","800","11615.890000001673","null","null","","","","","","","","","","","","",""
"","4304.329999999027","sequential-stimulus-presentation","3","87331","0.0-3.0","SS1613169692985","","","40","800","5104.329999999027","null","null","","","","","","","","","","","","",""
"[{""page_index"":0,""viewing_time"":5658.494999999675}]","5658.719999999448","instructions","4","92995","0.0-4.0","SS1613169692985","instructions","","","","","","","","","","","","","","","","","","",""
"","12732.704999998532","html-keyboard-response","5","105735","0.0-5.0","SS1613169692985","instructions","","49","","","","","<video width ='960' height = '540' autoplay muted><source src='images/stimuli/wall_pref.mp4' type='video/mp4'></video>","1","left","25%","","","","","","","","",""
"","5082.139999998617","sequential-stimulus-presentation","6","111641","0.0-6.0","SS1613169692985","pref_reveal","","40","800","5882.139999998617","null","null","","","","","","","","","","","","",""
"[{""page_index"":0,""viewing_time"":12079.854999999952},{""page_index"":1,""viewing_time"":4627.04500000109},{""page_index"":2,""viewing_time"":1676.8750000010186},{""page_index"":3,""viewing_time"":1963.8300000005984}]","20348.359999999957","instructions","7","131996","0.0-7.0","SS1613169692985","instructions","","","","","","","","","","","","","","","","","","",""
"","null","html-keyboard-response","8","132834","0.0-8.0-0.0","SS1613169692985","","","null","","","","","<p><img src= images/blank.png width =""200"" height = ""200"" style = ""float:right""></p><p><img src=images/blank.png width =""800"" height = ""200""></p>","","","","","","","","","","","",""
"","5869.1949999993085","sequential-stimulus-presentation","9","139513","0.0-8.0-1.0","SS1613169692985","trial","","40","800","6669.1949999993085","images/stimuli/spore_stims/complex_09_B_d.gif","images/stimuli/spore_stims/complex_10_B_c.gif","","","","","0","complex_dissimilar","images/stimuli/spore_stims/complex_10_B_c.gif","middle","","","","",""
"","null","html-keyboard-response","10","140469","0.0-8.0-0.1","SS1613169692985","","","null","","","","","<p><img src= images/blank.png width =""200"" height = ""200"" style = ""float:right""></p><p><img src=images/blank.png width =""800"" height = ""200""></p>","","","","","","","","","","","",""
"","5480.105000002368","sequential-stimulus-presentation","11","146765","0.0-8.0-1.1","SS1613169692985","trial","","40","800","6280.105000002368","images/stimuli/spore_stims/complex_09_B_d.gif","images/stimuli/spore_stims/complex_10_B_c.gif","","","","","0","complex_dissimilar","images/stimuli/spore_stims/complex_10_B_c.gif","middle","","","","",""
"","null","html-keyboard-response","12","147869","0.0-8.0-0.2","SS1613169692985","","","null","","","","","<p><img src= images/blank.png width =""200"" height = ""200"" style = ""float:right""></p><p><img src=images/blank.png width =""800"" height = ""200""></p>","","","","","","","","","","","",""
"","5172.324999999546","sequential-stimulus-presentation","13","153864","0.0-8.0-1.2","SS1613169692985","trial","","40","800","5972.324999999546","images/stimuli/spore_stims/complex_09_B_d.gif","images/stimuli/spore_stims/complex_10_B_c.gif","","","","","0","complex_dissimilar","images/stimuli/spore_stims/complex_10_B_c.gif","middle","","","","",""
"","null","html-keyboard-response","14","154956","0.0-8.0-0.3","SS1613169692985","","","null","","","","","<p><img src= images/blank.png width =""200"" height = ""200"" style = ""float:right""></p><p><img src=images/blank.png width =""800"" height = ""200""></p>","","","","","","","","","","","",""
"","2579.620000000432","sequential-stimulus-presentation","15","158345","0.0-8.0-1.3","SS1613169692985","trial","","40","800","3379.620000000432","images/stimuli/spore_stims/complex_09_B_d.gif","images/stimuli/spore_stims/complex_10_B_c.gif","","","","","0","complex_dissimilar","images/stimuli/spore_stims/complex_10_B_c.gif","middle","","","","",""
"","null","html-keyboard-response","16","159323","0.0-8.0-0.4","SS1613169692985","","","null","","","","","<p><img src= images/blank.png width =""200"" height = ""200"" style = ""float:right""></p><p><img src=images/blank.png width =""800"" height = ""200""></p>","","","","","","","","","","","",""
"","1041.0999999985506","sequential-stimulus-presentation","17","161174","0.0-8.0-1.4","SS1613169692985","trial","","40","800","1841.0999999985506","images/stimuli/spore_stims/complex_09_B_d.gif","images/stimuli/spore_stims/complex_10_B_c.gif","","","","","0","complex_dissimilar","images/stimuli/spore_stims/complex_10_B_c.gif","middle","","","","",""
"","null","html-keyboard-response","18","162195","0.0-8.0-0.5","SS1613169692985","","","null","","","","","<p><img src= images/blank.png width =""200"" height = ""200"" style = ""float:right""></p><p><img src=images/blank.png width =""800"" height = ""200""></p>","","","","","","","","","","","",""
"","4273.054999997839","sequential-stimulus-presentation","19","167291","0.0-8.0-1.5","SS1613169692985","trial","","40","800","5073.054999997839","images/stimuli/spore_stims/complex_09_B_d.gif","images/stimuli/spore_stims/complex_10_B_c.gif","","","","","0","complex_dissimilar","images/stimuli/spore_stims/complex_10_B_c.gif","middle","","","","",""
"","null","html-keyboard-response","20","168538","0.0-8.0-0.6","SS1613169692985","","","null","","","","","<p><img src= images/blank.png width =""200"" height = ""200"" style = ""float:right""></p><p><img src=images/blank.png width =""800"" height = ""200""></p>","","","","","","","","","","","",""
"","6940.114999997604","sequential-stimulus-presentation","21","176294","0.0-8.0-1.6","SS1613169692985","trial","","40","800","7740.114999997604","images/stimuli/spore_stims/complex_09_B_d.gif","images/stimuli/spore_stims/complex_10_B_c.gif","","","","","0","complex_dissimilar","images/stimuli/spore_stims/complex_09_B_d.gif","right","","","","",""
"","null","html-keyboard-response","22","177227","0.0-8.0-0.7","SS1613169692985","","","null","","","","","<p><img src= images/blank.png width =""200"" height = ""200"" style = ""float:right""></p><p><img src=images/blank.png width =""800"" height = ""200""></p>","","","","","","","","","","","",""
"","3444.740000002639","sequential-stimulus-presentation","23","181484","0.0-8.0-1.7","SS1613169692985","trial","","40","800","4244.740000002639","images/stimuli/spore_stims/complex_09_B_d.gif","images/stimuli/spore_stims/complex_10_B_c.gif","","","","","0","complex_dissimilar","images/stimuli/spore_stims/complex_10_B_c.gif","middle","","","","",""
"","2385.0750000019616","html-keyboard-response","24","183887","0.0-9.0","SS1613169692985","pref_question","","49","","","","","<video width ='960' height = '540' style='padding-top:8%' autoplay muted><source src='images/stimuli/wall_pref.mp4' type='video/mp4'></video>","1","left","25%","0","","","","","","","",""
"","4875.81499999942","sequential-stimulus-presentation","25","189576","0.0-10.0","SS1613169692985","pref_reveal","","40","800","5675.81499999942","null","null","","","","","0","","","","novel","","","",""
"","null","html-keyboard-response","26","190413","0.0-11.0-0.0","SS1613169692985","","","null","","","","","<p><img src= images/blank.png width =""200"" height = ""200"" style = ""float:right""></p><p><img src=images/blank.png width =""800"" height = ""200""></p>","","","","","","","","","","","",""
"","4353.329999998095","sequential-stimulus-presentation","27","195571","0.0-11.0-1.0","SS1613169692985","trial","","40","800","5153.329999998095","images/stimuli/spore_stims/simple_02_A_d.gif","images/stimuli/spore_stims/simple_02_B_b.gif","","","","","1","simple_dissimilar","images/stimuli/spore_stims/simple_02_B_b.gif","left","","","","",""
"","null","html-keyboard-response","28","196413","0.0-11.0-0.1","SS1613169692985","","","null","","","","","<p><img src= images/blank.png width =""200"" height = ""200"" style = ""float:right""></p><p><img src=images/blank.png width =""800"" height = ""200""></p>","","","","","","","","","","","",""
"","4454.850000001898","sequential-stimulus-presentation","29","201683","0.0-11.0-1.1","SS1613169692985","trial","","40","800","5254.850000001898","images/stimuli/spore_stims/simple_02_A_d.gif","images/stimuli/spore_stims/simple_02_B_b.gif","","","","","1","simple_dissimilar","images/stimuli/spore_stims/simple_02_B_b.gif","left","","","","",""
"","null","html-keyboard-response","30","202898","0.0-11.0-0.2","SS1613169692985","","","null","","","","","<p><img src= images/blank.png width =""200"" height = ""200"" style = ""float:right""></p><p><img src=images/blank.png width =""800"" height = ""200""></p>","","","","","","","","","","","",""
"","3700.9199999993143","sequential-stimulus-presentation","31","207402","0.0-11.0-1.2","SS1613169692985","trial","","40","800","4500.919999999314","images/stimuli/spore_stims/simple_02_A_d.gif","images/stimuli/spore_stims/simple_02_B_b.gif","","","","","1","simple_dissimilar","images/stimuli/spore_stims/simple_02_B_b.gif","left","","","","",""
"","null","html-keyboard-response","32","208647","0.0-11.0-0.3","SS1613169692985","","","null","","","","","<p><img src= images/blank.png width =""200"" height = ""200"" style = ""float:right""></p><p><img src=images/blank.png width =""800"" height = ""200""></p>","","","","","","","","","","","",""
"","3867.964999997639","sequential-stimulus-presentation","33","213321","0.0-11.0-1.3","SS1613169692985","trial","","40","800","4667.964999997639","images/stimuli/spore_stims/simple_02_A_d.gif","images/stimuli/spore_stims/simple_02_B_b.gif","","","","","1","simple_dissimilar","images/stimuli/spore_stims/simple_02_A_d.gif","right","","","","",""
"","null","html-keyboard-response","34","214165","0.0-11.0-0.4","SS1613169692985","","","null","","","","","<p><img src= images/blank.png width =""200"" height = ""200"" style = ""float:right""></p><p><img src=images/blank.png width =""800"" height = ""200""></p>","","","","","","","","","","","",""
"","2917.0049999993353","sequential-stimulus-presentation","35","217900","0.0-11.0-1.4","SS1613169692985","trial","","40","800","3717.0049999993353","images/stimuli/spore_stims/simple_02_A_d.gif","images/stimuli/spore_stims/simple_02_B_b.gif","","","","","1","simple_dissimilar","images/stimuli/spore_stims/simple_02_B_b.gif","left","","","","",""
"","null","html-keyboard-response","36","218862","0.0-11.0-0.5","SS1613169692985","","","null","","","","","<p><img src= images/blank.png width =""200"" height = ""200"" style = ""float:right""></p><p><img src=images/blank.png width =""800"" height = ""200""></p>","","","","","","","","","","","",""
"","2663.379999998142","sequential-stimulus-presentation","37","222338","0.0-11.0-1.5","SS1613169692985","trial","","40","800","3463.379999998142","images/stimuli/spore_stims/simple_02_A_d.gif","images/stimuli/spore_stims/simple_02_B_b.gif","","","","","1","simple_dissimilar","images/stimuli/spore_stims/simple_02_B_b.gif","left","","","","",""
"","null","html-keyboard-response","38","223587","0.0-11.0-0.6","SS1613169692985","","","null","","","","","<p><img src= images/blank.png width =""200"" height = ""200"" style = ""float:right""></p><p><img src=images/blank.png width =""800"" height = ""200""></p>","","","","","","","","","","","",""
"","2518.2700000004843","sequential-stimulus-presentation","39","226912","0.0-11.0-1.6","SS1613169692985","trial","","40","800","3318.2700000004843","images/stimuli/spore_stims/simple_02_A_d.gif","images/stimuli/spore_stims/simple_02_B_b.gif","","","","","1","simple_dissimilar","images/stimuli/spore_stims/simple_02_B_b.gif","left","","","","",""
"","null","html-keyboard-response","40","227945","0.0-11.0-0.7","SS1613169692985","","","null","","","","","<p><img src= images/blank.png width =""200"" height = ""200"" style = ""float:right""></p><p><img src=images/blank.png width =""800"" height = ""200""></p>","","","","","","","","","","","",""
"","1867.7499999976135","sequential-stimulus-presentation","41","230616","0.0-11.0-1.7","SS1613169692985","trial","","40","800","2667.7499999976135","images/stimuli/spore_stims/simple_02_A_d.gif","images/stimuli/spore_stims/simple_02_B_b.gif","","","","","1","simple_dissimilar","images/stimuli/spore_stims/simple_02_B_b.gif","left","","","","",""
"","2305.3599999984726","html-keyboard-response","42","232925","0.0-12.0","SS1613169692985","pref_question","","50","","","","","<video width ='960' height = '540' style='padding-top:8%' autoplay muted><source src='images/stimuli/wall_pref.mp4' type='video/mp4'></video>","2","middle","45%","1","","","","","","","",""
"","4683.055000001332","sequential-stimulus-presentation","43","238413","0.0-13.0","SS1613169692985","pref_reveal","","40","800","5483.055000001332","null","null","","","","","1","","","","novel","","","",""
"","null","html-keyboard-response","44","239508","0.0-14.0-0.0","SS1613169692985","","","null","","","","","<p><img src= images/blank.png width =""200"" height = ""200"" style = ""float:right""></p><p><img src=images/blank.png width =""800"" height = ""200""></p>","","","","","","","","","","","",""
"","4862.274999999499","sequential-stimulus-presentation","45","245175","0.0-14.0-1.0","SS1613169692985","trial","","40","800","5662.274999999499","images/stimuli/spore_stims/complex_08_B_b.gif","images/stimuli/spore_stims/complex_04_A_d.gif","","","","","2","complex_dissimilar","images/stimuli/spore_stims/complex_04_A_d.gif","middle","","","","",""
"","null","html-keyboard-response","46","246175","0.0-14.0-0.1","SS1613169692985","","","null","","","","","<p><img src= images/blank.png width =""200"" height = ""200"" style = ""float:right""></p><p><img src=images/blank.png width =""800"" height = ""200""></p>","","","","","","","","","","","",""
"","4980.200000001787","sequential-stimulus-presentation","47","251966","0.0-14.0-1.1","SS1613169692985","trial","","40","800","5780.200000001787","images/stimuli/spore_stims/complex_08_B_b.gif","images/stimuli/spore_stims/complex_04_A_d.gif","","","","","2","complex_dissimilar","images/stimuli/spore_stims/complex_04_A_d.gif","middle","","","","",""
"","null","html-keyboard-response","48","253101","0.0-14.0-0.2","SS1613169692985","","","null","","","","","<p><img src= images/blank.png width =""200"" height = ""200"" style = ""float:right""></p><p><img src=images/blank.png width =""800"" height = ""200""></p>","","","","","","","","","","","",""
"","3344.9450000007637","sequential-stimulus-presentation","49","257252","0.0-14.0-1.2","SS1613169692985","trial","","40","800","4144.945000000764","images/stimuli/spore_stims/complex_08_B_b.gif","images/stimuli/spore_stims/complex_04_A_d.gif","","","","","2","complex_dissimilar","images/stimuli/spore_stims/complex_04_A_d.gif","middle","","","","",""
"","null","html-keyboard-response","50","258269","0.0-14.0-0.3","SS1613169692985","","","null","","","","","<p><img src= images/blank.png width =""200"" height = ""200"" style = ""float:right""></p><p><img src=images/blank.png width =""800"" height = ""200""></p>","","","","","","","","","","","",""
"","2837.135000001639","sequential-stimulus-presentation","51","261927","0.0-14.0-1.3","SS1613169692985","trial","","40","800","3637.135000001639","images/stimuli/spore_stims/complex_08_B_b.gif","images/stimuli/spore_stims/complex_04_A_d.gif","","","","","2","complex_dissimilar","images/stimuli/spore_stims/complex_04_A_d.gif","middle","","","","",""
"","null","html-keyboard-response","52","263022","0.0-14.0-0.4","SS1613169692985","","","null","","","","","<p><img src= images/blank.png width =""200"" height = ""200"" style = ""float:right""></p><p><img src=images/blank.png width =""800"" height = ""200""></p>","","","","","","","","","","","",""
"","4633.265000000421","sequential-stimulus-presentation","53","268487","0.0-14.0-1.4","SS1613169692985","trial","","40","800","5433.265000000421","images/stimuli/spore_stims/complex_08_B_b.gif","images/stimuli/spore_stims/complex_04_A_d.gif","","","","","2","complex_dissimilar","images/stimuli/spore_stims/complex_08_B_b.gif","left","","","","",""
"","null","html-keyboard-response","54","269436","0.0-14.0-0.5","SS1613169692985","","","null","","","","","<p><img src= images/blank.png width =""200"" height = ""200"" style = ""float:right""></p><p><img src=images/blank.png width =""800"" height = ""200""></p>","","","","","","","","","","","",""
"","3466.4749999974156","sequential-stimulus-presentation","55","273719","0.0-14.0-1.5","SS1613169692985","trial","","40","800","4266.474999997416","images/stimuli/spore_stims/complex_08_B_b.gif","images/stimuli/spore_stims/complex_04_A_d.gif","","","","","2","complex_dissimilar","images/stimuli/spore_stims/complex_04_A_d.gif","middle","","","","",""
"","null","html-keyboard-response","56","274895","0.0-14.0-0.6","SS1613169692985","","","null","","","","","<p><img src= images/blank.png width =""200"" height = ""200"" style = ""float:right""></p><p><img src=images/blank.png width =""800"" height = ""200""></p>","","","","","","","","","","","",""
"","3930.4299999967334","sequential-stimulus-presentation","57","279630","0.0-14.0-1.6","SS1613169692985","trial","","40","800","4730.429999996733","images/stimuli/spore_stims/complex_08_B_b.gif","images/stimuli/spore_stims/complex_04_A_d.gif","","","","","2","complex_dissimilar","images/stimuli/spore_stims/complex_04_A_d.gif","middle","","","","",""
"","null","html-keyboard-response","58","280580","0.0-14.0-0.7","SS1613169692985","","","null","","","","","<p><img src= images/blank.png width =""200"" height = ""200"" style = ""float:right""></p><p><img src=images/blank.png width =""800"" height = ""200""></p>","","","","","","","","","","","",""
"","2431.6949999993085","sequential-stimulus-presentation","59","283819","0.0-14.0-1.7","SS1613169692985","trial","","40","800","3231.6949999993085","images/stimuli/spore_stims/complex_08_B_b.gif","images/stimuli/spore_stims/complex_04_A_d.gif","","","","","2","complex_dissimilar","images/stimuli/spore_stims/complex_04_A_d.gif","middle","","","","",""
"","1786.6049999975367","html-keyboard-response","60","285627","0.0-15.0","SS1613169692985","pref_question","","51","","","","","<video width ='960' height = '540' style='padding-top:8%' autoplay muted><source src='images/stimuli/wall_pref.mp4' type='video/mp4'></video>","3","right","66%","2","","","","","","","",""
"","5292.290000001201","sequential-stimulus-presentation","61","291725","0.0-16.0","SS1613169692985","pref_reveal","","40","800","6092.290000001201","null","null","","","","","2","","","","novel","","","",""
"","null","html-keyboard-response","62","292866","0.0-17.0-0.0","SS1613169692985","","","null","","","","","<p><img src= images/blank.png width =""200"" height = ""200"" style = ""float:right""></p><p><img src=images/blank.png width =""800"" height = ""200""></p>","","","","","","","","","","","",""
"","4500.089999997697","sequential-stimulus-presentation","63","298179","0.0-17.0-1.0","SS1613169692985","trial","","40","800","5300.089999997697","images/stimuli/spore_stims/complex_19_B_a.gif","images/stimuli/spore_stims/complex_19_A_a.gif","","","","","3","complex_similar","images/stimuli/spore_stims/complex_19_A_a.gif","left","","","","",""
"","null","html-keyboard-response","64","299371","0.0-17.0-0.1","SS1613169692985","","","null","","","","","<p><img src= images/blank.png width =""200"" height = ""200"" style = ""float:right""></p><p><img src=images/blank.png width =""800"" height = ""200""></p>","","","","","","","","","","","",""
"","4577.134999999544","sequential-stimulus-presentation","65","304774","0.0-17.0-1.1","SS1613169692985","trial","","40","800","5377.134999999544","images/stimuli/spore_stims/complex_19_B_a.gif","images/stimuli/spore_stims/complex_19_A_a.gif","","","","","3","complex_similar","images/stimuli/spore_stims/complex_19_A_a.gif","left","","","","",""
"","null","html-keyboard-response","66","305830","0.0-17.0-0.2","SS1613169692985","","","null","","","","","<p><img src= images/blank.png width =""200"" height = ""200"" style = ""float:right""></p><p><img src=images/blank.png width =""800"" height = ""200""></p>","","","","","","","","","","","",""
"","2984.29000000027","sequential-stimulus-presentation","67","309628","0.0-17.0-1.2","SS1613169692985","trial","","40","800","3784.29000000027","images/stimuli/spore_stims/complex_19_B_a.gif","images/stimuli/spore_stims/complex_19_A_a.gif","","","","","3","complex_similar","images/stimuli/spore_stims/complex_19_A_a.gif","left","","","","",""
"","null","html-keyboard-response","68","310489","0.0-17.0-0.3","SS1613169692985","","","null","","","","","<p><img src= images/blank.png width =""200"" height = ""200"" style = ""float:right""></p><p><img src=images/blank.png width =""800"" height = ""200""></p>","","","","","","","","","","","",""
"","3312.229999999574","sequential-stimulus-presentation","69","314610","0.0-17.0-1.3","SS1613169692985","trial","","40","800","4112.229999999574","images/stimuli/spore_stims/complex_19_B_a.gif","images/stimuli/spore_stims/complex_19_A_a.gif","","","","","3","complex_similar","images/stimuli/spore_stims/complex_19_A_a.gif","left","","","","",""
"","null","html-keyboard-response","70","315616","0.0-17.0-0.4","SS1613169692985","","","null","","","","","<p><img src= images/blank.png width =""200"" height = ""200"" style = ""float:right""></p><p><img src=images/blank.png width =""800"" height = ""200""></p>","","","","","","","","","","","",""
"","6227.145000000775","sequential-stimulus-presentation","71","322649","0.0-17.0-1.4","SS1613169692985","trial","","40","800","7027.145000000775","images/stimuli/spore_stims/complex_19_B_a.gif","images/stimuli/spore_stims/complex_19_A_a.gif","","","","","3","complex_similar","images/stimuli/spore_stims/complex_19_B_a.gif","right","","","","",""
"","null","html-keyboard-response","72","323830","0.0-17.0-0.5","SS1613169692985","","","null","","","","","<p><img src= images/blank.png width =""200"" height = ""200"" style = ""float:right""></p><p><img src=images/blank.png width =""800"" height = ""200""></p>","","","","","","","","","","","",""
"","2573.3449999970617","sequential-stimulus-presentation","73","327231","0.0-17.0-1.5","SS1613169692985","trial","","40","800","3373.3449999970617","images/stimuli/spore_stims/complex_19_B_a.gif","images/stimuli/spore_stims/complex_19_A_a.gif","","","","","3","complex_similar","images/stimuli/spore_stims/complex_19_A_a.gif","left","","","","",""
"","null","html-keyboard-response","74","328399","0.0-17.0-0.6","SS1613169692985","","","null","","","","","<p><img src= images/blank.png width =""200"" height = ""200"" style = ""float:right""></p><p><img src=images/blank.png width =""800"" height = ""200""></p>","","","","","","","","","","","",""
"","759.8199999993085","sequential-stimulus-presentation","75","329975","0.0-17.0-1.6","SS1613169692985","trial","","40","800","1559.8199999993085","images/stimuli/spore_stims/complex_19_B_a.gif","images/stimuli/spore_stims/complex_19_A_a.gif","","","","","3","complex_similar","images/stimuli/spore_stims/complex_19_A_a.gif","left","","","","",""
"","null","html-keyboard-response","76","330991","0.0-17.0-0.7","SS1613169692985","","","null","","","","","<p><img src= images/blank.png width =""200"" height = ""200"" style = ""float:right""></p><p><img src=images/blank.png width =""800"" height = ""200""></p>","","","","","","","","","","","",""
"","2928.214999999909","sequential-stimulus-presentation","77","334730","0.0-17.0-1.7","SS1613169692985","trial","","40","800","3728.214999999909","images/stimuli/spore_stims/complex_19_B_a.gif","images/stimuli/spore_stims/complex_19_A_a.gif","","","","","3","complex_similar","images/stimuli/spore_stims/complex_19_A_a.gif","left","","","","",""
"","2093.779999999213","html-keyboard-response","78","336828","0.0-18.0","SS1613169692985","pref_question","","50","","","","","<video width ='960' height = '540' style='padding-top:8%' autoplay muted><source src='images/stimuli/wall_pref.mp4' type='video/mp4'></video>","2","middle","45%","3","","","","","","","",""
"","4927.5199999974575","sequential-stimulus-presentation","79","342562","0.0-19.0","SS1613169692985","pref_reveal","","40","800","5727.5199999974575","null","null","","","","","3","","","","novel","","","",""
"","null","html-keyboard-response","80","343606","0.0-20.0-0.0","SS1613169692985","","","null","","","","","<p><img src= images/blank.png width =""200"" height = ""200"" style = ""float:right""></p><p><img src=images/blank.png width =""800"" height = ""200""></p>","","","","","","","","","","","",""
"","3779.2850000004983","sequential-stimulus-presentation","81","348190","0.0-20.0-1.0","SS1613169692985","trial","","40","800","4579.285000000498","images/stimuli/spore_stims/simple_15_A_b.gif","images/stimuli/spore_stims/simple_09_B_a.gif","","","","","4","simple_dissimilar","images/stimuli/spore_stims/simple_09_B_a.gif","middle","","","","",""
"","null","html-keyboard-response","82","349371","0.0-20.0-0.1","SS1613169692985","","","null","","","","","<p><img src= images/blank.png width =""200"" height = ""200"" style = ""float:right""></p><p><img src=images/blank.png width =""800"" height = ""200""></p>","","","","","","","","","","","",""
"","1394.1799999992945","sequential-stimulus-presentation","83","351621","0.0-20.0-1.1","SS1613169692985","trial","","40","800","2194.1799999992945","images/stimuli/spore_stims/simple_15_A_b.gif","images/stimuli/spore_stims/simple_09_B_a.gif","","","","","4","simple_dissimilar","images/stimuli/spore_stims/simple_09_B_a.gif","middle","","","","",""
"","null","html-keyboard-response","84","352858","0.0-20.0-0.2","SS1613169692985","","","null","","","","","<p><img src= images/blank.png width =""200"" height = ""200"" style = ""float:right""></p><p><img src=images/blank.png width =""800"" height = ""200""></p>","","","","","","","","","","","",""
"","3236.1349999991944","sequential-stimulus-presentation","85","356906","0.0-20.0-1.2","SS1613169692985","trial","","40","800","4036.1349999991944","images/stimuli/spore_stims/simple_15_A_b.gif","images/stimuli/spore_stims/simple_09_B_a.gif","","","","","4","simple_dissimilar","images/stimuli/spore_stims/simple_09_B_a.gif","middle","","","","",""
"","null","html-keyboard-response","86","358016","0.0-20.0-0.3","SS1613169692985","","","null","","","","","<p><img src= images/blank.png width =""200"" height = ""200"" style = ""float:right""></p><p><img src=images/blank.png width =""800"" height = ""200""></p>","","","","","","","","","","","",""
"","3209.1199999995297","sequential-stimulus-presentation","87","362029","0.0-20.0-1.3","SS1613169692985","trial","","40","800","4009.1199999995297","images/stimuli/spore_stims/simple_15_A_b.gif","images/stimuli/spore_stims/simple_09_B_a.gif","","","","","4","simple_dissimilar","images/stimuli/spore_stims/simple_09_B_a.gif","middle","","","","",""
"","null","html-keyboard-response","88","363303","0.0-20.0-0.4","SS1613169692985","","","null","","","","","<p><img src= images/blank.png width =""200"" height = ""200"" style = ""float:right""></p><p><img src=images/blank.png width =""800"" height = ""200""></p>","","","","","","","","","","","",""
"","1147.2200000025332","sequential-stimulus-presentation","89","365273","0.0-20.0-1.4","SS1613169692985","trial","","40","800","1947.2200000025332","images/stimuli/spore_stims/simple_15_A_b.gif","images/stimuli/spore_stims/simple_09_B_a.gif","","","","","4","simple_dissimilar","images/stimuli/spore_stims/simple_09_B_a.gif","middle","","","","",""
"","null","html-keyboard-response","90","366511","0.0-20.0-0.5","SS1613169692985","","","null","","","","","<p><img src= images/blank.png width =""200"" height = ""200"" style = ""float:right""></p><p><img src=images/blank.png width =""800"" height = ""200""></p>","","","","","","","","","","","",""
"","1270.7200000004377","sequential-stimulus-presentation","91","368590","0.0-20.0-1.5","SS1613169692985","trial","","40","800","2070.7200000004377","images/stimuli/spore_stims/simple_15_A_b.gif","images/stimuli/spore_stims/simple_09_B_a.gif","","","","","4","simple_dissimilar","images/stimuli/spore_stims/simple_09_B_a.gif","middle","","","","",""
"","null","html-keyboard-response","92","369836","0.0-20.0-0.6","SS1613169692985","","","null","","","","","<p><img src= images/blank.png width =""200"" height = ""200"" style = ""float:right""></p><p><img src=images/blank.png width =""800"" height = ""200""></p>","","","","","","","","","","","",""
"","1757.9700000023586","sequential-stimulus-presentation","93","372405","0.0-20.0-1.6","SS1613169692985","trial","","40","800","2557.9700000023586","images/stimuli/spore_stims/simple_15_A_b.gif","images/stimuli/spore_stims/simple_09_B_a.gif","","","","","4","simple_dissimilar","images/stimuli/spore_stims/simple_09_B_a.gif","middle","","","","",""
"","null","html-keyboard-response","94","373265","0.0-20.0-0.7","SS1613169692985","","","null","","","","","<p><img src= images/blank.png width =""200"" height = ""200"" style = ""float:right""></p><p><img src=images/blank.png width =""800"" height = ""200""></p>","","","","","","","","","","","",""
"","3561.7249999995693","sequential-stimulus-presentation","95","377634","0.0-20.0-1.7","SS1613169692985","trial","","40","800","4361.724999999569","images/stimuli/spore_stims/simple_15_A_b.gif","images/stimuli/spore_stims/simple_09_B_a.gif","","","","","4","simple_dissimilar","images/stimuli/spore_stims/simple_15_A_b.gif","left","","","","",""
"","2662.449999999779","html-keyboard-response","96","380301","0.0-21.0","SS1613169692985","pref_question","","51","","","","","<video width ='960' height = '540' style='padding-top:8%' autoplay muted><source src='images/stimuli/wall_pref.mp4' type='video/mp4'></video>","3","right","66%","4","","","","","","","",""
"","6271.424999998999","sequential-stimulus-presentation","97","387382","0.0-22.0","SS1613169692985","pref_reveal","","40","800","7071.424999998999","null","null","","","","","4","","","","novel","","","",""
"","null","html-keyboard-response","98","388397","0.0-23.0-0.0","SS1613169692985","","","null","","","","","<p><img src= images/blank.png width =""200"" height = ""200"" style = ""float:right""></p><p><img src=images/blank.png width =""800"" height = ""200""></p>","","","","","","","","","","","",""
"","4637.969999999739","sequential-stimulus-presentation","99","393849","0.0-23.0-1.0","SS1613169692985","trial","","40","800","5437.969999999739","images/stimuli/spore_stims/complex_03_A_c.gif","images/stimuli/spore_stims/complex_07_A_c.gif","","","","","5","complex_dissimilar","images/stimuli/spore_stims/complex_07_A_c.gif","middle","","","","",""
"","null","html-keyboard-response","100","395103","0.0-23.0-0.1","SS1613169692985","","","null","","","","","<p><img src= images/blank.png width =""200"" height = ""200"" style = ""float:right""></p><p><img src=images/blank.png width =""800"" height = ""200""></p>","","","","","","","","","","","",""
"","3832.5199999999604","sequential-stimulus-presentation","101","399744","0.0-23.0-1.1","SS1613169692985","trial","","40","800","4632.51999999996","images/stimuli/spore_stims/complex_03_A_c.gif","images/stimuli/spore_stims/complex_07_A_c.gif","","","","","5","complex_dissimilar","images/stimuli/spore_stims/complex_07_A_c.gif","middle","","","","",""
"","null","html-keyboard-response","102","400914","0.0-23.0-0.2","SS1613169692985","","","null","","","","","<p><img src= images/blank.png width =""200"" height = ""200"" style = ""float:right""></p><p><img src=images/blank.png width =""800"" height = ""200""></p>","","","","","","","","","","","",""
"","963.9349999997648","sequential-stimulus-presentation","103","402683","0.0-23.0-1.2","SS1613169692985","trial","","40","800","1763.9349999997648","images/stimuli/spore_stims/complex_03_A_c.gif","images/stimuli/spore_stims/complex_07_A_c.gif","","","","","5","complex_dissimilar","images/stimuli/spore_stims/complex_07_A_c.gif","middle","","","","",""
"","null","html-keyboard-response","104","403965","0.0-23.0-0.3","SS1613169692985","","","null","","","","","<p><img src= images/blank.png width =""200"" height = ""200"" style = ""float:right""></p><p><img src=images/blank.png width =""800"" height = ""200""></p>","","","","","","","","","","","",""
"","8202.664999997127","sequential-stimulus-presentation","105","412986","0.0-23.0-1.3","SS1613169692985","trial","","40","800","9002.664999997127","images/stimuli/spore_stims/complex_03_A_c.gif","images/stimuli/spore_stims/complex_07_A_c.gif","","","","","5","complex_dissimilar","images/stimuli/spore_stims/complex_03_A_c.gif","left","","","","",""
"","null","html-keyboard-response","106","414060","0.0-23.0-0.4","SS1613169692985","","","null","","","","","<p><img src= images/blank.png width =""200"" height = ""200"" style = ""float:right""></p><p><img src=images/blank.png width =""800"" height = ""200""></p>","","","","","","","","","","","",""
"","4405.174999999872","sequential-stimulus-presentation","107","419287","0.0-23.0-1.4","SS1613169692985","trial","","40","800","5205.174999999872","images/stimuli/spore_stims/complex_03_A_c.gif","images/stimuli/spore_stims/complex_07_A_c.gif","","","","","5","complex_dissimilar","images/stimuli/spore_stims/complex_07_A_c.gif","middle","","","","",""
"","null","html-keyboard-response","108","420310","0.0-23.0-0.5","SS1613169692985","","","null","","","","","<p><img src= images/blank.png width =""200"" height = ""200"" style = ""float:right""></p><p><img src=images/blank.png width =""800"" height = ""200""></p>","","","","","","","","","","","",""
"","3231.1350000018138","sequential-stimulus-presentation","109","424364","0.0-23.0-1.5","SS1613169692985","trial","","40","800","4031.1350000018138","images/stimuli/spore_stims/complex_03_A_c.gif","images/stimuli/spore_stims/complex_07_A_c.gif","","","","","5","complex_dissimilar","images/stimuli/spore_stims/complex_07_A_c.gif","middle","","","","",""
"","null","html-keyboard-response","110","425255","0.0-23.0-0.6","SS1613169692985","","","null","","","","","<p><img src= images/blank.png width =""200"" height = ""200"" style = ""float:right""></p><p><img src=images/blank.png width =""800"" height = ""200""></p>","","","","","","","","","","","",""
"","2992.675000001327","sequential-stimulus-presentation","111","429062","0.0-23.0-1.6","SS1613169692985","trial","","40","800","3792.675000001327","images/stimuli/spore_stims/complex_03_A_c.gif","images/stimuli/spore_stims/complex_07_A_c.gif","","","","","5","complex_dissimilar","images/stimuli/spore_stims/complex_07_A_c.gif","middle","","","","",""
"","null","html-keyboard-response","112","430101","0.0-23.0-0.7","SS1613169692985","","","null","","","","","<p><img src= images/blank.png width =""200"" height = ""200"" style = ""float:right""></p><p><img src=images/blank.png width =""800"" height = ""200""></p>","","","","","","","","","","","",""
"","4322.49999999837","sequential-stimulus-presentation","113","435285","0.0-23.0-1.7","SS1613169692985","trial","","40","800","5122.49999999837","images/stimuli/spore_stims/complex_03_A_c.gif","images/stimuli/spore_stims/complex_07_A_c.gif","","","","","5","complex_dissimilar","images/stimuli/spore_stims/complex_07_A_c.gif","middle","","","","",""
"","1890.9999999995925","html-keyboard-response","114","437211","0.0-24.0","SS1613169692985","pref_question","","49","","","","","<video width ='960' height = '540' style='padding-top:8%' autoplay muted><source src='images/stimuli/wall_pref.mp4' type='video/mp4'></video>","1","left","25%","5","","","","","","","",""
"","3867.640000000363","sequential-stimulus-presentation","115","441900","0.0-25.0","SS1613169692985","pref_reveal","","40","800","4667.640000000363","null","null","","","","","5","","","","deviant","","","",""
"","null","html-keyboard-response","116","442928","0.0-26.0-0.0","SS1613169692985","","","null","","","","","<p><img src= images/blank.png width =""200"" height = ""200"" style = ""float:right""></p><p><img src=images/blank.png width =""800"" height = ""200""></p>","","","","","","","","","","","",""
"","4301.47500000021","sequential-stimulus-presentation","117","448056","0.0-26.0-1.0","SS1613169692985","trial","","40","800","5101.47500000021","images/stimuli/spore_stims/simple_12_B_a.gif","images/stimuli/spore_stims/simple_12_A_a.gif","","","","","6","simple_similar","images/stimuli/spore_stims/simple_12_A_a.gif","middle","","","","",""
"","null","html-keyboard-response","118","449254","0.0-26.0-0.1","SS1613169692985","","","null","","","","","<p><img src= images/blank.png width =""200"" height = ""200"" style = ""float:right""></p><p><img src=images/blank.png width =""800"" height = ""200""></p>","","","","","","","","","","","",""
"","3385.505000002042","sequential-stimulus-presentation","119","453454","0.0-26.0-1.1","SS1613169692985","trial","","40","800","4185.505000002042","images/stimuli/spore_stims/simple_12_B_a.gif","images/stimuli/spore_stims/simple_12_A_a.gif","","","","","6","simple_similar","images/stimuli/spore_stims/simple_12_A_a.gif","middle","","","","",""
"","null","html-keyboard-response","120","454522","0.0-26.0-0.2","SS1613169692985","","","null","","","","","<p><img src= images/blank.png width =""200"" height = ""200"" style = ""float:right""></p><p><img src=images/blank.png width =""800"" height = ""200""></p>","","","","","","","","","","","",""
"","2074.9250000008615","sequential-stimulus-presentation","121","457412","0.0-26.0-1.2","SS1613169692985","trial","","40","800","2874.9250000008615","images/stimuli/spore_stims/simple_12_B_a.gif","images/stimuli/spore_stims/simple_12_A_a.gif","","","","","6","simple_similar","images/stimuli/spore_stims/simple_12_A_a.gif","middle","","","","",""
"","null","html-keyboard-response","122","458612","0.0-26.0-0.3","SS1613169692985","","","null","","","","","<p><img src= images/blank.png width =""200"" height = ""200"" style = ""float:right""></p><p><img src=images/blank.png width =""800"" height = ""200""></p>","","","","","","","","","","","",""
"","1288.155000002007","sequential-stimulus-presentation","123","460708","0.0-26.0-1.3","SS1613169692985","trial","","40","800","2088.155000002007","images/stimuli/spore_stims/simple_12_B_a.gif","images/stimuli/spore_stims/simple_12_A_a.gif","","","","","6","simple_similar","images/stimuli/spore_stims/simple_12_A_a.gif","middle","","","","",""
"","null","html-keyboard-response","124","461854","0.0-26.0-0.4","SS1613169692985","","","null","","","","","<p><img src= images/blank.png width =""200"" height = ""200"" style = ""float:right""></p><p><img src=images/blank.png width =""800"" height = ""200""></p>","","","","","","","","","","","",""
"","2177.8249999989057","sequential-stimulus-presentation","125","464866","0.0-26.0-1.4","SS1613169692985","trial","","40","800","2977.8249999989057","images/stimuli/spore_stims/simple_12_B_a.gif","images/stimuli/spore_stims/simple_12_A_a.gif","","","","","6","simple_similar","images/stimuli/spore_stims/simple_12_A_a.gif","middle","","","","",""
"","null","html-keyboard-response","126","465948","0.0-26.0-0.5","SS1613169692985","","","null","","","","","<p><img src= images/blank.png width =""200"" height = ""200"" style = ""float:right""></p><p><img src=images/blank.png width =""800"" height = ""200""></p>","","","","","","","","","","","",""
"","1587.469999998575","sequential-stimulus-presentation","127","468347","0.0-26.0-1.5","SS1613169692985","trial","","40","800","2387.469999998575","images/stimuli/spore_stims/simple_12_B_a.gif","images/stimuli/spore_stims/simple_12_A_a.gif","","","","","6","simple_similar","images/stimuli/spore_stims/simple_12_A_a.gif","middle","","","","",""
"","null","html-keyboard-response","128","469417","0.0-26.0-0.6","SS1613169692985","","","null","","","","","<p><img src= images/blank.png width =""200"" height = ""200"" style = ""float:right""></p><p><img src=images/blank.png width =""800"" height = ""200""></p>","","","","","","","","","","","",""
"","2405.210000000836","sequential-stimulus-presentation","129","472672","0.0-26.0-1.6","SS1613169692985","trial","","40","800","3205.210000000836","images/stimuli/spore_stims/simple_12_B_a.gif","images/stimuli/spore_stims/simple_12_A_a.gif","","","","","6","simple_similar","images/stimuli/spore_stims/simple_12_A_a.gif","middle","","","","",""
"","null","html-keyboard-response","130","473745","0.0-26.0-0.7","SS1613169692985","","","null","","","","","<p><img src= images/blank.png width =""200"" height = ""200"" style = ""float:right""></p><p><img src=images/blank.png width =""800"" height = ""200""></p>","","","","","","","","","","","",""
"","4513.455000000249","sequential-stimulus-presentation","131","479081","0.0-26.0-1.7","SS1613169692985","trial","","40","800","5313.455000000249","images/stimuli/spore_stims/simple_12_B_a.gif","images/stimuli/spore_stims/simple_12_A_a.gif","","","","","6","simple_similar","images/stimuli/spore_stims/simple_12_B_a.gif","left","","","","",""
"","2619.894999999844","html-keyboard-response","132","481706","0.0-27.0","SS1613169692985","pref_question","","51","","","","","<video width ='960' height = '540' style='padding-top:8%' autoplay muted><source src='images/stimuli/wall_pref.mp4' type='video/mp4'></video>","3","right","66%","6","","","","","","","",""
"","4155.290000002366","sequential-stimulus-presentation","133","486680","0.0-28.0","SS1613169692985","pref_reveal","","40","800","4955.290000002366","null","null","","","","","6","","","","novel","","","",""
"","null","html-keyboard-response","134","487904","0.0-29.0-0.0","SS1613169692985","","","null","","","","","<p><img src= images/blank.png width =""200"" height = ""200"" style = ""float:right""></p><p><img src=images/blank.png width =""800"" height = ""200""></p>","","","","","","","","","","","",""
"","3814.110000003013","sequential-stimulus-presentation","135","492574","0.0-29.0-1.0","SS1613169692985","trial","","40","800","4614.110000003013","images/stimuli/spore_stims/complex_03_B_c.gif","images/stimuli/spore_stims/complex_11_B_b.gif","","","","","7","complex_dissimilar","images/stimuli/spore_stims/complex_11_B_b.gif","left","","","","",""
"","null","html-keyboard-response","136","493794","0.0-29.0-0.1","SS1613169692985","","","null","","","","","<p><img src= images/blank.png width =""200"" height = ""200"" style = ""float:right""></p><p><img src=images/blank.png width =""800"" height = ""200""></p>","","","","","","","","","","","",""
"","3100.1950000027427","sequential-stimulus-presentation","137","497702","0.0-29.0-1.1","SS1613169692985","trial","","40","800","3900.1950000027427","images/stimuli/spore_stims/complex_03_B_c.gif","images/stimuli/spore_stims/complex_11_B_b.gif","","","","","7","complex_dissimilar","images/stimuli/spore_stims/complex_11_B_b.gif","left","","","","",""
"","null","html-keyboard-response","138","498642","0.0-29.0-0.2","SS1613169692985","","","null","","","","","<p><img src= images/blank.png width =""200"" height = ""200"" style = ""float:right""></p><p><img src=images/blank.png width =""800"" height = ""200""></p>","","","","","","","","","","","",""
"","1881.890000000596","sequential-stimulus-presentation","139","501331","0.0-29.0-1.2","SS1613169692985","trial","","40","800","2681.890000000596","images/stimuli/spore_stims/complex_03_B_c.gif","images/stimuli/spore_stims/complex_11_B_b.gif","","","","","7","complex_dissimilar","images/stimuli/spore_stims/complex_11_B_b.gif","left","","","","",""
"","null","html-keyboard-response","140","502539","0.0-29.0-0.3","SS1613169692985","","","null","","","","","<p><img src= images/blank.png width =""200"" height = ""200"" style = ""float:right""></p><p><img src=images/blank.png width =""800"" height = ""200""></p>","","","","","","","","","","","",""
"","1679.3949999992037","sequential-stimulus-presentation","141","505025","0.0-29.0-1.3","SS1613169692985","trial","","40","800","2479.3949999992037","images/stimuli/spore_stims/complex_03_B_c.gif","images/stimuli/spore_stims/complex_11_B_b.gif","","","","","7","complex_dissimilar","images/stimuli/spore_stims/complex_11_B_b.gif","left","","","","",""
"","null","html-keyboard-response","142","506289","0.0-29.0-0.4","SS1613169692985","","","null","","","","","<p><img src= images/blank.png width =""200"" height = ""200"" style = ""float:right""></p><p><img src=images/blank.png width =""800"" height = ""200""></p>","","","","","","","","","","","",""
"","1797.6550000021234","sequential-stimulus-presentation","143","508907","0.0-29.0-1.4","SS1613169692985","trial","","40","800","2597.6550000021234","images/stimuli/spore_stims/complex_03_B_c.gif","images/stimuli/spore_stims/complex_11_B_b.gif","","","","","7","complex_dissimilar","images/stimuli/spore_stims/complex_11_B_b.gif","left","","","","",""
"","null","html-keyboard-response","144","510167","0.0-29.0-0.5","SS1613169692985","","","null","","","","","<p><img src= images/blank.png width =""200"" height = ""200"" style = ""float:right""></p><p><img src=images/blank.png width =""800"" height = ""200""></p>","","","","","","","","","","","",""
"","6863.40999999817","sequential-stimulus-presentation","145","517841","0.0-29.0-1.5","SS1613169692985","trial","","40","800","7663.40999999817","images/stimuli/spore_stims/complex_03_B_c.gif","images/stimuli/spore_stims/complex_11_B_b.gif","","","","","7","complex_dissimilar","images/stimuli/spore_stims/complex_11_B_b.gif","left","","","","",""
"","null","html-keyboard-response","146","519102","0.0-29.0-0.6","SS1613169692985","","","null","","","","","<p><img src= images/blank.png width =""200"" height = ""200"" style = ""float:right""></p><p><img src=images/blank.png width =""800"" height = ""200""></p>","","","","","","","","","","","",""
"","4938.084999997867","sequential-stimulus-presentation","147","524866","0.0-29.0-1.6","SS1613169692985","trial","","40","800","5738.084999997867","images/stimuli/spore_stims/complex_03_B_c.gif","images/stimuli/spore_stims/complex_11_B_b.gif","","","","","7","complex_dissimilar","images/stimuli/spore_stims/complex_03_B_c.gif","right","","","","",""
"","null","html-keyboard-response","148","525828","0.0-29.0-0.7","SS1613169692985","","","null","","","","","<p><img src= images/blank.png width =""200"" height = ""200"" style = ""float:right""></p><p><img src=images/blank.png width =""800"" height = ""200""></p>","","","","","","","","","","","",""
"","4385.744999999646","sequential-stimulus-presentation","149","531045","0.0-29.0-1.7","SS1613169692985","trial","","40","800","5185.744999999646","images/stimuli/spore_stims/complex_03_B_c.gif","images/stimuli/spore_stims/complex_11_B_b.gif","","","","","7","complex_dissimilar","images/stimuli/spore_stims/complex_11_B_b.gif","left","","","","",""
"","1685.3699999991804","html-keyboard-response","150","532759","0.0-30.0","SS1613169692985","pref_question","","50","","","","","<video width ='960' height = '540' style='padding-top:8%' autoplay muted><source src='images/stimuli/wall_pref.mp4' type='video/mp4'></video>","2","middle","45%","7","","","","","","","",""
"","7264.009999998962","sequential-stimulus-presentation","151","540836","0.0-31.0","SS1613169692985","pref_reveal","","40","800","8064.009999998962","null","null","","","","","7","","","","novel","","","",""
"","null","html-keyboard-response","152","541685","0.0-32.0-0.0","SS1613169692985","","","null","","","","","<p><img src= images/blank.png width =""200"" height = ""200"" style = ""float:right""></p><p><img src=images/blank.png width =""800"" height = ""200""></p>","","","","","","","","","","","",""
"","4893.489999998477","sequential-stimulus-presentation","153","547386","0.0-32.0-1.0","SS1613169692985","trial","","40","800","5693.489999998477","images/stimuli/spore_stims/complex_08_B_d.gif","images/stimuli/spore_stims/complex_08_A_d.gif","","","","","8","complex_similar","images/stimuli/spore_stims/complex_08_A_d.gif","left","","","","",""
"","null","html-keyboard-response","154","548374","0.0-32.0-0.1","SS1613169692985","","","null","","","","","<p><img src= images/blank.png width =""200"" height = ""200"" style = ""float:right""></p><p><img src=images/blank.png width =""800"" height = ""200""></p>","","","","","","","","","","","",""
"","4344.114999999874","sequential-stimulus-presentation","155","553529","0.0-32.0-1.1","SS1613169692985","trial","","40","800","5144.114999999874","images/stimuli/spore_stims/complex_08_B_d.gif","images/stimuli/spore_stims/complex_08_A_d.gif","","","","","8","complex_similar","images/stimuli/spore_stims/complex_08_A_d.gif","left","","","","",""
"","null","html-keyboard-response","156","554348","0.0-32.0-0.2","SS1613169692985","","","null","","","","","<p><img src= images/blank.png width =""200"" height = ""200"" style = ""float:right""></p><p><img src=images/blank.png width =""800"" height = ""200""></p>","","","","","","","","","","","",""
"","4036.7550000010524","sequential-stimulus-presentation","157","559196","0.0-32.0-1.2","SS1613169692985","trial","","40","800","4836.755000001052","images/stimuli/spore_stims/complex_08_B_d.gif","images/stimuli/spore_stims/complex_08_A_d.gif","","","","","8","complex_similar","images/stimuli/spore_stims/complex_08_A_d.gif","left","","","","",""
"","null","html-keyboard-response","158","560125","0.0-32.0-0.3","SS1613169692985","","","null","","","","","<p><img src= images/blank.png width =""200"" height = ""200"" style = ""float:right""></p><p><img src=images/blank.png width =""800"" height = ""200""></p>","","","","","","","","","","","",""
"","913.7599999995437","sequential-stimulus-presentation","159","561847","0.0-32.0-1.3","SS1613169692985","trial","","40","800","1713.7599999995437","images/stimuli/spore_stims/complex_08_B_d.gif","images/stimuli/spore_stims/complex_08_A_d.gif","","","","","8","complex_similar","images/stimuli/spore_stims/complex_08_A_d.gif","left","","","","",""
"","null","html-keyboard-response","160","563108","0.0-32.0-0.4","SS1613169692985","","","null","","","","","<p><img src= images/blank.png width =""200"" height = ""200"" style = ""float:right""></p><p><img src=images/blank.png width =""800"" height = ""200""></p>","","","","","","","","","","","",""
"","1016.2899999995716","sequential-stimulus-presentation","161","564972","0.0-32.0-1.4","SS1613169692985","trial","","40","800","1816.2899999995716","images/stimuli/spore_stims/complex_08_B_d.gif","images/stimuli/spore_stims/complex_08_A_d.gif","","","","","8","complex_similar","images/stimuli/spore_stims/complex_08_A_d.gif","left","","","","",""
"","null","html-keyboard-response","162","565836","0.0-32.0-0.5","SS1613169692985","","","null","","","","","<p><img src= images/blank.png width =""200"" height = ""200"" style = ""float:right""></p><p><img src=images/blank.png width =""800"" height = ""200""></p>","","","","","","","","","","","",""
"","798.2650000012945","sequential-stimulus-presentation","163","567447","0.0-32.0-1.5","SS1613169692985","trial","","40","800","1598.2650000012945","images/stimuli/spore_stims/complex_08_B_d.gif","images/stimuli/spore_stims/complex_08_A_d.gif","","","","","8","complex_similar","images/stimuli/spore_stims/complex_08_A_d.gif","left","","","","",""
"","null","html-keyboard-response","164","568267","0.0-32.0-0.6","SS1613169692985","","","null","","","","","<p><img src= images/blank.png width =""200"" height = ""200"" style = ""float:right""></p><p><img src=images/blank.png width =""800"" height = ""200""></p>","","","","","","","","","","","",""
"","1026.5","sequential-stimulus-presentation","165","570143","0.0-32.0-1.6","SS1613169692985","trial","","40","800","1826.5","images/stimuli/spore_stims/complex_08_B_d.gif","images/stimuli/spore_stims/complex_08_A_d.gif","","","","","8","complex_similar","images/stimuli/spore_stims/complex_08_A_d.gif","left","","","","",""
"","null","html-keyboard-response","166","571162","0.0-32.0-0.7","SS1613169692985","","","null","","","","","<p><img src= images/blank.png width =""200"" height = ""200"" style = ""float:right""></p><p><img src=images/blank.png width =""800"" height = ""200""></p>","","","","","","","","","","","",""
"","2292.7400000008056","sequential-stimulus-presentation","167","574265","0.0-32.0-1.7","SS1613169692985","trial","","40","800","3092.7400000008056","images/stimuli/spore_stims/complex_08_B_d.gif","images/stimuli/spore_stims/complex_08_A_d.gif","","","","","8","complex_similar","images/stimuli/spore_stims/complex_08_B_d.gif","middle","","","","",""
"","2153.1150000010384","html-keyboard-response","168","576427","0.0-33.0","SS1613169692985","pref_question","","51","","","","","<video width ='960' height = '540' style='padding-top:8%' autoplay muted><source src='images/stimuli/wall_pref.mp4' type='video/mp4'></video>","3","right","66%","8","","","","","","","",""
"","3667.7049999998417","sequential-stimulus-presentation","169","580907","0.0-34.0","SS1613169692985","pref_reveal","","40","800","4467.704999999842","null","null","","","","","8","","","","novel","","","",""
"","null","html-keyboard-response","170","582177","0.0-35.0-0.0","SS1613169692985","","","null","","","","","<p><img src= images/blank.png width =""200"" height = ""200"" style = ""float:right""></p><p><img src=images/blank.png width =""800"" height = ""200""></p>","","","","","","","","","","","",""
"","3060.315000002389","sequential-stimulus-presentation","171","586047","0.0-35.0-1.0","SS1613169692985","trial","","40","800","3860.315000002389","images/stimuli/spore_stims/complex_14_A_c.gif","images/stimuli/spore_stims/complex_14_B_c.gif","","","","","9","complex_similar","images/stimuli/spore_stims/complex_14_B_c.gif","left","","","","",""
"","null","html-keyboard-response","172","587258","0.0-35.0-0.1","SS1613169692985","","","null","","","","","<p><img src= images/blank.png width =""200"" height = ""200"" style = ""float:right""></p><p><img src=images/blank.png width =""800"" height = ""200""></p>","","","","","","","","","","","",""
"","1401.9499999994878","sequential-stimulus-presentation","173","589468","0.0-35.0-1.1","SS1613169692985","trial","","40","800","2201.9499999994878","images/stimuli/spore_stims/complex_14_A_c.gif","images/stimuli/spore_stims/complex_14_B_c.gif","","","","","9","complex_similar","images/stimuli/spore_stims/complex_14_B_c.gif","left","","","","",""
"","null","html-keyboard-response","174","590386","0.0-35.0-0.2","SS1613169692985","","","null","","","","","<p><img src= images/blank.png width =""200"" height = ""200"" style = ""float:right""></p><p><img src=images/blank.png width =""800"" height = ""200""></p>","","","","","","","","","","","",""
"","996.4799999978859","sequential-stimulus-presentation","175","592189","0.0-35.0-1.2","SS1613169692985","trial","","40","800","1796.479999997886","images/stimuli/spore_stims/complex_14_A_c.gif","images/stimuli/spore_stims/complex_14_B_c.gif","","","","","9","complex_similar","images/stimuli/spore_stims/complex_14_A_c.gif","right","","","","",""
"","null","html-keyboard-response","176","593212","0.0-35.0-0.3","SS1613169692985","","","null","","","","","<p><img src= images/blank.png width =""200"" height = ""200"" style = ""float:right""></p><p><img src=images/blank.png width =""800"" height = ""200""></p>","","","","","","","","","","","",""
"","851.1299999991897","sequential-stimulus-presentation","177","594873","0.0-35.0-1.3","SS1613169692985","trial","","40","800","1651.1299999991897","images/stimuli/spore_stims/complex_14_A_c.gif","images/stimuli/spore_stims/complex_14_B_c.gif","","","","","9","complex_similar","images/stimuli/spore_stims/complex_14_B_c.gif","left","","","","",""
"","null","html-keyboard-response","178","595823","0.0-35.0-0.4","SS1613169692985","","","null","","","","","<p><img src= images/blank.png width =""200"" height = ""200"" style = ""float:right""></p><p><img src=images/blank.png width =""800"" height = ""200""></p>","","","","","","","","","","","",""
"","1703.575000003213","sequential-stimulus-presentation","179","598349","0.0-35.0-1.4","SS1613169692985","trial","","40","800","2503.575000003213","images/stimuli/spore_stims/complex_14_A_c.gif","images/stimuli/spore_stims/complex_14_B_c.gif","","","","","9","complex_similar","images/stimuli/spore_stims/complex_14_B_c.gif","left","","","","",""
"","null","html-keyboard-response","180","599463","0.0-35.0-0.5","SS1613169692985","","","null","","","","","<p><img src= images/blank.png width =""200"" height = ""200"" style = ""float:right""></p><p><img src=images/blank.png width =""800"" height = ""200""></p>","","","","","","","","","","","",""
"","848.7900000000373","sequential-stimulus-presentation","181","601120","0.0-35.0-1.5","SS1613169692985","trial","","40","800","1648.7900000000373","images/stimuli/spore_stims/complex_14_A_c.gif","images/stimuli/spore_stims/complex_14_B_c.gif","","","","","9","complex_similar","images/stimuli/spore_stims/complex_14_B_c.gif","left","","","","",""
"","null","html-keyboard-response","182","602275","0.0-35.0-0.6","SS1613169692985","","","null","","","","","<p><img src= images/blank.png width =""200"" height = ""200"" style = ""float:right""></p><p><img src=images/blank.png width =""800"" height = ""200""></p>","","","","","","","","","","","",""
"","3066.08000000054","sequential-stimulus-presentation","183","606151","0.0-35.0-1.6","SS1613169692985","trial","","40","800","3866.08000000054","images/stimuli/spore_stims/complex_14_A_c.gif","images/stimuli/spore_stims/complex_14_B_c.gif","","","","","9","complex_similar","images/stimuli/spore_stims/complex_14_B_c.gif","left","","","","",""
"","null","html-keyboard-response","184","607070","0.0-35.0-0.7","SS1613169692985","","","null","","","","","<p><img src= images/blank.png width =""200"" height = ""200"" style = ""float:right""></p><p><img src=images/blank.png width =""800"" height = ""200""></p>","","","","","","","","","","","",""
"","1337.489999998128","sequential-stimulus-presentation","185","609218","0.0-35.0-1.7","SS1613169692985","trial","","40","800","2137.489999998128","images/stimuli/spore_stims/complex_14_A_c.gif","images/stimuli/spore_stims/complex_14_B_c.gif","","","","","9","complex_similar","images/stimuli/spore_stims/complex_14_B_c.gif","left","","","","",""
"","1922.2249999984633","html-keyboard-response","186","611146","0.0-36.0","SS1613169692985","pref_question","","50","","","","","<video width ='960' height = '540' style='padding-top:8%' autoplay muted><source src='images/stimuli/wall_pref.mp4' type='video/mp4'></video>","2","middle","45%","9","","","","","","","",""
"","4670.700000002515","sequential-stimulus-presentation","187","616624","0.0-37.0","SS1613169692985","pref_reveal","","40","800","5470.700000002515","null","null","","","","","9","","","","novel","","","",""
"","null","html-keyboard-response","188","617473","0.0-38.0-0.0","SS1613169692985","","","null","","","","","<p><img src= images/blank.png width =""200"" height = ""200"" style = ""float:right""></p><p><img src=images/blank.png width =""800"" height = ""200""></p>","","","","","","","","","","","",""
"","4261.85500000068","sequential-stimulus-presentation","189","622544","0.0-38.0-1.0","SS1613169692985","trial","","40","800","5061.85500000068","images/stimuli/spore_stims/simple_17_A_d.gif","images/stimuli/spore_stims/simple_17_B_d.gif","","","","","10","simple_similar","images/stimuli/spore_stims/simple_17_B_d.gif","middle","","","","",""
"","null","html-keyboard-response","190","623844","0.0-38.0-0.1","SS1613169692985","","","null","","","","","<p><img src= images/blank.png width =""200"" height = ""200"" style = ""float:right""></p><p><img src=images/blank.png width =""800"" height = ""200""></p>","","","","","","","","","","","",""
"","2658.995000001625","sequential-stimulus-presentation","191","627310","0.0-38.0-1.1","SS1613169692985","trial","","40","800","3458.995000001625","images/stimuli/spore_stims/simple_17_A_d.gif","images/stimuli/spore_stims/simple_17_B_d.gif","","","","","10","simple_similar","images/stimuli/spore_stims/simple_17_B_d.gif","middle","","","","",""
"","null","html-keyboard-response","192","628364","0.0-38.0-0.2","SS1613169692985","","","null","","","","","<p><img src= images/blank.png width =""200"" height = ""200"" style = ""float:right""></p><p><img src=images/blank.png width =""800"" height = ""200""></p>","","","","","","","","","","","",""
"","4687.5099999997765","sequential-stimulus-presentation","193","633859","0.0-38.0-1.2","SS1613169692985","trial","","40","800","5487.5099999997765","images/stimuli/spore_stims/simple_17_A_d.gif","images/stimuli/spore_stims/simple_17_B_d.gif","","","","","10","simple_similar","images/stimuli/spore_stims/simple_17_A_d.gif","left","","","","",""
"","null","html-keyboard-response","194","634887","0.0-38.0-0.3","SS1613169692985","","","null","","","","","<p><img src= images/blank.png width =""200"" height = ""200"" style = ""float:right""></p><p><img src=images/blank.png width =""800"" height = ""200""></p>","","","","","","","","","","","",""
"","2177.9999999998836","sequential-stimulus-presentation","195","637885","0.0-38.0-1.3","SS1613169692985","trial","","40","800","2977.9999999998836","images/stimuli/spore_stims/simple_17_A_d.gif","images/stimuli/spore_stims/simple_17_B_d.gif","","","","","10","simple_similar","images/stimuli/spore_stims/simple_17_B_d.gif","middle","","","","",""
"","null","html-keyboard-response","196","639022","0.0-38.0-0.4","SS1613169692985","","","null","","","","","<p><img src= images/blank.png width =""200"" height = ""200"" style = ""float:right""></p><p><img src=images/blank.png width =""800"" height = ""200""></p>","","","","","","","","","","","",""
"","2828.3449999981094","sequential-stimulus-presentation","197","642671","0.0-38.0-1.4","SS1613169692985","trial","","40","800","3628.3449999981094","images/stimuli/spore_stims/simple_17_A_d.gif","images/stimuli/spore_stims/simple_17_B_d.gif","","","","","10","simple_similar","images/stimuli/spore_stims/simple_17_B_d.gif","middle","","","","",""
"","null","html-keyboard-response","198","643607","0.0-38.0-0.5","SS1613169692985","","","null","","","","","<p><img src= images/blank.png width =""200"" height = ""200"" style = ""float:right""></p><p><img src=images/blank.png width =""800"" height = ""200""></p>","","","","","","","","","","","",""
"","1518.019999999553","sequential-stimulus-presentation","199","645937","0.0-38.0-1.5","SS1613169692985","trial","","40","800","2318.019999999553","images/stimuli/spore_stims/simple_17_A_d.gif","images/stimuli/spore_stims/simple_17_B_d.gif","","","","","10","simple_similar","images/stimuli/spore_stims/simple_17_B_d.gif","middle","","","","",""
"","null","html-keyboard-response","200","646806","0.0-38.0-0.6","SS1613169692985","","","null","","","","","<p><img src= images/blank.png width =""200"" height = ""200"" style = ""float:right""></p><p><img src=images/blank.png width =""800"" height = ""200""></p>","","","","","","","","","","","",""
"","2084.4949999991804","sequential-stimulus-presentation","201","649719","0.0-38.0-1.6","SS1613169692985","trial","","40","800","2884.4949999991804","images/stimuli/spore_stims/simple_17_A_d.gif","images/stimuli/spore_stims/simple_17_B_d.gif","","","","","10","simple_similar","images/stimuli/spore_stims/simple_17_B_d.gif","middle","","","","",""
"","null","html-keyboard-response","202","650632","0.0-38.0-0.7","SS1613169692985","","","null","","","","","<p><img src= images/blank.png width =""200"" height = ""200"" style = ""float:right""></p><p><img src=images/blank.png width =""800"" height = ""200""></p>","","","","","","","","","","","",""
"","1710.0699999972712","sequential-stimulus-presentation","203","653172","0.0-38.0-1.7","SS1613169692985","trial","","40","800","2510.069999997271","images/stimuli/spore_stims/simple_17_A_d.gif","images/stimuli/spore_stims/simple_17_B_d.gif","","","","","10","simple_similar","images/stimuli/spore_stims/simple_17_B_d.gif","middle","","","","",""
"","1581.9850000006845","html-keyboard-response","204","654766","0.0-39.0","SS1613169692985","pref_question","","49","","","","","<video width ='960' height = '540' style='padding-top:8%' autoplay muted><source src='images/stimuli/wall_pref.mp4' type='video/mp4'></video>","1","left","25%","10","","","","","","","",""
"","2630.0400000000373","sequential-stimulus-presentation","205","658224","0.0-40.0","SS1613169692985","pref_reveal","","40","800","3430.0400000000373","null","null","","","","","10","","","","deviant","","","",""
"","null","html-keyboard-response","206","659109","0.0-41.0-0.0","SS1613169692985","","","null","","","","","<p><img src= images/blank.png width =""200"" height = ""200"" style = ""float:right""></p><p><img src=images/blank.png width =""800"" height = ""200""></p>","","","","","","","","","","","",""
"","3550.534999998403","sequential-stimulus-presentation","207","663471","0.0-41.0-1.0","SS1613169692985","trial","","40","800","4350.534999998403","images/stimuli/spore_stims/simple_20_B_a.gif","images/stimuli/spore_stims/simple_20_A_a.gif","","","","","11","simple_similar","images/stimuli/spore_stims/simple_20_A_a.gif","middle","","","","",""
"","null","html-keyboard-response","208","664702","0.0-41.0-0.1","SS1613169692985","","","null","","","","","<p><img src= images/blank.png width =""200"" height = ""200"" style = ""float:right""></p><p><img src=images/blank.png width =""800"" height = ""200""></p>","","","","","","","","","","","",""
"","1550.2300000007963","sequential-stimulus-presentation","209","667085","0.0-41.0-1.1","SS1613169692985","trial","","40","800","2350.2300000007963","images/stimuli/spore_stims/simple_20_B_a.gif","images/stimuli/spore_stims/simple_20_A_a.gif","","","","","11","simple_similar","images/stimuli/spore_stims/simple_20_A_a.gif","middle","","","","",""
"","null","html-keyboard-response","210","668143","0.0-41.0-0.2","SS1613169692985","","","null","","","","","<p><img src= images/blank.png width =""200"" height = ""200"" style = ""float:right""></p><p><img src=images/blank.png width =""800"" height = ""200""></p>","","","","","","","","","","","",""
"","4306.475000001257","sequential-stimulus-presentation","211","673262","0.0-41.0-1.2","SS1613169692985","trial","","40","800","5106.475000001257","images/stimuli/spore_stims/simple_20_B_a.gif","images/stimuli/spore_stims/simple_20_A_a.gif","","","","","11","simple_similar","images/stimuli/spore_stims/simple_20_A_a.gif","middle","","","","",""
"","null","html-keyboard-response","212","674126","0.0-41.0-0.3","SS1613169692985","","","null","","","","","<p><img src= images/blank.png width =""200"" height = ""200"" style = ""float:right""></p><p><img src=images/blank.png width =""800"" height = ""200""></p>","","","","","","","","","","","",""
"","3546.429999998538","sequential-stimulus-presentation","213","678484","0.0-41.0-1.3","SS1613169692985","trial","","40","800","4346.429999998538","images/stimuli/spore_stims/simple_20_B_a.gif","images/stimuli/spore_stims/simple_20_A_a.gif","","","","","11","simple_similar","images/stimuli/spore_stims/simple_20_B_a.gif","left","","","","",""
"","null","html-keyboard-response","214","679589","0.0-41.0-0.4","SS1613169692985","","","null","","","","","<p><img src= images/blank.png width =""200"" height = ""200"" style = ""float:right""></p><p><img src=images/blank.png width =""800"" height = ""200""></p>","","","","","","","","","","","",""
"","3190.0200000018813","sequential-stimulus-presentation","215","683596","0.0-41.0-1.4","SS1613169692985","trial","","40","800","3990.0200000018813","images/stimuli/spore_stims/simple_20_B_a.gif","images/stimuli/spore_stims/simple_20_A_a.gif","","","","","11","simple_similar","images/stimuli/spore_stims/simple_20_A_a.gif","middle","","","","",""
"","null","html-keyboard-response","216","684743","0.0-41.0-0.5","SS1613169692985","","","null","","","","","<p><img src= images/blank.png width =""200"" height = ""200"" style = ""float:right""></p><p><img src=images/blank.png width =""800"" height = ""200""></p>","","","","","","","","","","","",""
"","1587.0450000001583","sequential-stimulus-presentation","217","687141","0.0-41.0-1.5","SS1613169692985","trial","","40","800","2387.0450000001583","images/stimuli/spore_stims/simple_20_B_a.gif","images/stimuli/spore_stims/simple_20_A_a.gif","","","","","11","simple_similar","images/stimuli/spore_stims/simple_20_A_a.gif","middle","","","","",""
"","null","html-keyboard-response","218","688051","0.0-41.0-0.6","SS1613169692985","","","null","","","","","<p><img src= images/blank.png width =""200"" height = ""200"" style = ""float:right""></p><p><img src=images/blank.png width =""800"" height = ""200""></p>","","","","","","","","","","","",""
"","4708.349999997066","sequential-stimulus-presentation","219","693581","0.0-41.0-1.6","SS1613169692985","trial","","40","800","5508.349999997066","images/stimuli/spore_stims/simple_20_B_a.gif","images/stimuli/spore_stims/simple_20_A_a.gif","","","","","11","simple_similar","images/stimuli/spore_stims/simple_20_A_a.gif","middle","","","","",""
"","null","html-keyboard-response","220","694809","0.0-41.0-0.7","SS1613169692985","","","null","","","","","<p><img src= images/blank.png width =""200"" height = ""200"" style = ""float:right""></p><p><img src=images/blank.png width =""800"" height = ""200""></p>","","","","","","","","","","","",""
"","1720.5649999995949","sequential-stimulus-presentation","221","697340","0.0-41.0-1.7","SS1613169692985","trial","","40","800","2520.564999999595","images/stimuli/spore_stims/simple_20_B_a.gif","images/stimuli/spore_stims/simple_20_A_a.gif","","","","","11","simple_similar","images/stimuli/spore_stims/simple_20_A_a.gif","middle","","","","",""
"","1751.8100000015693","html-keyboard-response","222","699141","0.0-42.0","SS1613169692985","pref_question","","49","","","","","<video width ='960' height = '540' style='padding-top:8%' autoplay muted><source src='images/stimuli/wall_pref.mp4' type='video/mp4'></video>","1","left","25%","11","","","","","","","",""
"","3666.5250000006054","sequential-stimulus-presentation","223","703620","0.0-43.0","SS1613169692985","pref_reveal","","40","800","4466.525000000605","null","null","","","","","11","","","","deviant","","","",""
"","null","html-keyboard-response","224","704673","0.0-44.0-0.0","SS1613169692985","","","null","","","","","<p><img src= images/blank.png width =""200"" height = ""200"" style = ""float:right""></p><p><img src=images/blank.png width =""800"" height = ""200""></p>","","","","","","","","","","","",""
"","3718.089999998454","sequential-stimulus-presentation","225","709207","0.0-44.0-1.0","SS1613169692985","trial","","40","800","4518.089999998454","images/stimuli/spore_stims/complex_13_A_c.gif","images/stimuli/spore_stims/complex_13_B_c.gif","","","","","12","complex_similar","images/stimuli/spore_stims/complex_13_B_c.gif","left","","","","",""
"","null","html-keyboard-response","226","710060","0.0-44.0-0.1","SS1613169692985","","","null","","","","","<p><img src= images/blank.png width =""200"" height = ""200"" style = ""float:right""></p><p><img src=images/blank.png width =""800"" height = ""200""></p>","","","","","","","","","","","",""
"","2848.95499999763","sequential-stimulus-presentation","227","713723","0.0-44.0-1.1","SS1613169692985","trial","","40","800","3648.95499999763","images/stimuli/spore_stims/complex_13_A_c.gif","images/stimuli/spore_stims/complex_13_B_c.gif","","","","","12","complex_similar","images/stimuli/spore_stims/complex_13_B_c.gif","left","","","","",""
"","null","html-keyboard-response","228","714709","0.0-44.0-0.2","SS1613169692985","","","null","","","","","<p><img src= images/blank.png width =""200"" height = ""200"" style = ""float:right""></p><p><img src=images/blank.png width =""800"" height = ""200""></p>","","","","","","","","","","","",""
"","1046.7099999986822","sequential-stimulus-presentation","229","716567","0.0-44.0-1.2","SS1613169692985","trial","","40","800","1846.7099999986822","images/stimuli/spore_stims/complex_13_A_c.gif","images/stimuli/spore_stims/complex_13_B_c.gif","","","","","12","complex_similar","images/stimuli/spore_stims/complex_13_B_c.gif","left","","","","",""
"","null","html-keyboard-response","230","717441","0.0-44.0-0.3","SS1613169692985","","","null","","","","","<p><img src= images/blank.png width =""200"" height = ""200"" style = ""float:right""></p><p><img src=images/blank.png width =""800"" height = ""200""></p>","","","","","","","","","","","",""
"","1783.8599999995204","sequential-stimulus-presentation","231","720047","0.0-44.0-1.3","SS1613169692985","trial","","40","800","2583.8599999995204","images/stimuli/spore_stims/complex_13_A_c.gif","images/stimuli/spore_stims/complex_13_B_c.gif","","","","","12","complex_similar","images/stimuli/spore_stims/complex_13_A_c.gif","right","","","","",""
"","null","html-keyboard-response","232","721192","0.0-44.0-0.4","SS1613169692985","","","null","","","","","<p><img src= images/blank.png width =""200"" height = ""200"" style = ""float:right""></p><p><img src=images/blank.png width =""800"" height = ""200""></p>","","","","","","","","","","","",""
"","1702.3900000022259","sequential-stimulus-presentation","233","723725","0.0-44.0-1.4","SS1613169692985","trial","","40","800","2502.390000002226","images/stimuli/spore_stims/complex_13_A_c.gif","images/stimuli/spore_stims/complex_13_B_c.gif","","","","","12","complex_similar","images/stimuli/spore_stims/complex_13_B_c.gif","left","","","","",""
"","null","html-keyboard-response","234","724858","0.0-44.0-0.5","SS1613169692985","","","null","","","","","<p><img src= images/blank.png width =""200"" height = ""200"" style = ""float:right""></p><p><img src=images/blank.png width =""800"" height = ""200""></p>","","","","","","","","","","","",""
"","3530.4849999992875","sequential-stimulus-presentation","235","729218","0.0-44.0-1.5","SS1613169692985","trial","","40","800","4330.4849999992875","images/stimuli/spore_stims/complex_13_A_c.gif","images/stimuli/spore_stims/complex_13_B_c.gif","","","","","12","complex_similar","images/stimuli/spore_stims/complex_13_B_c.gif","left","","","","",""
"","null","html-keyboard-response","236","730450","0.0-44.0-0.6","SS1613169692985","","","null","","","","","<p><img src= images/blank.png width =""200"" height = ""200"" style = ""float:right""></p><p><img src=images/blank.png width =""800"" height = ""200""></p>","","","","","","","","","","","",""
"","1389.3449999996228","sequential-stimulus-presentation","237","732650","0.0-44.0-1.6","SS1613169692985","trial","","40","800","2189.344999999623","images/stimuli/spore_stims/complex_13_A_c.gif","images/stimuli/spore_stims/complex_13_B_c.gif","","","","","12","complex_similar","images/stimuli/spore_stims/complex_13_B_c.gif","left","","","","",""
"","null","html-keyboard-response","238","733920","0.0-44.0-0.7","SS1613169692985","","","null","","","","","<p><img src= images/blank.png width =""200"" height = ""200"" style = ""float:right""></p><p><img src=images/blank.png width =""800"" height = ""200""></p>","","","","","","","","","","","",""
"","1718.024999998277","sequential-stimulus-presentation","239","736449","0.0-44.0-1.7","SS1613169692985","trial","","40","800","2518.024999998277","images/stimuli/spore_stims/complex_13_A_c.gif","images/stimuli/spore_stims/complex_13_B_c.gif","","","","","12","complex_similar","images/stimuli/spore_stims/complex_13_B_c.gif","left","","","","",""
"","1648.7650000017602","html-keyboard-response","240","738105","0.0-45.0","SS1613169692985","pref_question","","50","","","","","<video width ='960' height = '540' style='padding-top:8%' autoplay muted><source src='images/stimuli/wall_pref.mp4' type='video/mp4'></video>","2","middle","45%","12","","","","","","","",""
"","8613.774999997928","sequential-stimulus-presentation","241","747526","0.0-46.0","SS1613169692985","pref_reveal","","40","800","9413.774999997928","null","null","","","","","12","","","","novel","","","",""
"","null","html-keyboard-response","242","748400","0.0-47.0-0.0","SS1613169692985","","","null","","","","","<p><img src= images/blank.png width =""200"" height = ""200"" style = ""float:right""></p><p><img src=images/blank.png width =""800"" height = ""200""></p>","","","","","","","","","","","",""
"","5817.695000001462","sequential-stimulus-presentation","243","755035","0.0-47.0-1.0","SS1613169692985","trial","","40","800","6617.695000001462","images/stimuli/spore_stims/complex_01_A_b.gif","images/stimuli/spore_stims/complex_01_B_b.gif","","","","","13","complex_similar","images/stimuli/spore_stims/complex_01_B_b.gif","left","","","","",""
"","null","html-keyboard-response","244","756191","0.0-47.0-0.1","SS1613169692985","","","null","","","","","<p><img src= images/blank.png width =""200"" height = ""200"" style = ""float:right""></p><p><img src=images/blank.png width =""800"" height = ""200""></p>","","","","","","","","","","","",""
"","3069.0250000006054","sequential-stimulus-presentation","245","760083","0.0-47.0-1.1","SS1613169692985","trial","","40","800","3869.0250000006054","images/stimuli/spore_stims/complex_01_A_b.gif","images/stimuli/spore_stims/complex_01_B_b.gif","","","","","13","complex_similar","images/stimuli/spore_stims/complex_01_B_b.gif","left","","","","",""
"","null","html-keyboard-response","246","761101","0.0-47.0-0.2","SS1613169692985","","","null","","","","","<p><img src= images/blank.png width =""200"" height = ""200"" style = ""float:right""></p><p><img src=images/blank.png width =""800"" height = ""200""></p>","","","","","","","","","","","",""
"","3134.474999998929","sequential-stimulus-presentation","247","765045","0.0-47.0-1.2","SS1613169692985","trial","","40","800","3934.474999998929","images/stimuli/spore_stims/complex_01_A_b.gif","images/stimuli/spore_stims/complex_01_B_b.gif","","","","","13","complex_similar","images/stimuli/spore_stims/complex_01_A_b.gif","right","","","","",""
"","null","html-keyboard-response","248","766046","0.0-47.0-0.3","SS1613169692985","","","null","","","","","<p><img src= images/blank.png width =""200"" height = ""200"" style = ""float:right""></p><p><img src=images/blank.png width =""800"" height = ""200""></p>","","","","","","","","","","","",""
"","1585.319999998319","sequential-stimulus-presentation","249","768459","0.0-47.0-1.3","SS1613169692985","trial","","40","800","2385.319999998319","images/stimuli/spore_stims/complex_01_A_b.gif","images/stimuli/spore_stims/complex_01_B_b.gif","","","","","13","complex_similar","images/stimuli/spore_stims/complex_01_B_b.gif","left","","","","",""
"","null","html-keyboard-response","250","769646","0.0-47.0-0.4","SS1613169692985","","","null","","","","","<p><img src= images/blank.png width =""200"" height = ""200"" style = ""float:right""></p><p><img src=images/blank.png width =""800"" height = ""200""></p>","","","","","","","","","","","",""
"","1813.6750000012107","sequential-stimulus-presentation","251","772351","0.0-47.0-1.4","SS1613169692985","trial","","40","800","2613.6750000012107","images/stimuli/spore_stims/complex_01_A_b.gif","images/stimuli/spore_stims/complex_01_B_b.gif","","","","","13","complex_similar","images/stimuli/spore_stims/complex_01_B_b.gif","left","","","","",""
"","null","html-keyboard-response","252","773347","0.0-47.0-0.5","SS1613169692985","","","null","","","","","<p><img src= images/blank.png width =""200"" height = ""200"" style = ""float:right""></p><p><img src=images/blank.png width =""800"" height = ""200""></p>","","","","","","","","","","","",""
"","2703.6550000010757","sequential-stimulus-presentation","253","776861","0.0-47.0-1.5","SS1613169692985","trial","","40","800","3503.6550000010757","images/stimuli/spore_stims/complex_01_A_b.gif","images/stimuli/spore_stims/complex_01_B_b.gif","","","","","13","complex_similar","images/stimuli/spore_stims/complex_01_B_b.gif","left","","","","",""
"","null","html-keyboard-response","254","777963","0.0-47.0-0.6","SS1613169692985","","","null","","","","","<p><img src= images/blank.png width =""200"" height = ""200"" style = ""float:right""></p><p><img src=images/blank.png width =""800"" height = ""200""></p>","","","","","","","","","","","",""
"","1201.3750000004657","sequential-stimulus-presentation","255","779978","0.0-47.0-1.6","SS1613169692985","trial","","40","800","2001.3750000004657","images/stimuli/spore_stims/complex_01_A_b.gif","images/stimuli/spore_stims/complex_01_B_b.gif","","","","","13","complex_similar","images/stimuli/spore_stims/complex_01_B_b.gif","left","","","","",""
"","null","html-keyboard-response","256","781137","0.0-47.0-0.7","SS1613169692985","","","null","","","","","<p><img src= images/blank.png width =""200"" height = ""200"" style = ""float:right""></p><p><img src=images/blank.png width =""800"" height = ""200""></p>","","","","","","","","","","","",""
"","2053.694999998668","sequential-stimulus-presentation","257","783999","0.0-47.0-1.7","SS1613169692985","trial","","40","800","2853.694999998668","images/stimuli/spore_stims/complex_01_A_b.gif","images/stimuli/spore_stims/complex_01_B_b.gif","","","","","13","complex_similar","images/stimuli/spore_stims/complex_01_B_b.gif","left","","","","",""
"","2730.2249999993946","html-keyboard-response","258","786753","0.0-48.0","SS1613169692985","pref_question","","50","","","","","<video width ='960' height = '540' style='padding-top:8%' autoplay muted><source src='images/stimuli/wall_pref.mp4' type='video/mp4'></video>","2","middle","45%","13","","","","","","","",""
"","4254.205000001006","sequential-stimulus-presentation","259","791840","0.0-49.0","SS1613169692985","pref_reveal","","40","800","5054.205000001006","null","null","","","","","13","","","","novel","","","",""
"","null","html-keyboard-response","260","792712","0.0-50.0-0.0","SS1613169692985","","","null","","","","","<p><img src= images/blank.png width =""200"" height = ""200"" style = ""float:right""></p><p><img src=images/blank.png width =""800"" height = ""200""></p>","","","","","","","","","","","",""
"","3578.0750000013504","sequential-stimulus-presentation","261","797137","0.0-50.0-1.0","SS1613169692985","trial","","40","800","4378.07500000135","images/stimuli/spore_stims/simple_11_A_c.gif","images/stimuli/spore_stims/simple_13_B_a.gif","","","","","14","simple_dissimilar","images/stimuli/spore_stims/simple_13_B_a.gif","middle","","","","",""
"","null","html-keyboard-response","262","798398","0.0-50.0-0.1","SS1613169692985","","","null","","","","","<p><img src= images/blank.png width =""200"" height = ""200"" style = ""float:right""></p><p><img src=images/blank.png width =""800"" height = ""200""></p>","","","","","","","","","","","",""
"","1253.164999998291","sequential-stimulus-presentation","263","800463","0.0-50.0-1.1","SS1613169692985","trial","","40","800","2053.164999998291","images/stimuli/spore_stims/simple_11_A_c.gif","images/stimuli/spore_stims/simple_13_B_a.gif","","","","","14","simple_dissimilar","images/stimuli/spore_stims/simple_13_B_a.gif","middle","","","","",""
"","null","html-keyboard-response","264","801676","0.0-50.0-0.2","SS1613169692985","","","null","","","","","<p><img src= images/blank.png width =""200"" height = ""200"" style = ""float:right""></p><p><img src=images/blank.png width =""800"" height = ""200""></p>","","","","","","","","","","","",""
"","988.2649999998976","sequential-stimulus-presentation","265","803514","0.0-50.0-1.2","SS1613169692985","trial","","40","800","1788.2649999998976","images/stimuli/spore_stims/simple_11_A_c.gif","images/stimuli/spore_stims/simple_13_B_a.gif","","","","","14","simple_dissimilar","images/stimuli/spore_stims/simple_13_B_a.gif","middle","","","","",""
"","null","html-keyboard-response","266","804564","0.0-50.0-0.3","SS1613169692985","","","null","","","","","<p><img src= images/blank.png width =""200"" height = ""200"" style = ""float:right""></p><p><img src=images/blank.png width =""800"" height = ""200""></p>","","","","","","","","","","","",""
"","1823.5899999999674","sequential-stimulus-presentation","267","807197","0.0-50.0-1.3","SS1613169692985","trial","","40","800","2623.5899999999674","images/stimuli/spore_stims/simple_11_A_c.gif","images/stimuli/spore_stims/simple_13_B_a.gif","","","","","14","simple_dissimilar","images/stimuli/spore_stims/simple_13_B_a.gif","middle","","","","",""
"","null","html-keyboard-response","268","808145","0.0-50.0-0.4","SS1613169692985","","","null","","","","","<p><img src= images/blank.png width =""200"" height = ""200"" style = ""float:right""></p><p><img src=images/blank.png width =""800"" height = ""200""></p>","","","","","","","","","","","",""
"","3427.524999999092","sequential-stimulus-presentation","269","812388","0.0-50.0-1.4","SS1613169692985","trial","","40","800","4227.524999999092","images/stimuli/spore_stims/simple_11_A_c.gif","images/stimuli/spore_stims/simple_13_B_a.gif","","","","","14","simple_dissimilar","images/stimuli/spore_stims/simple_13_B_a.gif","middle","","","","",""
"","null","html-keyboard-response","270","813507","0.0-50.0-0.5","SS1613169692985","","","null","","","","","<p><img src= images/blank.png width =""200"" height = ""200"" style = ""float:right""></p><p><img src=images/blank.png width =""800"" height = ""200""></p>","","","","","","","","","","","",""
"","452.8549999995157","sequential-stimulus-presentation","271","814787","0.0-50.0-1.5","SS1613169692985","trial","","40","800","1252.8549999995157","images/stimuli/spore_stims/simple_11_A_c.gif","images/stimuli/spore_stims/simple_13_B_a.gif","","","","","14","simple_dissimilar","images/stimuli/spore_stims/simple_13_B_a.gif","middle","","","","",""
"","null","html-keyboard-response","272","815796","0.0-50.0-0.6","SS1613169692985","","","null","","","","","<p><img src= images/blank.png width =""200"" height = ""200"" style = ""float:right""></p><p><img src=images/blank.png width =""800"" height = ""200""></p>","","","","","","","","","","","",""
"","2946.3250000007683","sequential-stimulus-presentation","273","819557","0.0-50.0-1.6","SS1613169692985","trial","","40","800","3746.3250000007683","images/stimuli/spore_stims/simple_11_A_c.gif","images/stimuli/spore_stims/simple_13_B_a.gif","","","","","14","simple_dissimilar","images/stimuli/spore_stims/simple_11_A_c.gif","left","","","","",""
"","null","html-keyboard-response","274","820621","0.0-50.0-0.7","SS1613169692985","","","null","","","","","<p><img src= images/blank.png width =""200"" height = ""200"" style = ""float:right""></p><p><img src=images/blank.png width =""800"" height = ""200""></p>","","","","","","","","","","","",""
"","2747.2850000011967","sequential-stimulus-presentation","275","824182","0.0-50.0-1.7","SS1613169692985","trial","","40","800","3547.2850000011967","images/stimuli/spore_stims/simple_11_A_c.gif","images/stimuli/spore_stims/simple_13_B_a.gif","","","","","14","simple_dissimilar","images/stimuli/spore_stims/simple_13_B_a.gif","middle","","","","",""
"","1792.6800000022631","html-keyboard-response","276","826036","0.0-51.0","SS1613169692985","pref_question","","49","","","","","<video width ='960' height = '540' style='padding-top:8%' autoplay muted><source src='images/stimuli/wall_pref.mp4' type='video/mp4'></video>","1","left","25%","14","","","","","","","",""
"","510.7900000002701","sequential-stimulus-presentation","277","827367","0.0-52.0","SS1613169692985","pref_reveal","","40","800","1310.79000000027","null","null","","","","","14","","","","deviant","","","",""
"","null","html-keyboard-response","278","828284","0.0-53.0-0.0","SS1613169692985","","","null","","","","","<p><img src= images/blank.png width =""200"" height = ""200"" style = ""float:right""></p><p><img src=images/blank.png width =""800"" height = ""200""></p>","","","","","","","","","","","",""
"","2143.609999999171","sequential-stimulus-presentation","279","831247","0.0-53.0-1.0","SS1613169692985","trial","","40","800","2943.609999999171","images/stimuli/spore_stims/complex_20_A_c.gif","images/stimuli/spore_stims/complex_11_A_a.gif","","","","","15","complex_dissimilar","images/stimuli/spore_stims/complex_11_A_a.gif","middle","","","","",""
"","null","html-keyboard-response","280","832148","0.0-53.0-0.1","SS1613169692985","","","null","","","","","<p><img src= images/blank.png width =""200"" height = ""200"" style = ""float:right""></p><p><img src=images/blank.png width =""800"" height = ""200""></p>","","","","","","","","","","","",""
"","1121.3800000005867","sequential-stimulus-presentation","281","834082","0.0-53.0-1.1","SS1613169692985","trial","","40","800","1921.3800000005867","images/stimuli/spore_stims/complex_20_A_c.gif","images/stimuli/spore_stims/complex_11_A_a.gif","","","","","15","complex_dissimilar","images/stimuli/spore_stims/complex_11_A_a.gif","middle","","","","",""
"","null","html-keyboard-response","282","835003","0.0-53.0-0.2","SS1613169692985","","","null","","","","","<p><img src= images/blank.png width =""200"" height = ""200"" style = ""float:right""></p><p><img src=images/blank.png width =""800"" height = ""200""></p>","","","","","","","","","","","",""
"","1154.839999999269","sequential-stimulus-presentation","283","836998","0.0-53.0-1.2","SS1613169692985","trial","","40","800","1954.839999999269","images/stimuli/spore_stims/complex_20_A_c.gif","images/stimuli/spore_stims/complex_11_A_a.gif","","","","","15","complex_dissimilar","images/stimuli/spore_stims/complex_11_A_a.gif","middle","","","","",""
"","null","html-keyboard-response","284","838111","0.0-53.0-0.3","SS1613169692985","","","null","","","","","<p><img src= images/blank.png width =""200"" height = ""200"" style = ""float:right""></p><p><img src=images/blank.png width =""800"" height = ""200""></p>","","","","","","","","","","","",""
"","1077.3249999983236","sequential-stimulus-presentation","285","840022","0.0-53.0-1.3","SS1613169692985","trial","","40","800","1877.3249999983236","images/stimuli/spore_stims/complex_20_A_c.gif","images/stimuli/spore_stims/complex_11_A_a.gif","","","","","15","complex_dissimilar","images/stimuli/spore_stims/complex_11_A_a.gif","middle","","","","",""
"","null","html-keyboard-response","286","841304","0.0-53.0-0.4","SS1613169692985","","","null","","","","","<p><img src= images/blank.png width =""200"" height = ""200"" style = ""float:right""></p><p><img src=images/blank.png width =""800"" height = ""200""></p>","","","","","","","","","","","",""
"","508.66499999759253","sequential-stimulus-presentation","287","842626","0.0-53.0-1.4","SS1613169692985","trial","","40","800","1308.6649999975925","images/stimuli/spore_stims/complex_20_A_c.gif","images/stimuli/spore_stims/complex_11_A_a.gif","","","","","15","complex_dissimilar","images/stimuli/spore_stims/complex_11_A_a.gif","middle","","","","",""
"","null","html-keyboard-response","288","843880","0.0-53.0-0.5","SS1613169692985","","","null","","","","","<p><img src= images/blank.png width =""200"" height = ""200"" style = ""float:right""></p><p><img src=images/blank.png width =""800"" height = ""200""></p>","","","","","","","","","","","",""
"","3253.5349999997998","sequential-stimulus-presentation","289","847947","0.0-53.0-1.5","SS1613169692985","trial","","40","800","4053.5349999997998","images/stimuli/spore_stims/complex_20_A_c.gif","images/stimuli/spore_stims/complex_11_A_a.gif","","","","","15","complex_dissimilar","images/stimuli/spore_stims/complex_20_A_c.gif","left","","","","",""
"","null","html-keyboard-response","290","849103","0.0-53.0-0.6","SS1613169692985","","","null","","","","","<p><img src= images/blank.png width =""200"" height = ""200"" style = ""float:right""></p><p><img src=images/blank.png width =""800"" height = ""200""></p>","","","","","","","","","","","",""
"","3206.7299999981187","sequential-stimulus-presentation","291","853138","0.0-53.0-1.6","SS1613169692985","trial","","40","800","4006.7299999981187","images/stimuli/spore_stims/complex_20_A_c.gif","images/stimuli/spore_stims/complex_11_A_a.gif","","","","","15","complex_dissimilar","images/stimuli/spore_stims/complex_11_A_a.gif","middle","","","","",""
"","null","html-keyboard-response","292","854300","0.0-53.0-0.7","SS1613169692985","","","null","","","","","<p><img src= images/blank.png width =""200"" height = ""200"" style = ""float:right""></p><p><img src=images/blank.png width =""800"" height = ""200""></p>","","","","","","","","","","","",""
"","631.8800000008196","sequential-stimulus-presentation","293","855798","0.0-53.0-1.7","SS1613169692985","trial","","40","800","1431.8800000008196","images/stimuli/spore_stims/complex_20_A_c.gif","images/stimuli/spore_stims/complex_11_A_a.gif","","","","","15","complex_dissimilar","images/stimuli/spore_stims/complex_11_A_a.gif","middle","","","","",""
"","1906.8250000019325","html-keyboard-response","294","857731","0.0-54.0","SS1613169692985","pref_question","","51","","","","","<video width ='960' height = '540' style='padding-top:8%' autoplay muted><source src='images/stimuli/wall_pref.mp4' type='video/mp4'></video>","3","right","66%","15","","","","","","","",""
"","3405.4799999975367","sequential-stimulus-presentation","295","861945","0.0-55.0","SS1613169692985","pref_reveal","","40","800","4205.479999997537","null","null","","","","","15","","","","novel","","","",""
"","null","html-keyboard-response","296","863016","0.0-56.0-0.0","SS1613169692985","","","null","","","","","<p><img src= images/blank.png width =""200"" height = ""200"" style = ""float:right""></p><p><img src=images/blank.png width =""800"" height = ""200""></p>","","","","","","","","","","","",""
"","2110.0200000000186","sequential-stimulus-presentation","297","865952","0.0-56.0-1.0","SS1613169692985","trial","","40","800","2910.0200000000186","images/stimuli/spore_stims/simple_19_B_b.gif","images/stimuli/spore_stims/simple_07_A_c.gif","","","","","16","simple_dissimilar","images/stimuli/spore_stims/simple_07_A_c.gif","middle","","","","",""
"","null","html-keyboard-response","298","866867","0.0-56.0-0.1","SS1613169692985","","","null","","","","","<p><img src= images/blank.png width =""200"" height = ""200"" style = ""float:right""></p><p><img src=images/blank.png width =""800"" height = ""200""></p>","","","","","","","","","","","",""
"","553.9800000005635","sequential-stimulus-presentation","299","868262","0.0-56.0-1.1","SS1613169692985","trial","","40","800","1353.9800000005635","images/stimuli/spore_stims/simple_19_B_b.gif","images/stimuli/spore_stims/simple_07_A_c.gif","","","","","16","simple_dissimilar","images/stimuli/spore_stims/simple_07_A_c.gif","middle","","","","",""
"","null","html-keyboard-response","300","869192","0.0-56.0-0.2","SS1613169692985","","","null","","","","","<p><img src= images/blank.png width =""200"" height = ""200"" style = ""float:right""></p><p><img src=images/blank.png width =""800"" height = ""200""></p>","","","","","","","","","","","",""
"","1691.609999998007","sequential-stimulus-presentation","301","871696","0.0-56.0-1.2","SS1613169692985","trial","","40","800","2491.609999998007","images/stimuli/spore_stims/simple_19_B_b.gif","images/stimuli/spore_stims/simple_07_A_c.gif","","","","","16","simple_dissimilar","images/stimuli/spore_stims/simple_07_A_c.gif","middle","","","","",""
"","null","html-keyboard-response","302","872813","0.0-56.0-0.3","SS1613169692985","","","null","","","","","<p><img src= images/blank.png width =""200"" height = ""200"" style = ""float:right""></p><p><img src=images/blank.png width =""800"" height = ""200""></p>","","","","","","","","","","","",""
"","1202.405000000028","sequential-stimulus-presentation","303","874878","0.0-56.0-1.3","SS1613169692985","trial","","40","800","2002.405000000028","images/stimuli/spore_stims/simple_19_B_b.gif","images/stimuli/spore_stims/simple_07_A_c.gif","","","","","16","simple_dissimilar","images/stimuli/spore_stims/simple_07_A_c.gif","middle","","","","",""
"","null","html-keyboard-response","304","875748","0.0-56.0-0.4","SS1613169692985","","","null","","","","","<p><img src= images/blank.png width =""200"" height = ""200"" style = ""float:right""></p><p><img src=images/blank.png width =""800"" height = ""200""></p>","","","","","","","","","","","",""
"","2337.630000001751","sequential-stimulus-presentation","305","878919","0.0-56.0-1.4","SS1613169692985","trial","","40","800","3137.630000001751","images/stimuli/spore_stims/simple_19_B_b.gif","images/stimuli/spore_stims/simple_07_A_c.gif","","","","","16","simple_dissimilar","images/stimuli/spore_stims/simple_19_B_b.gif","left","","","","",""
"","null","html-keyboard-response","306","880139","0.0-56.0-0.5","SS1613169692985","","","null","","","","","<p><img src= images/blank.png width =""200"" height = ""200"" style = ""float:right""></p><p><img src=images/blank.png width =""800"" height = ""200""></p>","","","","","","","","","","","",""
"","1857.154999997816","sequential-stimulus-presentation","307","882812","0.0-56.0-1.5","SS1613169692985","trial","","40","800","2657.154999997816","images/stimuli/spore_stims/simple_19_B_b.gif","images/stimuli/spore_stims/simple_07_A_c.gif","","","","","16","simple_dissimilar","images/stimuli/spore_stims/simple_07_A_c.gif","middle","","","","",""
"","null","html-keyboard-response","308","883657","0.0-56.0-0.6","SS1613169692985","","","null","","","","","<p><img src= images/blank.png width =""200"" height = ""200"" style = ""float:right""></p><p><img src=images/blank.png width =""800"" height = ""200""></p>","","","","","","","","","","","",""
"","1520.974999999511","sequential-stimulus-presentation","309","886010","0.0-56.0-1.6","SS1613169692985","trial","","40","800","2320.974999999511","images/stimuli/spore_stims/simple_19_B_b.gif","images/stimuli/spore_stims/simple_07_A_c.gif","","","","","16","simple_dissimilar","images/stimuli/spore_stims/simple_07_A_c.gif","middle","","","","",""
"","null","html-keyboard-response","310","887006","0.0-56.0-0.7","SS1613169692985","","","null","","","","","<p><img src= images/blank.png width =""200"" height = ""200"" style = ""float:right""></p><p><img src=images/blank.png width =""800"" height = ""200""></p>","","","","","","","","","","","",""
"","2287.5200000016484","sequential-stimulus-presentation","311","890143","0.0-56.0-1.7","SS1613169692985","trial","","40","800","3087.5200000016484","images/stimuli/spore_stims/simple_19_B_b.gif","images/stimuli/spore_stims/simple_07_A_c.gif","","","","","16","simple_dissimilar","images/stimuli/spore_stims/simple_07_A_c.gif","middle","","","","",""
"","1790.7300000006799","html-keyboard-response","312","891943","0.0-57.0","SS1613169692985","pref_question","","49","","","","","<video width ='960' height = '540' style='padding-top:8%' autoplay muted><source src='images/stimuli/wall_pref.mp4' type='video/mp4'></video>","1","left","25%","16","","","","","","","",""
