"view_history","rt","trial_type","trial_index","time_elapsed","internal_node_id","subject","stimulus_type","trial_stimulus","key_press","minimum_viewing_duration","trial_looking_time","block_deviant","block_background","stimulus","wall_pref","location","location_percent","block_number","block_type","stimulus_displayed","position_displayed","stim_type_selected","responses","question_order","stimulus_left","stimulus_right"
"[{""page_index"":0,""viewing_time"":15206}]","15206","instructions","0","15208","0.0-0.0","SS1613082412860","","","","","","","","","","","","","","","","","","","",""
"[{""page_index"":0,""viewing_time"":7103},{""page_index"":1,""viewing_time"":3734}]","10837","instructions","1","28048","0.0-1.0","SS1613082412860","instructions","","","","","","","","","","","","","","","","","","",""
"","5533","sequential-stimulus-presentation","2","34391","0.0-2.0","SS1613082412860","","","40","800","6333","null","null","","","","","","","","","","","","",""
"","3198","sequential-stimulus-presentation","3","38401","0.0-3.0","SS1613082412860","","","40","800","3998","null","null","","","","","","","","","","","","",""
"[{""page_index"":0,""viewing_time"":2825}]","2825","instructions","4","41227","0.0-4.0","SS1613082412860","instructions","","","","","","","","","","","","","","","","","","",""
"","11859","html-keyboard-response","5","53091","0.0-5.0","SS1613082412860","instructions","","50","","","","","<video width ='960' height = '540' autoplay muted><source src='images/stimuli/wall_pref.mp4' type='video/mp4'></video>","2","middle","45%","","","","","","","","",""
"","865","sequential-stimulus-presentation","6","54765","0.0-6.0","SS1613082412860","pref_reveal","","40","800","1665","null","null","","","","","","","","","","","","",""
"[{""page_index"":0,""viewing_time"":4516},{""page_index"":1,""viewing_time"":4816},{""page_index"":2,""viewing_time"":4606},{""page_index"":3,""viewing_time"":711}]","14649","instructions","7","69414","0.0-7.0","SS1613082412860","instructions","","","","","","","","","","","","","","","","","","",""
"","null","html-keyboard-response","8","70326","0.0-8.0-0.0","SS1613082412860","","","null","","","","","<p><img src= images/blank.png width =""200"" height = ""200"" style = ""float:right""></p><p><img src=images/blank.png width =""800"" height = ""200""></p>","","","","","","","","","","","",""
"","1330","sequential-stimulus-presentation","9","72463","0.0-8.0-1.0","SS1613082412860","trial","","40","800","2130","images/stimuli/spore_stims/complex_07_A_c.gif","images/stimuli/spore_stims/complex_14_B_a.gif","","","","","0","complex_dissimilar","images/stimuli/spore_stims/complex_14_B_a.gif","right","","","","",""
"","null","html-keyboard-response","10","73589","0.0-8.0-0.1","SS1613082412860","","","null","","","","","<p><img src= images/blank.png width =""200"" height = ""200"" style = ""float:right""></p><p><img src=images/blank.png width =""800"" height = ""200""></p>","","","","","","","","","","","",""
"","385","sequential-stimulus-presentation","11","74792","0.0-8.0-1.1","SS1613082412860","trial","","40","800","1185","images/stimuli/spore_stims/complex_07_A_c.gif","images/stimuli/spore_stims/complex_14_B_a.gif","","","","","0","complex_dissimilar","images/stimuli/spore_stims/complex_14_B_a.gif","right","","","","",""
"","null","html-keyboard-response","12","76103","0.0-8.0-0.2","SS1613082412860","","","null","","","","","<p><img src= images/blank.png width =""200"" height = ""200"" style = ""float:right""></p><p><img src=images/blank.png width =""800"" height = ""200""></p>","","","","","","","","","","","",""
"","2721","sequential-stimulus-presentation","13","79628","0.0-8.0-1.2","SS1613082412860","trial","","40","800","3521","images/stimuli/spore_stims/complex_07_A_c.gif","images/stimuli/spore_stims/complex_14_B_a.gif","","","","","0","complex_dissimilar","images/stimuli/spore_stims/complex_14_B_a.gif","right","","","","",""
"","null","html-keyboard-response","14","80687","0.0-8.0-0.3","SS1613082412860","","","null","","","","","<p><img src= images/blank.png width =""200"" height = ""200"" style = ""float:right""></p><p><img src=images/blank.png width =""800"" height = ""200""></p>","","","","","","","","","","","",""
"","1815","sequential-stimulus-presentation","15","83307","0.0-8.0-1.3","SS1613082412860","trial","","40","800","2615","images/stimuli/spore_stims/complex_07_A_c.gif","images/stimuli/spore_stims/complex_14_B_a.gif","","","","","0","complex_dissimilar","images/stimuli/spore_stims/complex_14_B_a.gif","right","","","","",""
"","null","html-keyboard-response","16","84185","0.0-8.0-0.4","SS1613082412860","","","null","","","","","<p><img src= images/blank.png width =""200"" height = ""200"" style = ""float:right""></p><p><img src=images/blank.png width =""800"" height = ""200""></p>","","","","","","","","","","","",""
"","239","sequential-stimulus-presentation","17","85226","0.0-8.0-1.4","SS1613082412860","trial","","40","800","1039","images/stimuli/spore_stims/complex_07_A_c.gif","images/stimuli/spore_stims/complex_14_B_a.gif","","","","","0","complex_dissimilar","images/stimuli/spore_stims/complex_14_B_a.gif","right","","","","",""
"","null","html-keyboard-response","18","86525","0.0-8.0-0.5","SS1613082412860","","","null","","","","","<p><img src= images/blank.png width =""200"" height = ""200"" style = ""float:right""></p><p><img src=images/blank.png width =""800"" height = ""200""></p>","","","","","","","","","","","",""
"","1287","sequential-stimulus-presentation","19","88620","0.0-8.0-1.5","SS1613082412860","trial","","40","800","2087","images/stimuli/spore_stims/complex_07_A_c.gif","images/stimuli/spore_stims/complex_14_B_a.gif","","","","","0","complex_dissimilar","images/stimuli/spore_stims/complex_14_B_a.gif","right","","","","",""
"","null","html-keyboard-response","20","89781","0.0-8.0-0.6","SS1613082412860","","","null","","","","","<p><img src= images/blank.png width =""200"" height = ""200"" style = ""float:right""></p><p><img src=images/blank.png width =""800"" height = ""200""></p>","","","","","","","","","","","",""
"","2322","sequential-stimulus-presentation","21","92909","0.0-8.0-1.6","SS1613082412860","trial","","40","800","3122","images/stimuli/spore_stims/complex_07_A_c.gif","images/stimuli/spore_stims/complex_14_B_a.gif","","","","","0","complex_dissimilar","images/stimuli/spore_stims/complex_07_A_c.gif","left","","","","",""
"","null","html-keyboard-response","22","93889","0.0-8.0-0.7","SS1613082412860","","","null","","","","","<p><img src= images/blank.png width =""200"" height = ""200"" style = ""float:right""></p><p><img src=images/blank.png width =""800"" height = ""200""></p>","","","","","","","","","","","",""
"","1844","sequential-stimulus-presentation","23","96539","0.0-8.0-1.7","SS1613082412860","trial","","40","800","2644","images/stimuli/spore_stims/complex_07_A_c.gif","images/stimuli/spore_stims/complex_14_B_a.gif","","","","","0","complex_dissimilar","images/stimuli/spore_stims/complex_14_B_a.gif","right","","","","",""
"","5446","html-keyboard-response","24","101987","0.0-9.0","SS1613082412860","pref_question","","49","","","","","<video width ='960' height = '540' style='padding-top:8%' autoplay muted><source src='images/stimuli/wall_pref.mp4' type='video/mp4'></video>","1","left","25%","0","","","","","","","",""
"","2819","sequential-stimulus-presentation","25","105625","0.0-10.0","SS1613082412860","pref_reveal","","40","800","3619","null","null","","","","","0","","","","deviant","","","",""
"","null","html-keyboard-response","26","106921","0.0-11.0-0.0","SS1613082412860","","","null","","","","","<p><img src= images/blank.png width =""200"" height = ""200"" style = ""float:right""></p><p><img src=images/blank.png width =""800"" height = ""200""></p>","","","","","","","","","","","",""
"","1262","sequential-stimulus-presentation","27","108988","0.0-11.0-1.0","SS1613082412860","trial","","40","800","2062","images/stimuli/spore_stims/simple_05_A_d.gif","images/stimuli/spore_stims/simple_17_B_a.gif","","","","","1","simple_dissimilar","images/stimuli/spore_stims/simple_17_B_a.gif","right","","","","",""
"","null","html-keyboard-response","28","110103","0.0-11.0-0.1","SS1613082412860","","","null","","","","","<p><img src= images/blank.png width =""200"" height = ""200"" style = ""float:right""></p><p><img src=images/blank.png width =""800"" height = ""200""></p>","","","","","","","","","","","",""
"","1422","sequential-stimulus-presentation","29","112331","0.0-11.0-1.1","SS1613082412860","trial","","40","800","2222","images/stimuli/spore_stims/simple_05_A_d.gif","images/stimuli/spore_stims/simple_17_B_a.gif","","","","","1","simple_dissimilar","images/stimuli/spore_stims/simple_17_B_a.gif","right","","","","",""
"","null","html-keyboard-response","30","113400","0.0-11.0-0.2","SS1613082412860","","","null","","","","","<p><img src= images/blank.png width =""200"" height = ""200"" style = ""float:right""></p><p><img src=images/blank.png width =""800"" height = ""200""></p>","","","","","","","","","","","",""
"","417","sequential-stimulus-presentation","31","114622","0.0-11.0-1.2","SS1613082412860","trial","","40","800","1217","images/stimuli/spore_stims/simple_05_A_d.gif","images/stimuli/spore_stims/simple_17_B_a.gif","","","","","1","simple_dissimilar","images/stimuli/spore_stims/simple_17_B_a.gif","right","","","","",""
"","null","html-keyboard-response","32","115843","0.0-11.0-0.3","SS1613082412860","","","null","","","","","<p><img src= images/blank.png width =""200"" height = ""200"" style = ""float:right""></p><p><img src=images/blank.png width =""800"" height = ""200""></p>","","","","","","","","","","","",""
"","1772","sequential-stimulus-presentation","33","118421","0.0-11.0-1.3","SS1613082412860","trial","","40","800","2572","images/stimuli/spore_stims/simple_05_A_d.gif","images/stimuli/spore_stims/simple_17_B_a.gif","","","","","1","simple_dissimilar","images/stimuli/spore_stims/simple_17_B_a.gif","right","","","","",""
"","null","html-keyboard-response","34","119458","0.0-11.0-0.4","SS1613082412860","","","null","","","","","<p><img src= images/blank.png width =""200"" height = ""200"" style = ""float:right""></p><p><img src=images/blank.png width =""800"" height = ""200""></p>","","","","","","","","","","","",""
"","1464","sequential-stimulus-presentation","35","121729","0.0-11.0-1.4","SS1613082412860","trial","","40","800","2264","images/stimuli/spore_stims/simple_05_A_d.gif","images/stimuli/spore_stims/simple_17_B_a.gif","","","","","1","simple_dissimilar","images/stimuli/spore_stims/simple_05_A_d.gif","left","","","","",""
"","null","html-keyboard-response","36","122705","0.0-11.0-0.5","SS1613082412860","","","null","","","","","<p><img src= images/blank.png width =""200"" height = ""200"" style = ""float:right""></p><p><img src=images/blank.png width =""800"" height = ""200""></p>","","","","","","","","","","","",""
"","1485","sequential-stimulus-presentation","37","125007","0.0-11.0-1.5","SS1613082412860","trial","","40","800","2285","images/stimuli/spore_stims/simple_05_A_d.gif","images/stimuli/spore_stims/simple_17_B_a.gif","","","","","1","simple_dissimilar","images/stimuli/spore_stims/simple_17_B_a.gif","right","","","","",""
"","null","html-keyboard-response","38","126182","0.0-11.0-0.6","SS1613082412860","","","null","","","","","<p><img src= images/blank.png width =""200"" height = ""200"" style = ""float:right""></p><p><img src=images/blank.png width =""800"" height = ""200""></p>","","","","","","","","","","","",""
"","971","sequential-stimulus-presentation","39","127958","0.0-11.0-1.6","SS1613082412860","trial","","40","800","1771","images/stimuli/spore_stims/simple_05_A_d.gif","images/stimuli/spore_stims/simple_17_B_a.gif","","","","","1","simple_dissimilar","images/stimuli/spore_stims/simple_17_B_a.gif","right","","","","",""
"","null","html-keyboard-response","40","128857","0.0-11.0-0.7","SS1613082412860","","","null","","","","","<p><img src= images/blank.png width =""200"" height = ""200"" style = ""float:right""></p><p><img src=images/blank.png width =""800"" height = ""200""></p>","","","","","","","","","","","",""
"","356","sequential-stimulus-presentation","41","130018","0.0-11.0-1.7","SS1613082412860","trial","","40","800","1156","images/stimuli/spore_stims/simple_05_A_d.gif","images/stimuli/spore_stims/simple_17_B_a.gif","","","","","1","simple_dissimilar","images/stimuli/spore_stims/simple_17_B_a.gif","right","","","","",""
"","1646","html-keyboard-response","42","131667","0.0-12.0","SS1613082412860","pref_question","","51","","","","","<video width ='960' height = '540' style='padding-top:8%' autoplay muted><source src='images/stimuli/wall_pref.mp4' type='video/mp4'></video>","3","right","66%","1","","","","","","","",""
"","1494","sequential-stimulus-presentation","43","133967","0.0-13.0","SS1613082412860","pref_reveal","","40","800","2294","null","null","","","","","1","","","","background","","","",""
"","null","html-keyboard-response","44","135059","0.0-14.0-0.0","SS1613082412860","","","null","","","","","<p><img src= images/blank.png width =""200"" height = ""200"" style = ""float:right""></p><p><img src=images/blank.png width =""800"" height = ""200""></p>","","","","","","","","","","","",""
"","1022","sequential-stimulus-presentation","45","136899","0.0-14.0-1.0","SS1613082412860","trial","","40","800","1822","images/stimuli/spore_stims/simple_11_A_d.gif","images/stimuli/spore_stims/simple_11_B_d.gif","","","","","2","simple_similar","images/stimuli/spore_stims/simple_11_B_d.gif","right","","","","",""
"","null","html-keyboard-response","46","137732","0.0-14.0-0.1","SS1613082412860","","","null","","","","","<p><img src= images/blank.png width =""200"" height = ""200"" style = ""float:right""></p><p><img src=images/blank.png width =""800"" height = ""200""></p>","","","","","","","","","","","",""
"","724","sequential-stimulus-presentation","47","139259","0.0-14.0-1.1","SS1613082412860","trial","","40","800","1524","images/stimuli/spore_stims/simple_11_A_d.gif","images/stimuli/spore_stims/simple_11_B_d.gif","","","","","2","simple_similar","images/stimuli/spore_stims/simple_11_B_d.gif","right","","","","",""
"","null","html-keyboard-response","48","140085","0.0-14.0-0.2","SS1613082412860","","","null","","","","","<p><img src= images/blank.png width =""200"" height = ""200"" style = ""float:right""></p><p><img src=images/blank.png width =""800"" height = ""200""></p>","","","","","","","","","","","",""
"","1663","sequential-stimulus-presentation","49","142563","0.0-14.0-1.2","SS1613082412860","trial","","40","800","2463","images/stimuli/spore_stims/simple_11_A_d.gif","images/stimuli/spore_stims/simple_11_B_d.gif","","","","","2","simple_similar","images/stimuli/spore_stims/simple_11_B_d.gif","right","","","","",""
"","null","html-keyboard-response","50","143772","0.0-14.0-0.3","SS1613082412860","","","null","","","","","<p><img src= images/blank.png width =""200"" height = ""200"" style = ""float:right""></p><p><img src=images/blank.png width =""800"" height = ""200""></p>","","","","","","","","","","","",""
"","849","sequential-stimulus-presentation","51","145424","0.0-14.0-1.3","SS1613082412860","trial","","40","800","1649","images/stimuli/spore_stims/simple_11_A_d.gif","images/stimuli/spore_stims/simple_11_B_d.gif","","","","","2","simple_similar","images/stimuli/spore_stims/simple_11_A_d.gif","middle","","","","",""
"","null","html-keyboard-response","52","146681","0.0-14.0-0.4","SS1613082412860","","","null","","","","","<p><img src= images/blank.png width =""200"" height = ""200"" style = ""float:right""></p><p><img src=images/blank.png width =""800"" height = ""200""></p>","","","","","","","","","","","",""
"","448","sequential-stimulus-presentation","53","147937","0.0-14.0-1.4","SS1613082412860","trial","","40","800","1248","images/stimuli/spore_stims/simple_11_A_d.gif","images/stimuli/spore_stims/simple_11_B_d.gif","","","","","2","simple_similar","images/stimuli/spore_stims/simple_11_B_d.gif","right","","","","",""
"","null","html-keyboard-response","54","149108","0.0-14.0-0.5","SS1613082412860","","","null","","","","","<p><img src= images/blank.png width =""200"" height = ""200"" style = ""float:right""></p><p><img src=images/blank.png width =""800"" height = ""200""></p>","","","","","","","","","","","",""
"","296","sequential-stimulus-presentation","55","150210","0.0-14.0-1.5","SS1613082412860","trial","","40","800","1096","images/stimuli/spore_stims/simple_11_A_d.gif","images/stimuli/spore_stims/simple_11_B_d.gif","","","","","2","simple_similar","images/stimuli/spore_stims/simple_11_B_d.gif","right","","","","",""
"","null","html-keyboard-response","56","151321","0.0-14.0-0.6","SS1613082412860","","","null","","","","","<p><img src= images/blank.png width =""200"" height = ""200"" style = ""float:right""></p><p><img src=images/blank.png width =""800"" height = ""200""></p>","","","","","","","","","","","",""
"","304","sequential-stimulus-presentation","57","152432","0.0-14.0-1.6","SS1613082412860","trial","","40","800","1104","images/stimuli/spore_stims/simple_11_A_d.gif","images/stimuli/spore_stims/simple_11_B_d.gif","","","","","2","simple_similar","images/stimuli/spore_stims/simple_11_B_d.gif","right","","","","",""
"","null","html-keyboard-response","58","153442","0.0-14.0-0.7","SS1613082412860","","","null","","","","","<p><img src= images/blank.png width =""200"" height = ""200"" style = ""float:right""></p><p><img src=images/blank.png width =""800"" height = ""200""></p>","","","","","","","","","","","",""
"","285","sequential-stimulus-presentation","59","154536","0.0-14.0-1.7","SS1613082412860","trial","","40","800","1085","images/stimuli/spore_stims/simple_11_A_d.gif","images/stimuli/spore_stims/simple_11_B_d.gif","","","","","2","simple_similar","images/stimuli/spore_stims/simple_11_B_d.gif","right","","","","",""
"","1646","html-keyboard-response","60","156186","0.0-15.0","SS1613082412860","pref_question","","51","","","","","<video width ='960' height = '540' style='padding-top:8%' autoplay muted><source src='images/stimuli/wall_pref.mp4' type='video/mp4'></video>","3","right","66%","2","","","","","","","",""
"","705","sequential-stimulus-presentation","61","157699","0.0-16.0","SS1613082412860","pref_reveal","","40","800","1505","null","null","","","","","2","","","","background","","","",""
"","null","html-keyboard-response","62","158582","0.0-17.0-0.0","SS1613082412860","","","null","","","","","<p><img src= images/blank.png width =""200"" height = ""200"" style = ""float:right""></p><p><img src=images/blank.png width =""800"" height = ""200""></p>","","","","","","","","","","","",""
"","396","sequential-stimulus-presentation","63","159793","0.0-17.0-1.0","SS1613082412860","trial","","40","800","1196","images/stimuli/spore_stims/complex_06_A_a.gif","images/stimuli/spore_stims/complex_11_A_b.gif","","","","","3","complex_dissimilar","images/stimuli/spore_stims/complex_11_A_b.gif","middle","","","","",""
"","null","html-keyboard-response","64","160713","0.0-17.0-0.1","SS1613082412860","","","null","","","","","<p><img src= images/blank.png width =""200"" height = ""200"" style = ""float:right""></p><p><img src=images/blank.png width =""800"" height = ""200""></p>","","","","","","","","","","","",""
"","560","sequential-stimulus-presentation","65","162080","0.0-17.0-1.1","SS1613082412860","trial","","40","800","1360","images/stimuli/spore_stims/complex_06_A_a.gif","images/stimuli/spore_stims/complex_11_A_b.gif","","","","","3","complex_dissimilar","images/stimuli/spore_stims/complex_11_A_b.gif","middle","","","","",""
"","null","html-keyboard-response","66","163344","0.0-17.0-0.2","SS1613082412860","","","null","","","","","<p><img src= images/blank.png width =""200"" height = ""200"" style = ""float:right""></p><p><img src=images/blank.png width =""800"" height = ""200""></p>","","","","","","","","","","","",""
"","475","sequential-stimulus-presentation","67","164631","0.0-17.0-1.2","SS1613082412860","trial","","40","800","1275","images/stimuli/spore_stims/complex_06_A_a.gif","images/stimuli/spore_stims/complex_11_A_b.gif","","","","","3","complex_dissimilar","images/stimuli/spore_stims/complex_11_A_b.gif","middle","","","","",""
"","null","html-keyboard-response","68","165741","0.0-17.0-0.3","SS1613082412860","","","null","","","","","<p><img src= images/blank.png width =""200"" height = ""200"" style = ""float:right""></p><p><img src=images/blank.png width =""800"" height = ""200""></p>","","","","","","","","","","","",""
"","588","sequential-stimulus-presentation","69","167146","0.0-17.0-1.3","SS1613082412860","trial","","40","800","1388","images/stimuli/spore_stims/complex_06_A_a.gif","images/stimuli/spore_stims/complex_11_A_b.gif","","","","","3","complex_dissimilar","images/stimuli/spore_stims/complex_06_A_a.gif","left","","","","",""
"","null","html-keyboard-response","70","168284","0.0-17.0-0.4","SS1613082412860","","","null","","","","","<p><img src= images/blank.png width =""200"" height = ""200"" style = ""float:right""></p><p><img src=images/blank.png width =""800"" height = ""200""></p>","","","","","","","","","","","",""
"","377","sequential-stimulus-presentation","71","169476","0.0-17.0-1.4","SS1613082412860","trial","","40","800","1177","images/stimuli/spore_stims/complex_06_A_a.gif","images/stimuli/spore_stims/complex_11_A_b.gif","","","","","3","complex_dissimilar","images/stimuli/spore_stims/complex_11_A_b.gif","middle","","","","",""
"","null","html-keyboard-response","72","170522","0.0-17.0-0.5","SS1613082412860","","","null","","","","","<p><img src= images/blank.png width =""200"" height = ""200"" style = ""float:right""></p><p><img src=images/blank.png width =""800"" height = ""200""></p>","","","","","","","","","","","",""
"","314","sequential-stimulus-presentation","73","171642","0.0-17.0-1.5","SS1613082412860","trial","","40","800","1114","images/stimuli/spore_stims/complex_06_A_a.gif","images/stimuli/spore_stims/complex_11_A_b.gif","","","","","3","complex_dissimilar","images/stimuli/spore_stims/complex_11_A_b.gif","middle","","","","",""
"","null","html-keyboard-response","74","172470","0.0-17.0-0.6","SS1613082412860","","","null","","","","","<p><img src= images/blank.png width =""200"" height = ""200"" style = ""float:right""></p><p><img src=images/blank.png width =""800"" height = ""200""></p>","","","","","","","","","","","",""
"","224","sequential-stimulus-presentation","75","173512","0.0-17.0-1.6","SS1613082412860","trial","","40","800","1024","images/stimuli/spore_stims/complex_06_A_a.gif","images/stimuli/spore_stims/complex_11_A_b.gif","","","","","3","complex_dissimilar","images/stimuli/spore_stims/complex_11_A_b.gif","middle","","","","",""
"","null","html-keyboard-response","76","174793","0.0-17.0-0.7","SS1613082412860","","","null","","","","","<p><img src= images/blank.png width =""200"" height = ""200"" style = ""float:right""></p><p><img src=images/blank.png width =""800"" height = ""200""></p>","","","","","","","","","","","",""
"","345","sequential-stimulus-presentation","77","175942","0.0-17.0-1.7","SS1613082412860","trial","","40","800","1145","images/stimuli/spore_stims/complex_06_A_a.gif","images/stimuli/spore_stims/complex_11_A_b.gif","","","","","3","complex_dissimilar","images/stimuli/spore_stims/complex_11_A_b.gif","middle","","","","",""
"","1603","html-keyboard-response","78","177546","0.0-18.0","SS1613082412860","pref_question","","49","","","","","<video width ='960' height = '540' style='padding-top:8%' autoplay muted><source src='images/stimuli/wall_pref.mp4' type='video/mp4'></video>","1","left","25%","3","","","","","","","",""
"","1128","sequential-stimulus-presentation","79","179481","0.0-19.0","SS1613082412860","pref_reveal","","40","800","1928","null","null","","","","","3","","","","deviant","","","",""
"","null","html-keyboard-response","80","180760","0.0-20.0-0.0","SS1613082412860","","","null","","","","","<p><img src= images/blank.png width =""200"" height = ""200"" style = ""float:right""></p><p><img src=images/blank.png width =""800"" height = ""200""></p>","","","","","","","","","","","",""
"","1622","sequential-stimulus-presentation","81","183189","0.0-20.0-1.0","SS1613082412860","trial","","40","800","2422","images/stimuli/spore_stims/simple_15_A_d.gif","images/stimuli/spore_stims/simple_15_B_d.gif","","","","","4","simple_similar","images/stimuli/spore_stims/simple_15_B_d.gif","middle","","","","",""
"","null","html-keyboard-response","82","184412","0.0-20.0-0.1","SS1613082412860","","","null","","","","","<p><img src= images/blank.png width =""200"" height = ""200"" style = ""float:right""></p><p><img src=images/blank.png width =""800"" height = ""200""></p>","","","","","","","","","","","",""
"","1407","sequential-stimulus-presentation","83","186627","0.0-20.0-1.1","SS1613082412860","trial","","40","800","2207","images/stimuli/spore_stims/simple_15_A_d.gif","images/stimuli/spore_stims/simple_15_B_d.gif","","","","","4","simple_similar","images/stimuli/spore_stims/simple_15_B_d.gif","middle","","","","",""
"","null","html-keyboard-response","84","187610","0.0-20.0-0.2","SS1613082412860","","","null","","","","","<p><img src= images/blank.png width =""200"" height = ""200"" style = ""float:right""></p><p><img src=images/blank.png width =""800"" height = ""200""></p>","","","","","","","","","","","",""
"","338","sequential-stimulus-presentation","85","188752","0.0-20.0-1.2","SS1613082412860","trial","","40","800","1138","images/stimuli/spore_stims/simple_15_A_d.gif","images/stimuli/spore_stims/simple_15_B_d.gif","","","","","4","simple_similar","images/stimuli/spore_stims/simple_15_B_d.gif","middle","","","","",""
"","null","html-keyboard-response","86","189726","0.0-20.0-0.3","SS1613082412860","","","null","","","","","<p><img src= images/blank.png width =""200"" height = ""200"" style = ""float:right""></p><p><img src=images/blank.png width =""800"" height = ""200""></p>","","","","","","","","","","","",""
"","182","sequential-stimulus-presentation","87","190713","0.0-20.0-1.3","SS1613082412860","trial","","40","800","982","images/stimuli/spore_stims/simple_15_A_d.gif","images/stimuli/spore_stims/simple_15_B_d.gif","","","","","4","simple_similar","images/stimuli/spore_stims/simple_15_B_d.gif","middle","","","","",""
"","null","html-keyboard-response","88","191990","0.0-20.0-0.4","SS1613082412860","","","null","","","","","<p><img src= images/blank.png width =""200"" height = ""200"" style = ""float:right""></p><p><img src=images/blank.png width =""800"" height = ""200""></p>","","","","","","","","","","","",""
"","351","sequential-stimulus-presentation","89","193148","0.0-20.0-1.4","SS1613082412860","trial","","40","800","1151","images/stimuli/spore_stims/simple_15_A_d.gif","images/stimuli/spore_stims/simple_15_B_d.gif","","","","","4","simple_similar","images/stimuli/spore_stims/simple_15_A_d.gif","left","","","","",""
"","null","html-keyboard-response","90","194267","0.0-20.0-0.5","SS1613082412860","","","null","","","","","<p><img src= images/blank.png width =""200"" height = ""200"" style = ""float:right""></p><p><img src=images/blank.png width =""800"" height = ""200""></p>","","","","","","","","","","","",""
"","510","sequential-stimulus-presentation","91","195584","0.0-20.0-1.5","SS1613082412860","trial","","40","800","1310","images/stimuli/spore_stims/simple_15_A_d.gif","images/stimuli/spore_stims/simple_15_B_d.gif","","","","","4","simple_similar","images/stimuli/spore_stims/simple_15_B_d.gif","middle","","","","",""
"","null","html-keyboard-response","92","196466","0.0-20.0-0.6","SS1613082412860","","","null","","","","","<p><img src= images/blank.png width =""200"" height = ""200"" style = ""float:right""></p><p><img src=images/blank.png width =""800"" height = ""200""></p>","","","","","","","","","","","",""
"","266","sequential-stimulus-presentation","93","197549","0.0-20.0-1.6","SS1613082412860","trial","","40","800","1066","images/stimuli/spore_stims/simple_15_A_d.gif","images/stimuli/spore_stims/simple_15_B_d.gif","","","","","4","simple_similar","images/stimuli/spore_stims/simple_15_B_d.gif","middle","","","","",""
"","null","html-keyboard-response","94","198616","0.0-20.0-0.7","SS1613082412860","","","null","","","","","<p><img src= images/blank.png width =""200"" height = ""200"" style = ""float:right""></p><p><img src=images/blank.png width =""800"" height = ""200""></p>","","","","","","","","","","","",""
"","318","sequential-stimulus-presentation","95","199739","0.0-20.0-1.7","SS1613082412860","trial","","40","800","1118","images/stimuli/spore_stims/simple_15_A_d.gif","images/stimuli/spore_stims/simple_15_B_d.gif","","","","","4","simple_similar","images/stimuli/spore_stims/simple_15_B_d.gif","middle","","","","",""
"","1861","html-keyboard-response","96","201603","0.0-21.0","SS1613082412860","pref_question","","49","","","","","<video width ='960' height = '540' style='padding-top:8%' autoplay muted><source src='images/stimuli/wall_pref.mp4' type='video/mp4'></video>","1","left","25%","4","","","","","","","",""
"","1910","sequential-stimulus-presentation","97","204324","0.0-22.0","SS1613082412860","pref_reveal","","40","800","2710","null","null","","","","","4","","","","deviant","","","",""
"","null","html-keyboard-response","98","205277","0.0-23.0-0.0","SS1613082412860","","","null","","","","","<p><img src= images/blank.png width =""200"" height = ""200"" style = ""float:right""></p><p><img src=images/blank.png width =""800"" height = ""200""></p>","","","","","","","","","","","",""
"","1146","sequential-stimulus-presentation","99","207227","0.0-23.0-1.0","SS1613082412860","trial","","40","800","1946","images/stimuli/spore_stims/complex_19_B_d.gif","images/stimuli/spore_stims/complex_19_A_d.gif","","","","","5","complex_similar","images/stimuli/spore_stims/complex_19_A_d.gif","left","","","","",""
"","null","html-keyboard-response","100","208507","0.0-23.0-0.1","SS1613082412860","","","null","","","","","<p><img src= images/blank.png width =""200"" height = ""200"" style = ""float:right""></p><p><img src=images/blank.png width =""800"" height = ""200""></p>","","","","","","","","","","","",""
"","1374","sequential-stimulus-presentation","101","210685","0.0-23.0-1.1","SS1613082412860","trial","","40","800","2174","images/stimuli/spore_stims/complex_19_B_d.gif","images/stimuli/spore_stims/complex_19_A_d.gif","","","","","5","complex_similar","images/stimuli/spore_stims/complex_19_A_d.gif","left","","","","",""
"","null","html-keyboard-response","102","211807","0.0-23.0-0.2","SS1613082412860","","","null","","","","","<p><img src= images/blank.png width =""200"" height = ""200"" style = ""float:right""></p><p><img src=images/blank.png width =""800"" height = ""200""></p>","","","","","","","","","","","",""
"","2245","sequential-stimulus-presentation","103","214860","0.0-23.0-1.2","SS1613082412860","trial","","40","800","3045","images/stimuli/spore_stims/complex_19_B_d.gif","images/stimuli/spore_stims/complex_19_A_d.gif","","","","","5","complex_similar","images/stimuli/spore_stims/complex_19_A_d.gif","left","","","","",""
"","null","html-keyboard-response","104","216136","0.0-23.0-0.3","SS1613082412860","","","null","","","","","<p><img src= images/blank.png width =""200"" height = ""200"" style = ""float:right""></p><p><img src=images/blank.png width =""800"" height = ""200""></p>","","","","","","","","","","","",""
"","460","sequential-stimulus-presentation","105","217411","0.0-23.0-1.3","SS1613082412860","trial","","40","800","1260","images/stimuli/spore_stims/complex_19_B_d.gif","images/stimuli/spore_stims/complex_19_A_d.gif","","","","","5","complex_similar","images/stimuli/spore_stims/complex_19_A_d.gif","left","","","","",""
"","null","html-keyboard-response","106","218400","0.0-23.0-0.4","SS1613082412860","","","null","","","","","<p><img src= images/blank.png width =""200"" height = ""200"" style = ""float:right""></p><p><img src=images/blank.png width =""800"" height = ""200""></p>","","","","","","","","","","","",""
"","596","sequential-stimulus-presentation","107","219807","0.0-23.0-1.4","SS1613082412860","trial","","40","800","1396","images/stimuli/spore_stims/complex_19_B_d.gif","images/stimuli/spore_stims/complex_19_A_d.gif","","","","","5","complex_similar","images/stimuli/spore_stims/complex_19_A_d.gif","left","","","","",""
"","null","html-keyboard-response","108","220759","0.0-23.0-0.5","SS1613082412860","","","null","","","","","<p><img src= images/blank.png width =""200"" height = ""200"" style = ""float:right""></p><p><img src=images/blank.png width =""800"" height = ""200""></p>","","","","","","","","","","","",""
"","1168","sequential-stimulus-presentation","109","222734","0.0-23.0-1.5","SS1613082412860","trial","","40","800","1968","images/stimuli/spore_stims/complex_19_B_d.gif","images/stimuli/spore_stims/complex_19_A_d.gif","","","","","5","complex_similar","images/stimuli/spore_stims/complex_19_B_d.gif","right","","","","",""
"","null","html-keyboard-response","110","223579","0.0-23.0-0.6","SS1613082412860","","","null","","","","","<p><img src= images/blank.png width =""200"" height = ""200"" style = ""float:right""></p><p><img src=images/blank.png width =""800"" height = ""200""></p>","","","","","","","","","","","",""
"","495","sequential-stimulus-presentation","111","224879","0.0-23.0-1.6","SS1613082412860","trial","","40","800","1295","images/stimuli/spore_stims/complex_19_B_d.gif","images/stimuli/spore_stims/complex_19_A_d.gif","","","","","5","complex_similar","images/stimuli/spore_stims/complex_19_A_d.gif","left","","","","",""
"","null","html-keyboard-response","112","225906","0.0-23.0-0.7","SS1613082412860","","","null","","","","","<p><img src= images/blank.png width =""200"" height = ""200"" style = ""float:right""></p><p><img src=images/blank.png width =""800"" height = ""200""></p>","","","","","","","","","","","",""
"","338","sequential-stimulus-presentation","113","227049","0.0-23.0-1.7","SS1613082412860","trial","","40","800","1138","images/stimuli/spore_stims/complex_19_B_d.gif","images/stimuli/spore_stims/complex_19_A_d.gif","","","","","5","complex_similar","images/stimuli/spore_stims/complex_19_A_d.gif","left","","","","",""
"","2403","html-keyboard-response","114","229455","0.0-24.0","SS1613082412860","pref_question","","51","","","","","<video width ='960' height = '540' style='padding-top:8%' autoplay muted><source src='images/stimuli/wall_pref.mp4' type='video/mp4'></video>","3","right","66%","5","","","","","","","",""
"","722","sequential-stimulus-presentation","115","230992","0.0-25.0","SS1613082412860","pref_reveal","","40","800","1522","null","null","","","","","5","","","","deviant","","","",""
"","null","html-keyboard-response","116","231852","0.0-26.0-0.0","SS1613082412860","","","null","","","","","<p><img src= images/blank.png width =""200"" height = ""200"" style = ""float:right""></p><p><img src=images/blank.png width =""800"" height = ""200""></p>","","","","","","","","","","","",""
"","401","sequential-stimulus-presentation","117","233063","0.0-26.0-1.0","SS1613082412860","trial","","40","800","1201","images/stimuli/spore_stims/simple_13_B_b.gif","images/stimuli/spore_stims/simple_13_A_b.gif","","","","","6","simple_similar","images/stimuli/spore_stims/simple_13_A_b.gif","middle","","","","",""
"","null","html-keyboard-response","118","234198","0.0-26.0-0.1","SS1613082412860","","","null","","","","","<p><img src= images/blank.png width =""200"" height = ""200"" style = ""float:right""></p><p><img src=images/blank.png width =""800"" height = ""200""></p>","","","","","","","","","","","",""
"","439","sequential-stimulus-presentation","119","235443","0.0-26.0-1.1","SS1613082412860","trial","","40","800","1239","images/stimuli/spore_stims/simple_13_B_b.gif","images/stimuli/spore_stims/simple_13_A_b.gif","","","","","6","simple_similar","images/stimuli/spore_stims/simple_13_A_b.gif","middle","","","","",""
"","null","html-keyboard-response","120","236320","0.0-26.0-0.2","SS1613082412860","","","null","","","","","<p><img src= images/blank.png width =""200"" height = ""200"" style = ""float:right""></p><p><img src=images/blank.png width =""800"" height = ""200""></p>","","","","","","","","","","","",""
"","327","sequential-stimulus-presentation","121","237464","0.0-26.0-1.2","SS1613082412860","trial","","40","800","1127","images/stimuli/spore_stims/simple_13_B_b.gif","images/stimuli/spore_stims/simple_13_A_b.gif","","","","","6","simple_similar","images/stimuli/spore_stims/simple_13_A_b.gif","middle","","","","",""
"","null","html-keyboard-response","122","238642","0.0-26.0-0.3","SS1613082412860","","","null","","","","","<p><img src= images/blank.png width =""200"" height = ""200"" style = ""float:right""></p><p><img src=images/blank.png width =""800"" height = ""200""></p>","","","","","","","","","","","",""
"","223","sequential-stimulus-presentation","123","239684","0.0-26.0-1.3","SS1613082412860","trial","","40","800","1023","images/stimuli/spore_stims/simple_13_B_b.gif","images/stimuli/spore_stims/simple_13_A_b.gif","","","","","6","simple_similar","images/stimuli/spore_stims/simple_13_B_b.gif","right","","","","",""
"","null","html-keyboard-response","124","240882","0.0-26.0-0.4","SS1613082412860","","","null","","","","","<p><img src= images/blank.png width =""200"" height = ""200"" style = ""float:right""></p><p><img src=images/blank.png width =""800"" height = ""200""></p>","","","","","","","","","","","",""
"","212","sequential-stimulus-presentation","125","241898","0.0-26.0-1.4","SS1613082412860","trial","","40","800","1012","images/stimuli/spore_stims/simple_13_B_b.gif","images/stimuli/spore_stims/simple_13_A_b.gif","","","","","6","simple_similar","images/stimuli/spore_stims/simple_13_A_b.gif","middle","","","","",""
"","null","html-keyboard-response","126","243004","0.0-26.0-0.5","SS1613082412860","","","null","","","","","<p><img src= images/blank.png width =""200"" height = ""200"" style = ""float:right""></p><p><img src=images/blank.png width =""800"" height = ""200""></p>","","","","","","","","","","","",""
"","402","sequential-stimulus-presentation","127","244220","0.0-26.0-1.5","SS1613082412860","trial","","40","800","1202","images/stimuli/spore_stims/simple_13_B_b.gif","images/stimuli/spore_stims/simple_13_A_b.gif","","","","","6","simple_similar","images/stimuli/spore_stims/simple_13_A_b.gif","middle","","","","",""
"","null","html-keyboard-response","128","245247","0.0-26.0-0.6","SS1613082412860","","","null","","","","","<p><img src= images/blank.png width =""200"" height = ""200"" style = ""float:right""></p><p><img src=images/blank.png width =""800"" height = ""200""></p>","","","","","","","","","","","",""
"","53","sequential-stimulus-presentation","129","246118","0.0-26.0-1.6","SS1613082412860","trial","","40","800","853","images/stimuli/spore_stims/simple_13_B_b.gif","images/stimuli/spore_stims/simple_13_A_b.gif","","","","","6","simple_similar","images/stimuli/spore_stims/simple_13_A_b.gif","middle","","","","",""
"","null","html-keyboard-response","130","247381","0.0-26.0-0.7","SS1613082412860","","","null","","","","","<p><img src= images/blank.png width =""200"" height = ""200"" style = ""float:right""></p><p><img src=images/blank.png width =""800"" height = ""200""></p>","","","","","","","","","","","",""
"","358","sequential-stimulus-presentation","131","248545","0.0-26.0-1.7","SS1613082412860","trial","","40","800","1158","images/stimuli/spore_stims/simple_13_B_b.gif","images/stimuli/spore_stims/simple_13_A_b.gif","","","","","6","simple_similar","images/stimuli/spore_stims/simple_13_A_b.gif","middle","","","","",""
"","1695","html-keyboard-response","132","250244","0.0-27.0","SS1613082412860","pref_question","","50","","","","","<video width ='960' height = '540' style='padding-top:8%' autoplay muted><source src='images/stimuli/wall_pref.mp4' type='video/mp4'></video>","2","middle","45%","6","","","","","","","",""
"","751","sequential-stimulus-presentation","133","251813","0.0-28.0","SS1613082412860","pref_reveal","","40","800","1551","null","null","","","","","6","","","","background","","","",""
"","null","html-keyboard-response","134","252955","0.0-29.0-0.0","SS1613082412860","","","null","","","","","<p><img src= images/blank.png width =""200"" height = ""200"" style = ""float:right""></p><p><img src=images/blank.png width =""800"" height = ""200""></p>","","","","","","","","","","","",""
"","1237","sequential-stimulus-presentation","135","255010","0.0-29.0-1.0","SS1613082412860","trial","","40","800","2037","images/stimuli/spore_stims/simple_18_B_c.gif","images/stimuli/spore_stims/simple_05_B_c.gif","","","","","7","simple_dissimilar","images/stimuli/spore_stims/simple_05_B_c.gif","right","","","","",""
"","null","html-keyboard-response","136","256253","0.0-29.0-0.1","SS1613082412860","","","null","","","","","<p><img src= images/blank.png width =""200"" height = ""200"" style = ""float:right""></p><p><img src=images/blank.png width =""800"" height = ""200""></p>","","","","","","","","","","","",""
"","425","sequential-stimulus-presentation","137","257495","0.0-29.0-1.1","SS1613082412860","trial","","40","800","1225","images/stimuli/spore_stims/simple_18_B_c.gif","images/stimuli/spore_stims/simple_05_B_c.gif","","","","","7","simple_dissimilar","images/stimuli/spore_stims/simple_05_B_c.gif","right","","","","",""
"","null","html-keyboard-response","138","258348","0.0-29.0-0.2","SS1613082412860","","","null","","","","","<p><img src= images/blank.png width =""200"" height = ""200"" style = ""float:right""></p><p><img src=images/blank.png width =""800"" height = ""200""></p>","","","","","","","","","","","",""
"","960","sequential-stimulus-presentation","139","260127","0.0-29.0-1.2","SS1613082412860","trial","","40","800","1760","images/stimuli/spore_stims/simple_18_B_c.gif","images/stimuli/spore_stims/simple_05_B_c.gif","","","","","7","simple_dissimilar","images/stimuli/spore_stims/simple_05_B_c.gif","right","","","","",""
"","null","html-keyboard-response","140","261323","0.0-29.0-0.3","SS1613082412860","","","null","","","","","<p><img src= images/blank.png width =""200"" height = ""200"" style = ""float:right""></p><p><img src=images/blank.png width =""800"" height = ""200""></p>","","","","","","","","","","","",""
"","405","sequential-stimulus-presentation","141","262533","0.0-29.0-1.3","SS1613082412860","trial","","40","800","1205","images/stimuli/spore_stims/simple_18_B_c.gif","images/stimuli/spore_stims/simple_05_B_c.gif","","","","","7","simple_dissimilar","images/stimuli/spore_stims/simple_05_B_c.gif","right","","","","",""
"","null","html-keyboard-response","142","263566","0.0-29.0-0.4","SS1613082412860","","","null","","","","","<p><img src= images/blank.png width =""200"" height = ""200"" style = ""float:right""></p><p><img src=images/blank.png width =""800"" height = ""200""></p>","","","","","","","","","","","",""
"","379","sequential-stimulus-presentation","143","264763","0.0-29.0-1.4","SS1613082412860","trial","","40","800","1179","images/stimuli/spore_stims/simple_18_B_c.gif","images/stimuli/spore_stims/simple_05_B_c.gif","","","","","7","simple_dissimilar","images/stimuli/spore_stims/simple_05_B_c.gif","right","","","","",""
"","null","html-keyboard-response","144","265683","0.0-29.0-0.5","SS1613082412860","","","null","","","","","<p><img src= images/blank.png width =""200"" height = ""200"" style = ""float:right""></p><p><img src=images/blank.png width =""800"" height = ""200""></p>","","","","","","","","","","","",""
"","359","sequential-stimulus-presentation","145","266858","0.0-29.0-1.5","SS1613082412860","trial","","40","800","1159","images/stimuli/spore_stims/simple_18_B_c.gif","images/stimuli/spore_stims/simple_05_B_c.gif","","","","","7","simple_dissimilar","images/stimuli/spore_stims/simple_18_B_c.gif","left","","","","",""
"","null","html-keyboard-response","146","267754","0.0-29.0-0.6","SS1613082412860","","","null","","","","","<p><img src= images/blank.png width =""200"" height = ""200"" style = ""float:right""></p><p><img src=images/blank.png width =""800"" height = ""200""></p>","","","","","","","","","","","",""
"","290","sequential-stimulus-presentation","147","268863","0.0-29.0-1.6","SS1613082412860","trial","","40","800","1090","images/stimuli/spore_stims/simple_18_B_c.gif","images/stimuli/spore_stims/simple_05_B_c.gif","","","","","7","simple_dissimilar","images/stimuli/spore_stims/simple_05_B_c.gif","right","","","","",""
"","null","html-keyboard-response","148","269876","0.0-29.0-0.7","SS1613082412860","","","null","","","","","<p><img src= images/blank.png width =""200"" height = ""200"" style = ""float:right""></p><p><img src=images/blank.png width =""800"" height = ""200""></p>","","","","","","","","","","","",""
"","266","sequential-stimulus-presentation","149","270958","0.0-29.0-1.7","SS1613082412860","trial","","40","800","1066","images/stimuli/spore_stims/simple_18_B_c.gif","images/stimuli/spore_stims/simple_05_B_c.gif","","","","","7","simple_dissimilar","images/stimuli/spore_stims/simple_05_B_c.gif","right","","","","",""
"","1620","html-keyboard-response","150","272582","0.0-30.0","SS1613082412860","pref_question","","51","","","","","<video width ='960' height = '540' style='padding-top:8%' autoplay muted><source src='images/stimuli/wall_pref.mp4' type='video/mp4'></video>","3","right","66%","7","","","","","","","",""
"","1550","sequential-stimulus-presentation","151","274947","0.0-31.0","SS1613082412860","pref_reveal","","40","800","2350","null","null","","","","","7","","","","background","","","",""
"","null","html-keyboard-response","152","276125","0.0-32.0-0.0","SS1613082412860","","","null","","","","","<p><img src= images/blank.png width =""200"" height = ""200"" style = ""float:right""></p><p><img src=images/blank.png width =""800"" height = ""200""></p>","","","","","","","","","","","",""
"","1167","sequential-stimulus-presentation","153","278105","0.0-32.0-1.0","SS1613082412860","trial","","40","800","1967","images/stimuli/spore_stims/complex_06_B_b.gif","images/stimuli/spore_stims/complex_12_A_d.gif","","","","","8","complex_dissimilar","images/stimuli/spore_stims/complex_12_A_d.gif","left","","","","",""
"","null","html-keyboard-response","154","279215","0.0-32.0-0.1","SS1613082412860","","","null","","","","","<p><img src= images/blank.png width =""200"" height = ""200"" style = ""float:right""></p><p><img src=images/blank.png width =""800"" height = ""200""></p>","","","","","","","","","","","",""
"","646","sequential-stimulus-presentation","155","280666","0.0-32.0-1.1","SS1613082412860","trial","","40","800","1446","images/stimuli/spore_stims/complex_06_B_b.gif","images/stimuli/spore_stims/complex_12_A_d.gif","","","","","8","complex_dissimilar","images/stimuli/spore_stims/complex_12_A_d.gif","left","","","","",""
"","null","html-keyboard-response","156","281905","0.0-32.0-0.2","SS1613082412860","","","null","","","","","<p><img src= images/blank.png width =""200"" height = ""200"" style = ""float:right""></p><p><img src=images/blank.png width =""800"" height = ""200""></p>","","","","","","","","","","","",""
"","380","sequential-stimulus-presentation","157","283102","0.0-32.0-1.2","SS1613082412860","trial","","40","800","1180","images/stimuli/spore_stims/complex_06_B_b.gif","images/stimuli/spore_stims/complex_12_A_d.gif","","","","","8","complex_dissimilar","images/stimuli/spore_stims/complex_12_A_d.gif","left","","","","",""
"","null","html-keyboard-response","158","284175","0.0-32.0-0.3","SS1613082412860","","","null","","","","","<p><img src= images/blank.png width =""200"" height = ""200"" style = ""float:right""></p><p><img src=images/blank.png width =""800"" height = ""200""></p>","","","","","","","","","","","",""
"","563","sequential-stimulus-presentation","159","285548","0.0-32.0-1.3","SS1613082412860","trial","","40","800","1363","images/stimuli/spore_stims/complex_06_B_b.gif","images/stimuli/spore_stims/complex_12_A_d.gif","","","","","8","complex_dissimilar","images/stimuli/spore_stims/complex_06_B_b.gif","right","","","","",""
"","null","html-keyboard-response","160","286695","0.0-32.0-0.4","SS1613082412860","","","null","","","","","<p><img src= images/blank.png width =""200"" height = ""200"" style = ""float:right""></p><p><img src=images/blank.png width =""800"" height = ""200""></p>","","","","","","","","","","","",""
"","329","sequential-stimulus-presentation","161","287828","0.0-32.0-1.4","SS1613082412860","trial","","40","800","1129","images/stimuli/spore_stims/complex_06_B_b.gif","images/stimuli/spore_stims/complex_12_A_d.gif","","","","","8","complex_dissimilar","images/stimuli/spore_stims/complex_12_A_d.gif","left","","","","",""
"","null","html-keyboard-response","162","288817","0.0-32.0-0.5","SS1613082412860","","","null","","","","","<p><img src= images/blank.png width =""200"" height = ""200"" style = ""float:right""></p><p><img src=images/blank.png width =""800"" height = ""200""></p>","","","","","","","","","","","",""
"","705","sequential-stimulus-presentation","163","290334","0.0-32.0-1.5","SS1613082412860","trial","","40","800","1505","images/stimuli/spore_stims/complex_06_B_b.gif","images/stimuli/spore_stims/complex_12_A_d.gif","","","","","8","complex_dissimilar","images/stimuli/spore_stims/complex_12_A_d.gif","left","","","","",""
"","null","html-keyboard-response","164","291263","0.0-32.0-0.6","SS1613082412860","","","null","","","","","<p><img src= images/blank.png width =""200"" height = ""200"" style = ""float:right""></p><p><img src=images/blank.png width =""800"" height = ""200""></p>","","","","","","","","","","","",""
"","506","sequential-stimulus-presentation","165","292588","0.0-32.0-1.6","SS1613082412860","trial","","40","800","1306","images/stimuli/spore_stims/complex_06_B_b.gif","images/stimuli/spore_stims/complex_12_A_d.gif","","","","","8","complex_dissimilar","images/stimuli/spore_stims/complex_12_A_d.gif","left","","","","",""
"","null","html-keyboard-response","166","293460","0.0-32.0-0.7","SS1613082412860","","","null","","","","","<p><img src= images/blank.png width =""200"" height = ""200"" style = ""float:right""></p><p><img src=images/blank.png width =""800"" height = ""200""></p>","","","","","","","","","","","",""
"","358","sequential-stimulus-presentation","167","294634","0.0-32.0-1.7","SS1613082412860","trial","","40","800","1158","images/stimuli/spore_stims/complex_06_B_b.gif","images/stimuli/spore_stims/complex_12_A_d.gif","","","","","8","complex_dissimilar","images/stimuli/spore_stims/complex_12_A_d.gif","left","","","","",""
"","1556","html-keyboard-response","168","296193","0.0-33.0","SS1613082412860","pref_question","","49","","","","","<video width ='960' height = '540' style='padding-top:8%' autoplay muted><source src='images/stimuli/wall_pref.mp4' type='video/mp4'></video>","1","left","25%","8","","","","","","","",""
"","644","sequential-stimulus-presentation","169","297646","0.0-34.0","SS1613082412860","pref_reveal","","40","800","1444","null","null","","","","","8","","","","background","","","",""
"","null","html-keyboard-response","170","298521","0.0-35.0-0.0","SS1613082412860","","","null","","","","","<p><img src= images/blank.png width =""200"" height = ""200"" style = ""float:right""></p><p><img src=images/blank.png width =""800"" height = ""200""></p>","","","","","","","","","","","",""
"","58","sequential-stimulus-presentation","171","299395","0.0-35.0-1.0","SS1613082412860","trial","","40","800","858","images/stimuli/spore_stims/simple_10_A_c.gif","images/stimuli/spore_stims/simple_12_B_b.gif","","","","","9","simple_dissimilar","images/stimuli/spore_stims/simple_12_B_b.gif","middle","","","","",""
"","null","html-keyboard-response","172","300540","0.0-35.0-0.1","SS1613082412860","","","null","","","","","<p><img src= images/blank.png width =""200"" height = ""200"" style = ""float:right""></p><p><img src=images/blank.png width =""800"" height = ""200""></p>","","","","","","","","","","","",""
"","475","sequential-stimulus-presentation","173","301820","0.0-35.0-1.1","SS1613082412860","trial","","40","800","1275","images/stimuli/spore_stims/simple_10_A_c.gif","images/stimuli/spore_stims/simple_12_B_b.gif","","","","","9","simple_dissimilar","images/stimuli/spore_stims/simple_12_B_b.gif","middle","","","","",""
"","null","html-keyboard-response","174","302721","0.0-35.0-0.2","SS1613082412860","","","null","","","","","<p><img src= images/blank.png width =""200"" height = ""200"" style = ""float:right""></p><p><img src=images/blank.png width =""800"" height = ""200""></p>","","","","","","","","","","","",""
"","374","sequential-stimulus-presentation","175","303901","0.0-35.0-1.2","SS1613082412860","trial","","40","800","1174","images/stimuli/spore_stims/simple_10_A_c.gif","images/stimuli/spore_stims/simple_12_B_b.gif","","","","","9","simple_dissimilar","images/stimuli/spore_stims/simple_12_B_b.gif","middle","","","","",""
"","null","html-keyboard-response","176","305076","0.0-35.0-0.3","SS1613082412860","","","null","","","","","<p><img src= images/blank.png width =""200"" height = ""200"" style = ""float:right""></p><p><img src=images/blank.png width =""800"" height = ""200""></p>","","","","","","","","","","","",""
"","314","sequential-stimulus-presentation","177","306202","0.0-35.0-1.3","SS1613082412860","trial","","40","800","1114","images/stimuli/spore_stims/simple_10_A_c.gif","images/stimuli/spore_stims/simple_12_B_b.gif","","","","","9","simple_dissimilar","images/stimuli/spore_stims/simple_12_B_b.gif","middle","","","","",""
"","null","html-keyboard-response","178","307101","0.0-35.0-0.4","SS1613082412860","","","null","","","","","<p><img src= images/blank.png width =""200"" height = ""200"" style = ""float:right""></p><p><img src=images/blank.png width =""800"" height = ""200""></p>","","","","","","","","","","","",""
"","377","sequential-stimulus-presentation","179","308287","0.0-35.0-1.4","SS1613082412860","trial","","40","800","1177","images/stimuli/spore_stims/simple_10_A_c.gif","images/stimuli/spore_stims/simple_12_B_b.gif","","","","","9","simple_dissimilar","images/stimuli/spore_stims/simple_10_A_c.gif","left","","","","",""
"","null","html-keyboard-response","180","309429","0.0-35.0-0.5","SS1613082412860","","","null","","","","","<p><img src= images/blank.png width =""200"" height = ""200"" style = ""float:right""></p><p><img src=images/blank.png width =""800"" height = ""200""></p>","","","","","","","","","","","",""
"","302","sequential-stimulus-presentation","181","310537","0.0-35.0-1.5","SS1613082412860","trial","","40","800","1102","images/stimuli/spore_stims/simple_10_A_c.gif","images/stimuli/spore_stims/simple_12_B_b.gif","","","","","9","simple_dissimilar","images/stimuli/spore_stims/simple_12_B_b.gif","middle","","","","",""
"","null","html-keyboard-response","182","311752","0.0-35.0-0.6","SS1613082412860","","","null","","","","","<p><img src= images/blank.png width =""200"" height = ""200"" style = ""float:right""></p><p><img src=images/blank.png width =""800"" height = ""200""></p>","","","","","","","","","","","",""
"","245","sequential-stimulus-presentation","183","312816","0.0-35.0-1.6","SS1613082412860","trial","","40","800","1045","images/stimuli/spore_stims/simple_10_A_c.gif","images/stimuli/spore_stims/simple_12_B_b.gif","","","","","9","simple_dissimilar","images/stimuli/spore_stims/simple_12_B_b.gif","middle","","","","",""
"","null","html-keyboard-response","184","313965","0.0-35.0-0.7","SS1613082412860","","","null","","","","","<p><img src= images/blank.png width =""200"" height = ""200"" style = ""float:right""></p><p><img src=images/blank.png width =""800"" height = ""200""></p>","","","","","","","","","","","",""
"","256","sequential-stimulus-presentation","185","315028","0.0-35.0-1.7","SS1613082412860","trial","","40","800","1056","images/stimuli/spore_stims/simple_10_A_c.gif","images/stimuli/spore_stims/simple_12_B_b.gif","","","","","9","simple_dissimilar","images/stimuli/spore_stims/simple_12_B_b.gif","middle","","","","",""
"","1719","html-keyboard-response","186","316752","0.0-36.0","SS1613082412860","pref_question","","50","","","","","<video width ='960' height = '540' style='padding-top:8%' autoplay muted><source src='images/stimuli/wall_pref.mp4' type='video/mp4'></video>","2","middle","45%","9","","","","","","","",""
"","3205","sequential-stimulus-presentation","187","320770","0.0-37.0","SS1613082412860","pref_reveal","","40","800","4005","null","null","","","","","9","","","","background","","","",""
"","null","html-keyboard-response","188","321774","0.0-38.0-0.0","SS1613082412860","","","null","","","","","<p><img src= images/blank.png width =""200"" height = ""200"" style = ""float:right""></p><p><img src=images/blank.png width =""800"" height = ""200""></p>","","","","","","","","","","","",""
"","2337","sequential-stimulus-presentation","189","324930","0.0-38.0-1.0","SS1613082412860","trial","","40","800","3137","images/stimuli/spore_stims/complex_16_A_a.gif","images/stimuli/spore_stims/complex_13_A_b.gif","","","","","10","complex_dissimilar","images/stimuli/spore_stims/complex_13_A_b.gif","left","","","","",""
"","null","html-keyboard-response","190","326048","0.0-38.0-0.1","SS1613082412860","","","null","","","","","<p><img src= images/blank.png width =""200"" height = ""200"" style = ""float:right""></p><p><img src=images/blank.png width =""800"" height = ""200""></p>","","","","","","","","","","","",""
"","535","sequential-stimulus-presentation","191","327402","0.0-38.0-1.1","SS1613082412860","trial","","40","800","1335","images/stimuli/spore_stims/complex_16_A_a.gif","images/stimuli/spore_stims/complex_13_A_b.gif","","","","","10","complex_dissimilar","images/stimuli/spore_stims/complex_13_A_b.gif","left","","","","",""
"","null","html-keyboard-response","192","328342","0.0-38.0-0.2","SS1613082412860","","","null","","","","","<p><img src= images/blank.png width =""200"" height = ""200"" style = ""float:right""></p><p><img src=images/blank.png width =""800"" height = ""200""></p>","","","","","","","","","","","",""
"","565","sequential-stimulus-presentation","193","329713","0.0-38.0-1.2","SS1613082412860","trial","","40","800","1365","images/stimuli/spore_stims/complex_16_A_a.gif","images/stimuli/spore_stims/complex_13_A_b.gif","","","","","10","complex_dissimilar","images/stimuli/spore_stims/complex_13_A_b.gif","left","","","","",""
"","null","html-keyboard-response","194","330806","0.0-38.0-0.3","SS1613082412860","","","null","","","","","<p><img src= images/blank.png width =""200"" height = ""200"" style = ""float:right""></p><p><img src=images/blank.png width =""800"" height = ""200""></p>","","","","","","","","","","","",""
"","313","sequential-stimulus-presentation","195","331928","0.0-38.0-1.3","SS1613082412860","trial","","40","800","1113","images/stimuli/spore_stims/complex_16_A_a.gif","images/stimuli/spore_stims/complex_13_A_b.gif","","","","","10","complex_dissimilar","images/stimuli/spore_stims/complex_16_A_a.gif","middle","","","","",""
"","null","html-keyboard-response","196","333105","0.0-38.0-0.4","SS1613082412860","","","null","","","","","<p><img src= images/blank.png width =""200"" height = ""200"" style = ""float:right""></p><p><img src=images/blank.png width =""800"" height = ""200""></p>","","","","","","","","","","","",""
"","97","sequential-stimulus-presentation","197","334013","0.0-38.0-1.4","SS1613082412860","trial","","40","800","897","images/stimuli/spore_stims/complex_16_A_a.gif","images/stimuli/spore_stims/complex_13_A_b.gif","","","","","10","complex_dissimilar","images/stimuli/spore_stims/complex_13_A_b.gif","left","","","","",""
"","null","html-keyboard-response","198","335148","0.0-38.0-0.5","SS1613082412860","","","null","","","","","<p><img src= images/blank.png width =""200"" height = ""200"" style = ""float:right""></p><p><img src=images/blank.png width =""800"" height = ""200""></p>","","","","","","","","","","","",""
"","315","sequential-stimulus-presentation","199","336268","0.0-38.0-1.5","SS1613082412860","trial","","40","800","1115","images/stimuli/spore_stims/complex_16_A_a.gif","images/stimuli/spore_stims/complex_13_A_b.gif","","","","","10","complex_dissimilar","images/stimuli/spore_stims/complex_13_A_b.gif","left","","","","",""
"","null","html-keyboard-response","200","337471","0.0-38.0-0.6","SS1613082412860","","","null","","","","","<p><img src= images/blank.png width =""200"" height = ""200"" style = ""float:right""></p><p><img src=images/blank.png width =""800"" height = ""200""></p>","","","","","","","","","","","",""
"","432","sequential-stimulus-presentation","201","338724","0.0-38.0-1.6","SS1613082412860","trial","","40","800","1232","images/stimuli/spore_stims/complex_16_A_a.gif","images/stimuli/spore_stims/complex_13_A_b.gif","","","","","10","complex_dissimilar","images/stimuli/spore_stims/complex_13_A_b.gif","left","","","","",""
"","null","html-keyboard-response","202","339779","0.0-38.0-0.7","SS1613082412860","","","null","","","","","<p><img src= images/blank.png width =""200"" height = ""200"" style = ""float:right""></p><p><img src=images/blank.png width =""800"" height = ""200""></p>","","","","","","","","","","","",""
"","377","sequential-stimulus-presentation","203","340964","0.0-38.0-1.7","SS1613082412860","trial","","40","800","1177","images/stimuli/spore_stims/complex_16_A_a.gif","images/stimuli/spore_stims/complex_13_A_b.gif","","","","","10","complex_dissimilar","images/stimuli/spore_stims/complex_13_A_b.gif","left","","","","",""
"","1550","html-keyboard-response","204","342518","0.0-39.0","SS1613082412860","pref_question","","49","","","","","<video width ='960' height = '540' style='padding-top:8%' autoplay muted><source src='images/stimuli/wall_pref.mp4' type='video/mp4'></video>","1","left","25%","10","","","","","","","",""
"","967","sequential-stimulus-presentation","205","344297","0.0-40.0","SS1613082412860","pref_reveal","","40","800","1767","null","null","","","","","10","","","","background","","","",""
"","null","html-keyboard-response","206","345437","0.0-41.0-0.0","SS1613082412860","","","null","","","","","<p><img src= images/blank.png width =""200"" height = ""200"" style = ""float:right""></p><p><img src=images/blank.png width =""800"" height = ""200""></p>","","","","","","","","","","","",""
"","446","sequential-stimulus-presentation","207","346688","0.0-41.0-1.0","SS1613082412860","trial","","40","800","1246","images/stimuli/spore_stims/simple_06_B_d.gif","images/stimuli/spore_stims/simple_06_A_d.gif","","","","","11","simple_similar","images/stimuli/spore_stims/simple_06_A_d.gif","left","","","","",""
"","null","html-keyboard-response","208","347812","0.0-41.0-0.1","SS1613082412860","","","null","","","","","<p><img src= images/blank.png width =""200"" height = ""200"" style = ""float:right""></p><p><img src=images/blank.png width =""800"" height = ""200""></p>","","","","","","","","","","","",""
"","803","sequential-stimulus-presentation","209","349419","0.0-41.0-1.1","SS1613082412860","trial","","40","800","1603","images/stimuli/spore_stims/simple_06_B_d.gif","images/stimuli/spore_stims/simple_06_A_d.gif","","","","","11","simple_similar","images/stimuli/spore_stims/simple_06_A_d.gif","left","","","","",""
"","null","html-keyboard-response","210","350405","0.0-41.0-0.2","SS1613082412860","","","null","","","","","<p><img src= images/blank.png width =""200"" height = ""200"" style = ""float:right""></p><p><img src=images/blank.png width =""800"" height = ""200""></p>","","","","","","","","","","","",""
"","801","sequential-stimulus-presentation","211","352015","0.0-41.0-1.2","SS1613082412860","trial","","40","800","1601","images/stimuli/spore_stims/simple_06_B_d.gif","images/stimuli/spore_stims/simple_06_A_d.gif","","","","","11","simple_similar","images/stimuli/spore_stims/simple_06_A_d.gif","left","","","","",""
"","null","html-keyboard-response","212","353163","0.0-41.0-0.3","SS1613082412860","","","null","","","","","<p><img src= images/blank.png width =""200"" height = ""200"" style = ""float:right""></p><p><img src=images/blank.png width =""800"" height = ""200""></p>","","","","","","","","","","","",""
"","325","sequential-stimulus-presentation","213","354296","0.0-41.0-1.3","SS1613082412860","trial","","40","800","1125","images/stimuli/spore_stims/simple_06_B_d.gif","images/stimuli/spore_stims/simple_06_A_d.gif","","","","","11","simple_similar","images/stimuli/spore_stims/simple_06_A_d.gif","left","","","","",""
"","null","html-keyboard-response","214","355318","0.0-41.0-0.4","SS1613082412860","","","null","","","","","<p><img src= images/blank.png width =""200"" height = ""200"" style = ""float:right""></p><p><img src=images/blank.png width =""800"" height = ""200""></p>","","","","","","","","","","","",""
"","265","sequential-stimulus-presentation","215","356392","0.0-41.0-1.4","SS1613082412860","trial","","40","800","1065","images/stimuli/spore_stims/simple_06_B_d.gif","images/stimuli/spore_stims/simple_06_A_d.gif","","","","","11","simple_similar","images/stimuli/spore_stims/simple_06_A_d.gif","left","","","","",""
"","null","html-keyboard-response","216","357348","0.0-41.0-0.5","SS1613082412860","","","null","","","","","<p><img src= images/blank.png width =""200"" height = ""200"" style = ""float:right""></p><p><img src=images/blank.png width =""800"" height = ""200""></p>","","","","","","","","","","","",""
"","400","sequential-stimulus-presentation","217","358566","0.0-41.0-1.5","SS1613082412860","trial","","40","800","1200","images/stimuli/spore_stims/simple_06_B_d.gif","images/stimuli/spore_stims/simple_06_A_d.gif","","","","","11","simple_similar","images/stimuli/spore_stims/simple_06_B_d.gif","right","","","","",""
"","null","html-keyboard-response","218","359608","0.0-41.0-0.6","SS1613082412860","","","null","","","","","<p><img src= images/blank.png width =""200"" height = ""200"" style = ""float:right""></p><p><img src=images/blank.png width =""800"" height = ""200""></p>","","","","","","","","","","","",""
"","129","sequential-stimulus-presentation","219","360551","0.0-41.0-1.6","SS1613082412860","trial","","40","800","929","images/stimuli/spore_stims/simple_06_B_d.gif","images/stimuli/spore_stims/simple_06_A_d.gif","","","","","11","simple_similar","images/stimuli/spore_stims/simple_06_A_d.gif","left","","","","",""
"","null","html-keyboard-response","220","361688","0.0-41.0-0.7","SS1613082412860","","","null","","","","","<p><img src= images/blank.png width =""200"" height = ""200"" style = ""float:right""></p><p><img src=images/blank.png width =""800"" height = ""200""></p>","","","","","","","","","","","",""
"","110","sequential-stimulus-presentation","221","362616","0.0-41.0-1.7","SS1613082412860","trial","","40","800","910","images/stimuli/spore_stims/simple_06_B_d.gif","images/stimuli/spore_stims/simple_06_A_d.gif","","","","","11","simple_similar","images/stimuli/spore_stims/simple_06_A_d.gif","left","","","","",""
"","1805","html-keyboard-response","222","364425","0.0-42.0","SS1613082412860","pref_question","","49","","","","","<video width ='960' height = '540' style='padding-top:8%' autoplay muted><source src='images/stimuli/wall_pref.mp4' type='video/mp4'></video>","1","left","25%","11","","","","","","","",""
"","713","sequential-stimulus-presentation","223","365949","0.0-43.0","SS1613082412860","pref_reveal","","40","800","1513","null","null","","","","","11","","","","background","","","",""
"","null","html-keyboard-response","224","367123","0.0-44.0-0.0","SS1613082412860","","","null","","","","","<p><img src= images/blank.png width =""200"" height = ""200"" style = ""float:right""></p><p><img src=images/blank.png width =""800"" height = ""200""></p>","","","","","","","","","","","",""
"","396","sequential-stimulus-presentation","225","368324","0.0-44.0-1.0","SS1613082412860","trial","","40","800","1196","images/stimuli/spore_stims/complex_12_B_c.gif","images/stimuli/spore_stims/complex_05_B_c.gif","","","","","12","complex_dissimilar","images/stimuli/spore_stims/complex_05_B_c.gif","middle","","","","",""
"","null","html-keyboard-response","226","369569","0.0-44.0-0.1","SS1613082412860","","","null","","","","","<p><img src= images/blank.png width =""200"" height = ""200"" style = ""float:right""></p><p><img src=images/blank.png width =""800"" height = ""200""></p>","","","","","","","","","","","",""
"","849","sequential-stimulus-presentation","227","371236","0.0-44.0-1.1","SS1613082412860","trial","","40","800","1649","images/stimuli/spore_stims/complex_12_B_c.gif","images/stimuli/spore_stims/complex_05_B_c.gif","","","","","12","complex_dissimilar","images/stimuli/spore_stims/complex_05_B_c.gif","middle","","","","",""
"","null","html-keyboard-response","228","372415","0.0-44.0-0.2","SS1613082412860","","","null","","","","","<p><img src= images/blank.png width =""200"" height = ""200"" style = ""float:right""></p><p><img src=images/blank.png width =""800"" height = ""200""></p>","","","","","","","","","","","",""
"","569","sequential-stimulus-presentation","229","373802","0.0-44.0-1.2","SS1613082412860","trial","","40","800","1369","images/stimuli/spore_stims/complex_12_B_c.gif","images/stimuli/spore_stims/complex_05_B_c.gif","","","","","12","complex_dissimilar","images/stimuli/spore_stims/complex_05_B_c.gif","middle","","","","",""
"","null","html-keyboard-response","230","374992","0.0-44.0-0.3","SS1613082412860","","","null","","","","","<p><img src= images/blank.png width =""200"" height = ""200"" style = ""float:right""></p><p><img src=images/blank.png width =""800"" height = ""200""></p>","","","","","","","","","","","",""
"","406","sequential-stimulus-presentation","231","376203","0.0-44.0-1.3","SS1613082412860","trial","","40","800","1206","images/stimuli/spore_stims/complex_12_B_c.gif","images/stimuli/spore_stims/complex_05_B_c.gif","","","","","12","complex_dissimilar","images/stimuli/spore_stims/complex_05_B_c.gif","middle","","","","",""
"","null","html-keyboard-response","232","377444","0.0-44.0-0.4","SS1613082412860","","","null","","","","","<p><img src= images/blank.png width =""200"" height = ""200"" style = ""float:right""></p><p><img src=images/blank.png width =""800"" height = ""200""></p>","","","","","","","","","","","",""
"","373","sequential-stimulus-presentation","233","378634","0.0-44.0-1.4","SS1613082412860","trial","","40","800","1173","images/stimuli/spore_stims/complex_12_B_c.gif","images/stimuli/spore_stims/complex_05_B_c.gif","","","","","12","complex_dissimilar","images/stimuli/spore_stims/complex_05_B_c.gif","middle","","","","",""
"","null","html-keyboard-response","234","379622","0.0-44.0-0.5","SS1613082412860","","","null","","","","","<p><img src= images/blank.png width =""200"" height = ""200"" style = ""float:right""></p><p><img src=images/blank.png width =""800"" height = ""200""></p>","","","","","","","","","","","",""
"","2214","sequential-stimulus-presentation","235","382653","0.0-44.0-1.5","SS1613082412860","trial","","40","800","3014","images/stimuli/spore_stims/complex_12_B_c.gif","images/stimuli/spore_stims/complex_05_B_c.gif","","","","","12","complex_dissimilar","images/stimuli/spore_stims/complex_12_B_c.gif","right","","","","",""
"","null","html-keyboard-response","236","383526","0.0-44.0-0.6","SS1613082412860","","","null","","","","","<p><img src= images/blank.png width =""200"" height = ""200"" style = ""float:right""></p><p><img src=images/blank.png width =""800"" height = ""200""></p>","","","","","","","","","","","",""
"","609","sequential-stimulus-presentation","237","384949","0.0-44.0-1.6","SS1613082412860","trial","","40","800","1409","images/stimuli/spore_stims/complex_12_B_c.gif","images/stimuli/spore_stims/complex_05_B_c.gif","","","","","12","complex_dissimilar","images/stimuli/spore_stims/complex_05_B_c.gif","middle","","","","",""
"","null","html-keyboard-response","238","385816","0.0-44.0-0.7","SS1613082412860","","","null","","","","","<p><img src= images/blank.png width =""200"" height = ""200"" style = ""float:right""></p><p><img src=images/blank.png width =""800"" height = ""200""></p>","","","","","","","","","","","",""
"","422","sequential-stimulus-presentation","239","387044","0.0-44.0-1.7","SS1613082412860","trial","","40","800","1222","images/stimuli/spore_stims/complex_12_B_c.gif","images/stimuli/spore_stims/complex_05_B_c.gif","","","","","12","complex_dissimilar","images/stimuli/spore_stims/complex_05_B_c.gif","middle","","","","",""
"","1835","html-keyboard-response","240","388884","0.0-45.0","SS1613082412860","pref_question","","50","","","","","<video width ='960' height = '540' style='padding-top:8%' autoplay muted><source src='images/stimuli/wall_pref.mp4' type='video/mp4'></video>","2","middle","45%","12","","","","","","","",""
"","1345","sequential-stimulus-presentation","241","391048","0.0-46.0","SS1613082412860","pref_reveal","","40","800","2145","null","null","","","","","12","","","","background","","","",""
"","null","html-keyboard-response","242","392217","0.0-47.0-0.0","SS1613082412860","","","null","","","","","<p><img src= images/blank.png width =""200"" height = ""200"" style = ""float:right""></p><p><img src=images/blank.png width =""800"" height = ""200""></p>","","","","","","","","","","","",""
"","351","sequential-stimulus-presentation","243","393374","0.0-47.0-1.0","SS1613082412860","trial","","40","800","1151","images/stimuli/spore_stims/simple_14_A_a.gif","images/stimuli/spore_stims/simple_07_A_a.gif","","","","","13","simple_dissimilar","images/stimuli/spore_stims/simple_07_A_a.gif","right","","","","",""
"","null","html-keyboard-response","244","394538","0.0-47.0-0.1","SS1613082412860","","","null","","","","","<p><img src= images/blank.png width =""200"" height = ""200"" style = ""float:right""></p><p><img src=images/blank.png width =""800"" height = ""200""></p>","","","","","","","","","","","",""
"","1397","sequential-stimulus-presentation","245","396753","0.0-47.0-1.1","SS1613082412860","trial","","40","800","2197","images/stimuli/spore_stims/simple_14_A_a.gif","images/stimuli/spore_stims/simple_07_A_a.gif","","","","","13","simple_dissimilar","images/stimuli/spore_stims/simple_07_A_a.gif","right","","","","",""
"","null","html-keyboard-response","246","397933","0.0-47.0-0.2","SS1613082412860","","","null","","","","","<p><img src= images/blank.png width =""200"" height = ""200"" style = ""float:right""></p><p><img src=images/blank.png width =""800"" height = ""200""></p>","","","","","","","","","","","",""
"","439","sequential-stimulus-presentation","247","399177","0.0-47.0-1.2","SS1613082412860","trial","","40","800","1239","images/stimuli/spore_stims/simple_14_A_a.gif","images/stimuli/spore_stims/simple_07_A_a.gif","","","","","13","simple_dissimilar","images/stimuli/spore_stims/simple_07_A_a.gif","right","","","","",""
"","null","html-keyboard-response","248","400362","0.0-47.0-0.3","SS1613082412860","","","null","","","","","<p><img src= images/blank.png width =""200"" height = ""200"" style = ""float:right""></p><p><img src=images/blank.png width =""800"" height = ""200""></p>","","","","","","","","","","","",""
"","987","sequential-stimulus-presentation","249","402165","0.0-47.0-1.3","SS1613082412860","trial","","40","800","1787","images/stimuli/spore_stims/simple_14_A_a.gif","images/stimuli/spore_stims/simple_07_A_a.gif","","","","","13","simple_dissimilar","images/stimuli/spore_stims/simple_14_A_a.gif","left","","","","",""
"","null","html-keyboard-response","250","403172","0.0-47.0-0.4","SS1613082412860","","","null","","","","","<p><img src= images/blank.png width =""200"" height = ""200"" style = ""float:right""></p><p><img src=images/blank.png width =""800"" height = ""200""></p>","","","","","","","","","","","",""
"","399","sequential-stimulus-presentation","251","404389","0.0-47.0-1.4","SS1613082412860","trial","","40","800","1199","images/stimuli/spore_stims/simple_14_A_a.gif","images/stimuli/spore_stims/simple_07_A_a.gif","","","","","13","simple_dissimilar","images/stimuli/spore_stims/simple_07_A_a.gif","right","","","","",""
"","null","html-keyboard-response","252","405296","0.0-47.0-0.5","SS1613082412860","","","null","","","","","<p><img src= images/blank.png width =""200"" height = ""200"" style = ""float:right""></p><p><img src=images/blank.png width =""800"" height = ""200""></p>","","","","","","","","","","","",""
"","410","sequential-stimulus-presentation","253","406520","0.0-47.0-1.5","SS1613082412860","trial","","40","800","1210","images/stimuli/spore_stims/simple_14_A_a.gif","images/stimuli/spore_stims/simple_07_A_a.gif","","","","","13","simple_dissimilar","images/stimuli/spore_stims/simple_07_A_a.gif","right","","","","",""
"","null","html-keyboard-response","254","407776","0.0-47.0-0.6","SS1613082412860","","","null","","","","","<p><img src= images/blank.png width =""200"" height = ""200"" style = ""float:right""></p><p><img src=images/blank.png width =""800"" height = ""200""></p>","","","","","","","","","","","",""
"","343","sequential-stimulus-presentation","255","408936","0.0-47.0-1.6","SS1613082412860","trial","","40","800","1143","images/stimuli/spore_stims/simple_14_A_a.gif","images/stimuli/spore_stims/simple_07_A_a.gif","","","","","13","simple_dissimilar","images/stimuli/spore_stims/simple_07_A_a.gif","right","","","","",""
"","null","html-keyboard-response","256","409764","0.0-47.0-0.7","SS1613082412860","","","null","","","","","<p><img src= images/blank.png width =""200"" height = ""200"" style = ""float:right""></p><p><img src=images/blank.png width =""800"" height = ""200""></p>","","","","","","","","","","","",""
"","291","sequential-stimulus-presentation","257","410865","0.0-47.0-1.7","SS1613082412860","trial","","40","800","1091","images/stimuli/spore_stims/simple_14_A_a.gif","images/stimuli/spore_stims/simple_07_A_a.gif","","","","","13","simple_dissimilar","images/stimuli/spore_stims/simple_07_A_a.gif","right","","","","",""
"","1549","html-keyboard-response","258","412419","0.0-48.0","SS1613082412860","pref_question","","51","","","","","<video width ='960' height = '540' style='padding-top:8%' autoplay muted><source src='images/stimuli/wall_pref.mp4' type='video/mp4'></video>","3","right","66%","13","","","","","","","",""
"","768","sequential-stimulus-presentation","259","413993","0.0-49.0","SS1613082412860","pref_reveal","","40","800","1568","null","null","","","","","13","","","","background","","","",""
"","null","html-keyboard-response","260","415207","0.0-50.0-0.0","SS1613082412860","","","null","","","","","<p><img src= images/blank.png width =""200"" height = ""200"" style = ""float:right""></p><p><img src=images/blank.png width =""800"" height = ""200""></p>","","","","","","","","","","","",""
"","35","sequential-stimulus-presentation","261","416063","0.0-50.0-1.0","SS1613082412860","trial","","40","800","835","images/stimuli/spore_stims/complex_10_A_d.gif","images/stimuli/spore_stims/complex_10_B_d.gif","","","","","14","complex_similar","images/stimuli/spore_stims/complex_10_B_d.gif","left","","","","",""
"","null","html-keyboard-response","262","417342","0.0-50.0-0.1","SS1613082412860","","","null","","","","","<p><img src= images/blank.png width =""200"" height = ""200"" style = ""float:right""></p><p><img src=images/blank.png width =""800"" height = ""200""></p>","","","","","","","","","","","",""
"","915","sequential-stimulus-presentation","263","419075","0.0-50.0-1.1","SS1613082412860","trial","","40","800","1715","images/stimuli/spore_stims/complex_10_A_d.gif","images/stimuli/spore_stims/complex_10_B_d.gif","","","","","14","complex_similar","images/stimuli/spore_stims/complex_10_B_d.gif","left","","","","",""
"","null","html-keyboard-response","264","420058","0.0-50.0-0.2","SS1613082412860","","","null","","","","","<p><img src= images/blank.png width =""200"" height = ""200"" style = ""float:right""></p><p><img src=images/blank.png width =""800"" height = ""200""></p>","","","","","","","","","","","",""
"","655","sequential-stimulus-presentation","265","421520","0.0-50.0-1.2","SS1613082412860","trial","","40","800","1455","images/stimuli/spore_stims/complex_10_A_d.gif","images/stimuli/spore_stims/complex_10_B_d.gif","","","","","14","complex_similar","images/stimuli/spore_stims/complex_10_B_d.gif","left","","","","",""
"","null","html-keyboard-response","266","422571","0.0-50.0-0.3","SS1613082412860","","","null","","","","","<p><img src= images/blank.png width =""200"" height = ""200"" style = ""float:right""></p><p><img src=images/blank.png width =""800"" height = ""200""></p>","","","","","","","","","","","",""
"","364","sequential-stimulus-presentation","267","423741","0.0-50.0-1.3","SS1613082412860","trial","","40","800","1164","images/stimuli/spore_stims/complex_10_A_d.gif","images/stimuli/spore_stims/complex_10_B_d.gif","","","","","14","complex_similar","images/stimuli/spore_stims/complex_10_B_d.gif","left","","","","",""
"","null","html-keyboard-response","268","424637","0.0-50.0-0.4","SS1613082412860","","","null","","","","","<p><img src= images/blank.png width =""200"" height = ""200"" style = ""float:right""></p><p><img src=images/blank.png width =""800"" height = ""200""></p>","","","","","","","","","","","",""
"","384","sequential-stimulus-presentation","269","425841","0.0-50.0-1.4","SS1613082412860","trial","","40","800","1184","images/stimuli/spore_stims/complex_10_A_d.gif","images/stimuli/spore_stims/complex_10_B_d.gif","","","","","14","complex_similar","images/stimuli/spore_stims/complex_10_B_d.gif","left","","","","",""
"","null","html-keyboard-response","270","426812","0.0-50.0-0.5","SS1613082412860","","","null","","","","","<p><img src= images/blank.png width =""200"" height = ""200"" style = ""float:right""></p><p><img src=images/blank.png width =""800"" height = ""200""></p>","","","","","","","","","","","",""
"","303","sequential-stimulus-presentation","271","427931","0.0-50.0-1.5","SS1613082412860","trial","","40","800","1103","images/stimuli/spore_stims/complex_10_A_d.gif","images/stimuli/spore_stims/complex_10_B_d.gif","","","","","14","complex_similar","images/stimuli/spore_stims/complex_10_B_d.gif","left","","","","",""
"","null","html-keyboard-response","272","428968","0.0-50.0-0.6","SS1613082412860","","","null","","","","","<p><img src= images/blank.png width =""200"" height = ""200"" style = ""float:right""></p><p><img src=images/blank.png width =""800"" height = ""200""></p>","","","","","","","","","","","",""
"","712","sequential-stimulus-presentation","273","430487","0.0-50.0-1.6","SS1613082412860","trial","","40","800","1512","images/stimuli/spore_stims/complex_10_A_d.gif","images/stimuli/spore_stims/complex_10_B_d.gif","","","","","14","complex_similar","images/stimuli/spore_stims/complex_10_A_d.gif","right","","","","",""
"","null","html-keyboard-response","274","431751","0.0-50.0-0.7","SS1613082412860","","","null","","","","","<p><img src= images/blank.png width =""200"" height = ""200"" style = ""float:right""></p><p><img src=images/blank.png width =""800"" height = ""200""></p>","","","","","","","","","","","",""
"","397","sequential-stimulus-presentation","275","432968","0.0-50.0-1.7","SS1613082412860","trial","","40","800","1197","images/stimuli/spore_stims/complex_10_A_d.gif","images/stimuli/spore_stims/complex_10_B_d.gif","","","","","14","complex_similar","images/stimuli/spore_stims/complex_10_B_d.gif","left","","","","",""
"","1790","html-keyboard-response","276","434762","0.0-51.0","SS1613082412860","pref_question","","49","","","","","<video width ='960' height = '540' style='padding-top:8%' autoplay muted><source src='images/stimuli/wall_pref.mp4' type='video/mp4'></video>","1","left","25%","14","","","","","","","",""
"","939","sequential-stimulus-presentation","277","436511","0.0-52.0","SS1613082412860","pref_reveal","","40","800","1739","null","null","","","","","14","","","","background","","","",""
"","null","html-keyboard-response","278","437537","0.0-53.0-0.0","SS1613082412860","","","null","","","","","<p><img src= images/blank.png width =""200"" height = ""200"" style = ""float:right""></p><p><img src=images/blank.png width =""800"" height = ""200""></p>","","","","","","","","","","","",""
"","940","sequential-stimulus-presentation","279","439283","0.0-53.0-1.0","SS1613082412860","trial","","40","800","1740","images/stimuli/spore_stims/simple_20_B_c.gif","images/stimuli/spore_stims/simple_20_A_c.gif","","","","","15","simple_similar","images/stimuli/spore_stims/simple_20_A_c.gif","left","","","","",""
"","null","html-keyboard-response","280","440565","0.0-53.0-0.1","SS1613082412860","","","null","","","","","<p><img src= images/blank.png width =""200"" height = ""200"" style = ""float:right""></p><p><img src=images/blank.png width =""800"" height = ""200""></p>","","","","","","","","","","","",""
"","1858","sequential-stimulus-presentation","281","443237","0.0-53.0-1.1","SS1613082412860","trial","","40","800","2658","images/stimuli/spore_stims/simple_20_B_c.gif","images/stimuli/spore_stims/simple_20_A_c.gif","","","","","15","simple_similar","images/stimuli/spore_stims/simple_20_A_c.gif","left","","","","",""
"","null","html-keyboard-response","282","444208","0.0-53.0-0.2","SS1613082412860","","","null","","","","","<p><img src= images/blank.png width =""200"" height = ""200"" style = ""float:right""></p><p><img src=images/blank.png width =""800"" height = ""200""></p>","","","","","","","","","","","",""
"","18","sequential-stimulus-presentation","283","445046","0.0-53.0-1.2","SS1613082412860","trial","","40","800","818","images/stimuli/spore_stims/simple_20_B_c.gif","images/stimuli/spore_stims/simple_20_A_c.gif","","","","","15","simple_similar","images/stimuli/spore_stims/simple_20_A_c.gif","left","","","","",""
"","null","html-keyboard-response","284","445882","0.0-53.0-0.3","SS1613082412860","","","null","","","","","<p><img src= images/blank.png width =""200"" height = ""200"" style = ""float:right""></p><p><img src=images/blank.png width =""800"" height = ""200""></p>","","","","","","","","","","","",""
"","603","sequential-stimulus-presentation","285","447302","0.0-53.0-1.3","SS1613082412860","trial","","40","800","1403","images/stimuli/spore_stims/simple_20_B_c.gif","images/stimuli/spore_stims/simple_20_A_c.gif","","","","","15","simple_similar","images/stimuli/spore_stims/simple_20_A_c.gif","left","","","","",""
"","null","html-keyboard-response","286","448121","0.0-53.0-0.4","SS1613082412860","","","null","","","","","<p><img src= images/blank.png width =""200"" height = ""200"" style = ""float:right""></p><p><img src=images/blank.png width =""800"" height = ""200""></p>","","","","","","","","","","","",""
"","497","sequential-stimulus-presentation","287","449438","0.0-53.0-1.4","SS1613082412860","trial","","40","800","1297","images/stimuli/spore_stims/simple_20_B_c.gif","images/stimuli/spore_stims/simple_20_A_c.gif","","","","","15","simple_similar","images/stimuli/spore_stims/simple_20_B_c.gif","right","","","","",""
"","null","html-keyboard-response","288","450695","0.0-53.0-0.5","SS1613082412860","","","null","","","","","<p><img src= images/blank.png width =""200"" height = ""200"" style = ""float:right""></p><p><img src=images/blank.png width =""800"" height = ""200""></p>","","","","","","","","","","","",""
"","112","sequential-stimulus-presentation","289","451622","0.0-53.0-1.5","SS1613082412860","trial","","40","800","912","images/stimuli/spore_stims/simple_20_B_c.gif","images/stimuli/spore_stims/simple_20_A_c.gif","","","","","15","simple_similar","images/stimuli/spore_stims/simple_20_A_c.gif","left","","","","",""
"","null","html-keyboard-response","290","452876","0.0-53.0-0.6","SS1613082412860","","","null","","","","","<p><img src= images/blank.png width =""200"" height = ""200"" style = ""float:right""></p><p><img src=images/blank.png width =""800"" height = ""200""></p>","","","","","","","","","","","",""
"","100","sequential-stimulus-presentation","291","453782","0.0-53.0-1.6","SS1613082412860","trial","","40","800","900","images/stimuli/spore_stims/simple_20_B_c.gif","images/stimuli/spore_stims/simple_20_A_c.gif","","","","","15","simple_similar","images/stimuli/spore_stims/simple_20_A_c.gif","left","","","","",""
"","null","html-keyboard-response","292","454837","0.0-53.0-0.7","SS1613082412860","","","null","","","","","<p><img src= images/blank.png width =""200"" height = ""200"" style = ""float:right""></p><p><img src=images/blank.png width =""800"" height = ""200""></p>","","","","","","","","","","","",""
"","468","sequential-stimulus-presentation","293","456123","0.0-53.0-1.7","SS1613082412860","trial","","40","800","1268","images/stimuli/spore_stims/simple_20_B_c.gif","images/stimuli/spore_stims/simple_20_A_c.gif","","","","","15","simple_similar","images/stimuli/spore_stims/simple_20_A_c.gif","left","","","","",""
"","740","html-keyboard-response","294","456869","0.0-54.0","SS1613082412860","pref_question","","49","","","","","<video width ='960' height = '540' style='padding-top:8%' autoplay muted><source src='images/stimuli/wall_pref.mp4' type='video/mp4'></video>","1","left","25%","15","","","","","","","",""
"","1166","sequential-stimulus-presentation","295","458854","0.0-55.0","SS1613082412860","pref_reveal","","40","800","1966","null","null","","","","","15","","","","background","","","",""
"","null","html-keyboard-response","296","460131","0.0-56.0-0.0","SS1613082412860","","","null","","","","","<p><img src= images/blank.png width =""200"" height = ""200"" style = ""float:right""></p><p><img src=images/blank.png width =""800"" height = ""200""></p>","","","","","","","","","","","",""
"","291","sequential-stimulus-presentation","297","461240","0.0-56.0-1.0","SS1613082412860","trial","","40","800","1091","images/stimuli/spore_stims/complex_20_A_d.gif","images/stimuli/spore_stims/complex_20_B_d.gif","","","","","16","complex_similar","images/stimuli/spore_stims/complex_20_B_d.gif","middle","","","","",""
"","null","html-keyboard-response","298","462250","0.0-56.0-0.1","SS1613082412860","","","null","","","","","<p><img src= images/blank.png width =""200"" height = ""200"" style = ""float:right""></p><p><img src=images/blank.png width =""800"" height = ""200""></p>","","","","","","","","","","","",""
"","216","sequential-stimulus-presentation","299","463285","0.0-56.0-1.1","SS1613082412860","trial","","40","800","1016","images/stimuli/spore_stims/complex_20_A_d.gif","images/stimuli/spore_stims/complex_20_B_d.gif","","","","","16","complex_similar","images/stimuli/spore_stims/complex_20_B_d.gif","middle","","","","",""
"","null","html-keyboard-response","300","464097","0.0-56.0-0.2","SS1613082412860","","","null","","","","","<p><img src= images/blank.png width =""200"" height = ""200"" style = ""float:right""></p><p><img src=images/blank.png width =""800"" height = ""200""></p>","","","","","","","","","","","",""
"","438","sequential-stimulus-presentation","301","465355","0.0-56.0-1.2","SS1613082412860","trial","","40","800","1238","images/stimuli/spore_stims/complex_20_A_d.gif","images/stimuli/spore_stims/complex_20_B_d.gif","","","","","16","complex_similar","images/stimuli/spore_stims/complex_20_B_d.gif","middle","","","","",""
"","null","html-keyboard-response","302","466465","0.0-56.0-0.3","SS1613082412860","","","null","","","","","<p><img src= images/blank.png width =""200"" height = ""200"" style = ""float:right""></p><p><img src=images/blank.png width =""800"" height = ""200""></p>","","","","","","","","","","","",""
"","102","sequential-stimulus-presentation","303","467384","0.0-56.0-1.3","SS1613082412860","trial","","40","800","902","images/stimuli/spore_stims/complex_20_A_d.gif","images/stimuli/spore_stims/complex_20_B_d.gif","","","","","16","complex_similar","images/stimuli/spore_stims/complex_20_B_d.gif","middle","","","","",""
"","null","html-keyboard-response","304","468524","0.0-56.0-0.4","SS1613082412860","","","null","","","","","<p><img src= images/blank.png width =""200"" height = ""200"" style = ""float:right""></p><p><img src=images/blank.png width =""800"" height = ""200""></p>","","","","","","","","","","","",""
"","184","sequential-stimulus-presentation","305","469524","0.0-56.0-1.4","SS1613082412860","trial","","40","800","984","images/stimuli/spore_stims/complex_20_A_d.gif","images/stimuli/spore_stims/complex_20_B_d.gif","","","","","16","complex_similar","images/stimuli/spore_stims/complex_20_B_d.gif","middle","","","","",""
"","null","html-keyboard-response","306","470785","0.0-56.0-0.5","SS1613082412860","","","null","","","","","<p><img src= images/blank.png width =""200"" height = ""200"" style = ""float:right""></p><p><img src=images/blank.png width =""800"" height = ""200""></p>","","","","","","","","","","","",""
"","229","sequential-stimulus-presentation","307","471835","0.0-56.0-1.5","SS1613082412860","trial","","40","800","1029","images/stimuli/spore_stims/complex_20_A_d.gif","images/stimuli/spore_stims/complex_20_B_d.gif","","","","","16","complex_similar","images/stimuli/spore_stims/complex_20_B_d.gif","middle","","","","",""
"","null","html-keyboard-response","308","473116","0.0-56.0-0.6","SS1613082412860","","","null","","","","","<p><img src= images/blank.png width =""200"" height = ""200"" style = ""float:right""></p><p><img src=images/blank.png width =""800"" height = ""200""></p>","","","","","","","","","","","",""
"","1637","sequential-stimulus-presentation","309","475568","0.0-56.0-1.6","SS1613082412860","trial","","40","800","2437","images/stimuli/spore_stims/complex_20_A_d.gif","images/stimuli/spore_stims/complex_20_B_d.gif","","","","","16","complex_similar","images/stimuli/spore_stims/complex_20_B_d.gif","middle","","","","",""
"","null","html-keyboard-response","310","476464","0.0-56.0-0.7","SS1613082412860","","","null","","","","","<p><img src= images/blank.png width =""200"" height = ""200"" style = ""float:right""></p><p><img src=images/blank.png width =""800"" height = ""200""></p>","","","","","","","","","","","",""
"","310","sequential-stimulus-presentation","311","477589","0.0-56.0-1.7","SS1613082412860","trial","","40","800","1110","images/stimuli/spore_stims/complex_20_A_d.gif","images/stimuli/spore_stims/complex_20_B_d.gif","","","","","16","complex_similar","images/stimuli/spore_stims/complex_20_A_d.gif","left","","","","",""
"","1388","html-keyboard-response","312","478982","0.0-57.0","SS1613082412860","pref_question","","50","","","","","<video width ='960' height = '540' style='padding-top:8%' autoplay muted><source src='images/stimuli/wall_pref.mp4' type='video/mp4'></video>","2","middle","45%","16","","","","","","","",""
"","658","sequential-stimulus-presentation","313","480460","0.0-58.0","SS1613082412860","pref_reveal","","40","800","1458","null","null","","","","","16","","","","background","","","",""
"","null","html-keyboard-response","314","481639","0.0-59.0-0.0","SS1613082412860","","","null","","","","","<p><img src= images/blank.png width =""200"" height = ""200"" style = ""float:right""></p><p><img src=images/blank.png width =""800"" height = ""200""></p>","","","","","","","","","","","",""
"","368","sequential-stimulus-presentation","315","482826","0.0-59.0-1.0","SS1613082412860","trial","","40","800","1168","images/stimuli/spore_stims/complex_17_A_d.gif","images/stimuli/spore_stims/complex_17_B_d.gif","","","","","17","complex_similar","images/stimuli/spore_stims/complex_17_B_d.gif","right","","","","",""
"","null","html-keyboard-response","316","483678","0.0-59.0-0.1","SS1613082412860","","","null","","","","","<p><img src= images/blank.png width =""200"" height = ""200"" style = ""float:right""></p><p><img src=images/blank.png width =""800"" height = ""200""></p>","","","","","","","","","","","",""
"","607","sequential-stimulus-presentation","317","485092","0.0-59.0-1.1","SS1613082412860","trial","","40","800","1407","images/stimuli/spore_stims/complex_17_A_d.gif","images/stimuli/spore_stims/complex_17_B_d.gif","","","","","17","complex_similar","images/stimuli/spore_stims/complex_17_B_d.gif","right","","","","",""
"","null","html-keyboard-response","318","486303","0.0-59.0-0.2","SS1613082412860","","","null","","","","","<p><img src= images/blank.png width =""200"" height = ""200"" style = ""float:right""></p><p><img src=images/blank.png width =""800"" height = ""200""></p>","","","","","","","","","","","",""
"","435","sequential-stimulus-presentation","319","487552","0.0-59.0-1.2","SS1613082412860","trial","","40","800","1235","images/stimuli/spore_stims/complex_17_A_d.gif","images/stimuli/spore_stims/complex_17_B_d.gif","","","","","17","complex_similar","images/stimuli/spore_stims/complex_17_B_d.gif","right","","","","",""
"","null","html-keyboard-response","320","488575","0.0-59.0-0.3","SS1613082412860","","","null","","","","","<p><img src= images/blank.png width =""200"" height = ""200"" style = ""float:right""></p><p><img src=images/blank.png width =""800"" height = ""200""></p>","","","","","","","","","","","",""
"","404","sequential-stimulus-presentation","321","489798","0.0-59.0-1.3","SS1613082412860","trial","","40","800","1204","images/stimuli/spore_stims/complex_17_A_d.gif","images/stimuli/spore_stims/complex_17_B_d.gif","","","","","17","complex_similar","images/stimuli/spore_stims/complex_17_B_d.gif","right","","","","",""
"","null","html-keyboard-response","322","490800","0.0-59.0-0.4","SS1613082412860","","","null","","","","","<p><img src= images/blank.png width =""200"" height = ""200"" style = ""float:right""></p><p><img src=images/blank.png width =""800"" height = ""200""></p>","","","","","","","","","","","",""
"","285","sequential-stimulus-presentation","323","491893","0.0-59.0-1.4","SS1613082412860","trial","","40","800","1085","images/stimuli/spore_stims/complex_17_A_d.gif","images/stimuli/spore_stims/complex_17_B_d.gif","","","","","17","complex_similar","images/stimuli/spore_stims/complex_17_A_d.gif","middle","","","","",""
"","null","html-keyboard-response","324","492730","0.0-59.0-0.5","SS1613082412860","","","null","","","","","<p><img src= images/blank.png width =""200"" height = ""200"" style = ""float:right""></p><p><img src=images/blank.png width =""800"" height = ""200""></p>","","","","","","","","","","","",""
"","367","sequential-stimulus-presentation","325","493917","0.0-59.0-1.5","SS1613082412860","trial","","40","800","1167","images/stimuli/spore_stims/complex_17_A_d.gif","images/stimuli/spore_stims/complex_17_B_d.gif","","","","","17","complex_similar","images/stimuli/spore_stims/complex_17_B_d.gif","right","","","","",""
"","null","html-keyboard-response","326","494954","0.0-59.0-0.6","SS1613082412860","","","null","","","","","<p><img src= images/blank.png width =""200"" height = ""200"" style = ""float:right""></p><p><img src=images/blank.png width =""800"" height = ""200""></p>","","","","","","","","","","","",""
"","1883","sequential-stimulus-presentation","327","497657","0.0-59.0-1.6","SS1613082412860","trial","","40","800","2683","images/stimuli/spore_stims/complex_17_A_d.gif","images/stimuli/spore_stims/complex_17_B_d.gif","","","","","17","complex_similar","images/stimuli/spore_stims/complex_17_B_d.gif","right","","","","",""
