"view_history","rt","trial_type","trial_index","time_elapsed","internal_node_id","subject","stimulus_type","trial_stimulus","key_press","minimum_viewing_duration","trial_looking_time","block_deviant","block_background","stimulus","wall_pref","location","location_percent","block_number","block_type","stimulus_displayed","position_displayed","stim_type_selected","responses","question_order","stimulus_left","stimulus_right"
"[{""page_index"":0,""viewing_time"":107310.56999973953}]","107311.55999936163","instructions","0","107316","0.0-0.0","SS1613140171782","","","","","","","","","","","","","","","","","","","",""
"[{""page_index"":0,""viewing_time"":7818.339999765158},{""page_index"":1,""viewing_time"":5823.909999802709}]","13642.680000513792","instructions","1","122963","0.0-1.0","SS1613140171782","instructions","","","","","","","","","","","","","","","","","","",""
"","8263.08000087738","sequential-stimulus-presentation","2","132063","0.0-2.0","SS1613140171782","","","40","800","9063.08000087738","null","null","","","","","","","","","","","","",""
"","8079.585000872612","sequential-stimulus-presentation","3","140955","0.0-3.0","SS1613140171782","","","40","800","8879.585000872612","null","null","","","","","","","","","","","","",""
"[{""page_index"":0,""viewing_time"":2862.399999052286}]","2862.804999575019","instructions","4","143820","0.0-4.0","SS1613140171782","instructions","","","","","","","","","","","","","","","","","","",""
"","7492.459999397397","html-keyboard-response","5","151316","0.0-5.0","SS1613140171782","instructions","","98","","","","","<video width ='960' height = '540' autoplay muted><source src='images/stimuli/wall_pref.mp4' type='video/mp4'></video>","2","middle","45%","","","","","","","","",""
"","3915.4850002378225","sequential-stimulus-presentation","6","156041","0.0-6.0","SS1613140171782","pref_reveal","","40","800","4715.4850002378225","null","null","","","","","","","","","","","","",""
"[{""page_index"":0,""viewing_time"":3012.389998883009},{""page_index"":1,""viewing_time"":2056.0750011354685},{""page_index"":2,""viewing_time"":1055.9000000357628},{""page_index"":3,""viewing_time"":1335.9500002115965}]","7460.699999704957","instructions","7","163507","0.0-7.0","SS1613140171782","instructions","","","","","","","","","","","","","","","","","","",""
"","null","html-keyboard-response","8","164531","0.0-8.0-0.0","SS1613140171782","","","null","","","","","<p><img src= images/blank.png width =""200"" height = ""200"" style = ""float:right""></p><p><img src=images/blank.png width =""800"" height = ""200""></p>","","","","","","","","","","","",""
"","5195.39500027895","sequential-stimulus-presentation","9","170556","0.0-8.0-1.0","SS1613140171782","trial","","40","800","5995.39500027895","images/stimuli/spore_stims/simple_08_B_d.gif","images/stimuli/spore_stims/simple_18_A_d.gif","","","","","0","simple_dissimilar","images/stimuli/spore_stims/simple_18_A_d.gif","left","","","","",""
"","null","html-keyboard-response","10","171740","0.0-8.0-0.1","SS1613140171782","","","null","","","","","<p><img src= images/blank.png width =""200"" height = ""200"" style = ""float:right""></p><p><img src=images/blank.png width =""800"" height = ""200""></p>","","","","","","","","","","","",""
"","1926.3900015503168","sequential-stimulus-presentation","11","174476","0.0-8.0-1.1","SS1613140171782","trial","","40","800","2726.390001550317","images/stimuli/spore_stims/simple_08_B_d.gif","images/stimuli/spore_stims/simple_18_A_d.gif","","","","","0","simple_dissimilar","images/stimuli/spore_stims/simple_18_A_d.gif","left","","","","",""
"","null","html-keyboard-response","12","175759","0.0-8.0-0.2","SS1613140171782","","","null","","","","","<p><img src= images/blank.png width =""200"" height = ""200"" style = ""float:right""></p><p><img src=images/blank.png width =""800"" height = ""200""></p>","","","","","","","","","","","",""
"","2577.710000798106","sequential-stimulus-presentation","13","179149","0.0-8.0-1.2","SS1613140171782","trial","","40","800","3377.710000798106","images/stimuli/spore_stims/simple_08_B_d.gif","images/stimuli/spore_stims/simple_18_A_d.gif","","","","","0","simple_dissimilar","images/stimuli/spore_stims/simple_18_A_d.gif","left","","","","",""
"","null","html-keyboard-response","14","180247","0.0-8.0-0.3","SS1613140171782","","","null","","","","","<p><img src= images/blank.png width =""200"" height = ""200"" style = ""float:right""></p><p><img src=images/blank.png width =""800"" height = ""200""></p>","","","","","","","","","","","",""
"","582.7500000596046","sequential-stimulus-presentation","15","181636","0.0-8.0-1.3","SS1613140171782","trial","","40","800","1382.7500000596046","images/stimuli/spore_stims/simple_08_B_d.gif","images/stimuli/spore_stims/simple_18_A_d.gif","","","","","0","simple_dissimilar","images/stimuli/spore_stims/simple_18_A_d.gif","left","","","","",""
"","null","html-keyboard-response","16","182468","0.0-8.0-0.4","SS1613140171782","","","null","","","","","<p><img src= images/blank.png width =""200"" height = ""200"" style = ""float:right""></p><p><img src=images/blank.png width =""800"" height = ""200""></p>","","","","","","","","","","","",""
"","41.259998455643654","sequential-stimulus-presentation","17","183316","0.0-8.0-1.4","SS1613140171782","trial","","40","800","841.2599984556437","images/stimuli/spore_stims/simple_08_B_d.gif","images/stimuli/spore_stims/simple_18_A_d.gif","","","","","0","simple_dissimilar","images/stimuli/spore_stims/simple_18_A_d.gif","left","","","","",""
"","null","html-keyboard-response","18","184501","0.0-8.0-0.5","SS1613140171782","","","null","","","","","<p><img src= images/blank.png width =""200"" height = ""200"" style = ""float:right""></p><p><img src=images/blank.png width =""800"" height = ""200""></p>","","","","","","","","","","","",""
"","585.5950005352497","sequential-stimulus-presentation","19","185909","0.0-8.0-1.5","SS1613140171782","trial","","40","800","1385.5950005352497","images/stimuli/spore_stims/simple_08_B_d.gif","images/stimuli/spore_stims/simple_18_A_d.gif","","","","","0","simple_dissimilar","images/stimuli/spore_stims/simple_18_A_d.gif","left","","","","",""
"","null","html-keyboard-response","20","186777","0.0-8.0-0.6","SS1613140171782","","","null","","","","","<p><img src= images/blank.png width =""200"" height = ""200"" style = ""float:right""></p><p><img src=images/blank.png width =""800"" height = ""200""></p>","","","","","","","","","","","",""
"","2094.920000061393","sequential-stimulus-presentation","21","189678","0.0-8.0-1.6","SS1613140171782","trial","","40","800","2894.920000061393","images/stimuli/spore_stims/simple_08_B_d.gif","images/stimuli/spore_stims/simple_18_A_d.gif","","","","","0","simple_dissimilar","images/stimuli/spore_stims/simple_18_A_d.gif","left","","","","",""
"","null","html-keyboard-response","22","190926","0.0-8.0-0.7","SS1613140171782","","","null","","","","","<p><img src= images/blank.png width =""200"" height = ""200"" style = ""float:right""></p><p><img src=images/blank.png width =""800"" height = ""200""></p>","","","","","","","","","","","",""
"","4965.500000864267","sequential-stimulus-presentation","23","196711","0.0-8.0-1.7","SS1613140171782","trial","","40","800","5765.500000864267","images/stimuli/spore_stims/simple_08_B_d.gif","images/stimuli/spore_stims/simple_18_A_d.gif","","","","","0","simple_dissimilar","images/stimuli/spore_stims/simple_08_B_d.gif","right","","","","",""
"","1851.8899995833635","html-keyboard-response","24","198580","0.0-9.0","SS1613140171782","pref_question","","99","","","","","<video width ='960' height = '540' style='padding-top:8%' autoplay muted><source src='images/stimuli/wall_pref.mp4' type='video/mp4'></video>","3","right","66%","0","","","","","","","",""
"","2490.4400017112494","sequential-stimulus-presentation","25","201887","0.0-10.0","SS1613140171782","pref_reveal","","40","800","3290.4400017112494","null","null","","","","","0","","","","deviant","","","",""
"","null","html-keyboard-response","26","202751","0.0-11.0-0.0","SS1613140171782","","","null","","","","","<p><img src= images/blank.png width =""200"" height = ""200"" style = ""float:right""></p><p><img src=images/blank.png width =""800"" height = ""200""></p>","","","","","","","","","","","",""
"","2133.1050004810095","sequential-stimulus-presentation","27","205697","0.0-11.0-1.0","SS1613140171782","trial","","40","800","2933.1050004810095","images/stimuli/spore_stims/complex_12_A_d.gif","images/stimuli/spore_stims/complex_12_B_d.gif","","","","","1","complex_similar","images/stimuli/spore_stims/complex_12_B_d.gif","right","","","","",""
"","null","html-keyboard-response","28","206690","0.0-11.0-0.1","SS1613140171782","","","null","","","","","<p><img src= images/blank.png width =""200"" height = ""200"" style = ""float:right""></p><p><img src=images/blank.png width =""800"" height = ""200""></p>","","","","","","","","","","","",""
"","838.1699994206429","sequential-stimulus-presentation","29","208347","0.0-11.0-1.1","SS1613140171782","trial","","40","800","1638.1699994206429","images/stimuli/spore_stims/complex_12_A_d.gif","images/stimuli/spore_stims/complex_12_B_d.gif","","","","","1","complex_similar","images/stimuli/spore_stims/complex_12_B_d.gif","right","","","","",""
"","null","html-keyboard-response","30","209230","0.0-11.0-0.2","SS1613140171782","","","null","","","","","<p><img src= images/blank.png width =""200"" height = ""200"" style = ""float:right""></p><p><img src=images/blank.png width =""800"" height = ""200""></p>","","","","","","","","","","","",""
"","1094.2999999970198","sequential-stimulus-presentation","31","211143","0.0-11.0-1.2","SS1613140171782","trial","","40","800","1894.2999999970198","images/stimuli/spore_stims/complex_12_A_d.gif","images/stimuli/spore_stims/complex_12_B_d.gif","","","","","1","complex_similar","images/stimuli/spore_stims/complex_12_B_d.gif","right","","","","",""
"","null","html-keyboard-response","32","212071","0.0-11.0-0.3","SS1613140171782","","","null","","","","","<p><img src= images/blank.png width =""200"" height = ""200"" style = ""float:right""></p><p><img src=images/blank.png width =""800"" height = ""200""></p>","","","","","","","","","","","",""
"","1577.335000038147","sequential-stimulus-presentation","33","214462","0.0-11.0-1.3","SS1613140171782","trial","","40","800","2377.335000038147","images/stimuli/spore_stims/complex_12_A_d.gif","images/stimuli/spore_stims/complex_12_B_d.gif","","","","","1","complex_similar","images/stimuli/spore_stims/complex_12_B_d.gif","right","","","","",""
"","null","html-keyboard-response","34","215702","0.0-11.0-0.4","SS1613140171782","","","null","","","","","<p><img src= images/blank.png width =""200"" height = ""200"" style = ""float:right""></p><p><img src=images/blank.png width =""800"" height = ""200""></p>","","","","","","","","","","","",""
"","663.7750007212162","sequential-stimulus-presentation","35","217182","0.0-11.0-1.4","SS1613140171782","trial","","40","800","1463.7750007212162","images/stimuli/spore_stims/complex_12_A_d.gif","images/stimuli/spore_stims/complex_12_B_d.gif","","","","","1","complex_similar","images/stimuli/spore_stims/complex_12_B_d.gif","right","","","","",""
"","null","html-keyboard-response","36","218201","0.0-11.0-0.5","SS1613140171782","","","null","","","","","<p><img src= images/blank.png width =""200"" height = ""200"" style = ""float:right""></p><p><img src=images/blank.png width =""800"" height = ""200""></p>","","","","","","","","","","","",""
"","771.2750006467104","sequential-stimulus-presentation","37","219781","0.0-11.0-1.5","SS1613140171782","trial","","40","800","1571.2750006467104","images/stimuli/spore_stims/complex_12_A_d.gif","images/stimuli/spore_stims/complex_12_B_d.gif","","","","","1","complex_similar","images/stimuli/spore_stims/complex_12_B_d.gif","right","","","","",""
"","null","html-keyboard-response","38","221010","0.0-11.0-0.6","SS1613140171782","","","null","","","","","<p><img src= images/blank.png width =""200"" height = ""200"" style = ""float:right""></p><p><img src=images/blank.png width =""800"" height = ""200""></p>","","","","","","","","","","","",""
"","2339.139999821782","sequential-stimulus-presentation","39","224166","0.0-11.0-1.6","SS1613140171782","trial","","40","800","3139.139999821782","images/stimuli/spore_stims/complex_12_A_d.gif","images/stimuli/spore_stims/complex_12_B_d.gif","","","","","1","complex_similar","images/stimuli/spore_stims/complex_12_A_d.gif","left","","","","",""
"","null","html-keyboard-response","40","225460","0.0-11.0-0.7","SS1613140171782","","","null","","","","","<p><img src= images/blank.png width =""200"" height = ""200"" style = ""float:right""></p><p><img src=images/blank.png width =""800"" height = ""200""></p>","","","","","","","","","","","",""
"","951.409999281168","sequential-stimulus-presentation","41","227227","0.0-11.0-1.7","SS1613140171782","trial","","40","800","1751.409999281168","images/stimuli/spore_stims/complex_12_A_d.gif","images/stimuli/spore_stims/complex_12_B_d.gif","","","","","1","complex_similar","images/stimuli/spore_stims/complex_12_B_d.gif","right","","","","",""
"","2797.4399998784065","html-keyboard-response","42","230030","0.0-12.0","SS1613140171782","pref_question","","99","","","","","<video width ='960' height = '540' style='padding-top:8%' autoplay muted><source src='images/stimuli/wall_pref.mp4' type='video/mp4'></video>","3","right","66%","1","","","","","","","",""
"","3117.3700001090765","sequential-stimulus-presentation","43","233963","0.0-13.0","SS1613140171782","pref_reveal","","40","800","3917.3700001090765","null","null","","","","","1","","","","background","","","",""
"","null","html-keyboard-response","44","234807","0.0-14.0-0.0","SS1613140171782","","","null","","","","","<p><img src= images/blank.png width =""200"" height = ""200"" style = ""float:right""></p><p><img src=images/blank.png width =""800"" height = ""200""></p>","","","","","","","","","","","",""
"","2050.279999151826","sequential-stimulus-presentation","45","237678","0.0-14.0-1.0","SS1613140171782","trial","","40","800","2850.279999151826","images/stimuli/spore_stims/simple_04_A_c.gif","images/stimuli/spore_stims/simple_04_B_c.gif","","","","","2","simple_similar","images/stimuli/spore_stims/simple_04_B_c.gif","middle","","","","",""
"","null","html-keyboard-response","46","238661","0.0-14.0-0.1","SS1613140171782","","","null","","","","","<p><img src= images/blank.png width =""200"" height = ""200"" style = ""float:right""></p><p><img src=images/blank.png width =""800"" height = ""200""></p>","","","","","","","","","","","",""
"","80.61499893665314","sequential-stimulus-presentation","47","239550","0.0-14.0-1.1","SS1613140171782","trial","","40","800","880.6149989366531","images/stimuli/spore_stims/simple_04_A_c.gif","images/stimuli/spore_stims/simple_04_B_c.gif","","","","","2","simple_similar","images/stimuli/spore_stims/simple_04_B_c.gif","middle","","","","",""
"","null","html-keyboard-response","48","240635","0.0-14.0-0.2","SS1613140171782","","","null","","","","","<p><img src= images/blank.png width =""200"" height = ""200"" style = ""float:right""></p><p><img src=images/blank.png width =""800"" height = ""200""></p>","","","","","","","","","","","",""
"","408.5849989205599","sequential-stimulus-presentation","49","241899","0.0-14.0-1.2","SS1613140171782","trial","","40","800","1208.5849989205599","images/stimuli/spore_stims/simple_04_A_c.gif","images/stimuli/spore_stims/simple_04_B_c.gif","","","","","2","simple_similar","images/stimuli/spore_stims/simple_04_B_c.gif","middle","","","","",""
"","null","html-keyboard-response","50","243177","0.0-14.0-0.3","SS1613140171782","","","null","","","","","<p><img src= images/blank.png width =""200"" height = ""200"" style = ""float:right""></p><p><img src=images/blank.png width =""800"" height = ""200""></p>","","","","","","","","","","","",""
"","611.8349991738796","sequential-stimulus-presentation","51","244604","0.0-14.0-1.3","SS1613140171782","trial","","40","800","1411.8349991738796","images/stimuli/spore_stims/simple_04_A_c.gif","images/stimuli/spore_stims/simple_04_B_c.gif","","","","","2","simple_similar","images/stimuli/spore_stims/simple_04_B_c.gif","middle","","","","",""
"","null","html-keyboard-response","52","245806","0.0-14.0-0.4","SS1613140171782","","","null","","","","","<p><img src= images/blank.png width =""200"" height = ""200"" style = ""float:right""></p><p><img src=images/blank.png width =""800"" height = ""200""></p>","","","","","","","","","","","",""
"","530.91000020504","sequential-stimulus-presentation","53","247148","0.0-14.0-1.4","SS1613140171782","trial","","40","800","1330.91000020504","images/stimuli/spore_stims/simple_04_A_c.gif","images/stimuli/spore_stims/simple_04_B_c.gif","","","","","2","simple_similar","images/stimuli/spore_stims/simple_04_B_c.gif","middle","","","","",""
"","null","html-keyboard-response","54","248253","0.0-14.0-0.5","SS1613140171782","","","null","","","","","<p><img src= images/blank.png width =""200"" height = ""200"" style = ""float:right""></p><p><img src=images/blank.png width =""800"" height = ""200""></p>","","","","","","","","","","","",""
"","603.8099993020296","sequential-stimulus-presentation","55","249677","0.0-14.0-1.5","SS1613140171782","trial","","40","800","1403.8099993020296","images/stimuli/spore_stims/simple_04_A_c.gif","images/stimuli/spore_stims/simple_04_B_c.gif","","","","","2","simple_similar","images/stimuli/spore_stims/simple_04_B_c.gif","middle","","","","",""
"","null","html-keyboard-response","56","250735","0.0-14.0-0.6","SS1613140171782","","","null","","","","","<p><img src= images/blank.png width =""200"" height = ""200"" style = ""float:right""></p><p><img src=images/blank.png width =""800"" height = ""200""></p>","","","","","","","","","","","",""
"","1640.8699993044138","sequential-stimulus-presentation","57","253206","0.0-14.0-1.6","SS1613140171782","trial","","40","800","2440.869999304414","images/stimuli/spore_stims/simple_04_A_c.gif","images/stimuli/spore_stims/simple_04_B_c.gif","","","","","2","simple_similar","images/stimuli/spore_stims/simple_04_A_c.gif","left","","","","",""
"","null","html-keyboard-response","58","254217","0.0-14.0-0.7","SS1613140171782","","","null","","","","","<p><img src= images/blank.png width =""200"" height = ""200"" style = ""float:right""></p><p><img src=images/blank.png width =""800"" height = ""200""></p>","","","","","","","","","","","",""
"","396.43000066280365","sequential-stimulus-presentation","59","255421","0.0-14.0-1.7","SS1613140171782","trial","","40","800","1196.4300006628036","images/stimuli/spore_stims/simple_04_A_c.gif","images/stimuli/spore_stims/simple_04_B_c.gif","","","","","2","simple_similar","images/stimuli/spore_stims/simple_04_B_c.gif","middle","","","","",""
"","1600.2900004386902","html-keyboard-response","60","257055","0.0-15.0","SS1613140171782","pref_question","","99","","","","","<video width ='960' height = '540' style='padding-top:8%' autoplay muted><source src='images/stimuli/wall_pref.mp4' type='video/mp4'></video>","3","right","66%","2","","","","","","","",""
"","3019.8900010436773","sequential-stimulus-presentation","61","260892","0.0-16.0","SS1613140171782","pref_reveal","","40","800","3819.8900010436773","null","null","","","","","2","","","","novel","","","",""
"","null","html-keyboard-response","62","261735","0.0-17.0-0.0","SS1613140171782","","","null","","","","","<p><img src= images/blank.png width =""200"" height = ""200"" style = ""float:right""></p><p><img src=images/blank.png width =""800"" height = ""200""></p>","","","","","","","","","","","",""
"","4624.394999817014","sequential-stimulus-presentation","63","267180","0.0-17.0-1.0","SS1613140171782","trial","","40","800","5424.394999817014","images/stimuli/spore_stims/simple_20_A_a.gif","images/stimuli/spore_stims/simple_20_B_a.gif","","","","","3","simple_similar","images/stimuli/spore_stims/simple_20_B_a.gif","middle","","","","",""
"","null","html-keyboard-response","64","268162","0.0-17.0-0.1","SS1613140171782","","","null","","","","","<p><img src= images/blank.png width =""200"" height = ""200"" style = ""float:right""></p><p><img src=images/blank.png width =""800"" height = ""200""></p>","","","","","","","","","","","",""
"","375.75000151991844","sequential-stimulus-presentation","65","269347","0.0-17.0-1.1","SS1613140171782","trial","","40","800","1175.7500015199184","images/stimuli/spore_stims/simple_20_A_a.gif","images/stimuli/spore_stims/simple_20_B_a.gif","","","","","3","simple_similar","images/stimuli/spore_stims/simple_20_B_a.gif","middle","","","","",""
"","null","html-keyboard-response","66","270386","0.0-17.0-0.2","SS1613140171782","","","null","","","","","<p><img src= images/blank.png width =""200"" height = ""200"" style = ""float:right""></p><p><img src=images/blank.png width =""800"" height = ""200""></p>","","","","","","","","","","","",""
"","334.76500026881695","sequential-stimulus-presentation","67","271537","0.0-17.0-1.2","SS1613140171782","trial","","40","800","1134.765000268817","images/stimuli/spore_stims/simple_20_A_a.gif","images/stimuli/spore_stims/simple_20_B_a.gif","","","","","3","simple_similar","images/stimuli/spore_stims/simple_20_B_a.gif","middle","","","","",""
"","null","html-keyboard-response","68","272765","0.0-17.0-0.3","SS1613140171782","","","null","","","","","<p><img src= images/blank.png width =""200"" height = ""200"" style = ""float:right""></p><p><img src=images/blank.png width =""800"" height = ""200""></p>","","","","","","","","","","","",""
"","853.1950004398823","sequential-stimulus-presentation","69","274438","0.0-17.0-1.3","SS1613140171782","trial","","40","800","1653.1950004398823","images/stimuli/spore_stims/simple_20_A_a.gif","images/stimuli/spore_stims/simple_20_B_a.gif","","","","","3","simple_similar","images/stimuli/spore_stims/simple_20_B_a.gif","middle","","","","",""
"","null","html-keyboard-response","70","275447","0.0-17.0-0.4","SS1613140171782","","","null","","","","","<p><img src= images/blank.png width =""200"" height = ""200"" style = ""float:right""></p><p><img src=images/blank.png width =""800"" height = ""200""></p>","","","","","","","","","","","",""
"","652.3950006812811","sequential-stimulus-presentation","71","276924","0.0-17.0-1.4","SS1613140171782","trial","","40","800","1452.395000681281","images/stimuli/spore_stims/simple_20_A_a.gif","images/stimuli/spore_stims/simple_20_B_a.gif","","","","","3","simple_similar","images/stimuli/spore_stims/simple_20_B_a.gif","middle","","","","",""
"","null","html-keyboard-response","72","278126","0.0-17.0-0.5","SS1613140171782","","","null","","","","","<p><img src= images/blank.png width =""200"" height = ""200"" style = ""float:right""></p><p><img src=images/blank.png width =""800"" height = ""200""></p>","","","","","","","","","","","",""
"","1632.8650005161762","sequential-stimulus-presentation","73","280598","0.0-17.0-1.5","SS1613140171782","trial","","40","800","2432.865000516176","images/stimuli/spore_stims/simple_20_A_a.gif","images/stimuli/spore_stims/simple_20_B_a.gif","","","","","3","simple_similar","images/stimuli/spore_stims/simple_20_A_a.gif","left","","","","",""
"","null","html-keyboard-response","74","281557","0.0-17.0-0.6","SS1613140171782","","","null","","","","","<p><img src= images/blank.png width =""200"" height = ""200"" style = ""float:right""></p><p><img src=images/blank.png width =""800"" height = ""200""></p>","","","","","","","","","","","",""
"","579.1250001639128","sequential-stimulus-presentation","75","282961","0.0-17.0-1.6","SS1613140171782","trial","","40","800","1379.1250001639128","images/stimuli/spore_stims/simple_20_A_a.gif","images/stimuli/spore_stims/simple_20_B_a.gif","","","","","3","simple_similar","images/stimuli/spore_stims/simple_20_B_a.gif","middle","","","","",""
"","null","html-keyboard-response","76","284237","0.0-17.0-0.7","SS1613140171782","","","null","","","","","<p><img src= images/blank.png width =""200"" height = ""200"" style = ""float:right""></p><p><img src=images/blank.png width =""800"" height = ""200""></p>","","","","","","","","","","","",""
"","330.1149997860193","sequential-stimulus-presentation","77","285379","0.0-17.0-1.7","SS1613140171782","trial","","40","800","1130.1149997860193","images/stimuli/spore_stims/simple_20_A_a.gif","images/stimuli/spore_stims/simple_20_B_a.gif","","","","","3","simple_similar","images/stimuli/spore_stims/simple_20_B_a.gif","middle","","","","",""
"","4244.540000334382","html-keyboard-response","78","289626","0.0-18.0","SS1613140171782","pref_question","","98","","","","","<video width ='960' height = '540' style='padding-top:8%' autoplay muted><source src='images/stimuli/wall_pref.mp4' type='video/mp4'></video>","2","middle","45%","3","","","","","","","",""
"","1963.6699985712767","sequential-stimulus-presentation","79","292397","0.0-19.0","SS1613140171782","pref_reveal","","40","800","2763.6699985712767","null","null","","","","","3","","","","background","","","",""
"","null","html-keyboard-response","80","293305","0.0-20.0-0.0","SS1613140171782","","","null","","","","","<p><img src= images/blank.png width =""200"" height = ""200"" style = ""float:right""></p><p><img src=images/blank.png width =""800"" height = ""200""></p>","","","","","","","","","","","",""
"","978.0199993401766","sequential-stimulus-presentation","81","295102","0.0-20.0-1.0","SS1613140171782","trial","","40","800","1778.0199993401766","images/stimuli/spore_stims/simple_05_B_c.gif","images/stimuli/spore_stims/simple_03_A_a.gif","","","","","4","simple_dissimilar","images/stimuli/spore_stims/simple_03_A_a.gif","right","","","","",""
"","null","html-keyboard-response","82","296184","0.0-20.0-0.1","SS1613140171782","","","null","","","","","<p><img src= images/blank.png width =""200"" height = ""200"" style = ""float:right""></p><p><img src=images/blank.png width =""800"" height = ""200""></p>","","","","","","","","","","","",""
"","600.5199998617172","sequential-stimulus-presentation","83","297603","0.0-20.0-1.1","SS1613140171782","trial","","40","800","1400.5199998617172","images/stimuli/spore_stims/simple_05_B_c.gif","images/stimuli/spore_stims/simple_03_A_a.gif","","","","","4","simple_dissimilar","images/stimuli/spore_stims/simple_03_A_a.gif","right","","","","",""
"","null","html-keyboard-response","84","298734","0.0-20.0-0.2","SS1613140171782","","","null","","","","","<p><img src= images/blank.png width =""200"" height = ""200"" style = ""float:right""></p><p><img src=images/blank.png width =""800"" height = ""200""></p>","","","","","","","","","","","",""
"","842.5650000572205","sequential-stimulus-presentation","85","300386","0.0-20.0-1.2","SS1613140171782","trial","","40","800","1642.5650000572205","images/stimuli/spore_stims/simple_05_B_c.gif","images/stimuli/spore_stims/simple_03_A_a.gif","","","","","4","simple_dissimilar","images/stimuli/spore_stims/simple_05_B_c.gif","left","","","","",""
"","null","html-keyboard-response","86","301367","0.0-20.0-0.3","SS1613140171782","","","null","","","","","<p><img src= images/blank.png width =""200"" height = ""200"" style = ""float:right""></p><p><img src=images/blank.png width =""800"" height = ""200""></p>","","","","","","","","","","","",""
"","638.6599987745285","sequential-stimulus-presentation","87","302818","0.0-20.0-1.3","SS1613140171782","trial","","40","800","1438.6599987745285","images/stimuli/spore_stims/simple_05_B_c.gif","images/stimuli/spore_stims/simple_03_A_a.gif","","","","","4","simple_dissimilar","images/stimuli/spore_stims/simple_03_A_a.gif","right","","","","",""
"","null","html-keyboard-response","88","303687","0.0-20.0-0.4","SS1613140171782","","","null","","","","","<p><img src= images/blank.png width =""200"" height = ""200"" style = ""float:right""></p><p><img src=images/blank.png width =""800"" height = ""200""></p>","","","","","","","","","","","",""
"","413.5400000959635","sequential-stimulus-presentation","89","304924","0.0-20.0-1.4","SS1613140171782","trial","","40","800","1213.5400000959635","images/stimuli/spore_stims/simple_05_B_c.gif","images/stimuli/spore_stims/simple_03_A_a.gif","","","","","4","simple_dissimilar","images/stimuli/spore_stims/simple_03_A_a.gif","right","","","","",""
"","null","html-keyboard-response","90","305910","0.0-20.0-0.5","SS1613140171782","","","null","","","","","<p><img src= images/blank.png width =""200"" height = ""200"" style = ""float:right""></p><p><img src=images/blank.png width =""800"" height = ""200""></p>","","","","","","","","","","","",""
"","675.4349991679192","sequential-stimulus-presentation","91","307407","0.0-20.0-1.5","SS1613140171782","trial","","40","800","1475.4349991679192","images/stimuli/spore_stims/simple_05_B_c.gif","images/stimuli/spore_stims/simple_03_A_a.gif","","","","","4","simple_dissimilar","images/stimuli/spore_stims/simple_03_A_a.gif","right","","","","",""
"","null","html-keyboard-response","92","308536","0.0-20.0-0.6","SS1613140171782","","","null","","","","","<p><img src= images/blank.png width =""200"" height = ""200"" style = ""float:right""></p><p><img src=images/blank.png width =""800"" height = ""200""></p>","","","","","","","","","","","",""
"","665.7299995422363","sequential-stimulus-presentation","93","310020","0.0-20.0-1.6","SS1613140171782","trial","","40","800","1465.7299995422363","images/stimuli/spore_stims/simple_05_B_c.gif","images/stimuli/spore_stims/simple_03_A_a.gif","","","","","4","simple_dissimilar","images/stimuli/spore_stims/simple_03_A_a.gif","right","","","","",""
"","null","html-keyboard-response","94","311294","0.0-20.0-0.7","SS1613140171782","","","null","","","","","<p><img src= images/blank.png width =""200"" height = ""200"" style = ""float:right""></p><p><img src=images/blank.png width =""800"" height = ""200""></p>","","","","","","","","","","","",""
"","450.1649998128414","sequential-stimulus-presentation","95","312565","0.0-20.0-1.7","SS1613140171782","trial","","40","800","1250.1649998128414","images/stimuli/spore_stims/simple_05_B_c.gif","images/stimuli/spore_stims/simple_03_A_a.gif","","","","","4","simple_dissimilar","images/stimuli/spore_stims/simple_03_A_a.gif","right","","","","",""
"","2975.5300004035234","html-keyboard-response","96","315565","0.0-21.0","SS1613140171782","pref_question","","97","","","","","<video width ='960' height = '540' style='padding-top:8%' autoplay muted><source src='images/stimuli/wall_pref.mp4' type='video/mp4'></video>","1","left","25%","4","","","","","","","",""
"","2110.409999266267","sequential-stimulus-presentation","97","318503","0.0-22.0","SS1613140171782","pref_reveal","","40","800","2910.409999266267","null","null","","","","","4","","","","deviant","","","",""
"","null","html-keyboard-response","98","319465","0.0-23.0-0.0","SS1613140171782","","","null","","","","","<p><img src= images/blank.png width =""200"" height = ""200"" style = ""float:right""></p><p><img src=images/blank.png width =""800"" height = ""200""></p>","","","","","","","","","","","",""
"","668.8250005245209","sequential-stimulus-presentation","99","320955","0.0-23.0-1.0","SS1613140171782","trial","","40","800","1468.8250005245209","images/stimuli/spore_stims/simple_13_B_b.gif","images/stimuli/spore_stims/simple_05_A_c.gif","","","","","5","simple_dissimilar","images/stimuli/spore_stims/simple_05_A_c.gif","middle","","","","",""
"","null","html-keyboard-response","100","322027","0.0-23.0-0.1","SS1613140171782","","","null","","","","","<p><img src= images/blank.png width =""200"" height = ""200"" style = ""float:right""></p><p><img src=images/blank.png width =""800"" height = ""200""></p>","","","","","","","","","","","",""
"","527.1499995142221","sequential-stimulus-presentation","101","323362","0.0-23.0-1.1","SS1613140171782","trial","","40","800","1327.1499995142221","images/stimuli/spore_stims/simple_13_B_b.gif","images/stimuli/spore_stims/simple_05_A_c.gif","","","","","5","simple_dissimilar","images/stimuli/spore_stims/simple_05_A_c.gif","middle","","","","",""
"","null","html-keyboard-response","102","324218","0.0-23.0-0.2","SS1613140171782","","","null","","","","","<p><img src= images/blank.png width =""200"" height = ""200"" style = ""float:right""></p><p><img src=images/blank.png width =""800"" height = ""200""></p>","","","","","","","","","","","",""
"","516.754999756813","sequential-stimulus-presentation","103","325554","0.0-23.0-1.2","SS1613140171782","trial","","40","800","1316.754999756813","images/stimuli/spore_stims/simple_13_B_b.gif","images/stimuli/spore_stims/simple_05_A_c.gif","","","","","5","simple_dissimilar","images/stimuli/spore_stims/simple_05_A_c.gif","middle","","","","",""
"","null","html-keyboard-response","104","326428","0.0-23.0-0.3","SS1613140171782","","","null","","","","","<p><img src= images/blank.png width =""200"" height = ""200"" style = ""float:right""></p><p><img src=images/blank.png width =""800"" height = ""200""></p>","","","","","","","","","","","",""
"","467.960000038147","sequential-stimulus-presentation","105","327716","0.0-23.0-1.3","SS1613140171782","trial","","40","800","1267.960000038147","images/stimuli/spore_stims/simple_13_B_b.gif","images/stimuli/spore_stims/simple_05_A_c.gif","","","","","5","simple_dissimilar","images/stimuli/spore_stims/simple_05_A_c.gif","middle","","","","",""
"","null","html-keyboard-response","106","328984","0.0-23.0-0.4","SS1613140171782","","","null","","","","","<p><img src= images/blank.png width =""200"" height = ""200"" style = ""float:right""></p><p><img src=images/blank.png width =""800"" height = ""200""></p>","","","","","","","","","","","",""
"","487.51999996602535","sequential-stimulus-presentation","107","330303","0.0-23.0-1.4","SS1613140171782","trial","","40","800","1287.5199999660254","images/stimuli/spore_stims/simple_13_B_b.gif","images/stimuli/spore_stims/simple_05_A_c.gif","","","","","5","simple_dissimilar","images/stimuli/spore_stims/simple_05_A_c.gif","middle","","","","",""
"","null","html-keyboard-response","108","331403","0.0-23.0-0.5","SS1613140171782","","","null","","","","","<p><img src= images/blank.png width =""200"" height = ""200"" style = ""float:right""></p><p><img src=images/blank.png width =""800"" height = ""200""></p>","","","","","","","","","","","",""
"","1845.6900008022785","sequential-stimulus-presentation","109","334066","0.0-23.0-1.5","SS1613140171782","trial","","40","800","2645.6900008022785","images/stimuli/spore_stims/simple_13_B_b.gif","images/stimuli/spore_stims/simple_05_A_c.gif","","","","","5","simple_dissimilar","images/stimuli/spore_stims/simple_13_B_b.gif","right","","","","",""
"","null","html-keyboard-response","110","334924","0.0-23.0-0.6","SS1613140171782","","","null","","","","","<p><img src= images/blank.png width =""200"" height = ""200"" style = ""float:right""></p><p><img src=images/blank.png width =""800"" height = ""200""></p>","","","","","","","","","","","",""
"","3140.249999240041","sequential-stimulus-presentation","111","338893","0.0-23.0-1.6","SS1613140171782","trial","","40","800","3940.249999240041","images/stimuli/spore_stims/simple_13_B_b.gif","images/stimuli/spore_stims/simple_05_A_c.gif","","","","","5","simple_dissimilar","images/stimuli/spore_stims/simple_05_A_c.gif","middle","","","","",""
"","null","html-keyboard-response","112","339976","0.0-23.0-0.7","SS1613140171782","","","null","","","","","<p><img src= images/blank.png width =""200"" height = ""200"" style = ""float:right""></p><p><img src=images/blank.png width =""800"" height = ""200""></p>","","","","","","","","","","","",""
"","480.10999895632267","sequential-stimulus-presentation","113","341282","0.0-23.0-1.7","SS1613140171782","trial","","40","800","1280.1099989563227","images/stimuli/spore_stims/simple_13_B_b.gif","images/stimuli/spore_stims/simple_05_A_c.gif","","","","","5","simple_dissimilar","images/stimuli/spore_stims/simple_05_A_c.gif","middle","","","","",""
"","2403.6499988287687","html-keyboard-response","114","343692","0.0-24.0","SS1613140171782","pref_question","","99","","","","","<video width ='960' height = '540' style='padding-top:8%' autoplay muted><source src='images/stimuli/wall_pref.mp4' type='video/mp4'></video>","3","right","66%","5","","","","","","","",""
"","2248.150000348687","sequential-stimulus-presentation","115","346760","0.0-25.0","SS1613140171782","pref_reveal","","40","800","3048.150000348687","null","null","","","","","5","","","","deviant","","","",""
"","null","html-keyboard-response","116","347859","0.0-26.0-0.0","SS1613140171782","","","null","","","","","<p><img src= images/blank.png width =""200"" height = ""200"" style = ""float:right""></p><p><img src=images/blank.png width =""800"" height = ""200""></p>","","","","","","","","","","","",""
"","25.314999744296074","sequential-stimulus-presentation","117","348707","0.0-26.0-1.0","SS1613140171782","trial","","40","800","825.3149997442961","images/stimuli/spore_stims/complex_11_B_a.gif","images/stimuli/spore_stims/complex_11_A_a.gif","","","","","6","complex_similar","images/stimuli/spore_stims/complex_11_A_a.gif","middle","","","","",""
"","null","html-keyboard-response","118","349973","0.0-26.0-0.1","SS1613140171782","","","null","","","","","<p><img src= images/blank.png width =""200"" height = ""200"" style = ""float:right""></p><p><img src=images/blank.png width =""800"" height = ""200""></p>","","","","","","","","","","","",""
"","3209.484999999404","sequential-stimulus-presentation","119","354020","0.0-26.0-1.1","SS1613140171782","trial","","40","800","4009.484999999404","images/stimuli/spore_stims/complex_11_B_a.gif","images/stimuli/spore_stims/complex_11_A_a.gif","","","","","6","complex_similar","images/stimuli/spore_stims/complex_11_A_a.gif","middle","","","","",""
"","null","html-keyboard-response","120","355236","0.0-26.0-0.2","SS1613140171782","","","null","","","","","<p><img src= images/blank.png width =""200"" height = ""200"" style = ""float:right""></p><p><img src=images/blank.png width =""800"" height = ""200""></p>","","","","","","","","","","","",""
"","657.6800011098385","sequential-stimulus-presentation","121","356717","0.0-26.0-1.2","SS1613140171782","trial","","40","800","1457.6800011098385","images/stimuli/spore_stims/complex_11_B_a.gif","images/stimuli/spore_stims/complex_11_A_a.gif","","","","","6","complex_similar","images/stimuli/spore_stims/complex_11_A_a.gif","middle","","","","",""
"","null","html-keyboard-response","122","357885","0.0-26.0-0.3","SS1613140171782","","","null","","","","","<p><img src= images/blank.png width =""200"" height = ""200"" style = ""float:right""></p><p><img src=images/blank.png width =""800"" height = ""200""></p>","","","","","","","","","","","",""
"","2437.534999102354","sequential-stimulus-presentation","123","361142","0.0-26.0-1.3","SS1613140171782","trial","","40","800","3237.534999102354","images/stimuli/spore_stims/complex_11_B_a.gif","images/stimuli/spore_stims/complex_11_A_a.gif","","","","","6","complex_similar","images/stimuli/spore_stims/complex_11_B_a.gif","left","","","","",""
"","null","html-keyboard-response","124","362265","0.0-26.0-0.4","SS1613140171782","","","null","","","","","<p><img src= images/blank.png width =""200"" height = ""200"" style = ""float:right""></p><p><img src=images/blank.png width =""800"" height = ""200""></p>","","","","","","","","","","","",""
"","1163.790000602603","sequential-stimulus-presentation","125","364237","0.0-26.0-1.4","SS1613140171782","trial","","40","800","1963.790000602603","images/stimuli/spore_stims/complex_11_B_a.gif","images/stimuli/spore_stims/complex_11_A_a.gif","","","","","6","complex_similar","images/stimuli/spore_stims/complex_11_A_a.gif","middle","","","","",""
"","null","html-keyboard-response","126","365121","0.0-26.0-0.5","SS1613140171782","","","null","","","","","<p><img src= images/blank.png width =""200"" height = ""200"" style = ""float:right""></p><p><img src=images/blank.png width =""800"" height = ""200""></p>","","","","","","","","","","","",""
"","1655.2699990570545","sequential-stimulus-presentation","127","367619","0.0-26.0-1.5","SS1613140171782","trial","","40","800","2455.2699990570545","images/stimuli/spore_stims/complex_11_B_a.gif","images/stimuli/spore_stims/complex_11_A_a.gif","","","","","6","complex_similar","images/stimuli/spore_stims/complex_11_A_a.gif","middle","","","","",""
"","null","html-keyboard-response","128","368726","0.0-26.0-0.6","SS1613140171782","","","null","","","","","<p><img src= images/blank.png width =""200"" height = ""200"" style = ""float:right""></p><p><img src=images/blank.png width =""800"" height = ""200""></p>","","","","","","","","","","","",""
"","857.3500011116266","sequential-stimulus-presentation","129","370406","0.0-26.0-1.6","SS1613140171782","trial","","40","800","1657.3500011116266","images/stimuli/spore_stims/complex_11_B_a.gif","images/stimuli/spore_stims/complex_11_A_a.gif","","","","","6","complex_similar","images/stimuli/spore_stims/complex_11_A_a.gif","middle","","","","",""
"","null","html-keyboard-response","130","371460","0.0-26.0-0.7","SS1613140171782","","","null","","","","","<p><img src= images/blank.png width =""200"" height = ""200"" style = ""float:right""></p><p><img src=images/blank.png width =""800"" height = ""200""></p>","","","","","","","","","","","",""
"","469.03499960899353","sequential-stimulus-presentation","131","372750","0.0-26.0-1.7","SS1613140171782","trial","","40","800","1269.0349996089935","images/stimuli/spore_stims/complex_11_B_a.gif","images/stimuli/spore_stims/complex_11_A_a.gif","","","","","6","complex_similar","images/stimuli/spore_stims/complex_11_A_a.gif","middle","","","","",""
"","3056.4000010490417","html-keyboard-response","132","375830","0.0-27.0","SS1613140171782","pref_question","","97","","","","","<video width ='960' height = '540' style='padding-top:8%' autoplay muted><source src='images/stimuli/wall_pref.mp4' type='video/mp4'></video>","1","left","25%","6","","","","","","","",""
"","2179.5149985700846","sequential-stimulus-presentation","133","378854","0.0-28.0","SS1613140171782","pref_reveal","","40","800","2979.5149985700846","null","null","","","","","6","","","","deviant","","","",""
"","null","html-keyboard-response","134","379805","0.0-29.0-0.0","SS1613140171782","","","null","","","","","<p><img src= images/blank.png width =""200"" height = ""200"" style = ""float:right""></p><p><img src=images/blank.png width =""800"" height = ""200""></p>","","","","","","","","","","","",""
"","32434.125000610948","sequential-stimulus-presentation","135","413067","0.0-29.0-1.0","SS1613140171782","trial","","40","800","33234.12500061095","images/stimuli/spore_stims/complex_01_A_d.gif","images/stimuli/spore_stims/complex_01_B_d.gif","","","","","7","complex_similar","images/stimuli/spore_stims/complex_01_B_d.gif","middle","","","","",""
"","null","html-keyboard-response","136","414089","0.0-29.0-0.1","SS1613140171782","","","null","","","","","<p><img src= images/blank.png width =""200"" height = ""200"" style = ""float:right""></p><p><img src=images/blank.png width =""800"" height = ""200""></p>","","","","","","","","","","","",""
"","1162.159999832511","sequential-stimulus-presentation","137","416077","0.0-29.0-1.1","SS1613140171782","trial","","40","800","1962.159999832511","images/stimuli/spore_stims/complex_01_A_d.gif","images/stimuli/spore_stims/complex_01_B_d.gif","","","","","7","complex_similar","images/stimuli/spore_stims/complex_01_B_d.gif","middle","","","","",""
"","null","html-keyboard-response","138","417002","0.0-29.0-0.2","SS1613140171782","","","null","","","","","<p><img src= images/blank.png width =""200"" height = ""200"" style = ""float:right""></p><p><img src=images/blank.png width =""800"" height = ""200""></p>","","","","","","","","","","","",""
"","655.1500000059605","sequential-stimulus-presentation","139","418476","0.0-29.0-1.2","SS1613140171782","trial","","40","800","1455.1500000059605","images/stimuli/spore_stims/complex_01_A_d.gif","images/stimuli/spore_stims/complex_01_B_d.gif","","","","","7","complex_similar","images/stimuli/spore_stims/complex_01_B_d.gif","middle","","","","",""
"","null","html-keyboard-response","140","419636","0.0-29.0-0.3","SS1613140171782","","","null","","","","","<p><img src= images/blank.png width =""200"" height = ""200"" style = ""float:right""></p><p><img src=images/blank.png width =""800"" height = ""200""></p>","","","","","","","","","","","",""
"","632.7599994838238","sequential-stimulus-presentation","141","421095","0.0-29.0-1.3","SS1613140171782","trial","","40","800","1432.7599994838238","images/stimuli/spore_stims/complex_01_A_d.gif","images/stimuli/spore_stims/complex_01_B_d.gif","","","","","7","complex_similar","images/stimuli/spore_stims/complex_01_A_d.gif","left","","","","",""
"","null","html-keyboard-response","142","422130","0.0-29.0-0.4","SS1613140171782","","","null","","","","","<p><img src= images/blank.png width =""200"" height = ""200"" style = ""float:right""></p><p><img src=images/blank.png width =""800"" height = ""200""></p>","","","","","","","","","","","",""
"","494.85999904572964","sequential-stimulus-presentation","143","423434","0.0-29.0-1.4","SS1613140171782","trial","","40","800","1294.8599990457296","images/stimuli/spore_stims/complex_01_A_d.gif","images/stimuli/spore_stims/complex_01_B_d.gif","","","","","7","complex_similar","images/stimuli/spore_stims/complex_01_B_d.gif","middle","","","","",""
"","null","html-keyboard-response","144","424357","0.0-29.0-0.5","SS1613140171782","","","null","","","","","<p><img src= images/blank.png width =""200"" height = ""200"" style = ""float:right""></p><p><img src=images/blank.png width =""800"" height = ""200""></p>","","","","","","","","","","","",""
"","449.4599997997284","sequential-stimulus-presentation","145","425671","0.0-29.0-1.5","SS1613140171782","trial","","40","800","1249.4599997997284","images/stimuli/spore_stims/complex_01_A_d.gif","images/stimuli/spore_stims/complex_01_B_d.gif","","","","","7","complex_similar","images/stimuli/spore_stims/complex_01_B_d.gif","middle","","","","",""
"","null","html-keyboard-response","146","426700","0.0-29.0-0.6","SS1613140171782","","","null","","","","","<p><img src= images/blank.png width =""200"" height = ""200"" style = ""float:right""></p><p><img src=images/blank.png width =""800"" height = ""200""></p>","","","","","","","","","","","",""
"","489.7199999541044","sequential-stimulus-presentation","147","428016","0.0-29.0-1.6","SS1613140171782","trial","","40","800","1289.7199999541044","images/stimuli/spore_stims/complex_01_A_d.gif","images/stimuli/spore_stims/complex_01_B_d.gif","","","","","7","complex_similar","images/stimuli/spore_stims/complex_01_B_d.gif","middle","","","","",""
"","null","html-keyboard-response","148","429087","0.0-29.0-0.7","SS1613140171782","","","null","","","","","<p><img src= images/blank.png width =""200"" height = ""200"" style = ""float:right""></p><p><img src=images/blank.png width =""800"" height = ""200""></p>","","","","","","","","","","","",""
"","669.1899988800287","sequential-stimulus-presentation","149","430587","0.0-29.0-1.7","SS1613140171782","trial","","40","800","1469.1899988800287","images/stimuli/spore_stims/complex_01_A_d.gif","images/stimuli/spore_stims/complex_01_B_d.gif","","","","","7","complex_similar","images/stimuli/spore_stims/complex_01_B_d.gif","middle","","","","",""
"","1607.84500092268","html-keyboard-response","150","432204","0.0-30.0","SS1613140171782","pref_question","","99","","","","","<video width ='960' height = '540' style='padding-top:8%' autoplay muted><source src='images/stimuli/wall_pref.mp4' type='video/mp4'></video>","3","right","66%","7","","","","","","","",""
"","4277.494998648763","sequential-stimulus-presentation","151","437301","0.0-31.0","SS1613140171782","pref_reveal","","40","800","5077.494998648763","null","null","","","","","7","","","","novel","","","",""
"","null","html-keyboard-response","152","438462","0.0-32.0-0.0","SS1613140171782","","","null","","","","","<p><img src= images/blank.png width =""200"" height = ""200"" style = ""float:right""></p><p><img src=images/blank.png width =""800"" height = ""200""></p>","","","","","","","","","","","",""
"","73.17500002682209","sequential-stimulus-presentation","153","439380","0.0-32.0-1.0","SS1613140171782","trial","","40","800","873.1750000268221","images/stimuli/spore_stims/complex_04_B_d.gif","images/stimuli/spore_stims/complex_19_B_a.gif","","","","","8","complex_dissimilar","images/stimuli/spore_stims/complex_19_B_a.gif","middle","","","","",""
"","null","html-keyboard-response","154","440443","0.0-32.0-0.1","SS1613140171782","","","null","","","","","<p><img src= images/blank.png width =""200"" height = ""200"" style = ""float:right""></p><p><img src=images/blank.png width =""800"" height = ""200""></p>","","","","","","","","","","","",""
"","368.07999946177006","sequential-stimulus-presentation","155","441619","0.0-32.0-1.1","SS1613140171782","trial","","40","800","1168.07999946177","images/stimuli/spore_stims/complex_04_B_d.gif","images/stimuli/spore_stims/complex_19_B_a.gif","","","","","8","complex_dissimilar","images/stimuli/spore_stims/complex_19_B_a.gif","middle","","","","",""
"","null","html-keyboard-response","156","442654","0.0-32.0-0.2","SS1613140171782","","","null","","","","","<p><img src= images/blank.png width =""200"" height = ""200"" style = ""float:right""></p><p><img src=images/blank.png width =""800"" height = ""200""></p>","","","","","","","","","","","",""
"","296.569999307394","sequential-stimulus-presentation","157","443774","0.0-32.0-1.2","SS1613140171782","trial","","40","800","1096.569999307394","images/stimuli/spore_stims/complex_04_B_d.gif","images/stimuli/spore_stims/complex_19_B_a.gif","","","","","8","complex_dissimilar","images/stimuli/spore_stims/complex_19_B_a.gif","middle","","","","",""
"","null","html-keyboard-response","158","445085","0.0-32.0-0.3","SS1613140171782","","","null","","","","","<p><img src= images/blank.png width =""200"" height = ""200"" style = ""float:right""></p><p><img src=images/blank.png width =""800"" height = ""200""></p>","","","","","","","","","","","",""
"","502.62500159442425","sequential-stimulus-presentation","159","446409","0.0-32.0-1.3","SS1613140171782","trial","","40","800","1302.6250015944242","images/stimuli/spore_stims/complex_04_B_d.gif","images/stimuli/spore_stims/complex_19_B_a.gif","","","","","8","complex_dissimilar","images/stimuli/spore_stims/complex_19_B_a.gif","middle","","","","",""
"","null","html-keyboard-response","160","447565","0.0-32.0-0.4","SS1613140171782","","","null","","","","","<p><img src= images/blank.png width =""200"" height = ""200"" style = ""float:right""></p><p><img src=images/blank.png width =""800"" height = ""200""></p>","","","","","","","","","","","",""
"","583.3900012075901","sequential-stimulus-presentation","161","448982","0.0-32.0-1.4","SS1613140171782","trial","","40","800","1383.39000120759","images/stimuli/spore_stims/complex_04_B_d.gif","images/stimuli/spore_stims/complex_19_B_a.gif","","","","","8","complex_dissimilar","images/stimuli/spore_stims/complex_19_B_a.gif","middle","","","","",""
"","null","html-keyboard-response","162","450165","0.0-32.0-0.5","SS1613140171782","","","null","","","","","<p><img src= images/blank.png width =""200"" height = ""200"" style = ""float:right""></p><p><img src=images/blank.png width =""800"" height = ""200""></p>","","","","","","","","","","","",""
"","128.48499976098537","sequential-stimulus-presentation","163","451101","0.0-32.0-1.5","SS1613140171782","trial","","40","800","928.4849997609854","images/stimuli/spore_stims/complex_04_B_d.gif","images/stimuli/spore_stims/complex_19_B_a.gif","","","","","8","complex_dissimilar","images/stimuli/spore_stims/complex_19_B_a.gif","middle","","","","",""
"","null","html-keyboard-response","164","452165","0.0-32.0-0.6","SS1613140171782","","","null","","","","","<p><img src= images/blank.png width =""200"" height = ""200"" style = ""float:right""></p><p><img src=images/blank.png width =""800"" height = ""200""></p>","","","","","","","","","","","",""
"","82.95500092208385","sequential-stimulus-presentation","165","453067","0.0-32.0-1.6","SS1613140171782","trial","","40","800","882.9550009220839","images/stimuli/spore_stims/complex_04_B_d.gif","images/stimuli/spore_stims/complex_19_B_a.gif","","","","","8","complex_dissimilar","images/stimuli/spore_stims/complex_19_B_a.gif","middle","","","","",""
"","null","html-keyboard-response","166","453946","0.0-32.0-0.7","SS1613140171782","","","null","","","","","<p><img src= images/blank.png width =""200"" height = ""200"" style = ""float:right""></p><p><img src=images/blank.png width =""800"" height = ""200""></p>","","","","","","","","","","","",""
"","42.99500025808811","sequential-stimulus-presentation","167","454844","0.0-32.0-1.7","SS1613140171782","trial","","40","800","842.9950002580881","images/stimuli/spore_stims/complex_04_B_d.gif","images/stimuli/spore_stims/complex_19_B_a.gif","","","","","8","complex_dissimilar","images/stimuli/spore_stims/complex_04_B_d.gif","right","","","","",""
"","1292.825000360608","html-keyboard-response","168","456147","0.0-33.0","SS1613140171782","pref_question","","97","","","","","<video width ='960' height = '540' style='padding-top:8%' autoplay muted><source src='images/stimuli/wall_pref.mp4' type='video/mp4'></video>","1","left","25%","8","","","","","","","",""
"","3639.3800005316734","sequential-stimulus-presentation","169","460595","0.0-34.0","SS1613140171782","pref_reveal","","40","800","4439.380000531673","null","null","","","","","8","","","","novel","","","",""
"","null","html-keyboard-response","170","461704","0.0-35.0-0.0","SS1613140171782","","","null","","","","","<p><img src= images/blank.png width =""200"" height = ""200"" style = ""float:right""></p><p><img src=images/blank.png width =""800"" height = ""200""></p>","","","","","","","","","","","",""
"","422.79999889433384","sequential-stimulus-presentation","171","462937","0.0-35.0-1.0","SS1613140171782","trial","","40","800","1222.7999988943338","images/stimuli/spore_stims/complex_16_A_c.gif","images/stimuli/spore_stims/complex_08_A_d.gif","","","","","9","complex_dissimilar","images/stimuli/spore_stims/complex_08_A_d.gif","left","","","","",""
"","null","html-keyboard-response","172","464030","0.0-35.0-0.1","SS1613140171782","","","null","","","","","<p><img src= images/blank.png width =""200"" height = ""200"" style = ""float:right""></p><p><img src=images/blank.png width =""800"" height = ""200""></p>","","","","","","","","","","","",""
"","350.75500048696995","sequential-stimulus-presentation","173","465204","0.0-35.0-1.1","SS1613140171782","trial","","40","800","1150.75500048697","images/stimuli/spore_stims/complex_16_A_c.gif","images/stimuli/spore_stims/complex_08_A_d.gif","","","","","9","complex_dissimilar","images/stimuli/spore_stims/complex_08_A_d.gif","left","","","","",""
"","null","html-keyboard-response","174","466044","0.0-35.0-0.2","SS1613140171782","","","null","","","","","<p><img src= images/blank.png width =""200"" height = ""200"" style = ""float:right""></p><p><img src=images/blank.png width =""800"" height = ""200""></p>","","","","","","","","","","","",""
"","332.5300011783838","sequential-stimulus-presentation","175","467206","0.0-35.0-1.2","SS1613140171782","trial","","40","800","1132.5300011783838","images/stimuli/spore_stims/complex_16_A_c.gif","images/stimuli/spore_stims/complex_08_A_d.gif","","","","","9","complex_dissimilar","images/stimuli/spore_stims/complex_16_A_c.gif","middle","","","","",""
"","null","html-keyboard-response","176","468499","0.0-35.0-0.3","SS1613140171782","","","null","","","","","<p><img src= images/blank.png width =""200"" height = ""200"" style = ""float:right""></p><p><img src=images/blank.png width =""800"" height = ""200""></p>","","","","","","","","","","","",""
"","19.644999876618385","sequential-stimulus-presentation","177","469352","0.0-35.0-1.3","SS1613140171782","trial","","40","800","819.6449998766184","images/stimuli/spore_stims/complex_16_A_c.gif","images/stimuli/spore_stims/complex_08_A_d.gif","","","","","9","complex_dissimilar","images/stimuli/spore_stims/complex_08_A_d.gif","left","","","","",""
"","null","html-keyboard-response","178","470320","0.0-35.0-0.4","SS1613140171782","","","null","","","","","<p><img src= images/blank.png width =""200"" height = ""200"" style = ""float:right""></p><p><img src=images/blank.png width =""800"" height = ""200""></p>","","","","","","","","","","","",""
"","303.7000000476837","sequential-stimulus-presentation","179","471494","0.0-35.0-1.4","SS1613140171782","trial","","40","800","1103.7000000476837","images/stimuli/spore_stims/complex_16_A_c.gif","images/stimuli/spore_stims/complex_08_A_d.gif","","","","","9","complex_dissimilar","images/stimuli/spore_stims/complex_08_A_d.gif","left","","","","",""
"","null","html-keyboard-response","180","472643","0.0-35.0-0.5","SS1613140171782","","","null","","","","","<p><img src= images/blank.png width =""200"" height = ""200"" style = ""float:right""></p><p><img src=images/blank.png width =""800"" height = ""200""></p>","","","","","","","","","","","",""
"","738.3050005882978","sequential-stimulus-presentation","181","474215","0.0-35.0-1.5","SS1613140171782","trial","","40","800","1538.3050005882978","images/stimuli/spore_stims/complex_16_A_c.gif","images/stimuli/spore_stims/complex_08_A_d.gif","","","","","9","complex_dissimilar","images/stimuli/spore_stims/complex_08_A_d.gif","left","","","","",""
"","null","html-keyboard-response","182","475077","0.0-35.0-0.6","SS1613140171782","","","null","","","","","<p><img src= images/blank.png width =""200"" height = ""200"" style = ""float:right""></p><p><img src=images/blank.png width =""800"" height = ""200""></p>","","","","","","","","","","","",""
"","408.3799999207258","sequential-stimulus-presentation","183","476319","0.0-35.0-1.6","SS1613140171782","trial","","40","800","1208.3799999207258","images/stimuli/spore_stims/complex_16_A_c.gif","images/stimuli/spore_stims/complex_08_A_d.gif","","","","","9","complex_dissimilar","images/stimuli/spore_stims/complex_08_A_d.gif","left","","","","",""
"","null","html-keyboard-response","184","477160","0.0-35.0-0.7","SS1613140171782","","","null","","","","","<p><img src= images/blank.png width =""200"" height = ""200"" style = ""float:right""></p><p><img src=images/blank.png width =""800"" height = ""200""></p>","","","","","","","","","","","",""
"","849.4300004094839","sequential-stimulus-presentation","185","478819","0.0-35.0-1.7","SS1613140171782","trial","","40","800","1649.430000409484","images/stimuli/spore_stims/complex_16_A_c.gif","images/stimuli/spore_stims/complex_08_A_d.gif","","","","","9","complex_dissimilar","images/stimuli/spore_stims/complex_08_A_d.gif","left","","","","",""
"","1391.355000436306","html-keyboard-response","186","480219","0.0-36.0","SS1613140171782","pref_question","","99","","","","","<video width ='960' height = '540' style='padding-top:8%' autoplay muted><source src='images/stimuli/wall_pref.mp4' type='video/mp4'></video>","3","right","66%","9","","","","","","","",""
"","1301.740000024438","sequential-stimulus-presentation","187","482343","0.0-37.0","SS1613140171782","pref_reveal","","40","800","2101.740000024438","null","null","","","","","9","","","","novel","","","",""
"","null","html-keyboard-response","188","483329","0.0-38.0-0.0","SS1613140171782","","","null","","","","","<p><img src= images/blank.png width =""200"" height = ""200"" style = ""float:right""></p><p><img src=images/blank.png width =""800"" height = ""200""></p>","","","","","","","","","","","",""
"","208.6549997329712","sequential-stimulus-presentation","189","484366","0.0-38.0-1.0","SS1613140171782","trial","","40","800","1008.6549997329712","images/stimuli/spore_stims/complex_13_B_d.gif","images/stimuli/spore_stims/complex_13_A_d.gif","","","","","10","complex_similar","images/stimuli/spore_stims/complex_13_A_d.gif","middle","","","","",""
"","null","html-keyboard-response","190","485509","0.0-38.0-0.1","SS1613140171782","","","null","","","","","<p><img src= images/blank.png width =""200"" height = ""200"" style = ""float:right""></p><p><img src=images/blank.png width =""800"" height = ""200""></p>","","","","","","","","","","","",""
"","362.43500001728535","sequential-stimulus-presentation","191","486704","0.0-38.0-1.1","SS1613140171782","trial","","40","800","1162.4350000172853","images/stimuli/spore_stims/complex_13_B_d.gif","images/stimuli/spore_stims/complex_13_A_d.gif","","","","","10","complex_similar","images/stimuli/spore_stims/complex_13_A_d.gif","middle","","","","",""
"","null","html-keyboard-response","192","487936","0.0-38.0-0.2","SS1613140171782","","","null","","","","","<p><img src= images/blank.png width =""200"" height = ""200"" style = ""float:right""></p><p><img src=images/blank.png width =""800"" height = ""200""></p>","","","","","","","","","","","",""
"","5.189999938011169","sequential-stimulus-presentation","193","488807","0.0-38.0-1.2","SS1613140171782","trial","","40","800","805.1899999380112","images/stimuli/spore_stims/complex_13_B_d.gif","images/stimuli/spore_stims/complex_13_A_d.gif","","","","","10","complex_similar","images/stimuli/spore_stims/complex_13_A_d.gif","middle","","","","",""
"","null","html-keyboard-response","194","489739","0.0-38.0-0.3","SS1613140171782","","","null","","","","","<p><img src= images/blank.png width =""200"" height = ""200"" style = ""float:right""></p><p><img src=images/blank.png width =""800"" height = ""200""></p>","","","","","","","","","","","",""
"","176.36499926447868","sequential-stimulus-presentation","195","490742","0.0-38.0-1.3","SS1613140171782","trial","","40","800","976.3649992644787","images/stimuli/spore_stims/complex_13_B_d.gif","images/stimuli/spore_stims/complex_13_A_d.gif","","","","","10","complex_similar","images/stimuli/spore_stims/complex_13_B_d.gif","right","","","","",""
"","null","html-keyboard-response","196","491830","0.0-38.0-0.4","SS1613140171782","","","null","","","","","<p><img src= images/blank.png width =""200"" height = ""200"" style = ""float:right""></p><p><img src=images/blank.png width =""800"" height = ""200""></p>","","","","","","","","","","","",""
"","21.87500149011612","sequential-stimulus-presentation","197","492676","0.0-38.0-1.4","SS1613140171782","trial","","40","800","821.8750014901161","images/stimuli/spore_stims/complex_13_B_d.gif","images/stimuli/spore_stims/complex_13_A_d.gif","","","","","10","complex_similar","images/stimuli/spore_stims/complex_13_A_d.gif","middle","","","","",""
"","null","html-keyboard-response","198","493948","0.0-38.0-0.5","SS1613140171782","","","null","","","","","<p><img src= images/blank.png width =""200"" height = ""200"" style = ""float:right""></p><p><img src=images/blank.png width =""800"" height = ""200""></p>","","","","","","","","","","","",""
"","193.1300014257431","sequential-stimulus-presentation","199","494953","0.0-38.0-1.5","SS1613140171782","trial","","40","800","993.1300014257431","images/stimuli/spore_stims/complex_13_B_d.gif","images/stimuli/spore_stims/complex_13_A_d.gif","","","","","10","complex_similar","images/stimuli/spore_stims/complex_13_A_d.gif","middle","","","","",""
"","null","html-keyboard-response","200","495906","0.0-38.0-0.6","SS1613140171782","","","null","","","","","<p><img src= images/blank.png width =""200"" height = ""200"" style = ""float:right""></p><p><img src=images/blank.png width =""800"" height = ""200""></p>","","","","","","","","","","","",""
"","427.9399998486042","sequential-stimulus-presentation","201","497148","0.0-38.0-1.6","SS1613140171782","trial","","40","800","1227.9399998486042","images/stimuli/spore_stims/complex_13_B_d.gif","images/stimuli/spore_stims/complex_13_A_d.gif","","","","","10","complex_similar","images/stimuli/spore_stims/complex_13_A_d.gif","middle","","","","",""
"","null","html-keyboard-response","202","498180","0.0-38.0-0.7","SS1613140171782","","","null","","","","","<p><img src= images/blank.png width =""200"" height = ""200"" style = ""float:right""></p><p><img src=images/blank.png width =""800"" height = ""200""></p>","","","","","","","","","","","",""
"","645.1650001108646","sequential-stimulus-presentation","203","500220","0.0-38.0-1.7","SS1613140171782","trial","","40","800","1445.1650001108646","images/stimuli/spore_stims/complex_13_B_d.gif","images/stimuli/spore_stims/complex_13_A_d.gif","","","","","10","complex_similar","images/stimuli/spore_stims/complex_13_A_d.gif","middle","","","","",""
"","1012.0149999856949","html-keyboard-response","204","501247","0.0-39.0","SS1613140171782","pref_question","","97","","","","","<video width ='960' height = '540' style='padding-top:8%' autoplay muted><source src='images/stimuli/wall_pref.mp4' type='video/mp4'></video>","1","left","25%","10","","","","","","","",""
"","1056.2350004911423","sequential-stimulus-presentation","205","503132","0.0-40.0","SS1613140171782","pref_reveal","","40","800","1856.2350004911423","null","null","","","","","10","","","","novel","","","",""
"","null","html-keyboard-response","206","504017","0.0-41.0-0.0","SS1613140171782","","","null","","","","","<p><img src= images/blank.png width =""200"" height = ""200"" style = ""float:right""></p><p><img src=images/blank.png width =""800"" height = ""200""></p>","","","","","","","","","","","",""
"","476.6150005161762","sequential-stimulus-presentation","207","505324","0.0-41.0-1.0","SS1613140171782","trial","","40","800","1276.6150005161762","images/stimuli/spore_stims/complex_02_A_d.gif","images/stimuli/spore_stims/complex_20_A_c.gif","","","","","11","complex_dissimilar","images/stimuli/spore_stims/complex_20_A_c.gif","left","","","","",""
"","null","html-keyboard-response","208","506397","0.0-41.0-0.1","SS1613140171782","","","null","","","","","<p><img src= images/blank.png width =""200"" height = ""200"" style = ""float:right""></p><p><img src=images/blank.png width =""800"" height = ""200""></p>","","","","","","","","","","","",""
"","1455.044999718666","sequential-stimulus-presentation","209","508663","0.0-41.0-1.1","SS1613140171782","trial","","40","800","2255.044999718666","images/stimuli/spore_stims/complex_02_A_d.gif","images/stimuli/spore_stims/complex_20_A_c.gif","","","","","11","complex_dissimilar","images/stimuli/spore_stims/complex_20_A_c.gif","left","","","","",""
"","null","html-keyboard-response","210","509731","0.0-41.0-0.2","SS1613140171782","","","null","","","","","<p><img src= images/blank.png width =""200"" height = ""200"" style = ""float:right""></p><p><img src=images/blank.png width =""800"" height = ""200""></p>","","","","","","","","","","","",""
"","289.300000295043","sequential-stimulus-presentation","211","510844","0.0-41.0-1.2","SS1613140171782","trial","","40","800","1089.300000295043","images/stimuli/spore_stims/complex_02_A_d.gif","images/stimuli/spore_stims/complex_20_A_c.gif","","","","","11","complex_dissimilar","images/stimuli/spore_stims/complex_20_A_c.gif","left","","","","",""
"","null","html-keyboard-response","212","511948","0.0-41.0-0.3","SS1613140171782","","","null","","","","","<p><img src= images/blank.png width =""200"" height = ""200"" style = ""float:right""></p><p><img src=images/blank.png width =""800"" height = ""200""></p>","","","","","","","","","","","",""
"","224.65999983251095","sequential-stimulus-presentation","213","513000","0.0-41.0-1.3","SS1613140171782","trial","","40","800","1024.659999832511","images/stimuli/spore_stims/complex_02_A_d.gif","images/stimuli/spore_stims/complex_20_A_c.gif","","","","","11","complex_dissimilar","images/stimuli/spore_stims/complex_20_A_c.gif","left","","","","",""
"","null","html-keyboard-response","214","514145","0.0-41.0-0.4","SS1613140171782","","","null","","","","","<p><img src= images/blank.png width =""200"" height = ""200"" style = ""float:right""></p><p><img src=images/blank.png width =""800"" height = ""200""></p>","","","","","","","","","","","",""
"","255.41000068187714","sequential-stimulus-presentation","215","515227","0.0-41.0-1.4","SS1613140171782","trial","","40","800","1055.4100006818771","images/stimuli/spore_stims/complex_02_A_d.gif","images/stimuli/spore_stims/complex_20_A_c.gif","","","","","11","complex_dissimilar","images/stimuli/spore_stims/complex_20_A_c.gif","left","","","","",""
"","null","html-keyboard-response","216","516247","0.0-41.0-0.5","SS1613140171782","","","null","","","","","<p><img src= images/blank.png width =""200"" height = ""200"" style = ""float:right""></p><p><img src=images/blank.png width =""800"" height = ""200""></p>","","","","","","","","","","","",""
"","342.35999919474125","sequential-stimulus-presentation","217","517412","0.0-41.0-1.5","SS1613140171782","trial","","40","800","1142.3599991947412","images/stimuli/spore_stims/complex_02_A_d.gif","images/stimuli/spore_stims/complex_20_A_c.gif","","","","","11","complex_dissimilar","images/stimuli/spore_stims/complex_20_A_c.gif","left","","","","",""
"","null","html-keyboard-response","218","518678","0.0-41.0-0.6","SS1613140171782","","","null","","","","","<p><img src= images/blank.png width =""200"" height = ""200"" style = ""float:right""></p><p><img src=images/blank.png width =""800"" height = ""200""></p>","","","","","","","","","","","",""
"","344.3500008434057","sequential-stimulus-presentation","219","519836","0.0-41.0-1.6","SS1613140171782","trial","","40","800","1144.3500008434057","images/stimuli/spore_stims/complex_02_A_d.gif","images/stimuli/spore_stims/complex_20_A_c.gif","","","","","11","complex_dissimilar","images/stimuli/spore_stims/complex_02_A_d.gif","middle","","","","",""
"","null","html-keyboard-response","220","520757","0.0-41.0-0.7","SS1613140171782","","","null","","","","","<p><img src= images/blank.png width =""200"" height = ""200"" style = ""float:right""></p><p><img src=images/blank.png width =""800"" height = ""200""></p>","","","","","","","","","","","",""
"","316.5000006556511","sequential-stimulus-presentation","221","521892","0.0-41.0-1.7","SS1613140171782","trial","","40","800","1116.500000655651","images/stimuli/spore_stims/complex_02_A_d.gif","images/stimuli/spore_stims/complex_20_A_c.gif","","","","","11","complex_dissimilar","images/stimuli/spore_stims/complex_20_A_c.gif","left","","","","",""
"","856.8299990147352","html-keyboard-response","222","522763","0.0-42.0","SS1613140171782","pref_question","","99","","","","","<video width ='960' height = '540' style='padding-top:8%' autoplay muted><source src='images/stimuli/wall_pref.mp4' type='video/mp4'></video>","3","right","66%","11","","","","","","","",""
"","1910.8499996364117","sequential-stimulus-presentation","223","525486","0.0-43.0","SS1613140171782","pref_reveal","","40","800","2710.8499996364117","null","null","","","","","11","","","","novel","","","",""
"","null","html-keyboard-response","224","526709","0.0-44.0-0.0","SS1613140171782","","","null","","","","","<p><img src= images/blank.png width =""200"" height = ""200"" style = ""float:right""></p><p><img src=images/blank.png width =""800"" height = ""200""></p>","","","","","","","","","","","",""
"","832.4200008064508","sequential-stimulus-presentation","225","528368","0.0-44.0-1.0","SS1613140171782","trial","","40","800","1632.4200008064508","images/stimuli/spore_stims/simple_15_A_c.gif","images/stimuli/spore_stims/simple_15_B_c.gif","","","","","12","simple_similar","images/stimuli/spore_stims/simple_15_B_c.gif","middle","","","","",""
"","null","html-keyboard-response","226","529672","0.0-44.0-0.1","SS1613140171782","","","null","","","","","<p><img src= images/blank.png width =""200"" height = ""200"" style = ""float:right""></p><p><img src=images/blank.png width =""800"" height = ""200""></p>","","","","","","","","","","","",""
"","375.64999982714653","sequential-stimulus-presentation","227","530861","0.0-44.0-1.1","SS1613140171782","trial","","40","800","1175.6499998271465","images/stimuli/spore_stims/simple_15_A_c.gif","images/stimuli/spore_stims/simple_15_B_c.gif","","","","","12","simple_similar","images/stimuli/spore_stims/simple_15_B_c.gif","middle","","","","",""
"","null","html-keyboard-response","228","532097","0.0-44.0-0.2","SS1613140171782","","","null","","","","","<p><img src= images/blank.png width =""200"" height = ""200"" style = ""float:right""></p><p><img src=images/blank.png width =""800"" height = ""200""></p>","","","","","","","","","","","",""
"","357.76999965310097","sequential-stimulus-presentation","229","533315","0.0-44.0-1.2","SS1613140171782","trial","","40","800","1157.769999653101","images/stimuli/spore_stims/simple_15_A_c.gif","images/stimuli/spore_stims/simple_15_B_c.gif","","","","","12","simple_similar","images/stimuli/spore_stims/simple_15_B_c.gif","middle","","","","",""
"","null","html-keyboard-response","230","534224","0.0-44.0-0.3","SS1613140171782","","","null","","","","","<p><img src= images/blank.png width =""200"" height = ""200"" style = ""float:right""></p><p><img src=images/blank.png width =""800"" height = ""200""></p>","","","","","","","","","","","",""
"","350.36000050604343","sequential-stimulus-presentation","231","535399","0.0-44.0-1.3","SS1613140171782","trial","","40","800","1150.3600005060434","images/stimuli/spore_stims/simple_15_A_c.gif","images/stimuli/spore_stims/simple_15_B_c.gif","","","","","12","simple_similar","images/stimuli/spore_stims/simple_15_B_c.gif","middle","","","","",""
"","null","html-keyboard-response","232","536454","0.0-44.0-0.4","SS1613140171782","","","null","","","","","<p><img src= images/blank.png width =""200"" height = ""200"" style = ""float:right""></p><p><img src=images/blank.png width =""800"" height = ""200""></p>","","","","","","","","","","","",""
"","415.68499989807606","sequential-stimulus-presentation","233","537696","0.0-44.0-1.4","SS1613140171782","trial","","40","800","1215.684999898076","images/stimuli/spore_stims/simple_15_A_c.gif","images/stimuli/spore_stims/simple_15_B_c.gif","","","","","12","simple_similar","images/stimuli/spore_stims/simple_15_B_c.gif","middle","","","","",""
"","null","html-keyboard-response","234","538706","0.0-44.0-0.5","SS1613140171782","","","null","","","","","<p><img src= images/blank.png width =""200"" height = ""200"" style = ""float:right""></p><p><img src=images/blank.png width =""800"" height = ""200""></p>","","","","","","","","","","","",""
"","179.95000071823597","sequential-stimulus-presentation","235","539706","0.0-44.0-1.5","SS1613140171782","trial","","40","800","979.950000718236","images/stimuli/spore_stims/simple_15_A_c.gif","images/stimuli/spore_stims/simple_15_B_c.gif","","","","","12","simple_similar","images/stimuli/spore_stims/simple_15_B_c.gif","middle","","","","",""
"","null","html-keyboard-response","236","540520","0.0-44.0-0.6","SS1613140171782","","","null","","","","","<p><img src= images/blank.png width =""200"" height = ""200"" style = ""float:right""></p><p><img src=images/blank.png width =""800"" height = ""200""></p>","","","","","","","","","","","",""
"","436.44999898970127","sequential-stimulus-presentation","237","541784","0.0-44.0-1.6","SS1613140171782","trial","","40","800","1236.4499989897013","images/stimuli/spore_stims/simple_15_A_c.gif","images/stimuli/spore_stims/simple_15_B_c.gif","","","","","12","simple_similar","images/stimuli/spore_stims/simple_15_A_c.gif","right","","","","",""
"","null","html-keyboard-response","238","542917","0.0-44.0-0.7","SS1613140171782","","","null","","","","","<p><img src= images/blank.png width =""200"" height = ""200"" style = ""float:right""></p><p><img src=images/blank.png width =""800"" height = ""200""></p>","","","","","","","","","","","",""
"","435.7399996370077","sequential-stimulus-presentation","239","544167","0.0-44.0-1.7","SS1613140171782","trial","","40","800","1235.7399996370077","images/stimuli/spore_stims/simple_15_A_c.gif","images/stimuli/spore_stims/simple_15_B_c.gif","","","","","12","simple_similar","images/stimuli/spore_stims/simple_15_B_c.gif","middle","","","","",""
"","887.0500009506941","html-keyboard-response","240","545063","0.0-45.0","SS1613140171782","pref_question","","97","","","","","<video width ='960' height = '540' style='padding-top:8%' autoplay muted><source src='images/stimuli/wall_pref.mp4' type='video/mp4'></video>","1","left","25%","12","","","","","","","",""
"","1774.7349999845028","sequential-stimulus-presentation","241","547674","0.0-46.0","SS1613140171782","pref_reveal","","40","800","2574.734999984503","null","null","","","","","12","","","","novel","","","",""
"","null","html-keyboard-response","242","548671","0.0-47.0-0.0","SS1613140171782","","","null","","","","","<p><img src= images/blank.png width =""200"" height = ""200"" style = ""float:right""></p><p><img src=images/blank.png width =""800"" height = ""200""></p>","","","","","","","","","","","",""
"","1108.789999037981","sequential-stimulus-presentation","243","550591","0.0-47.0-1.0","SS1613140171782","trial","","40","800","1908.789999037981","images/stimuli/spore_stims/complex_11_B_a.gif","images/stimuli/spore_stims/complex_08_B_d.gif","","","","","13","complex_dissimilar","images/stimuli/spore_stims/complex_08_B_d.gif","middle","","","","",""
"","null","html-keyboard-response","244","551578","0.0-47.0-0.1","SS1613140171782","","","null","","","","","<p><img src= images/blank.png width =""200"" height = ""200"" style = ""float:right""></p><p><img src=images/blank.png width =""800"" height = ""200""></p>","","","","","","","","","","","",""
"","266.780000180006","sequential-stimulus-presentation","245","552665","0.0-47.0-1.1","SS1613140171782","trial","","40","800","1066.780000180006","images/stimuli/spore_stims/complex_11_B_a.gif","images/stimuli/spore_stims/complex_08_B_d.gif","","","","","13","complex_dissimilar","images/stimuli/spore_stims/complex_08_B_d.gif","middle","","","","",""
"","null","html-keyboard-response","246","553826","0.0-47.0-0.2","SS1613140171782","","","null","","","","","<p><img src= images/blank.png width =""200"" height = ""200"" style = ""float:right""></p><p><img src=images/blank.png width =""800"" height = ""200""></p>","","","","","","","","","","","",""
"","301.80499888956547","sequential-stimulus-presentation","247","554960","0.0-47.0-1.2","SS1613140171782","trial","","40","800","1101.8049988895655","images/stimuli/spore_stims/complex_11_B_a.gif","images/stimuli/spore_stims/complex_08_B_d.gif","","","","","13","complex_dissimilar","images/stimuli/spore_stims/complex_08_B_d.gif","middle","","","","",""
"","null","html-keyboard-response","248","556255","0.0-47.0-0.3","SS1613140171782","","","null","","","","","<p><img src= images/blank.png width =""200"" height = ""200"" style = ""float:right""></p><p><img src=images/blank.png width =""800"" height = ""200""></p>","","","","","","","","","","","",""
"","108.79999957978725","sequential-stimulus-presentation","249","557223","0.0-47.0-1.3","SS1613140171782","trial","","40","800","908.7999995797873","images/stimuli/spore_stims/complex_11_B_a.gif","images/stimuli/spore_stims/complex_08_B_d.gif","","","","","13","complex_dissimilar","images/stimuli/spore_stims/complex_08_B_d.gif","middle","","","","",""
"","null","html-keyboard-response","250","558512","0.0-47.0-0.4","SS1613140171782","","","null","","","","","<p><img src= images/blank.png width =""200"" height = ""200"" style = ""float:right""></p><p><img src=images/blank.png width =""800"" height = ""200""></p>","","","","","","","","","","","",""
"","164.63500075042248","sequential-stimulus-presentation","251","559507","0.0-47.0-1.4","SS1613140171782","trial","","40","800","964.6350007504225","images/stimuli/spore_stims/complex_11_B_a.gif","images/stimuli/spore_stims/complex_08_B_d.gif","","","","","13","complex_dissimilar","images/stimuli/spore_stims/complex_11_B_a.gif","right","","","","",""
"","null","html-keyboard-response","252","560772","0.0-47.0-0.5","SS1613140171782","","","null","","","","","<p><img src= images/blank.png width =""200"" height = ""200"" style = ""float:right""></p><p><img src=images/blank.png width =""800"" height = ""200""></p>","","","","","","","","","","","",""
"","464.46000039577484","sequential-stimulus-presentation","253","562063","0.0-47.0-1.5","SS1613140171782","trial","","40","800","1264.4600003957748","images/stimuli/spore_stims/complex_11_B_a.gif","images/stimuli/spore_stims/complex_08_B_d.gif","","","","","13","complex_dissimilar","images/stimuli/spore_stims/complex_08_B_d.gif","middle","","","","",""
"","null","html-keyboard-response","254","563204","0.0-47.0-0.6","SS1613140171782","","","null","","","","","<p><img src= images/blank.png width =""200"" height = ""200"" style = ""float:right""></p><p><img src=images/blank.png width =""800"" height = ""200""></p>","","","","","","","","","","","",""
"","205.32499998807907","sequential-stimulus-presentation","255","564232","0.0-47.0-1.6","SS1613140171782","trial","","40","800","1005.3249999880791","images/stimuli/spore_stims/complex_11_B_a.gif","images/stimuli/spore_stims/complex_08_B_d.gif","","","","","13","complex_dissimilar","images/stimuli/spore_stims/complex_08_B_d.gif","middle","","","","",""
"","null","html-keyboard-response","256","565356","0.0-47.0-0.7","SS1613140171782","","","null","","","","","<p><img src= images/blank.png width =""200"" height = ""200"" style = ""float:right""></p><p><img src=images/blank.png width =""800"" height = ""200""></p>","","","","","","","","","","","",""
"","464.0099983662367","sequential-stimulus-presentation","257","566656","0.0-47.0-1.7","SS1613140171782","trial","","40","800","1264.0099983662367","images/stimuli/spore_stims/complex_11_B_a.gif","images/stimuli/spore_stims/complex_08_B_d.gif","","","","","13","complex_dissimilar","images/stimuli/spore_stims/complex_08_B_d.gif","middle","","","","",""
"","1645.7100007683039","html-keyboard-response","258","568314","0.0-48.0","SS1613140171782","pref_question","","97","","","","","<video width ='960' height = '540' style='padding-top:8%' autoplay muted><source src='images/stimuli/wall_pref.mp4' type='video/mp4'></video>","1","left","25%","13","","","","","","","",""
"","1999.0899991244078","sequential-stimulus-presentation","259","571135","0.0-49.0","SS1613140171782","pref_reveal","","40","800","2799.0899991244078","null","null","","","","","13","","","","novel","","","",""
"","null","html-keyboard-response","260","572059","0.0-50.0-0.0","SS1613140171782","","","null","","","","","<p><img src= images/blank.png width =""200"" height = ""200"" style = ""float:right""></p><p><img src=images/blank.png width =""800"" height = ""200""></p>","","","","","","","","","","","",""
"","194.5049986243248","sequential-stimulus-presentation","261","573080","0.0-50.0-1.0","SS1613140171782","trial","","40","800","994.5049986243248","images/stimuli/spore_stims/simple_11_A_b.gif","images/stimuli/spore_stims/simple_10_B_a.gif","","","","","14","simple_dissimilar","images/stimuli/spore_stims/simple_10_B_a.gif","right","","","","",""
"","null","html-keyboard-response","262","574159","0.0-50.0-0.1","SS1613140171782","","","null","","","","","<p><img src= images/blank.png width =""200"" height = ""200"" style = ""float:right""></p><p><img src=images/blank.png width =""800"" height = ""200""></p>","","","","","","","","","","","",""
"","246.88000045716763","sequential-stimulus-presentation","263","575223","0.0-50.0-1.1","SS1613140171782","trial","","40","800","1046.8800004571676","images/stimuli/spore_stims/simple_11_A_b.gif","images/stimuli/spore_stims/simple_10_B_a.gif","","","","","14","simple_dissimilar","images/stimuli/spore_stims/simple_10_B_a.gif","right","","","","",""
"","null","html-keyboard-response","264","576212","0.0-50.0-0.2","SS1613140171782","","","null","","","","","<p><img src= images/blank.png width =""200"" height = ""200"" style = ""float:right""></p><p><img src=images/blank.png width =""800"" height = ""200""></p>","","","","","","","","","","","",""
"","476.66499949991703","sequential-stimulus-presentation","265","577513","0.0-50.0-1.2","SS1613140171782","trial","","40","800","1276.664999499917","images/stimuli/spore_stims/simple_11_A_b.gif","images/stimuli/spore_stims/simple_10_B_a.gif","","","","","14","simple_dissimilar","images/stimuli/spore_stims/simple_10_B_a.gif","right","","","","",""
"","null","html-keyboard-response","266","578683","0.0-50.0-0.3","SS1613140171782","","","null","","","","","<p><img src= images/blank.png width =""200"" height = ""200"" style = ""float:right""></p><p><img src=images/blank.png width =""800"" height = ""200""></p>","","","","","","","","","","","",""
"","258.5950009524822","sequential-stimulus-presentation","267","579768","0.0-50.0-1.3","SS1613140171782","trial","","40","800","1058.5950009524822","images/stimuli/spore_stims/simple_11_A_b.gif","images/stimuli/spore_stims/simple_10_B_a.gif","","","","","14","simple_dissimilar","images/stimuli/spore_stims/simple_11_A_b.gif","middle","","","","",""
"","null","html-keyboard-response","268","580947","0.0-50.0-0.4","SS1613140171782","","","null","","","","","<p><img src= images/blank.png width =""200"" height = ""200"" style = ""float:right""></p><p><img src=images/blank.png width =""800"" height = ""200""></p>","","","","","","","","","","","",""
"","535.3599991649389","sequential-stimulus-presentation","269","582316","0.0-50.0-1.4","SS1613140171782","trial","","40","800","1335.359999164939","images/stimuli/spore_stims/simple_11_A_b.gif","images/stimuli/spore_stims/simple_10_B_a.gif","","","","","14","simple_dissimilar","images/stimuli/spore_stims/simple_10_B_a.gif","right","","","","",""
"","null","html-keyboard-response","270","583310","0.0-50.0-0.5","SS1613140171782","","","null","","","","","<p><img src= images/blank.png width =""200"" height = ""200"" style = ""float:right""></p><p><img src=images/blank.png width =""800"" height = ""200""></p>","","","","","","","","","","","",""
"","564.9849995970726","sequential-stimulus-presentation","271","584700","0.0-50.0-1.5","SS1613140171782","trial","","40","800","1364.9849995970726","images/stimuli/spore_stims/simple_11_A_b.gif","images/stimuli/spore_stims/simple_10_B_a.gif","","","","","14","simple_dissimilar","images/stimuli/spore_stims/simple_10_B_a.gif","right","","","","",""
"","null","html-keyboard-response","272","585866","0.0-50.0-0.6","SS1613140171782","","","null","","","","","<p><img src= images/blank.png width =""200"" height = ""200"" style = ""float:right""></p><p><img src=images/blank.png width =""800"" height = ""200""></p>","","","","","","","","","","","",""
"","1669.8749996721745","sequential-stimulus-presentation","273","588378","0.0-50.0-1.6","SS1613140171782","trial","","40","800","2469.8749996721745","images/stimuli/spore_stims/simple_11_A_b.gif","images/stimuli/spore_stims/simple_10_B_a.gif","","","","","14","simple_dissimilar","images/stimuli/spore_stims/simple_10_B_a.gif","right","","","","",""
"","null","html-keyboard-response","274","589383","0.0-50.0-0.7","SS1613140171782","","","null","","","","","<p><img src= images/blank.png width =""200"" height = ""200"" style = ""float:right""></p><p><img src=images/blank.png width =""800"" height = ""200""></p>","","","","","","","","","","","",""
"","1086.6550002247095","sequential-stimulus-presentation","275","591297","0.0-50.0-1.7","SS1613140171782","trial","","40","800","1886.6550002247095","images/stimuli/spore_stims/simple_11_A_b.gif","images/stimuli/spore_stims/simple_10_B_a.gif","","","","","14","simple_dissimilar","images/stimuli/spore_stims/simple_10_B_a.gif","right","","","","",""
"","1061.1600000411272","html-keyboard-response","276","592378","0.0-51.0","SS1613140171782","pref_question","","97","","","","","<video width ='960' height = '540' style='padding-top:8%' autoplay muted><source src='images/stimuli/wall_pref.mp4' type='video/mp4'></video>","1","left","25%","14","","","","","","","",""
"","2076.3299986720085","sequential-stimulus-presentation","277","595307","0.0-52.0","SS1613140171782","pref_reveal","","40","800","2876.3299986720085","null","null","","","","","14","","","","novel","","","",""
"","null","html-keyboard-response","278","596519","0.0-53.0-0.0","SS1613140171782","","","null","","","","","<p><img src= images/blank.png width =""200"" height = ""200"" style = ""float:right""></p><p><img src=images/blank.png width =""800"" height = ""200""></p>","","","","","","","","","","","",""
"","557.0149999111891","sequential-stimulus-presentation","279","597900","0.0-53.0-1.0","SS1613140171782","trial","","40","800","1357.014999911189","images/stimuli/spore_stims/simple_10_A_c.gif","images/stimuli/spore_stims/simple_03_B_d.gif","","","","","15","simple_dissimilar","images/stimuli/spore_stims/simple_03_B_d.gif","middle","","","","",""
"","null","html-keyboard-response","280","598748","0.0-53.0-0.1","SS1613140171782","","","null","","","","","<p><img src= images/blank.png width =""200"" height = ""200"" style = ""float:right""></p><p><img src=images/blank.png width =""800"" height = ""200""></p>","","","","","","","","","","","",""
"","1022.4300008267164","sequential-stimulus-presentation","281","600603","0.0-53.0-1.1","SS1613140171782","trial","","40","800","1822.4300008267164","images/stimuli/spore_stims/simple_10_A_c.gif","images/stimuli/spore_stims/simple_03_B_d.gif","","","","","15","simple_dissimilar","images/stimuli/spore_stims/simple_03_B_d.gif","middle","","","","",""
"","null","html-keyboard-response","282","601544","0.0-53.0-0.2","SS1613140171782","","","null","","","","","<p><img src= images/blank.png width =""200"" height = ""200"" style = ""float:right""></p><p><img src=images/blank.png width =""800"" height = ""200""></p>","","","","","","","","","","","",""
"","765.3850000351667","sequential-stimulus-presentation","283","603165","0.0-53.0-1.2","SS1613140171782","trial","","40","800","1565.3850000351667","images/stimuli/spore_stims/simple_10_A_c.gif","images/stimuli/spore_stims/simple_03_B_d.gif","","","","","15","simple_dissimilar","images/stimuli/spore_stims/simple_03_B_d.gif","middle","","","","",""
"","null","html-keyboard-response","284","604412","0.0-53.0-0.3","SS1613140171782","","","null","","","","","<p><img src= images/blank.png width =""200"" height = ""200"" style = ""float:right""></p><p><img src=images/blank.png width =""800"" height = ""200""></p>","","","","","","","","","","","",""
"","127.77499854564667","sequential-stimulus-presentation","285","605350","0.0-53.0-1.3","SS1613140171782","trial","","40","800","927.7749985456467","images/stimuli/spore_stims/simple_10_A_c.gif","images/stimuli/spore_stims/simple_03_B_d.gif","","","","","15","simple_dissimilar","images/stimuli/spore_stims/simple_03_B_d.gif","middle","","","","",""
"","null","html-keyboard-response","286","606662","0.0-53.0-0.4","SS1613140171782","","","null","","","","","<p><img src= images/blank.png width =""200"" height = ""200"" style = ""float:right""></p><p><img src=images/blank.png width =""800"" height = ""200""></p>","","","","","","","","","","","",""
"","269.7799988090992","sequential-stimulus-presentation","287","607748","0.0-53.0-1.4","SS1613140171782","trial","","40","800","1069.7799988090992","images/stimuli/spore_stims/simple_10_A_c.gif","images/stimuli/spore_stims/simple_03_B_d.gif","","","","","15","simple_dissimilar","images/stimuli/spore_stims/simple_10_A_c.gif","right","","","","",""
"","null","html-keyboard-response","288","608744","0.0-53.0-0.5","SS1613140171782","","","null","","","","","<p><img src= images/blank.png width =""200"" height = ""200"" style = ""float:right""></p><p><img src=images/blank.png width =""800"" height = ""200""></p>","","","","","","","","","","","",""
"","234.24999974668026","sequential-stimulus-presentation","289","609825","0.0-53.0-1.5","SS1613140171782","trial","","40","800","1034.2499997466803","images/stimuli/spore_stims/simple_10_A_c.gif","images/stimuli/spore_stims/simple_03_B_d.gif","","","","","15","simple_dissimilar","images/stimuli/spore_stims/simple_03_B_d.gif","middle","","","","",""
"","null","html-keyboard-response","290","611133","0.0-53.0-0.6","SS1613140171782","","","null","","","","","<p><img src= images/blank.png width =""200"" height = ""200"" style = ""float:right""></p><p><img src=images/blank.png width =""800"" height = ""200""></p>","","","","","","","","","","","",""
"","665.9500002861023","sequential-stimulus-presentation","291","612611","0.0-53.0-1.6","SS1613140171782","trial","","40","800","1465.9500002861023","images/stimuli/spore_stims/simple_10_A_c.gif","images/stimuli/spore_stims/simple_03_B_d.gif","","","","","15","simple_dissimilar","images/stimuli/spore_stims/simple_03_B_d.gif","middle","","","","",""
"","null","html-keyboard-response","292","613562","0.0-53.0-0.7","SS1613140171782","","","null","","","","","<p><img src= images/blank.png width =""200"" height = ""200"" style = ""float:right""></p><p><img src=images/blank.png width =""800"" height = ""200""></p>","","","","","","","","","","","",""
"","401.16499923169613","sequential-stimulus-presentation","293","614779","0.0-53.0-1.7","SS1613140171782","trial","","40","800","1201.1649992316961","images/stimuli/spore_stims/simple_10_A_c.gif","images/stimuli/spore_stims/simple_03_B_d.gif","","","","","15","simple_dissimilar","images/stimuli/spore_stims/simple_03_B_d.gif","middle","","","","",""
"","1837.9300013184547","html-keyboard-response","294","616631","0.0-54.0","SS1613140171782","pref_question","","99","","","","","<video width ='960' height = '540' style='padding-top:8%' autoplay muted><source src='images/stimuli/wall_pref.mp4' type='video/mp4'></video>","3","right","66%","15","","","","","","","",""
"","2931.154999881983","sequential-stimulus-presentation","295","620395","0.0-55.0","SS1613140171782","pref_reveal","","40","800","3731.154999881983","null","null","","","","","15","","","","deviant","","","",""
"","null","html-keyboard-response","296","621461","0.0-56.0-0.0","SS1613140171782","","","null","","","","","<p><img src= images/blank.png width =""200"" height = ""200"" style = ""float:right""></p><p><img src=images/blank.png width =""800"" height = ""200""></p>","","","","","","","","","","","",""
"","267.55000092089176","sequential-stimulus-presentation","297","622560","0.0-56.0-1.0","SS1613140171782","trial","","40","800","1067.5500009208918","images/stimuli/spore_stims/simple_17_B_b.gif","images/stimuli/spore_stims/simple_17_A_b.gif","","","","","16","simple_similar","images/stimuli/spore_stims/simple_17_A_b.gif","middle","","","","",""
"","null","html-keyboard-response","298","623812","0.0-56.0-0.1","SS1613140171782","","","null","","","","","<p><img src= images/blank.png width =""200"" height = ""200"" style = ""float:right""></p><p><img src=images/blank.png width =""800"" height = ""200""></p>","","","","","","","","","","","",""
"","259.8899994045496","sequential-stimulus-presentation","299","624902","0.0-56.0-1.1","SS1613140171782","trial","","40","800","1059.8899994045496","images/stimuli/spore_stims/simple_17_B_b.gif","images/stimuli/spore_stims/simple_17_A_b.gif","","","","","16","simple_similar","images/stimuli/spore_stims/simple_17_A_b.gif","middle","","","","",""
"","null","html-keyboard-response","300","626091","0.0-56.0-0.2","SS1613140171782","","","null","","","","","<p><img src= images/blank.png width =""200"" height = ""200"" style = ""float:right""></p><p><img src=images/blank.png width =""800"" height = ""200""></p>","","","","","","","","","","","",""
"","215.06999991834164","sequential-stimulus-presentation","301","627132","0.0-56.0-1.2","SS1613140171782","trial","","40","800","1015.0699999183416","images/stimuli/spore_stims/simple_17_B_b.gif","images/stimuli/spore_stims/simple_17_A_b.gif","","","","","16","simple_similar","images/stimuli/spore_stims/simple_17_A_b.gif","middle","","","","",""
"","null","html-keyboard-response","302","628376","0.0-56.0-0.3","SS1613140171782","","","null","","","","","<p><img src= images/blank.png width =""200"" height = ""200"" style = ""float:right""></p><p><img src=images/blank.png width =""800"" height = ""200""></p>","","","","","","","","","","","",""
"","402.5049991905689","sequential-stimulus-presentation","303","629606","0.0-56.0-1.3","SS1613140171782","trial","","40","800","1202.504999190569","images/stimuli/spore_stims/simple_17_B_b.gif","images/stimuli/spore_stims/simple_17_A_b.gif","","","","","16","simple_similar","images/stimuli/spore_stims/simple_17_A_b.gif","middle","","","","",""
"","null","html-keyboard-response","304","630566","0.0-56.0-0.4","SS1613140171782","","","null","","","","","<p><img src= images/blank.png width =""200"" height = ""200"" style = ""float:right""></p><p><img src=images/blank.png width =""800"" height = ""200""></p>","","","","","","","","","","","",""
"","97.41999953985214","sequential-stimulus-presentation","305","631478","0.0-56.0-1.4","SS1613140171782","trial","","40","800","897.4199995398521","images/stimuli/spore_stims/simple_17_B_b.gif","images/stimuli/spore_stims/simple_17_A_b.gif","","","","","16","simple_similar","images/stimuli/spore_stims/simple_17_A_b.gif","middle","","","","",""
"","null","html-keyboard-response","306","632372","0.0-56.0-0.5","SS1613140171782","","","null","","","","","<p><img src= images/blank.png width =""200"" height = ""200"" style = ""float:right""></p><p><img src=images/blank.png width =""800"" height = ""200""></p>","","","","","","","","","","","",""
"","158.30999985337257","sequential-stimulus-presentation","307","633339","0.0-56.0-1.5","SS1613140171782","trial","","40","800","958.3099998533726","images/stimuli/spore_stims/simple_17_B_b.gif","images/stimuli/spore_stims/simple_17_A_b.gif","","","","","16","simple_similar","images/stimuli/spore_stims/simple_17_B_b.gif","right","","","","",""
"","null","html-keyboard-response","308","634633","0.0-56.0-0.6","SS1613140171782","","","null","","","","","<p><img src= images/blank.png width =""200"" height = ""200"" style = ""float:right""></p><p><img src=images/blank.png width =""800"" height = ""200""></p>","","","","","","","","","","","",""
"","428.98499965667725","sequential-stimulus-presentation","309","635887","0.0-56.0-1.6","SS1613140171782","trial","","40","800","1228.9849996566772","images/stimuli/spore_stims/simple_17_B_b.gif","images/stimuli/spore_stims/simple_17_A_b.gif","","","","","16","simple_similar","images/stimuli/spore_stims/simple_17_A_b.gif","middle","","","","",""
"","null","html-keyboard-response","310","636860","0.0-56.0-0.7","SS1613140171782","","","null","","","","","<p><img src= images/blank.png width =""200"" height = ""200"" style = ""float:right""></p><p><img src=images/blank.png width =""800"" height = ""200""></p>","","","","","","","","","","","",""
"","99.9900009483099","sequential-stimulus-presentation","311","637776","0.0-56.0-1.7","SS1613140171782","trial","","40","800","899.9900009483099","images/stimuli/spore_stims/simple_17_B_b.gif","images/stimuli/spore_stims/simple_17_A_b.gif","","","","","16","simple_similar","images/stimuli/spore_stims/simple_17_A_b.gif","middle","","","","",""
