"view_history","rt","trial_type","trial_index","time_elapsed","internal_node_id","subject","stimulus_type","trial_stimulus","key_press","minimum_viewing_duration","trial_looking_time","block_deviant","block_background","stimulus","wall_pref","location","location_percent","block_number","block_type","stimulus_displayed","position_displayed","stim_type_selected","responses","question_order","stimulus_left","stimulus_right"
"[{""page_index"":0,""viewing_time"":16313.029999999344}]","16314.759999999296","instructions","0","16317","0.0-0.0","SS1613079895352","","","","","","","","","","","","","","","","","","","",""
"[{""page_index"":0,""viewing_time"":14361.805000000459},{""page_index"":1,""viewing_time"":6857.669999999416}]","21220.095000000583","instructions","1","39540","0.0-1.0","SS1613079895352","instructions","","","","","","","","","","","","","","","","","","",""
"","9509.86499999999","sequential-stimulus-presentation","2","49856","0.0-2.0","SS1613079895352","","","40","800","10309.86499999999","null","null","","","","","","","","","","","","",""
"","4581.3849999995","sequential-stimulus-presentation","3","55242","0.0-3.0","SS1613079895352","","","40","800","5381.3849999995","null","null","","","","","","","","","","","","",""
"[{""page_index"":0,""viewing_time"":5506.885000000693}]","5507.309999999052","instructions","4","60751","0.0-4.0","SS1613079895352","instructions","","","","","","","","","","","","","","","","","","",""
"","10217.10499999972","html-keyboard-response","5","70973","0.0-5.0","SS1613079895352","instructions","","49","","","","","<video width ='960' height = '540' autoplay muted><source src='images/stimuli/wall_pref.mp4' type='video/mp4'></video>","1","left","25%","","","","","","","","",""
"","4528.749999999491","sequential-stimulus-presentation","6","76308","0.0-6.0","SS1613079895352","pref_reveal","","40","800","5328.749999999491","null","null","","","","","","","","","","","","",""
"[{""page_index"":0,""viewing_time"":13046.13000000063},{""page_index"":1,""viewing_time"":6208.020000000033},{""page_index"":2,""viewing_time"":1454.0999999990163},{""page_index"":3,""viewing_time"":1279.27500000078}]","21987.810000000536","instructions","7","98297","0.0-7.0","SS1613079895352","instructions","","","","","","","","","","","","","","","","","","",""
"","null","html-keyboard-response","8","99536","0.0-8.0-0.0","SS1613079895352","","","null","","","","","<p><img src= images/blank.png width =""200"" height = ""200"" style = ""float:right""></p><p><img src=images/blank.png width =""800"" height = ""200""></p>","","","","","","","","","","","",""
"","3437.7849999982573","sequential-stimulus-presentation","9","103779","0.0-8.0-1.0","SS1613079895352","trial","","40","800","4237.784999998257","images/stimuli/spore_stims/simple_19_A_d.gif","images/stimuli/spore_stims/simple_19_B_d.gif","","","","","0","simple_similar","images/stimuli/spore_stims/simple_19_B_d.gif","right","","","","",""
"","null","html-keyboard-response","10","104842","0.0-8.0-0.1","SS1613079895352","","","null","","","","","<p><img src= images/blank.png width =""200"" height = ""200"" style = ""float:right""></p><p><img src=images/blank.png width =""800"" height = ""200""></p>","","","","","","","","","","","",""
"","3822.760000000926","sequential-stimulus-presentation","11","109469","0.0-8.0-1.1","SS1613079895352","trial","","40","800","4622.760000000926","images/stimuli/spore_stims/simple_19_A_d.gif","images/stimuli/spore_stims/simple_19_B_d.gif","","","","","0","simple_similar","images/stimuli/spore_stims/simple_19_B_d.gif","right","","","","",""
"","null","html-keyboard-response","12","110560","0.0-8.0-0.2","SS1613079895352","","","null","","","","","<p><img src= images/blank.png width =""200"" height = ""200"" style = ""float:right""></p><p><img src=images/blank.png width =""800"" height = ""200""></p>","","","","","","","","","","","",""
"","2013.6450000009063","sequential-stimulus-presentation","13","113381","0.0-8.0-1.2","SS1613079895352","trial","","40","800","2813.6450000009063","images/stimuli/spore_stims/simple_19_A_d.gif","images/stimuli/spore_stims/simple_19_B_d.gif","","","","","0","simple_similar","images/stimuli/spore_stims/simple_19_B_d.gif","right","","","","",""
"","null","html-keyboard-response","14","114262","0.0-8.0-0.3","SS1613079895352","","","null","","","","","<p><img src= images/blank.png width =""200"" height = ""200"" style = ""float:right""></p><p><img src=images/blank.png width =""800"" height = ""200""></p>","","","","","","","","","","","",""
"","1725.734999999986","sequential-stimulus-presentation","15","116793","0.0-8.0-1.3","SS1613079895352","trial","","40","800","2525.734999999986","images/stimuli/spore_stims/simple_19_A_d.gif","images/stimuli/spore_stims/simple_19_B_d.gif","","","","","0","simple_similar","images/stimuli/spore_stims/simple_19_B_d.gif","right","","","","",""
"","null","html-keyboard-response","16","117880","0.0-8.0-0.4","SS1613079895352","","","null","","","","","<p><img src= images/blank.png width =""200"" height = ""200"" style = ""float:right""></p><p><img src=images/blank.png width =""800"" height = ""200""></p>","","","","","","","","","","","",""
"","2314.585000000079","sequential-stimulus-presentation","17","121003","0.0-8.0-1.4","SS1613079895352","trial","","40","800","3114.585000000079","images/stimuli/spore_stims/simple_19_A_d.gif","images/stimuli/spore_stims/simple_19_B_d.gif","","","","","0","simple_similar","images/stimuli/spore_stims/simple_19_B_d.gif","right","","","","",""
"","null","html-keyboard-response","18","121934","0.0-8.0-0.5","SS1613079895352","","","null","","","","","<p><img src= images/blank.png width =""200"" height = ""200"" style = ""float:right""></p><p><img src=images/blank.png width =""800"" height = ""200""></p>","","","","","","","","","","","",""
"","1478.1799999982468","sequential-stimulus-presentation","19","124219","0.0-8.0-1.5","SS1613079895352","trial","","40","800","2278.179999998247","images/stimuli/spore_stims/simple_19_A_d.gif","images/stimuli/spore_stims/simple_19_B_d.gif","","","","","0","simple_similar","images/stimuli/spore_stims/simple_19_B_d.gif","right","","","","",""
"","null","html-keyboard-response","20","125481","0.0-8.0-0.6","SS1613079895352","","","null","","","","","<p><img src= images/blank.png width =""200"" height = ""200"" style = ""float:right""></p><p><img src=images/blank.png width =""800"" height = ""200""></p>","","","","","","","","","","","",""
"","3967.319999999745","sequential-stimulus-presentation","21","130257","0.0-8.0-1.6","SS1613079895352","trial","","40","800","4767.319999999745","images/stimuli/spore_stims/simple_19_A_d.gif","images/stimuli/spore_stims/simple_19_B_d.gif","","","","","0","simple_similar","images/stimuli/spore_stims/simple_19_A_d.gif","left","","","","",""
"","null","html-keyboard-response","22","131472","0.0-8.0-0.7","SS1613079895352","","","null","","","","","<p><img src= images/blank.png width =""200"" height = ""200"" style = ""float:right""></p><p><img src=images/blank.png width =""800"" height = ""200""></p>","","","","","","","","","","","",""
"","4540.634999999369","sequential-stimulus-presentation","23","136819","0.0-8.0-1.7","SS1613079895352","trial","","40","800","5340.634999999369","images/stimuli/spore_stims/simple_19_A_d.gif","images/stimuli/spore_stims/simple_19_B_d.gif","","","","","0","simple_similar","images/stimuli/spore_stims/simple_19_B_d.gif","right","","","","",""
"","1572.1250000006112","html-keyboard-response","24","138397","0.0-9.0","SS1613079895352","pref_question","","50","","","","","<video width ='960' height = '540' style='padding-top:8%' autoplay muted><source src='images/stimuli/wall_pref.mp4' type='video/mp4'></video>","2","middle","45%","0","","","","","","","",""
"","3919.949999999517","sequential-stimulus-presentation","25","143139","0.0-10.0","SS1613079895352","pref_reveal","","40","800","4719.949999999517","null","null","","","","","0","","","","novel","","","",""
"","null","html-keyboard-response","26","144003","0.0-11.0-0.0","SS1613079895352","","","null","","","","","<p><img src= images/blank.png width =""200"" height = ""200"" style = ""float:right""></p><p><img src=images/blank.png width =""800"" height = ""200""></p>","","","","","","","","","","","",""
"","3423.4850000011793","sequential-stimulus-presentation","27","148233","0.0-11.0-1.0","SS1613079895352","trial","","40","800","4223.485000001179","images/stimuli/spore_stims/simple_03_A_c.gif","images/stimuli/spore_stims/simple_03_B_c.gif","","","","","1","simple_similar","images/stimuli/spore_stims/simple_03_B_c.gif","left","","","","",""
"","null","html-keyboard-response","28","149496","0.0-11.0-0.1","SS1613079895352","","","null","","","","","<p><img src= images/blank.png width =""200"" height = ""200"" style = ""float:right""></p><p><img src=images/blank.png width =""800"" height = ""200""></p>","","","","","","","","","","","",""
"","1942.5900000005495","sequential-stimulus-presentation","29","152243","0.0-11.0-1.1","SS1613079895352","trial","","40","800","2742.5900000005495","images/stimuli/spore_stims/simple_03_A_c.gif","images/stimuli/spore_stims/simple_03_B_c.gif","","","","","1","simple_similar","images/stimuli/spore_stims/simple_03_B_c.gif","left","","","","",""
"","null","html-keyboard-response","30","153058","0.0-11.0-0.2","SS1613079895352","","","null","","","","","<p><img src= images/blank.png width =""200"" height = ""200"" style = ""float:right""></p><p><img src=images/blank.png width =""800"" height = ""200""></p>","","","","","","","","","","","",""
"","1801.260000000184","sequential-stimulus-presentation","31","155667","0.0-11.0-1.2","SS1613079895352","trial","","40","800","2601.260000000184","images/stimuli/spore_stims/simple_03_A_c.gif","images/stimuli/spore_stims/simple_03_B_c.gif","","","","","1","simple_similar","images/stimuli/spore_stims/simple_03_B_c.gif","left","","","","",""
"","null","html-keyboard-response","32","156912","0.0-11.0-0.3","SS1613079895352","","","null","","","","","<p><img src= images/blank.png width =""200"" height = ""200"" style = ""float:right""></p><p><img src=images/blank.png width =""800"" height = ""200""></p>","","","","","","","","","","","",""
"","5934.970000000263","sequential-stimulus-presentation","33","163653","0.0-11.0-1.3","SS1613079895352","trial","","40","800","6734.970000000263","images/stimuli/spore_stims/simple_03_A_c.gif","images/stimuli/spore_stims/simple_03_B_c.gif","","","","","1","simple_similar","images/stimuli/spore_stims/simple_03_A_c.gif","middle","","","","",""
"","null","html-keyboard-response","34","164743","0.0-11.0-0.4","SS1613079895352","","","null","","","","","<p><img src= images/blank.png width =""200"" height = ""200"" style = ""float:right""></p><p><img src=images/blank.png width =""800"" height = ""200""></p>","","","","","","","","","","","",""
"","2901.2050000001036","sequential-stimulus-presentation","35","168448","0.0-11.0-1.4","SS1613079895352","trial","","40","800","3701.2050000001036","images/stimuli/spore_stims/simple_03_A_c.gif","images/stimuli/spore_stims/simple_03_B_c.gif","","","","","1","simple_similar","images/stimuli/spore_stims/simple_03_B_c.gif","left","","","","",""
"","null","html-keyboard-response","36","169683","0.0-11.0-0.5","SS1613079895352","","","null","","","","","<p><img src= images/blank.png width =""200"" height = ""200"" style = ""float:right""></p><p><img src=images/blank.png width =""800"" height = ""200""></p>","","","","","","","","","","","",""
"","2124.4000000006054","sequential-stimulus-presentation","37","172615","0.0-11.0-1.5","SS1613079895352","trial","","40","800","2924.4000000006054","images/stimuli/spore_stims/simple_03_A_c.gif","images/stimuli/spore_stims/simple_03_B_c.gif","","","","","1","simple_similar","images/stimuli/spore_stims/simple_03_B_c.gif","left","","","","",""
"","null","html-keyboard-response","38","173577","0.0-11.0-0.6","SS1613079895352","","","null","","","","","<p><img src= images/blank.png width =""200"" height = ""200"" style = ""float:right""></p><p><img src=images/blank.png width =""800"" height = ""200""></p>","","","","","","","","","","","",""
"","3055.4100000008475","sequential-stimulus-presentation","39","177437","0.0-11.0-1.6","SS1613079895352","trial","","40","800","3855.4100000008475","images/stimuli/spore_stims/simple_03_A_c.gif","images/stimuli/spore_stims/simple_03_B_c.gif","","","","","1","simple_similar","images/stimuli/spore_stims/simple_03_B_c.gif","left","","","","",""
"","null","html-keyboard-response","40","178345","0.0-11.0-0.7","SS1613079895352","","","null","","","","","<p><img src= images/blank.png width =""200"" height = ""200"" style = ""float:right""></p><p><img src=images/blank.png width =""800"" height = ""200""></p>","","","","","","","","","","","",""
"","3023.595000000554","sequential-stimulus-presentation","41","182177","0.0-11.0-1.7","SS1613079895352","trial","","40","800","3823.595000000554","images/stimuli/spore_stims/simple_03_A_c.gif","images/stimuli/spore_stims/simple_03_B_c.gif","","","","","1","simple_similar","images/stimuli/spore_stims/simple_03_B_c.gif","left","","","","",""
"","1443.6399999995192","html-keyboard-response","42","183625","0.0-12.0","SS1613079895352","pref_question","","51","","","","","<video width ='960' height = '540' style='padding-top:8%' autoplay muted><source src='images/stimuli/wall_pref.mp4' type='video/mp4'></video>","3","right","66%","1","","","","","","","",""
"","3965.7099999985658","sequential-stimulus-presentation","43","188397","0.0-13.0","SS1613079895352","pref_reveal","","40","800","4765.709999998566","null","null","","","","","1","","","","novel","","","",""
"","null","html-keyboard-response","44","189675","0.0-14.0-0.0","SS1613079895352","","","null","","","","","<p><img src= images/blank.png width =""200"" height = ""200"" style = ""float:right""></p><p><img src=images/blank.png width =""800"" height = ""200""></p>","","","","","","","","","","","",""
"","8378.525000000081","sequential-stimulus-presentation","45","198863","0.0-14.0-1.0","SS1613079895352","trial","","40","800","9178.525000000081","images/stimuli/spore_stims/complex_17_B_b.gif","images/stimuli/spore_stims/complex_17_A_b.gif","","","","","2","complex_similar","images/stimuli/spore_stims/complex_17_A_b.gif","right","","","","",""
"","null","html-keyboard-response","46","199676","0.0-14.0-0.1","SS1613079895352","","","null","","","","","<p><img src= images/blank.png width =""200"" height = ""200"" style = ""float:right""></p><p><img src=images/blank.png width =""800"" height = ""200""></p>","","","","","","","","","","","",""
"","4169.570000000036","sequential-stimulus-presentation","47","204649","0.0-14.0-1.1","SS1613079895352","trial","","40","800","4969.570000000036","images/stimuli/spore_stims/complex_17_B_b.gif","images/stimuli/spore_stims/complex_17_A_b.gif","","","","","2","complex_similar","images/stimuli/spore_stims/complex_17_A_b.gif","right","","","","",""
"","null","html-keyboard-response","48","205472","0.0-14.0-0.2","SS1613079895352","","","null","","","","","<p><img src= images/blank.png width =""200"" height = ""200"" style = ""float:right""></p><p><img src=images/blank.png width =""800"" height = ""200""></p>","","","","","","","","","","","",""
"","1966.2799999987474","sequential-stimulus-presentation","49","208260","0.0-14.0-1.2","SS1613079895352","trial","","40","800","2766.2799999987474","images/stimuli/spore_stims/complex_17_B_b.gif","images/stimuli/spore_stims/complex_17_A_b.gif","","","","","2","complex_similar","images/stimuli/spore_stims/complex_17_A_b.gif","right","","","","",""
"","null","html-keyboard-response","50","209288","0.0-14.0-0.3","SS1613079895352","","","null","","","","","<p><img src= images/blank.png width =""200"" height = ""200"" style = ""float:right""></p><p><img src=images/blank.png width =""800"" height = ""200""></p>","","","","","","","","","","","",""
"","1759.1650000012887","sequential-stimulus-presentation","51","211852","0.0-14.0-1.3","SS1613079895352","trial","","40","800","2559.1650000012887","images/stimuli/spore_stims/complex_17_B_b.gif","images/stimuli/spore_stims/complex_17_A_b.gif","","","","","2","complex_similar","images/stimuli/spore_stims/complex_17_A_b.gif","right","","","","",""
"","null","html-keyboard-response","52","212789","0.0-14.0-0.4","SS1613079895352","","","null","","","","","<p><img src= images/blank.png width =""200"" height = ""200"" style = ""float:right""></p><p><img src=images/blank.png width =""800"" height = ""200""></p>","","","","","","","","","","","",""
"","2820.91500000027","sequential-stimulus-presentation","53","216417","0.0-14.0-1.4","SS1613079895352","trial","","40","800","3620.91500000027","images/stimuli/spore_stims/complex_17_B_b.gif","images/stimuli/spore_stims/complex_17_A_b.gif","","","","","2","complex_similar","images/stimuli/spore_stims/complex_17_A_b.gif","right","","","","",""
"","null","html-keyboard-response","54","217431","0.0-14.0-0.5","SS1613079895352","","","null","","","","","<p><img src= images/blank.png width =""200"" height = ""200"" style = ""float:right""></p><p><img src=images/blank.png width =""800"" height = ""200""></p>","","","","","","","","","","","",""
"","3489.1999999999825","sequential-stimulus-presentation","55","221731","0.0-14.0-1.5","SS1613079895352","trial","","40","800","4289.1999999999825","images/stimuli/spore_stims/complex_17_B_b.gif","images/stimuli/spore_stims/complex_17_A_b.gif","","","","","2","complex_similar","images/stimuli/spore_stims/complex_17_A_b.gif","right","","","","",""
"","null","html-keyboard-response","56","222649","0.0-14.0-0.6","SS1613079895352","","","null","","","","","<p><img src= images/blank.png width =""200"" height = ""200"" style = ""float:right""></p><p><img src=images/blank.png width =""800"" height = ""200""></p>","","","","","","","","","","","",""
"","3255.6750000003376","sequential-stimulus-presentation","57","226711","0.0-14.0-1.6","SS1613079895352","trial","","40","800","4055.6750000003376","images/stimuli/spore_stims/complex_17_B_b.gif","images/stimuli/spore_stims/complex_17_A_b.gif","","","","","2","complex_similar","images/stimuli/spore_stims/complex_17_B_b.gif","middle","","","","",""
"","null","html-keyboard-response","58","227868","0.0-14.0-0.7","SS1613079895352","","","null","","","","","<p><img src= images/blank.png width =""200"" height = ""200"" style = ""float:right""></p><p><img src=images/blank.png width =""800"" height = ""200""></p>","","","","","","","","","","","",""
"","3790.13999999917","sequential-stimulus-presentation","59","232466","0.0-14.0-1.7","SS1613079895352","trial","","40","800","4590.13999999917","images/stimuli/spore_stims/complex_17_B_b.gif","images/stimuli/spore_stims/complex_17_A_b.gif","","","","","2","complex_similar","images/stimuli/spore_stims/complex_17_A_b.gif","right","","","","",""
"","1478.3349999997881","html-keyboard-response","60","233951","0.0-15.0","SS1613079895352","pref_question","","49","","","","","<video width ='960' height = '540' style='padding-top:8%' autoplay muted><source src='images/stimuli/wall_pref.mp4' type='video/mp4'></video>","1","left","25%","2","","","","","","","",""
"","4441.865000000689","sequential-stimulus-presentation","61","239198","0.0-16.0","SS1613079895352","pref_reveal","","40","800","5241.865000000689","null","null","","","","","2","","","","novel","","","",""
"","null","html-keyboard-response","62","240326","0.0-17.0-0.0","SS1613079895352","","","null","","","","","<p><img src= images/blank.png width =""200"" height = ""200"" style = ""float:right""></p><p><img src=images/blank.png width =""800"" height = ""200""></p>","","","","","","","","","","","",""
"","2422.74499999985","sequential-stimulus-presentation","63","243557","0.0-17.0-1.0","SS1613079895352","trial","","40","800","3222.74499999985","images/stimuli/spore_stims/simple_14_A_c.gif","images/stimuli/spore_stims/simple_14_B_c.gif","","","","","3","simple_similar","images/stimuli/spore_stims/simple_14_B_c.gif","right","","","","",""
"","null","html-keyboard-response","64","244813","0.0-17.0-0.1","SS1613079895352","","","null","","","","","<p><img src= images/blank.png width =""200"" height = ""200"" style = ""float:right""></p><p><img src=images/blank.png width =""800"" height = ""200""></p>","","","","","","","","","","","",""
"","3046.140000000363","sequential-stimulus-presentation","65","248665","0.0-17.0-1.1","SS1613079895352","trial","","40","800","3846.140000000363","images/stimuli/spore_stims/simple_14_A_c.gif","images/stimuli/spore_stims/simple_14_B_c.gif","","","","","3","simple_similar","images/stimuli/spore_stims/simple_14_B_c.gif","right","","","","",""
"","null","html-keyboard-response","66","249863","0.0-17.0-0.2","SS1613079895352","","","null","","","","","<p><img src= images/blank.png width =""200"" height = ""200"" style = ""float:right""></p><p><img src=images/blank.png width =""800"" height = ""200""></p>","","","","","","","","","","","",""
"","3901.320000000851","sequential-stimulus-presentation","67","254573","0.0-17.0-1.2","SS1613079895352","trial","","40","800","4701.320000000851","images/stimuli/spore_stims/simple_14_A_c.gif","images/stimuli/spore_stims/simple_14_B_c.gif","","","","","3","simple_similar","images/stimuli/spore_stims/simple_14_A_c.gif","middle","","","","",""
"","null","html-keyboard-response","68","255688","0.0-17.0-0.3","SS1613079895352","","","null","","","","","<p><img src= images/blank.png width =""200"" height = ""200"" style = ""float:right""></p><p><img src=images/blank.png width =""800"" height = ""200""></p>","","","","","","","","","","","",""
"","3727.5100000005914","sequential-stimulus-presentation","69","260224","0.0-17.0-1.3","SS1613079895352","trial","","40","800","4527.510000000591","images/stimuli/spore_stims/simple_14_A_c.gif","images/stimuli/spore_stims/simple_14_B_c.gif","","","","","3","simple_similar","images/stimuli/spore_stims/simple_14_B_c.gif","right","","","","",""
"","null","html-keyboard-response","70","261144","0.0-17.0-0.4","SS1613079895352","","","null","","","","","<p><img src= images/blank.png width =""200"" height = ""200"" style = ""float:right""></p><p><img src=images/blank.png width =""800"" height = ""200""></p>","","","","","","","","","","","",""
"","2251.4449999998906","sequential-stimulus-presentation","71","264204","0.0-17.0-1.4","SS1613079895352","trial","","40","800","3051.4449999998906","images/stimuli/spore_stims/simple_14_A_c.gif","images/stimuli/spore_stims/simple_14_B_c.gif","","","","","3","simple_similar","images/stimuli/spore_stims/simple_14_B_c.gif","right","","","","",""
"","null","html-keyboard-response","72","265473","0.0-17.0-0.5","SS1613079895352","","","null","","","","","<p><img src= images/blank.png width =""200"" height = ""200"" style = ""float:right""></p><p><img src=images/blank.png width =""800"" height = ""200""></p>","","","","","","","","","","","",""
"","2606.9950000001118","sequential-stimulus-presentation","73","268886","0.0-17.0-1.5","SS1613079895352","trial","","40","800","3406.9950000001118","images/stimuli/spore_stims/simple_14_A_c.gif","images/stimuli/spore_stims/simple_14_B_c.gif","","","","","3","simple_similar","images/stimuli/spore_stims/simple_14_B_c.gif","right","","","","",""
"","null","html-keyboard-response","74","269907","0.0-17.0-0.6","SS1613079895352","","","null","","","","","<p><img src= images/blank.png width =""200"" height = ""200"" style = ""float:right""></p><p><img src=images/blank.png width =""800"" height = ""200""></p>","","","","","","","","","","","",""
"","3440.9750000013155","sequential-stimulus-presentation","75","274154","0.0-17.0-1.6","SS1613079895352","trial","","40","800","4240.9750000013155","images/stimuli/spore_stims/simple_14_A_c.gif","images/stimuli/spore_stims/simple_14_B_c.gif","","","","","3","simple_similar","images/stimuli/spore_stims/simple_14_B_c.gif","right","","","","",""
"","null","html-keyboard-response","76","275222","0.0-17.0-0.7","SS1613079895352","","","null","","","","","<p><img src= images/blank.png width =""200"" height = ""200"" style = ""float:right""></p><p><img src=images/blank.png width =""800"" height = ""200""></p>","","","","","","","","","","","",""
"","4338.294999999576","sequential-stimulus-presentation","77","280368","0.0-17.0-1.7","SS1613079895352","trial","","40","800","5138.294999999576","images/stimuli/spore_stims/simple_14_A_c.gif","images/stimuli/spore_stims/simple_14_B_c.gif","","","","","3","simple_similar","images/stimuli/spore_stims/simple_14_B_c.gif","right","","","","",""
"","1453.2250000011409","html-keyboard-response","78","281829","0.0-18.0","SS1613079895352","pref_question","","49","","","","","<video width ='960' height = '540' style='padding-top:8%' autoplay muted><source src='images/stimuli/wall_pref.mp4' type='video/mp4'></video>","1","left","25%","3","","","","","","","",""
"","6569.475000000268","sequential-stimulus-presentation","79","289206","0.0-19.0","SS1613079895352","pref_reveal","","40","800","7369.475000000268","null","null","","","","","3","","","","novel","","","",""
"","null","html-keyboard-response","80","290276","0.0-20.0-0.0","SS1613079895352","","","null","","","","","<p><img src= images/blank.png width =""200"" height = ""200"" style = ""float:right""></p><p><img src=images/blank.png width =""800"" height = ""200""></p>","","","","","","","","","","","",""
"","4183.500000001048","sequential-stimulus-presentation","81","295269","0.0-20.0-1.0","SS1613079895352","trial","","40","800","4983.500000001048","images/stimuli/spore_stims/complex_05_A_d.gif","images/stimuli/spore_stims/complex_03_B_b.gif","","","","","4","complex_dissimilar","images/stimuli/spore_stims/complex_03_B_b.gif","middle","","","","",""
"","null","html-keyboard-response","82","296314","0.0-20.0-0.1","SS1613079895352","","","null","","","","","<p><img src= images/blank.png width =""200"" height = ""200"" style = ""float:right""></p><p><img src=images/blank.png width =""800"" height = ""200""></p>","","","","","","","","","","","",""
"","2251.8650000001653","sequential-stimulus-presentation","83","299375","0.0-20.0-1.1","SS1613079895352","trial","","40","800","3051.8650000001653","images/stimuli/spore_stims/complex_05_A_d.gif","images/stimuli/spore_stims/complex_03_B_b.gif","","","","","4","complex_dissimilar","images/stimuli/spore_stims/complex_03_B_b.gif","middle","","","","",""
"","null","html-keyboard-response","84","300591","0.0-20.0-0.2","SS1613079895352","","","null","","","","","<p><img src= images/blank.png width =""200"" height = ""200"" style = ""float:right""></p><p><img src=images/blank.png width =""800"" height = ""200""></p>","","","","","","","","","","","",""
"","1058.2250000006752","sequential-stimulus-presentation","85","302458","0.0-20.0-1.2","SS1613079895352","trial","","40","800","1858.2250000006752","images/stimuli/spore_stims/complex_05_A_d.gif","images/stimuli/spore_stims/complex_03_B_b.gif","","","","","4","complex_dissimilar","images/stimuli/spore_stims/complex_03_B_b.gif","middle","","","","",""
"","null","html-keyboard-response","86","303429","0.0-20.0-0.3","SS1613079895352","","","null","","","","","<p><img src= images/blank.png width =""200"" height = ""200"" style = ""float:right""></p><p><img src=images/blank.png width =""800"" height = ""200""></p>","","","","","","","","","","","",""
"","4487.779999999504","sequential-stimulus-presentation","87","308738","0.0-20.0-1.3","SS1613079895352","trial","","40","800","5287.779999999504","images/stimuli/spore_stims/complex_05_A_d.gif","images/stimuli/spore_stims/complex_03_B_b.gif","","","","","4","complex_dissimilar","images/stimuli/spore_stims/complex_05_A_d.gif","right","","","","",""
"","null","html-keyboard-response","88","309876","0.0-20.0-0.4","SS1613079895352","","","null","","","","","<p><img src= images/blank.png width =""200"" height = ""200"" style = ""float:right""></p><p><img src=images/blank.png width =""800"" height = ""200""></p>","","","","","","","","","","","",""
"","2187.5","sequential-stimulus-presentation","89","312869","0.0-20.0-1.4","SS1613079895352","trial","","40","800","2987.5","images/stimuli/spore_stims/complex_05_A_d.gif","images/stimuli/spore_stims/complex_03_B_b.gif","","","","","4","complex_dissimilar","images/stimuli/spore_stims/complex_03_B_b.gif","middle","","","","",""
"","null","html-keyboard-response","90","314094","0.0-20.0-0.5","SS1613079895352","","","null","","","","","<p><img src= images/blank.png width =""200"" height = ""200"" style = ""float:right""></p><p><img src=images/blank.png width =""800"" height = ""200""></p>","","","","","","","","","","","",""
"","2254.8650000007474","sequential-stimulus-presentation","91","317158","0.0-20.0-1.5","SS1613079895352","trial","","40","800","3054.8650000007474","images/stimuli/spore_stims/complex_05_A_d.gif","images/stimuli/spore_stims/complex_03_B_b.gif","","","","","4","complex_dissimilar","images/stimuli/spore_stims/complex_03_B_b.gif","middle","","","","",""
"","null","html-keyboard-response","92","318262","0.0-20.0-0.6","SS1613079895352","","","null","","","","","<p><img src= images/blank.png width =""200"" height = ""200"" style = ""float:right""></p><p><img src=images/blank.png width =""800"" height = ""200""></p>","","","","","","","","","","","",""
"","464.0849999996135","sequential-stimulus-presentation","93","319536","0.0-20.0-1.6","SS1613079895352","trial","","40","800","1264.0849999996135","images/stimuli/spore_stims/complex_05_A_d.gif","images/stimuli/spore_stims/complex_03_B_b.gif","","","","","4","complex_dissimilar","images/stimuli/spore_stims/complex_03_B_b.gif","middle","","","","",""
"","null","html-keyboard-response","94","320625","0.0-20.0-0.7","SS1613079895352","","","null","","","","","<p><img src= images/blank.png width =""200"" height = ""200"" style = ""float:right""></p><p><img src=images/blank.png width =""800"" height = ""200""></p>","","","","","","","","","","","",""
"","766.8699999994715","sequential-stimulus-presentation","95","322202","0.0-20.0-1.7","SS1613079895352","trial","","40","800","1566.8699999994715","images/stimuli/spore_stims/complex_05_A_d.gif","images/stimuli/spore_stims/complex_03_B_b.gif","","","","","4","complex_dissimilar","images/stimuli/spore_stims/complex_03_B_b.gif","middle","","","","",""
"","1575.914999999397","html-keyboard-response","96","323784","0.0-21.0","SS1613079895352","pref_question","","49","","","","","<video width ='960' height = '540' style='padding-top:8%' autoplay muted><source src='images/stimuli/wall_pref.mp4' type='video/mp4'></video>","1","left","25%","4","","","","","","","",""
"","4558.965000000142","sequential-stimulus-presentation","97","329147","0.0-22.0","SS1613079895352","pref_reveal","","40","800","5358.965000000142","null","null","","","","","4","","","","novel","","","",""
"","null","html-keyboard-response","98","329998","0.0-23.0-0.0","SS1613079895352","","","null","","","","","<p><img src= images/blank.png width =""200"" height = ""200"" style = ""float:right""></p><p><img src=images/blank.png width =""800"" height = ""200""></p>","","","","","","","","","","","",""
"","4634.449999999546","sequential-stimulus-presentation","99","335440","0.0-23.0-1.0","SS1613079895352","trial","","40","800","5434.449999999546","images/stimuli/spore_stims/simple_13_A_a.gif","images/stimuli/spore_stims/simple_13_B_a.gif","","","","","5","simple_similar","images/stimuli/spore_stims/simple_13_B_a.gif","right","","","","",""
"","null","html-keyboard-response","100","336612","0.0-23.0-0.1","SS1613079895352","","","null","","","","","<p><img src= images/blank.png width =""200"" height = ""200"" style = ""float:right""></p><p><img src=images/blank.png width =""800"" height = ""200""></p>","","","","","","","","","","","",""
"","2108.090000001539","sequential-stimulus-presentation","101","339529","0.0-23.0-1.1","SS1613079895352","trial","","40","800","2908.090000001539","images/stimuli/spore_stims/simple_13_A_a.gif","images/stimuli/spore_stims/simple_13_B_a.gif","","","","","5","simple_similar","images/stimuli/spore_stims/simple_13_B_a.gif","right","","","","",""
"","null","html-keyboard-response","102","340708","0.0-23.0-0.2","SS1613079895352","","","null","","","","","<p><img src= images/blank.png width =""200"" height = ""200"" style = ""float:right""></p><p><img src=images/blank.png width =""800"" height = ""200""></p>","","","","","","","","","","","",""
"","3248.439999999362","sequential-stimulus-presentation","103","344763","0.0-23.0-1.2","SS1613079895352","trial","","40","800","4048.439999999362","images/stimuli/spore_stims/simple_13_A_a.gif","images/stimuli/spore_stims/simple_13_B_a.gif","","","","","5","simple_similar","images/stimuli/spore_stims/simple_13_B_a.gif","right","","","","",""
"","null","html-keyboard-response","104","345985","0.0-23.0-0.3","SS1613079895352","","","null","","","","","<p><img src= images/blank.png width =""200"" height = ""200"" style = ""float:right""></p><p><img src=images/blank.png width =""800"" height = ""200""></p>","","","","","","","","","","","",""
"","778.9950000005774","sequential-stimulus-presentation","105","347573","0.0-23.0-1.3","SS1613079895352","trial","","40","800","1578.9950000005774","images/stimuli/spore_stims/simple_13_A_a.gif","images/stimuli/spore_stims/simple_13_B_a.gif","","","","","5","simple_similar","images/stimuli/spore_stims/simple_13_B_a.gif","right","","","","",""
"","null","html-keyboard-response","106","348700","0.0-23.0-0.4","SS1613079895352","","","null","","","","","<p><img src= images/blank.png width =""200"" height = ""200"" style = ""float:right""></p><p><img src=images/blank.png width =""800"" height = ""200""></p>","","","","","","","","","","","",""
"","728.9099999997998","sequential-stimulus-presentation","107","350239","0.0-23.0-1.4","SS1613079895352","trial","","40","800","1528.9099999997998","images/stimuli/spore_stims/simple_13_A_a.gif","images/stimuli/spore_stims/simple_13_B_a.gif","","","","","5","simple_similar","images/stimuli/spore_stims/simple_13_B_a.gif","right","","","","",""
"","null","html-keyboard-response","108","351467","0.0-23.0-0.5","SS1613079895352","","","null","","","","","<p><img src= images/blank.png width =""200"" height = ""200"" style = ""float:right""></p><p><img src=images/blank.png width =""800"" height = ""200""></p>","","","","","","","","","","","",""
"","694.550000000163","sequential-stimulus-presentation","109","352971","0.0-23.0-1.5","SS1613079895352","trial","","40","800","1494.550000000163","images/stimuli/spore_stims/simple_13_A_a.gif","images/stimuli/spore_stims/simple_13_B_a.gif","","","","","5","simple_similar","images/stimuli/spore_stims/simple_13_B_a.gif","right","","","","",""
"","null","html-keyboard-response","110","353957","0.0-23.0-0.6","SS1613079895352","","","null","","","","","<p><img src= images/blank.png width =""200"" height = ""200"" style = ""float:right""></p><p><img src=images/blank.png width =""800"" height = ""200""></p>","","","","","","","","","","","",""
"","3985.465000001539","sequential-stimulus-presentation","111","358753","0.0-23.0-1.6","SS1613079895352","trial","","40","800","4785.465000001539","images/stimuli/spore_stims/simple_13_A_a.gif","images/stimuli/spore_stims/simple_13_B_a.gif","","","","","5","simple_similar","images/stimuli/spore_stims/simple_13_A_a.gif","left","","","","",""
"","null","html-keyboard-response","112","359567","0.0-23.0-0.7","SS1613079895352","","","null","","","","","<p><img src= images/blank.png width =""200"" height = ""200"" style = ""float:right""></p><p><img src=images/blank.png width =""800"" height = ""200""></p>","","","","","","","","","","","",""
"","1610.7750000010128","sequential-stimulus-presentation","113","361989","0.0-23.0-1.7","SS1613079895352","trial","","40","800","2410.775000001013","images/stimuli/spore_stims/simple_13_A_a.gif","images/stimuli/spore_stims/simple_13_B_a.gif","","","","","5","simple_similar","images/stimuli/spore_stims/simple_13_B_a.gif","right","","","","",""
"","1273.8900000004214","html-keyboard-response","114","363271","0.0-24.0","SS1613079895352","pref_question","","50","","","","","<video width ='960' height = '540' style='padding-top:8%' autoplay muted><source src='images/stimuli/wall_pref.mp4' type='video/mp4'></video>","2","middle","45%","5","","","","","","","",""
"","5070.874999999418","sequential-stimulus-presentation","115","369150","0.0-25.0","SS1613079895352","pref_reveal","","40","800","5870.874999999418","null","null","","","","","5","","","","novel","","","",""
"","null","html-keyboard-response","116","370408","0.0-26.0-0.0","SS1613079895352","","","null","","","","","<p><img src= images/blank.png width =""200"" height = ""200"" style = ""float:right""></p><p><img src=images/blank.png width =""800"" height = ""200""></p>","","","","","","","","","","","",""
"","2109.7049999989686","sequential-stimulus-presentation","117","373325","0.0-26.0-1.0","SS1613079895352","trial","","40","800","2909.7049999989686","images/stimuli/spore_stims/simple_02_A_b.gif","images/stimuli/spore_stims/simple_04_B_b.gif","","","","","6","simple_dissimilar","images/stimuli/spore_stims/simple_04_B_b.gif","right","","","","",""
"","null","html-keyboard-response","118","374159","0.0-26.0-0.1","SS1613079895352","","","null","","","","","<p><img src= images/blank.png width =""200"" height = ""200"" style = ""float:right""></p><p><img src=images/blank.png width =""800"" height = ""200""></p>","","","","","","","","","","","",""
"","1828.3599999995204","sequential-stimulus-presentation","119","376797","0.0-26.0-1.1","SS1613079895352","trial","","40","800","2628.3599999995204","images/stimuli/spore_stims/simple_02_A_b.gif","images/stimuli/spore_stims/simple_04_B_b.gif","","","","","6","simple_dissimilar","images/stimuli/spore_stims/simple_04_B_b.gif","right","","","","",""
"","null","html-keyboard-response","120","377840","0.0-26.0-0.2","SS1613079895352","","","null","","","","","<p><img src= images/blank.png width =""200"" height = ""200"" style = ""float:right""></p><p><img src=images/blank.png width =""800"" height = ""200""></p>","","","","","","","","","","","",""
"","1987.7450000003446","sequential-stimulus-presentation","121","380639","0.0-26.0-1.2","SS1613079895352","trial","","40","800","2787.7450000003446","images/stimuli/spore_stims/simple_02_A_b.gif","images/stimuli/spore_stims/simple_04_B_b.gif","","","","","6","simple_dissimilar","images/stimuli/spore_stims/simple_04_B_b.gif","right","","","","",""
"","null","html-keyboard-response","122","381632","0.0-26.0-0.3","SS1613079895352","","","null","","","","","<p><img src= images/blank.png width =""200"" height = ""200"" style = ""float:right""></p><p><img src=images/blank.png width =""800"" height = ""200""></p>","","","","","","","","","","","",""
"","2952.745000000519","sequential-stimulus-presentation","123","385396","0.0-26.0-1.3","SS1613079895352","trial","","40","800","3752.745000000519","images/stimuli/spore_stims/simple_02_A_b.gif","images/stimuli/spore_stims/simple_04_B_b.gif","","","","","6","simple_dissimilar","images/stimuli/spore_stims/simple_02_A_b.gif","left","","","","",""
"","null","html-keyboard-response","124","386218","0.0-26.0-0.4","SS1613079895352","","","null","","","","","<p><img src= images/blank.png width =""200"" height = ""200"" style = ""float:right""></p><p><img src=images/blank.png width =""800"" height = ""200""></p>","","","","","","","","","","","",""
"","818.9500000007683","sequential-stimulus-presentation","125","387844","0.0-26.0-1.4","SS1613079895352","trial","","40","800","1618.9500000007683","images/stimuli/spore_stims/simple_02_A_b.gif","images/stimuli/spore_stims/simple_04_B_b.gif","","","","","6","simple_dissimilar","images/stimuli/spore_stims/simple_04_B_b.gif","right","","","","",""
"","null","html-keyboard-response","126","388767","0.0-26.0-0.5","SS1613079895352","","","null","","","","","<p><img src= images/blank.png width =""200"" height = ""200"" style = ""float:right""></p><p><img src=images/blank.png width =""800"" height = ""200""></p>","","","","","","","","","","","",""
"","976.9250000008615","sequential-stimulus-presentation","127","390554","0.0-26.0-1.5","SS1613079895352","trial","","40","800","1776.9250000008615","images/stimuli/spore_stims/simple_02_A_b.gif","images/stimuli/spore_stims/simple_04_B_b.gif","","","","","6","simple_dissimilar","images/stimuli/spore_stims/simple_04_B_b.gif","right","","","","",""
"","null","html-keyboard-response","128","391806","0.0-26.0-0.6","SS1613079895352","","","null","","","","","<p><img src= images/blank.png width =""200"" height = ""200"" style = ""float:right""></p><p><img src=images/blank.png width =""800"" height = ""200""></p>","","","","","","","","","","","",""
"","2073.2349999998696","sequential-stimulus-presentation","129","394688","0.0-26.0-1.6","SS1613079895352","trial","","40","800","2873.2349999998696","images/stimuli/spore_stims/simple_02_A_b.gif","images/stimuli/spore_stims/simple_04_B_b.gif","","","","","6","simple_dissimilar","images/stimuli/spore_stims/simple_04_B_b.gif","right","","","","",""
"","null","html-keyboard-response","130","395826","0.0-26.0-0.7","SS1613079895352","","","null","","","","","<p><img src= images/blank.png width =""200"" height = ""200"" style = ""float:right""></p><p><img src=images/blank.png width =""800"" height = ""200""></p>","","","","","","","","","","","",""
"","1206.1849999991246","sequential-stimulus-presentation","131","397842","0.0-26.0-1.7","SS1613079895352","trial","","40","800","2006.1849999991246","images/stimuli/spore_stims/simple_02_A_b.gif","images/stimuli/spore_stims/simple_04_B_b.gif","","","","","6","simple_dissimilar","images/stimuli/spore_stims/simple_04_B_b.gif","right","","","","",""
"","1299.7900000009686","html-keyboard-response","132","399150","0.0-27.0","SS1613079895352","pref_question","","50","","","","","<video width ='960' height = '540' style='padding-top:8%' autoplay muted><source src='images/stimuli/wall_pref.mp4' type='video/mp4'></video>","2","middle","45%","6","","","","","","","",""
"","2156.794999998936","sequential-stimulus-presentation","133","402115","0.0-28.0","SS1613079895352","pref_reveal","","40","800","2956.794999998936","null","null","","","","","6","","","","novel","","","",""
"","null","html-keyboard-response","134","403266","0.0-29.0-0.0","SS1613079895352","","","null","","","","","<p><img src= images/blank.png width =""200"" height = ""200"" style = ""float:right""></p><p><img src=images/blank.png width =""800"" height = ""200""></p>","","","","","","","","","","","",""
"","3944.9899999999325","sequential-stimulus-presentation","135","408021","0.0-29.0-1.0","SS1613079895352","trial","","40","800","4744.9899999999325","images/stimuli/spore_stims/complex_16_B_d.gif","images/stimuli/spore_stims/complex_16_A_d.gif","","","","","7","complex_similar","images/stimuli/spore_stims/complex_16_A_d.gif","left","","","","",""
"","null","html-keyboard-response","136","408954","0.0-29.0-0.1","SS1613079895352","","","null","","","","","<p><img src= images/blank.png width =""200"" height = ""200"" style = ""float:right""></p><p><img src=images/blank.png width =""800"" height = ""200""></p>","","","","","","","","","","","",""
"","742.284999998461","sequential-stimulus-presentation","137","410507","0.0-29.0-1.1","SS1613079895352","trial","","40","800","1542.284999998461","images/stimuli/spore_stims/complex_16_B_d.gif","images/stimuli/spore_stims/complex_16_A_d.gif","","","","","7","complex_similar","images/stimuli/spore_stims/complex_16_A_d.gif","left","","","","",""
"","null","html-keyboard-response","138","411420","0.0-29.0-0.2","SS1613079895352","","","null","","","","","<p><img src= images/blank.png width =""200"" height = ""200"" style = ""float:right""></p><p><img src=images/blank.png width =""800"" height = ""200""></p>","","","","","","","","","","","",""
"","961.079999999085","sequential-stimulus-presentation","139","413203","0.0-29.0-1.2","SS1613079895352","trial","","40","800","1761.079999999085","images/stimuli/spore_stims/complex_16_B_d.gif","images/stimuli/spore_stims/complex_16_A_d.gif","","","","","7","complex_similar","images/stimuli/spore_stims/complex_16_A_d.gif","left","","","","",""
"","null","html-keyboard-response","140","414482","0.0-29.0-0.3","SS1613079895352","","","null","","","","","<p><img src= images/blank.png width =""200"" height = ""200"" style = ""float:right""></p><p><img src=images/blank.png width =""800"" height = ""200""></p>","","","","","","","","","","","",""
"","1085.964999998454","sequential-stimulus-presentation","141","416376","0.0-29.0-1.3","SS1613079895352","trial","","40","800","1885.964999998454","images/stimuli/spore_stims/complex_16_B_d.gif","images/stimuli/spore_stims/complex_16_A_d.gif","","","","","7","complex_similar","images/stimuli/spore_stims/complex_16_A_d.gif","left","","","","",""
"","null","html-keyboard-response","142","417494","0.0-29.0-0.4","SS1613079895352","","","null","","","","","<p><img src= images/blank.png width =""200"" height = ""200"" style = ""float:right""></p><p><img src=images/blank.png width =""800"" height = ""200""></p>","","","","","","","","","","","",""
"","3941.210000000836","sequential-stimulus-presentation","143","422247","0.0-29.0-1.4","SS1613079895352","trial","","40","800","4741.210000000836","images/stimuli/spore_stims/complex_16_B_d.gif","images/stimuli/spore_stims/complex_16_A_d.gif","","","","","7","complex_similar","images/stimuli/spore_stims/complex_16_B_d.gif","middle","","","","",""
"","null","html-keyboard-response","144","423452","0.0-29.0-0.5","SS1613079895352","","","null","","","","","<p><img src= images/blank.png width =""200"" height = ""200"" style = ""float:right""></p><p><img src=images/blank.png width =""800"" height = ""200""></p>","","","","","","","","","","","",""
"","2700.219999998808","sequential-stimulus-presentation","145","426959","0.0-29.0-1.5","SS1613079895352","trial","","40","800","3500.219999998808","images/stimuli/spore_stims/complex_16_B_d.gif","images/stimuli/spore_stims/complex_16_A_d.gif","","","","","7","complex_similar","images/stimuli/spore_stims/complex_16_A_d.gif","left","","","","",""
"","null","html-keyboard-response","146","428263","0.0-29.0-0.6","SS1613079895352","","","null","","","","","<p><img src= images/blank.png width =""200"" height = ""200"" style = ""float:right""></p><p><img src=images/blank.png width =""800"" height = ""200""></p>","","","","","","","","","","","",""
"","724.4399999999441","sequential-stimulus-presentation","147","429798","0.0-29.0-1.6","SS1613079895352","trial","","40","800","1524.4399999999441","images/stimuli/spore_stims/complex_16_B_d.gif","images/stimuli/spore_stims/complex_16_A_d.gif","","","","","7","complex_similar","images/stimuli/spore_stims/complex_16_A_d.gif","left","","","","",""
"","null","html-keyboard-response","148","431089","0.0-29.0-0.7","SS1613079895352","","","null","","","","","<p><img src= images/blank.png width =""200"" height = ""200"" style = ""float:right""></p><p><img src=images/blank.png width =""800"" height = ""200""></p>","","","","","","","","","","","",""
"","1274.400000000198","sequential-stimulus-presentation","149","433169","0.0-29.0-1.7","SS1613079895352","trial","","40","800","2074.400000000198","images/stimuli/spore_stims/complex_16_B_d.gif","images/stimuli/spore_stims/complex_16_A_d.gif","","","","","7","complex_similar","images/stimuli/spore_stims/complex_16_A_d.gif","left","","","","",""
"","1230.9399999994785","html-keyboard-response","150","434408","0.0-30.0","SS1613079895352","pref_question","","51","","","","","<video width ='960' height = '540' style='padding-top:8%' autoplay muted><source src='images/stimuli/wall_pref.mp4' type='video/mp4'></video>","3","right","66%","7","","","","","","","",""
"","3803.335000000545","sequential-stimulus-presentation","151","439020","0.0-31.0","SS1613079895352","pref_reveal","","40","800","4603.335000000545","null","null","","","","","7","","","","novel","","","",""
"","null","html-keyboard-response","152","439990","0.0-32.0-0.0","SS1613079895352","","","null","","","","","<p><img src= images/blank.png width =""200"" height = ""200"" style = ""float:right""></p><p><img src=images/blank.png width =""800"" height = ""200""></p>","","","","","","","","","","","",""
"","2547.3649999985355","sequential-stimulus-presentation","153","443348","0.0-32.0-1.0","SS1613079895352","trial","","40","800","3347.3649999985355","images/stimuli/spore_stims/simple_08_A_a.gif","images/stimuli/spore_stims/simple_06_A_b.gif","","","","","8","simple_dissimilar","images/stimuli/spore_stims/simple_06_A_b.gif","middle","","","","",""
"","null","html-keyboard-response","154","444591","0.0-32.0-0.1","SS1613079895352","","","null","","","","","<p><img src= images/blank.png width =""200"" height = ""200"" style = ""float:right""></p><p><img src=images/blank.png width =""800"" height = ""200""></p>","","","","","","","","","","","",""
"","2532.9550000005984","sequential-stimulus-presentation","155","447935","0.0-32.0-1.1","SS1613079895352","trial","","40","800","3332.9550000005984","images/stimuli/spore_stims/simple_08_A_a.gif","images/stimuli/spore_stims/simple_06_A_b.gif","","","","","8","simple_dissimilar","images/stimuli/spore_stims/simple_06_A_b.gif","middle","","","","",""
"","null","html-keyboard-response","156","448924","0.0-32.0-0.2","SS1613079895352","","","null","","","","","<p><img src= images/blank.png width =""200"" height = ""200"" style = ""float:right""></p><p><img src=images/blank.png width =""800"" height = ""200""></p>","","","","","","","","","","","",""
"","601.3750000002328","sequential-stimulus-presentation","157","450331","0.0-32.0-1.2","SS1613079895352","trial","","40","800","1401.3750000002328","images/stimuli/spore_stims/simple_08_A_a.gif","images/stimuli/spore_stims/simple_06_A_b.gif","","","","","8","simple_dissimilar","images/stimuli/spore_stims/simple_06_A_b.gif","middle","","","","",""
"","null","html-keyboard-response","158","451559","0.0-32.0-0.3","SS1613079895352","","","null","","","","","<p><img src= images/blank.png width =""200"" height = ""200"" style = ""float:right""></p><p><img src=images/blank.png width =""800"" height = ""200""></p>","","","","","","","","","","","",""
"","823.8550000005635","sequential-stimulus-presentation","159","453193","0.0-32.0-1.3","SS1613079895352","trial","","40","800","1623.8550000005635","images/stimuli/spore_stims/simple_08_A_a.gif","images/stimuli/spore_stims/simple_06_A_b.gif","","","","","8","simple_dissimilar","images/stimuli/spore_stims/simple_06_A_b.gif","middle","","","","",""
"","null","html-keyboard-response","160","454192","0.0-32.0-0.4","SS1613079895352","","","null","","","","","<p><img src= images/blank.png width =""200"" height = ""200"" style = ""float:right""></p><p><img src=images/blank.png width =""800"" height = ""200""></p>","","","","","","","","","","","",""
"","3899.035000000382","sequential-stimulus-presentation","161","458903","0.0-32.0-1.4","SS1613079895352","trial","","40","800","4699.035000000382","images/stimuli/spore_stims/simple_08_A_a.gif","images/stimuli/spore_stims/simple_06_A_b.gif","","","","","8","simple_dissimilar","images/stimuli/spore_stims/simple_08_A_a.gif","left","","","","",""
"","null","html-keyboard-response","162","459741","0.0-32.0-0.5","SS1613079895352","","","null","","","","","<p><img src= images/blank.png width =""200"" height = ""200"" style = ""float:right""></p><p><img src=images/blank.png width =""800"" height = ""200""></p>","","","","","","","","","","","",""
"","2319.4750000002678","sequential-stimulus-presentation","163","462871","0.0-32.0-1.5","SS1613079895352","trial","","40","800","3119.4750000002678","images/stimuli/spore_stims/simple_08_A_a.gif","images/stimuli/spore_stims/simple_06_A_b.gif","","","","","8","simple_dissimilar","images/stimuli/spore_stims/simple_06_A_b.gif","middle","","","","",""
"","null","html-keyboard-response","164","463829","0.0-32.0-0.6","SS1613079895352","","","null","","","","","<p><img src= images/blank.png width =""200"" height = ""200"" style = ""float:right""></p><p><img src=images/blank.png width =""800"" height = ""200""></p>","","","","","","","","","","","",""
"","1831.6999999987893","sequential-stimulus-presentation","165","466469","0.0-32.0-1.6","SS1613079895352","trial","","40","800","2631.6999999987893","images/stimuli/spore_stims/simple_08_A_a.gif","images/stimuli/spore_stims/simple_06_A_b.gif","","","","","8","simple_dissimilar","images/stimuli/spore_stims/simple_06_A_b.gif","middle","","","","",""
"","null","html-keyboard-response","166","467540","0.0-32.0-0.7","SS1613079895352","","","null","","","","","<p><img src= images/blank.png width =""200"" height = ""200"" style = ""float:right""></p><p><img src=images/blank.png width =""800"" height = ""200""></p>","","","","","","","","","","","",""
"","1529.594999999972","sequential-stimulus-presentation","167","469879","0.0-32.0-1.7","SS1613079895352","trial","","40","800","2329.594999999972","images/stimuli/spore_stims/simple_08_A_a.gif","images/stimuli/spore_stims/simple_06_A_b.gif","","","","","8","simple_dissimilar","images/stimuli/spore_stims/simple_06_A_b.gif","middle","","","","",""
"","1390.7650000001304","html-keyboard-response","168","471290","0.0-33.0","SS1613079895352","pref_question","","51","","","","","<video width ='960' height = '540' style='padding-top:8%' autoplay muted><source src='images/stimuli/wall_pref.mp4' type='video/mp4'></video>","3","right","66%","8","","","","","","","",""
"","4225.919999998936","sequential-stimulus-presentation","169","476324","0.0-34.0","SS1613079895352","pref_reveal","","40","800","5025.919999998936","null","null","","","","","8","","","","novel","","","",""
"","null","html-keyboard-response","170","477138","0.0-35.0-0.0","SS1613079895352","","","null","","","","","<p><img src= images/blank.png width =""200"" height = ""200"" style = ""float:right""></p><p><img src=images/blank.png width =""800"" height = ""200""></p>","","","","","","","","","","","",""
"","5026.729999999574","sequential-stimulus-presentation","171","482975","0.0-35.0-1.0","SS1613079895352","trial","","40","800","5826.729999999574","images/stimuli/spore_stims/complex_07_B_d.gif","images/stimuli/spore_stims/complex_07_A_d.gif","","","","","9","complex_similar","images/stimuli/spore_stims/complex_07_A_d.gif","left","","","","",""
"","null","html-keyboard-response","172","484204","0.0-35.0-0.1","SS1613079895352","","","null","","","","","<p><img src= images/blank.png width =""200"" height = ""200"" style = ""float:right""></p><p><img src=images/blank.png width =""800"" height = ""200""></p>","","","","","","","","","","","",""
"","2051.335000000079","sequential-stimulus-presentation","173","487069","0.0-35.0-1.1","SS1613079895352","trial","","40","800","2851.335000000079","images/stimuli/spore_stims/complex_07_B_d.gif","images/stimuli/spore_stims/complex_07_A_d.gif","","","","","9","complex_similar","images/stimuli/spore_stims/complex_07_A_d.gif","left","","","","",""
"","null","html-keyboard-response","174","488000","0.0-35.0-0.2","SS1613079895352","","","null","","","","","<p><img src= images/blank.png width =""200"" height = ""200"" style = ""float:right""></p><p><img src=images/blank.png width =""800"" height = ""200""></p>","","","","","","","","","","","",""
"","914.9550000001909","sequential-stimulus-presentation","175","489726","0.0-35.0-1.2","SS1613079895352","trial","","40","800","1714.955000000191","images/stimuli/spore_stims/complex_07_B_d.gif","images/stimuli/spore_stims/complex_07_A_d.gif","","","","","9","complex_similar","images/stimuli/spore_stims/complex_07_A_d.gif","left","","","","",""
"","null","html-keyboard-response","176","490923","0.0-35.0-0.3","SS1613079895352","","","null","","","","","<p><img src= images/blank.png width =""200"" height = ""200"" style = ""float:right""></p><p><img src=images/blank.png width =""800"" height = ""200""></p>","","","","","","","","","","","",""
"","1382.0799999994342","sequential-stimulus-presentation","177","493117","0.0-35.0-1.3","SS1613079895352","trial","","40","800","2182.079999999434","images/stimuli/spore_stims/complex_07_B_d.gif","images/stimuli/spore_stims/complex_07_A_d.gif","","","","","9","complex_similar","images/stimuli/spore_stims/complex_07_A_d.gif","left","","","","",""
"","null","html-keyboard-response","178","494064","0.0-35.0-0.4","SS1613079895352","","","null","","","","","<p><img src= images/blank.png width =""200"" height = ""200"" style = ""float:right""></p><p><img src=images/blank.png width =""800"" height = ""200""></p>","","","","","","","","","","","",""
"","1051.4800000000978","sequential-stimulus-presentation","179","495926","0.0-35.0-1.4","SS1613079895352","trial","","40","800","1851.4800000000978","images/stimuli/spore_stims/complex_07_B_d.gif","images/stimuli/spore_stims/complex_07_A_d.gif","","","","","9","complex_similar","images/stimuli/spore_stims/complex_07_A_d.gif","left","","","","",""
"","null","html-keyboard-response","180","496971","0.0-35.0-0.5","SS1613079895352","","","null","","","","","<p><img src= images/blank.png width =""200"" height = ""200"" style = ""float:right""></p><p><img src=images/blank.png width =""800"" height = ""200""></p>","","","","","","","","","","","",""
"","1302.6499999996158","sequential-stimulus-presentation","181","499086","0.0-35.0-1.5","SS1613079895352","trial","","40","800","2102.649999999616","images/stimuli/spore_stims/complex_07_B_d.gif","images/stimuli/spore_stims/complex_07_A_d.gif","","","","","9","complex_similar","images/stimuli/spore_stims/complex_07_A_d.gif","left","","","","",""
"","null","html-keyboard-response","182","500108","0.0-35.0-0.6","SS1613079895352","","","null","","","","","<p><img src= images/blank.png width =""200"" height = ""200"" style = ""float:right""></p><p><img src=images/blank.png width =""800"" height = ""200""></p>","","","","","","","","","","","",""
"","480.58499999932246","sequential-stimulus-presentation","183","501399","0.0-35.0-1.6","SS1613079895352","trial","","40","800","1280.5849999993225","images/stimuli/spore_stims/complex_07_B_d.gif","images/stimuli/spore_stims/complex_07_A_d.gif","","","","","9","complex_similar","images/stimuli/spore_stims/complex_07_A_d.gif","left","","","","",""
"","null","html-keyboard-response","184","502599","0.0-35.0-0.7","SS1613079895352","","","null","","","","","<p><img src= images/blank.png width =""200"" height = ""200"" style = ""float:right""></p><p><img src=images/blank.png width =""800"" height = ""200""></p>","","","","","","","","","","","",""
"","1782.7600000000675","sequential-stimulus-presentation","185","505191","0.0-35.0-1.7","SS1613079895352","trial","","40","800","2582.7600000000675","images/stimuli/spore_stims/complex_07_B_d.gif","images/stimuli/spore_stims/complex_07_A_d.gif","","","","","9","complex_similar","images/stimuli/spore_stims/complex_07_B_d.gif","middle","","","","",""
"","1687.554999998596","html-keyboard-response","186","506885","0.0-36.0","SS1613079895352","pref_question","","51","","","","","<video width ='960' height = '540' style='padding-top:8%' autoplay muted><source src='images/stimuli/wall_pref.mp4' type='video/mp4'></video>","3","right","66%","9","","","","","","","",""
"","3873.689999998547","sequential-stimulus-presentation","187","511569","0.0-37.0","SS1613079895352","pref_reveal","","40","800","4673.689999998547","null","null","","","","","9","","","","novel","","","",""
"","null","html-keyboard-response","188","512415","0.0-38.0-0.0","SS1613079895352","","","null","","","","","<p><img src= images/blank.png width =""200"" height = ""200"" style = ""float:right""></p><p><img src=images/blank.png width =""800"" height = ""200""></p>","","","","","","","","","","","",""
"","3306.029999999737","sequential-stimulus-presentation","189","516531","0.0-38.0-1.0","SS1613079895352","trial","","40","800","4106.029999999737","images/stimuli/spore_stims/complex_15_B_b.gif","images/stimuli/spore_stims/complex_15_A_b.gif","","","","","10","complex_similar","images/stimuli/spore_stims/complex_15_A_b.gif","right","","","","",""
"","null","html-keyboard-response","190","517490","0.0-38.0-0.1","SS1613079895352","","","null","","","","","<p><img src= images/blank.png width =""200"" height = ""200"" style = ""float:right""></p><p><img src=images/blank.png width =""800"" height = ""200""></p>","","","","","","","","","","","",""
"","539.4949999991222","sequential-stimulus-presentation","191","518840","0.0-38.0-1.1","SS1613079895352","trial","","40","800","1339.4949999991222","images/stimuli/spore_stims/complex_15_B_b.gif","images/stimuli/spore_stims/complex_15_A_b.gif","","","","","10","complex_similar","images/stimuli/spore_stims/complex_15_A_b.gif","right","","","","",""
"","null","html-keyboard-response","192","520122","0.0-38.0-0.2","SS1613079895352","","","null","","","","","<p><img src= images/blank.png width =""200"" height = ""200"" style = ""float:right""></p><p><img src=images/blank.png width =""800"" height = ""200""></p>","","","","","","","","","","","",""
"","3258.4949999999953","sequential-stimulus-presentation","193","524191","0.0-38.0-1.2","SS1613079895352","trial","","40","800","4058.4949999999953","images/stimuli/spore_stims/complex_15_B_b.gif","images/stimuli/spore_stims/complex_15_A_b.gif","","","","","10","complex_similar","images/stimuli/spore_stims/complex_15_B_b.gif","left","","","","",""
"","null","html-keyboard-response","194","525070","0.0-38.0-0.3","SS1613079895352","","","null","","","","","<p><img src= images/blank.png width =""200"" height = ""200"" style = ""float:right""></p><p><img src=images/blank.png width =""800"" height = ""200""></p>","","","","","","","","","","","",""
"","1963.5649999999441","sequential-stimulus-presentation","195","527845","0.0-38.0-1.3","SS1613079895352","trial","","40","800","2763.564999999944","images/stimuli/spore_stims/complex_15_B_b.gif","images/stimuli/spore_stims/complex_15_A_b.gif","","","","","10","complex_similar","images/stimuli/spore_stims/complex_15_A_b.gif","right","","","","",""
"","null","html-keyboard-response","196","528802","0.0-38.0-0.4","SS1613079895352","","","null","","","","","<p><img src= images/blank.png width =""200"" height = ""200"" style = ""float:right""></p><p><img src=images/blank.png width =""800"" height = ""200""></p>","","","","","","","","","","","",""
"","1032.6549999990966","sequential-stimulus-presentation","197","530647","0.0-38.0-1.4","SS1613079895352","trial","","40","800","1832.6549999990966","images/stimuli/spore_stims/complex_15_B_b.gif","images/stimuli/spore_stims/complex_15_A_b.gif","","","","","10","complex_similar","images/stimuli/spore_stims/complex_15_A_b.gif","right","","","","",""
"","null","html-keyboard-response","198","531918","0.0-38.0-0.5","SS1613079895352","","","null","","","","","<p><img src= images/blank.png width =""200"" height = ""200"" style = ""float:right""></p><p><img src=images/blank.png width =""800"" height = ""200""></p>","","","","","","","","","","","",""
"","1034.459999998915","sequential-stimulus-presentation","199","533763","0.0-38.0-1.5","SS1613079895352","trial","","40","800","1834.459999998915","images/stimuli/spore_stims/complex_15_B_b.gif","images/stimuli/spore_stims/complex_15_A_b.gif","","","","","10","complex_similar","images/stimuli/spore_stims/complex_15_A_b.gif","right","","","","",""
"","null","html-keyboard-response","200","535020","0.0-38.0-0.6","SS1613079895352","","","null","","","","","<p><img src= images/blank.png width =""200"" height = ""200"" style = ""float:right""></p><p><img src=images/blank.png width =""800"" height = ""200""></p>","","","","","","","","","","","",""
"","776.0049999997718","sequential-stimulus-presentation","201","536606","0.0-38.0-1.6","SS1613079895352","trial","","40","800","1576.0049999997718","images/stimuli/spore_stims/complex_15_B_b.gif","images/stimuli/spore_stims/complex_15_A_b.gif","","","","","10","complex_similar","images/stimuli/spore_stims/complex_15_A_b.gif","right","","","","",""
"","null","html-keyboard-response","202","537679","0.0-38.0-0.7","SS1613079895352","","","null","","","","","<p><img src= images/blank.png width =""200"" height = ""200"" style = ""float:right""></p><p><img src=images/blank.png width =""800"" height = ""200""></p>","","","","","","","","","","","",""
"","753.2499999997672","sequential-stimulus-presentation","203","539241","0.0-38.0-1.7","SS1613079895352","trial","","40","800","1553.2499999997672","images/stimuli/spore_stims/complex_15_B_b.gif","images/stimuli/spore_stims/complex_15_A_b.gif","","","","","10","complex_similar","images/stimuli/spore_stims/complex_15_A_b.gif","right","","","","",""
"","1267.5149999996647","html-keyboard-response","204","540518","0.0-39.0","SS1613079895352","pref_question","","50","","","","","<video width ='960' height = '540' style='padding-top:8%' autoplay muted><source src='images/stimuli/wall_pref.mp4' type='video/mp4'></video>","2","middle","45%","10","","","","","","","",""
"","7759.404999998864","sequential-stimulus-presentation","205","549088","0.0-40.0","SS1613079895352","pref_reveal","","40","800","8559.404999998864","null","null","","","","","10","","","","novel","","","",""
"","null","html-keyboard-response","206","550216","0.0-41.0-0.0","SS1613079895352","","","null","","","","","<p><img src= images/blank.png width =""200"" height = ""200"" style = ""float:right""></p><p><img src=images/blank.png width =""800"" height = ""200""></p>","","","","","","","","","","","",""
"","3589.309999999474","sequential-stimulus-presentation","207","554614","0.0-41.0-1.0","SS1613079895352","trial","","40","800","4389.309999999474","images/stimuli/spore_stims/complex_08_A_b.gif","images/stimuli/spore_stims/complex_02_B_b.gif","","","","","11","complex_dissimilar","images/stimuli/spore_stims/complex_02_B_b.gif","right","","","","",""
"","null","html-keyboard-response","208","555555","0.0-41.0-0.1","SS1613079895352","","","null","","","","","<p><img src= images/blank.png width =""200"" height = ""200"" style = ""float:right""></p><p><img src=images/blank.png width =""800"" height = ""200""></p>","","","","","","","","","","","",""
"","2689.7699999990873","sequential-stimulus-presentation","209","559056","0.0-41.0-1.1","SS1613079895352","trial","","40","800","3489.7699999990873","images/stimuli/spore_stims/complex_08_A_b.gif","images/stimuli/spore_stims/complex_02_B_b.gif","","","","","11","complex_dissimilar","images/stimuli/spore_stims/complex_02_B_b.gif","right","","","","",""
"","null","html-keyboard-response","210","560225","0.0-41.0-0.2","SS1613079895352","","","null","","","","","<p><img src= images/blank.png width =""200"" height = ""200"" style = ""float:right""></p><p><img src=images/blank.png width =""800"" height = ""200""></p>","","","","","","","","","","","",""
"","1092.339999999269","sequential-stimulus-presentation","211","562129","0.0-41.0-1.2","SS1613079895352","trial","","40","800","1892.339999999269","images/stimuli/spore_stims/complex_08_A_b.gif","images/stimuli/spore_stims/complex_02_B_b.gif","","","","","11","complex_dissimilar","images/stimuli/spore_stims/complex_02_B_b.gif","right","","","","",""
"","null","html-keyboard-response","212","563350","0.0-41.0-0.3","SS1613079895352","","","null","","","","","<p><img src= images/blank.png width =""200"" height = ""200"" style = ""float:right""></p><p><img src=images/blank.png width =""800"" height = ""200""></p>","","","","","","","","","","","",""
"","692.6349999993108","sequential-stimulus-presentation","213","564853","0.0-41.0-1.3","SS1613079895352","trial","","40","800","1492.6349999993108","images/stimuli/spore_stims/complex_08_A_b.gif","images/stimuli/spore_stims/complex_02_B_b.gif","","","","","11","complex_dissimilar","images/stimuli/spore_stims/complex_02_B_b.gif","right","","","","",""
"","null","html-keyboard-response","214","566149","0.0-41.0-0.4","SS1613079895352","","","null","","","","","<p><img src= images/blank.png width =""200"" height = ""200"" style = ""float:right""></p><p><img src=images/blank.png width =""800"" height = ""200""></p>","","","","","","","","","","","",""
"","421.45499999960884","sequential-stimulus-presentation","215","567381","0.0-41.0-1.4","SS1613079895352","trial","","40","800","1221.4549999996088","images/stimuli/spore_stims/complex_08_A_b.gif","images/stimuli/spore_stims/complex_02_B_b.gif","","","","","11","complex_dissimilar","images/stimuli/spore_stims/complex_02_B_b.gif","right","","","","",""
"","null","html-keyboard-response","216","568331","0.0-41.0-0.5","SS1613079895352","","","null","","","","","<p><img src= images/blank.png width =""200"" height = ""200"" style = ""float:right""></p><p><img src=images/blank.png width =""800"" height = ""200""></p>","","","","","","","","","","","",""
"","958.755000001518","sequential-stimulus-presentation","217","570101","0.0-41.0-1.5","SS1613079895352","trial","","40","800","1758.755000001518","images/stimuli/spore_stims/complex_08_A_b.gif","images/stimuli/spore_stims/complex_02_B_b.gif","","","","","11","complex_dissimilar","images/stimuli/spore_stims/complex_02_B_b.gif","right","","","","",""
"","null","html-keyboard-response","218","571204","0.0-41.0-0.6","SS1613079895352","","","null","","","","","<p><img src= images/blank.png width =""200"" height = ""200"" style = ""float:right""></p><p><img src=images/blank.png width =""800"" height = ""200""></p>","","","","","","","","","","","",""
"","4804.760000000824","sequential-stimulus-presentation","219","576841","0.0-41.0-1.6","SS1613079895352","trial","","40","800","5604.760000000824","images/stimuli/spore_stims/complex_08_A_b.gif","images/stimuli/spore_stims/complex_02_B_b.gif","","","","","11","complex_dissimilar","images/stimuli/spore_stims/complex_08_A_b.gif","left","","","","",""
"","null","html-keyboard-response","220","577711","0.0-41.0-0.7","SS1613079895352","","","null","","","","","<p><img src= images/blank.png width =""200"" height = ""200"" style = ""float:right""></p><p><img src=images/blank.png width =""800"" height = ""200""></p>","","","","","","","","","","","",""
"","2217.5349999997998","sequential-stimulus-presentation","221","580737","0.0-41.0-1.7","SS1613079895352","trial","","40","800","3017.5349999997998","images/stimuli/spore_stims/complex_08_A_b.gif","images/stimuli/spore_stims/complex_02_B_b.gif","","","","","11","complex_dissimilar","images/stimuli/spore_stims/complex_02_B_b.gif","right","","","","",""
"","1244.679999999702","html-keyboard-response","222","581991","0.0-42.0","SS1613079895352","pref_question","","50","","","","","<video width ='960' height = '540' style='padding-top:8%' autoplay muted><source src='images/stimuli/wall_pref.mp4' type='video/mp4'></video>","2","middle","45%","11","","","","","","","",""
"","2998.645000001532","sequential-stimulus-presentation","223","585804","0.0-43.0","SS1613079895352","pref_reveal","","40","800","3798.645000001532","null","null","","","","","11","","","","novel","","","",""
"","null","html-keyboard-response","224","586787","0.0-44.0-0.0","SS1613079895352","","","null","","","","","<p><img src= images/blank.png width =""200"" height = ""200"" style = ""float:right""></p><p><img src=images/blank.png width =""800"" height = ""200""></p>","","","","","","","","","","","",""
"","3240.3350000004284","sequential-stimulus-presentation","225","590838","0.0-44.0-1.0","SS1613079895352","trial","","40","800","4040.3350000004284","images/stimuli/spore_stims/complex_04_B_c.gif","images/stimuli/spore_stims/complex_04_A_c.gif","","","","","12","complex_similar","images/stimuli/spore_stims/complex_04_A_c.gif","right","","","","",""
"","null","html-keyboard-response","226","592004","0.0-44.0-0.1","SS1613079895352","","","null","","","","","<p><img src= images/blank.png width =""200"" height = ""200"" style = ""float:right""></p><p><img src=images/blank.png width =""800"" height = ""200""></p>","","","","","","","","","","","",""
"","2252.145000000368","sequential-stimulus-presentation","227","595067","0.0-44.0-1.1","SS1613079895352","trial","","40","800","3052.145000000368","images/stimuli/spore_stims/complex_04_B_c.gif","images/stimuli/spore_stims/complex_04_A_c.gif","","","","","12","complex_similar","images/stimuli/spore_stims/complex_04_A_c.gif","right","","","","",""
"","null","html-keyboard-response","228","596039","0.0-44.0-0.2","SS1613079895352","","","null","","","","","<p><img src= images/blank.png width =""200"" height = ""200"" style = ""float:right""></p><p><img src=images/blank.png width =""800"" height = ""200""></p>","","","","","","","","","","","",""
"","3769.609999999404","sequential-stimulus-presentation","229","600620","0.0-44.0-1.2","SS1613079895352","trial","","40","800","4569.609999999404","images/stimuli/spore_stims/complex_04_B_c.gif","images/stimuli/spore_stims/complex_04_A_c.gif","","","","","12","complex_similar","images/stimuli/spore_stims/complex_04_B_c.gif","left","","","","",""
"","null","html-keyboard-response","230","601446","0.0-44.0-0.3","SS1613079895352","","","null","","","","","<p><img src= images/blank.png width =""200"" height = ""200"" style = ""float:right""></p><p><img src=images/blank.png width =""800"" height = ""200""></p>","","","","","","","","","","","",""
"","3254.6700000002747","sequential-stimulus-presentation","231","605510","0.0-44.0-1.3","SS1613079895352","trial","","40","800","4054.6700000002747","images/stimuli/spore_stims/complex_04_B_c.gif","images/stimuli/spore_stims/complex_04_A_c.gif","","","","","12","complex_similar","images/stimuli/spore_stims/complex_04_A_c.gif","right","","","","",""
"","null","html-keyboard-response","232","606573","0.0-44.0-0.4","SS1613079895352","","","null","","","","","<p><img src= images/blank.png width =""200"" height = ""200"" style = ""float:right""></p><p><img src=images/blank.png width =""800"" height = ""200""></p>","","","","","","","","","","","",""
"","1830.765000000596","sequential-stimulus-presentation","233","609214","0.0-44.0-1.4","SS1613079895352","trial","","40","800","2630.765000000596","images/stimuli/spore_stims/complex_04_B_c.gif","images/stimuli/spore_stims/complex_04_A_c.gif","","","","","12","complex_similar","images/stimuli/spore_stims/complex_04_A_c.gif","right","","","","",""
"","null","html-keyboard-response","234","610045","0.0-44.0-0.5","SS1613079895352","","","null","","","","","<p><img src= images/blank.png width =""200"" height = ""200"" style = ""float:right""></p><p><img src=images/blank.png width =""800"" height = ""200""></p>","","","","","","","","","","","",""
"","853.525000000489","sequential-stimulus-presentation","235","611712","0.0-44.0-1.5","SS1613079895352","trial","","40","800","1653.525000000489","images/stimuli/spore_stims/complex_04_B_c.gif","images/stimuli/spore_stims/complex_04_A_c.gif","","","","","12","complex_similar","images/stimuli/spore_stims/complex_04_A_c.gif","right","","","","",""
"","null","html-keyboard-response","236","612996","0.0-44.0-0.6","SS1613079895352","","","null","","","","","<p><img src= images/blank.png width =""200"" height = ""200"" style = ""float:right""></p><p><img src=images/blank.png width =""800"" height = ""200""></p>","","","","","","","","","","","",""
"","1031.8399999996182","sequential-stimulus-presentation","237","614839","0.0-44.0-1.6","SS1613079895352","trial","","40","800","1831.8399999996182","images/stimuli/spore_stims/complex_04_B_c.gif","images/stimuli/spore_stims/complex_04_A_c.gif","","","","","12","complex_similar","images/stimuli/spore_stims/complex_04_A_c.gif","right","","","","",""
"","null","html-keyboard-response","238","615800","0.0-44.0-0.7","SS1613079895352","","","null","","","","","<p><img src= images/blank.png width =""200"" height = ""200"" style = ""float:right""></p><p><img src=images/blank.png width =""800"" height = ""200""></p>","","","","","","","","","","","",""
"","750.3450000004377","sequential-stimulus-presentation","239","617361","0.0-44.0-1.7","SS1613079895352","trial","","40","800","1550.3450000004377","images/stimuli/spore_stims/complex_04_B_c.gif","images/stimuli/spore_stims/complex_04_A_c.gif","","","","","12","complex_similar","images/stimuli/spore_stims/complex_04_A_c.gif","right","","","","",""
"","1517.3049999993527","html-keyboard-response","240","618888","0.0-45.0","SS1613079895352","pref_question","","50","","","","","<video width ='960' height = '540' style='padding-top:8%' autoplay muted><source src='images/stimuli/wall_pref.mp4' type='video/mp4'></video>","2","middle","45%","12","","","","","","","",""
"","3273.8349999999627","sequential-stimulus-presentation","241","622970","0.0-46.0","SS1613079895352","pref_reveal","","40","800","4073.8349999999627","null","null","","","","","12","","","","novel","","","",""
"","null","html-keyboard-response","242","623832","0.0-47.0-0.0","SS1613079895352","","","null","","","","","<p><img src= images/blank.png width =""200"" height = ""200"" style = ""float:right""></p><p><img src=images/blank.png width =""800"" height = ""200""></p>","","","","","","","","","","","",""
"","2383.0449999987613","sequential-stimulus-presentation","243","627025","0.0-47.0-1.0","SS1613079895352","trial","","40","800","3183.0449999987613","images/stimuli/spore_stims/complex_14_A_b.gif","images/stimuli/spore_stims/complex_18_A_c.gif","","","","","13","complex_dissimilar","images/stimuli/spore_stims/complex_18_A_c.gif","left","","","","",""
"","null","html-keyboard-response","244","628114","0.0-47.0-0.1","SS1613079895352","","","null","","","","","<p><img src= images/blank.png width =""200"" height = ""200"" style = ""float:right""></p><p><img src=images/blank.png width =""800"" height = ""200""></p>","","","","","","","","","","","",""
"","2472.530000000843","sequential-stimulus-presentation","245","631399","0.0-47.0-1.1","SS1613079895352","trial","","40","800","3272.530000000843","images/stimuli/spore_stims/complex_14_A_b.gif","images/stimuli/spore_stims/complex_18_A_c.gif","","","","","13","complex_dissimilar","images/stimuli/spore_stims/complex_18_A_c.gif","left","","","","",""
"","null","html-keyboard-response","246","632355","0.0-47.0-0.2","SS1613079895352","","","null","","","","","<p><img src= images/blank.png width =""200"" height = ""200"" style = ""float:right""></p><p><img src=images/blank.png width =""800"" height = ""200""></p>","","","","","","","","","","","",""
"","1148.790000001085","sequential-stimulus-presentation","247","634314","0.0-47.0-1.2","SS1613079895352","trial","","40","800","1948.790000001085","images/stimuli/spore_stims/complex_14_A_b.gif","images/stimuli/spore_stims/complex_18_A_c.gif","","","","","13","complex_dissimilar","images/stimuli/spore_stims/complex_18_A_c.gif","left","","","","",""
"","null","html-keyboard-response","248","635183","0.0-47.0-0.3","SS1613079895352","","","null","","","","","<p><img src= images/blank.png width =""200"" height = ""200"" style = ""float:right""></p><p><img src=images/blank.png width =""800"" height = ""200""></p>","","","","","","","","","","","",""
"","630.5499999998137","sequential-stimulus-presentation","249","636622","0.0-47.0-1.3","SS1613079895352","trial","","40","800","1430.5499999998137","images/stimuli/spore_stims/complex_14_A_b.gif","images/stimuli/spore_stims/complex_18_A_c.gif","","","","","13","complex_dissimilar","images/stimuli/spore_stims/complex_18_A_c.gif","left","","","","",""
"","null","html-keyboard-response","250","637677","0.0-47.0-0.4","SS1613079895352","","","null","","","","","<p><img src= images/blank.png width =""200"" height = ""200"" style = ""float:right""></p><p><img src=images/blank.png width =""800"" height = ""200""></p>","","","","","","","","","","","",""
"","770.7000000008848","sequential-stimulus-presentation","251","639256","0.0-47.0-1.4","SS1613079895352","trial","","40","800","1570.7000000008848","images/stimuli/spore_stims/complex_14_A_b.gif","images/stimuli/spore_stims/complex_18_A_c.gif","","","","","13","complex_dissimilar","images/stimuli/spore_stims/complex_18_A_c.gif","left","","","","",""
"","null","html-keyboard-response","252","640134","0.0-47.0-0.5","SS1613079895352","","","null","","","","","<p><img src= images/blank.png width =""200"" height = ""200"" style = ""float:right""></p><p><img src=images/blank.png width =""800"" height = ""200""></p>","","","","","","","","","","","",""
"","862.5000000011642","sequential-stimulus-presentation","253","641804","0.0-47.0-1.5","SS1613079895352","trial","","40","800","1662.5000000011642","images/stimuli/spore_stims/complex_14_A_b.gif","images/stimuli/spore_stims/complex_18_A_c.gif","","","","","13","complex_dissimilar","images/stimuli/spore_stims/complex_18_A_c.gif","left","","","","",""
"","null","html-keyboard-response","254","642737","0.0-47.0-0.6","SS1613079895352","","","null","","","","","<p><img src= images/blank.png width =""200"" height = ""200"" style = ""float:right""></p><p><img src=images/blank.png width =""800"" height = ""200""></p>","","","","","","","","","","","",""
"","1678.7050000003073","sequential-stimulus-presentation","255","645223","0.0-47.0-1.6","SS1613079895352","trial","","40","800","2478.7050000003073","images/stimuli/spore_stims/complex_14_A_b.gif","images/stimuli/spore_stims/complex_18_A_c.gif","","","","","13","complex_dissimilar","images/stimuli/spore_stims/complex_14_A_b.gif","right","","","","",""
"","null","html-keyboard-response","256","646378","0.0-47.0-0.7","SS1613079895352","","","null","","","","","<p><img src= images/blank.png width =""200"" height = ""200"" style = ""float:right""></p><p><img src=images/blank.png width =""800"" height = ""200""></p>","","","","","","","","","","","",""
"","1133.2399999992922","sequential-stimulus-presentation","257","648325","0.0-47.0-1.7","SS1613079895352","trial","","40","800","1933.2399999992922","images/stimuli/spore_stims/complex_14_A_b.gif","images/stimuli/spore_stims/complex_18_A_c.gif","","","","","13","complex_dissimilar","images/stimuli/spore_stims/complex_18_A_c.gif","left","","","","",""
"","1751.275000000489","html-keyboard-response","258","650086","0.0-48.0","SS1613079895352","pref_question","","50","","","","","<video width ='960' height = '540' style='padding-top:8%' autoplay muted><source src='images/stimuli/wall_pref.mp4' type='video/mp4'></video>","2","middle","45%","13","","","","","","","",""
"","3336.7999999991152","sequential-stimulus-presentation","259","654234","0.0-49.0","SS1613079895352","pref_reveal","","40","800","4136.799999999115","null","null","","","","","13","","","","novel","","","",""
"","null","html-keyboard-response","260","655312","0.0-50.0-0.0","SS1613079895352","","","null","","","","","<p><img src= images/blank.png width =""200"" height = ""200"" style = ""float:right""></p><p><img src=images/blank.png width =""800"" height = ""200""></p>","","","","","","","","","","","",""
"","1713.60499999905","sequential-stimulus-presentation","261","657849","0.0-50.0-1.0","SS1613079895352","trial","","40","800","2513.60499999905","images/stimuli/spore_stims/simple_15_A_d.gif","images/stimuli/spore_stims/simple_20_A_a.gif","","","","","14","simple_dissimilar","images/stimuli/spore_stims/simple_20_A_a.gif","right","","","","",""
"","null","html-keyboard-response","262","659007","0.0-50.0-0.1","SS1613079895352","","","null","","","","","<p><img src= images/blank.png width =""200"" height = ""200"" style = ""float:right""></p><p><img src=images/blank.png width =""800"" height = ""200""></p>","","","","","","","","","","","",""
"","1089.6499999999069","sequential-stimulus-presentation","263","660909","0.0-50.0-1.1","SS1613079895352","trial","","40","800","1889.6499999999069","images/stimuli/spore_stims/simple_15_A_d.gif","images/stimuli/spore_stims/simple_20_A_a.gif","","","","","14","simple_dissimilar","images/stimuli/spore_stims/simple_20_A_a.gif","right","","","","",""
"","null","html-keyboard-response","264","662141","0.0-50.0-0.2","SS1613079895352","","","null","","","","","<p><img src= images/blank.png width =""200"" height = ""200"" style = ""float:right""></p><p><img src=images/blank.png width =""800"" height = ""200""></p>","","","","","","","","","","","",""
"","302.28499999968335","sequential-stimulus-presentation","265","663257","0.0-50.0-1.2","SS1613079895352","trial","","40","800","1102.2849999996834","images/stimuli/spore_stims/simple_15_A_d.gif","images/stimuli/spore_stims/simple_20_A_a.gif","","","","","14","simple_dissimilar","images/stimuli/spore_stims/simple_20_A_a.gif","right","","","","",""
"","null","html-keyboard-response","266","664174","0.0-50.0-0.3","SS1613079895352","","","null","","","","","<p><img src= images/blank.png width =""200"" height = ""200"" style = ""float:right""></p><p><img src=images/blank.png width =""800"" height = ""200""></p>","","","","","","","","","","","",""
"","1586.0200000007171","sequential-stimulus-presentation","267","666574","0.0-50.0-1.3","SS1613079895352","trial","","40","800","2386.020000000717","images/stimuli/spore_stims/simple_15_A_d.gif","images/stimuli/spore_stims/simple_20_A_a.gif","","","","","14","simple_dissimilar","images/stimuli/spore_stims/simple_20_A_a.gif","right","","","","",""
"","null","html-keyboard-response","268","667638","0.0-50.0-0.4","SS1613079895352","","","null","","","","","<p><img src= images/blank.png width =""200"" height = ""200"" style = ""float:right""></p><p><img src=images/blank.png width =""800"" height = ""200""></p>","","","","","","","","","","","",""
"","356.2299999995157","sequential-stimulus-presentation","269","668807","0.0-50.0-1.4","SS1613079895352","trial","","40","800","1156.2299999995157","images/stimuli/spore_stims/simple_15_A_d.gif","images/stimuli/spore_stims/simple_20_A_a.gif","","","","","14","simple_dissimilar","images/stimuli/spore_stims/simple_20_A_a.gif","right","","","","",""
"","null","html-keyboard-response","270","670073","0.0-50.0-0.5","SS1613079895352","","","null","","","","","<p><img src= images/blank.png width =""200"" height = ""200"" style = ""float:right""></p><p><img src=images/blank.png width =""800"" height = ""200""></p>","","","","","","","","","","","",""
"","773.7499999984866","sequential-stimulus-presentation","271","671657","0.0-50.0-1.5","SS1613079895352","trial","","40","800","1573.7499999984866","images/stimuli/spore_stims/simple_15_A_d.gif","images/stimuli/spore_stims/simple_20_A_a.gif","","","","","14","simple_dissimilar","images/stimuli/spore_stims/simple_20_A_a.gif","right","","","","",""
"","null","html-keyboard-response","272","672573","0.0-50.0-0.6","SS1613079895352","","","null","","","","","<p><img src= images/blank.png width =""200"" height = ""200"" style = ""float:right""></p><p><img src=images/blank.png width =""800"" height = ""200""></p>","","","","","","","","","","","",""
"","641.0649999998277","sequential-stimulus-presentation","273","674026","0.0-50.0-1.6","SS1613079895352","trial","","40","800","1441.0649999998277","images/stimuli/spore_stims/simple_15_A_d.gif","images/stimuli/spore_stims/simple_20_A_a.gif","","","","","14","simple_dissimilar","images/stimuli/spore_stims/simple_20_A_a.gif","right","","","","",""
"","null","html-keyboard-response","274","674858","0.0-50.0-0.7","SS1613079895352","","","null","","","","","<p><img src= images/blank.png width =""200"" height = ""200"" style = ""float:right""></p><p><img src=images/blank.png width =""800"" height = ""200""></p>","","","","","","","","","","","",""
"","2439.945000000065","sequential-stimulus-presentation","275","678113","0.0-50.0-1.7","SS1613079895352","trial","","40","800","3239.945000000065","images/stimuli/spore_stims/simple_15_A_d.gif","images/stimuli/spore_stims/simple_20_A_a.gif","","","","","14","simple_dissimilar","images/stimuli/spore_stims/simple_15_A_d.gif","left","","","","",""
"","2140.53000000061","html-keyboard-response","276","680263","0.0-51.0","SS1613079895352","pref_question","","50","","","","","<video width ='960' height = '540' style='padding-top:8%' autoplay muted><source src='images/stimuli/wall_pref.mp4' type='video/mp4'></video>","2","middle","45%","14","","","","","","","",""
"","3483.830000001006","sequential-stimulus-presentation","277","684560","0.0-52.0","SS1613079895352","pref_reveal","","40","800","4283.830000001006","null","null","","","","","14","","","","novel","","","",""
"","null","html-keyboard-response","278","685600","0.0-53.0-0.0","SS1613079895352","","","null","","","","","<p><img src= images/blank.png width =""200"" height = ""200"" style = ""float:right""></p><p><img src=images/blank.png width =""800"" height = ""200""></p>","","","","","","","","","","","",""
"","1556.3600000004517","sequential-stimulus-presentation","279","687984","0.0-53.0-1.0","SS1613079895352","trial","","40","800","2356.3600000004517","images/stimuli/spore_stims/complex_13_A_c.gif","images/stimuli/spore_stims/complex_08_B_c.gif","","","","","15","complex_dissimilar","images/stimuli/spore_stims/complex_08_B_c.gif","right","","","","",""
"","null","html-keyboard-response","280","688832","0.0-53.0-0.1","SS1613079895352","","","null","","","","","<p><img src= images/blank.png width =""200"" height = ""200"" style = ""float:right""></p><p><img src=images/blank.png width =""800"" height = ""200""></p>","","","","","","","","","","","",""
"","783.1850000001723","sequential-stimulus-presentation","281","690424","0.0-53.0-1.1","SS1613079895352","trial","","40","800","1583.1850000001723","images/stimuli/spore_stims/complex_13_A_c.gif","images/stimuli/spore_stims/complex_08_B_c.gif","","","","","15","complex_dissimilar","images/stimuli/spore_stims/complex_08_B_c.gif","right","","","","",""
"","null","html-keyboard-response","282","691449","0.0-53.0-0.2","SS1613079895352","","","null","","","","","<p><img src= images/blank.png width =""200"" height = ""200"" style = ""float:right""></p><p><img src=images/blank.png width =""800"" height = ""200""></p>","","","","","","","","","","","",""
"","353.2299999988172","sequential-stimulus-presentation","283","692616","0.0-53.0-1.2","SS1613079895352","trial","","40","800","1153.2299999988172","images/stimuli/spore_stims/complex_13_A_c.gif","images/stimuli/spore_stims/complex_08_B_c.gif","","","","","15","complex_dissimilar","images/stimuli/spore_stims/complex_08_B_c.gif","right","","","","",""
"","null","html-keyboard-response","284","693631","0.0-53.0-0.3","SS1613079895352","","","null","","","","","<p><img src= images/blank.png width =""200"" height = ""200"" style = ""float:right""></p><p><img src=images/blank.png width =""800"" height = ""200""></p>","","","","","","","","","","","",""
"","270.4200000007404","sequential-stimulus-presentation","285","694714","0.0-53.0-1.3","SS1613079895352","trial","","40","800","1070.4200000007404","images/stimuli/spore_stims/complex_13_A_c.gif","images/stimuli/spore_stims/complex_08_B_c.gif","","","","","15","complex_dissimilar","images/stimuli/spore_stims/complex_08_B_c.gif","right","","","","",""
"","null","html-keyboard-response","286","695895","0.0-53.0-0.4","SS1613079895352","","","null","","","","","<p><img src= images/blank.png width =""200"" height = ""200"" style = ""float:right""></p><p><img src=images/blank.png width =""800"" height = ""200""></p>","","","","","","","","","","","",""
"","505.81499999854714","sequential-stimulus-presentation","287","697213","0.0-53.0-1.4","SS1613079895352","trial","","40","800","1305.8149999985471","images/stimuli/spore_stims/complex_13_A_c.gif","images/stimuli/spore_stims/complex_08_B_c.gif","","","","","15","complex_dissimilar","images/stimuli/spore_stims/complex_08_B_c.gif","right","","","","",""
"","null","html-keyboard-response","288","698050","0.0-53.0-0.5","SS1613079895352","","","null","","","","","<p><img src= images/blank.png width =""200"" height = ""200"" style = ""float:right""></p><p><img src=images/blank.png width =""800"" height = ""200""></p>","","","","","","","","","","","",""
"","3436.8349999985658","sequential-stimulus-presentation","289","702299","0.0-53.0-1.5","SS1613079895352","trial","","40","800","4236.834999998566","images/stimuli/spore_stims/complex_13_A_c.gif","images/stimuli/spore_stims/complex_08_B_c.gif","","","","","15","complex_dissimilar","images/stimuli/spore_stims/complex_13_A_c.gif","middle","","","","",""
"","null","html-keyboard-response","290","703207","0.0-53.0-0.6","SS1613079895352","","","null","","","","","<p><img src= images/blank.png width =""200"" height = ""200"" style = ""float:right""></p><p><img src=images/blank.png width =""800"" height = ""200""></p>","","","","","","","","","","","",""
"","1140.9050000001444","sequential-stimulus-presentation","291","705161","0.0-53.0-1.6","SS1613079895352","trial","","40","800","1940.9050000001444","images/stimuli/spore_stims/complex_13_A_c.gif","images/stimuli/spore_stims/complex_08_B_c.gif","","","","","15","complex_dissimilar","images/stimuli/spore_stims/complex_08_B_c.gif","right","","","","",""
"","null","html-keyboard-response","292","706429","0.0-53.0-0.7","SS1613079895352","","","null","","","","","<p><img src= images/blank.png width =""200"" height = ""200"" style = ""float:right""></p><p><img src=images/blank.png width =""800"" height = ""200""></p>","","","","","","","","","","","",""
"","376.86999999999534","sequential-stimulus-presentation","293","707621","0.0-53.0-1.7","SS1613079895352","trial","","40","800","1176.8699999999953","images/stimuli/spore_stims/complex_13_A_c.gif","images/stimuli/spore_stims/complex_08_B_c.gif","","","","","15","complex_dissimilar","images/stimuli/spore_stims/complex_08_B_c.gif","right","","","","",""
"","1847.640000000014","html-keyboard-response","294","709478","0.0-54.0","SS1613079895352","pref_question","","49","","","","","<video width ='960' height = '540' style='padding-top:8%' autoplay muted><source src='images/stimuli/wall_pref.mp4' type='video/mp4'></video>","1","left","25%","15","","","","","","","",""
"","2323.3850000015227","sequential-stimulus-presentation","295","712615","0.0-55.0","SS1613079895352","pref_reveal","","40","800","3123.3850000015227","null","null","","","","","15","","","","novel","","","",""
"","null","html-keyboard-response","296","713735","0.0-56.0-0.0","SS1613079895352","","","null","","","","","<p><img src= images/blank.png width =""200"" height = ""200"" style = ""float:right""></p><p><img src=images/blank.png width =""800"" height = ""200""></p>","","","","","","","","","","","",""
"","1479.9300000013318","sequential-stimulus-presentation","297","716027","0.0-56.0-1.0","SS1613079895352","trial","","40","800","2279.930000001332","images/stimuli/spore_stims/simple_14_A_d.gif","images/stimuli/spore_stims/simple_10_A_d.gif","","","","","16","simple_dissimilar","images/stimuli/spore_stims/simple_10_A_d.gif","left","","","","",""
"","null","html-keyboard-response","298","716863","0.0-56.0-0.1","SS1613079895352","","","null","","","","","<p><img src= images/blank.png width =""200"" height = ""200"" style = ""float:right""></p><p><img src=images/blank.png width =""800"" height = ""200""></p>","","","","","","","","","","","",""
"","726.7100000007777","sequential-stimulus-presentation","299","718403","0.0-56.0-1.1","SS1613079895352","trial","","40","800","1526.7100000007777","images/stimuli/spore_stims/simple_14_A_d.gif","images/stimuli/spore_stims/simple_10_A_d.gif","","","","","16","simple_dissimilar","images/stimuli/spore_stims/simple_10_A_d.gif","left","","","","",""
"","null","html-keyboard-response","300","719502","0.0-56.0-0.2","SS1613079895352","","","null","","","","","<p><img src= images/blank.png width =""200"" height = ""200"" style = ""float:right""></p><p><img src=images/blank.png width =""800"" height = ""200""></p>","","","","","","","","","","","",""
"","1297.4950000006938","sequential-stimulus-presentation","301","721614","0.0-56.0-1.2","SS1613079895352","trial","","40","800","2097.495000000694","images/stimuli/spore_stims/simple_14_A_d.gif","images/stimuli/spore_stims/simple_10_A_d.gif","","","","","16","simple_dissimilar","images/stimuli/spore_stims/simple_10_A_d.gif","left","","","","",""
"","null","html-keyboard-response","302","722870","0.0-56.0-0.3","SS1613079895352","","","null","","","","","<p><img src= images/blank.png width =""200"" height = ""200"" style = ""float:right""></p><p><img src=images/blank.png width =""800"" height = ""200""></p>","","","","","","","","","","","",""
"","1239.6499999995576","sequential-stimulus-presentation","303","724922","0.0-56.0-1.3","SS1613079895352","trial","","40","800","2039.6499999995576","images/stimuli/spore_stims/simple_14_A_d.gif","images/stimuli/spore_stims/simple_10_A_d.gif","","","","","16","simple_dissimilar","images/stimuli/spore_stims/simple_10_A_d.gif","left","","","","",""
"","null","html-keyboard-response","304","725801","0.0-56.0-0.4","SS1613079895352","","","null","","","","","<p><img src= images/blank.png width =""200"" height = ""200"" style = ""float:right""></p><p><img src=images/blank.png width =""800"" height = ""200""></p>","","","","","","","","","","","",""
"","1316.0650000008754","sequential-stimulus-presentation","305","727931","0.0-56.0-1.4","SS1613079895352","trial","","40","800","2116.0650000008754","images/stimuli/spore_stims/simple_14_A_d.gif","images/stimuli/spore_stims/simple_10_A_d.gif","","","","","16","simple_dissimilar","images/stimuli/spore_stims/simple_10_A_d.gif","left","","","","",""
"","null","html-keyboard-response","306","728815","0.0-56.0-0.5","SS1613079895352","","","null","","","","","<p><img src= images/blank.png width =""200"" height = ""200"" style = ""float:right""></p><p><img src=images/blank.png width =""800"" height = ""200""></p>","","","","","","","","","","","",""
"","1709.8299999997253","sequential-stimulus-presentation","307","731338","0.0-56.0-1.5","SS1613079895352","trial","","40","800","2509.8299999997253","images/stimuli/spore_stims/simple_14_A_d.gif","images/stimuli/spore_stims/simple_10_A_d.gif","","","","","16","simple_dissimilar","images/stimuli/spore_stims/simple_14_A_d.gif","right","","","","",""
"","null","html-keyboard-response","308","732300","0.0-56.0-0.6","SS1613079895352","","","null","","","","","<p><img src= images/blank.png width =""200"" height = ""200"" style = ""float:right""></p><p><img src=images/blank.png width =""800"" height = ""200""></p>","","","","","","","","","","","",""
"","1282.5950000006706","sequential-stimulus-presentation","309","734394","0.0-56.0-1.6","SS1613079895352","trial","","40","800","2082.5950000006706","images/stimuli/spore_stims/simple_14_A_d.gif","images/stimuli/spore_stims/simple_10_A_d.gif","","","","","16","simple_dissimilar","images/stimuli/spore_stims/simple_10_A_d.gif","left","","","","",""
"","null","html-keyboard-response","310","735225","0.0-56.0-0.7","SS1613079895352","","","null","","","","","<p><img src= images/blank.png width =""200"" height = ""200"" style = ""float:right""></p><p><img src=images/blank.png width =""800"" height = ""200""></p>","","","","","","","","","","","",""
"","1248.4600000007777","sequential-stimulus-presentation","311","737301","0.0-56.0-1.7","SS1613079895352","trial","","40","800","2048.4600000007777","images/stimuli/spore_stims/simple_14_A_d.gif","images/stimuli/spore_stims/simple_10_A_d.gif","","","","","16","simple_dissimilar","images/stimuli/spore_stims/simple_10_A_d.gif","left","","","","",""
"","1798.7700000012992","html-keyboard-response","312","739112","0.0-57.0","SS1613079895352","pref_question","","50","","","","","<video width ='960' height = '540' style='padding-top:8%' autoplay muted><source src='images/stimuli/wall_pref.mp4' type='video/mp4'></video>","2","middle","45%","16","","","","","","","",""
