"view_history","rt","trial_type","trial_index","time_elapsed","internal_node_id","subject","stimulus_type","trial_stimulus","key_press","minimum_viewing_duration","trial_looking_time","stimulus","wall_pref","location","location_percent","block_number","block_type","stimulus_displayed","position_displayed","stim_type_selected","responses","question_order","stimulus_left","stimulus_right"
"[{""page_index"":0,""viewing_time"":16669.804999997723}]","16670.035000002827","instructions","0","16671","0.0-0.0","SS1612933089163","","","","","","","","","","","","","","","","","",""
"[{""page_index"":0,""viewing_time"":19708.245000001625},{""page_index"":1,""viewing_time"":10828.39999999851}]","30536.790000005567","instructions","1","49220","0.0-1.0","SS1612933089163","instructions","","","","","","","","","","","","","","","","",""
"","10190.184999999474","sequential-stimulus-presentation","2","60214","0.0-2.0","SS1612933089163","","","40","800","10990.184999999474","","","","","","","","","","","","",""
"","3804.7399999995832","sequential-stimulus-presentation","3","64822","0.0-3.0","SS1612933089163","","","40","800","4604.739999999583","","","","","","","","","","","","",""
"[{""page_index"":0,""viewing_time"":7961.765000000014}]","7961.870000006456","instructions","4","72784","0.0-4.0","SS1612933089163","instructions","","","","","","","","","","","","","","","","",""
"","22194.439999999304","html-keyboard-response","5","94981","0.0-5.0","SS1612933089163","instructions","","97","","","<video width ='960' height = '540' autoplay muted><source src='images/stimuli/wall_pref.mp4' type='video/mp4'></video>","1","left","25%","","","","","","","","",""
"","2869.185000003199","sequential-stimulus-presentation","6","98657","0.0-6.0","SS1612933089163","pref_reveal","","40","800","3669.185000003199","","","","","","","","","","","","",""
"[{""page_index"":0,""viewing_time"":15072.080000005371},{""page_index"":1,""viewing_time"":12512.165000000095},{""page_index"":2,""viewing_time"":2371.9049999999697},{""page_index"":3,""viewing_time"":1900.019999993674}]","31856.299999999464","instructions","7","130516","0.0-7.0","SS1612933089163","instructions","","","","","","","","","","","","","","","","",""
"","null","html-keyboard-response","8","131368","0.0-8.0-0.0","SS1612933089163","","","null","","","<p><img src= images/blank.png width =""200"" height = ""200"" style = ""float:right""></p><p><img src=images/blank.png width =""800"" height = ""200""></p>","","","","","","","","","","","",""
"","23.040000000037253","sequential-stimulus-presentation","9","132205","0.0-8.0-1.0","SS1612933089163","trial","","40","800","823.0400000000373","","","","","0","simple_similar","images/stimuli/spore_stims/simple_12_B_d.gif","right","","","","",""
"","null","html-keyboard-response","10","133436","0.0-8.0-0.1","SS1612933089163","","","null","","","<p><img src= images/blank.png width =""200"" height = ""200"" style = ""float:right""></p><p><img src=images/blank.png width =""800"" height = ""200""></p>","","","","","","","","","","","",""
"","3217.725000002247","sequential-stimulus-presentation","11","137462","0.0-8.0-1.1","SS1612933089163","trial","","40","800","4017.725000002247","","","","","0","simple_similar","images/stimuli/spore_stims/simple_12_B_d.gif","right","","","","",""
"","null","html-keyboard-response","12","138449","0.0-8.0-0.2","SS1612933089163","","","null","","","<p><img src= images/blank.png width =""200"" height = ""200"" style = ""float:right""></p><p><img src=images/blank.png width =""800"" height = ""200""></p>","","","","","","","","","","","",""
"","1935.3449999980512","sequential-stimulus-presentation","13","141201","0.0-8.0-1.2","SS1612933089163","trial","","40","800","2735.344999998051","","","","","0","simple_similar","images/stimuli/spore_stims/simple_12_B_d.gif","right","","","","",""
"","null","html-keyboard-response","14","142449","0.0-8.0-0.3","SS1612933089163","","","null","","","<p><img src= images/blank.png width =""200"" height = ""200"" style = ""float:right""></p><p><img src=images/blank.png width =""800"" height = ""200""></p>","","","","","","","","","","","",""
"","3304.344999996829","sequential-stimulus-presentation","15","146564","0.0-8.0-1.3","SS1612933089163","trial","","40","800","4104.344999996829","","","","","0","simple_similar","images/stimuli/spore_stims/simple_12_A_d.gif","middle","","","","",""
"","null","html-keyboard-response","16","147702","0.0-8.0-0.4","SS1612933089163","","","null","","","<p><img src= images/blank.png width =""200"" height = ""200"" style = ""float:right""></p><p><img src=images/blank.png width =""800"" height = ""200""></p>","","","","","","","","","","","",""
"","3935.714999999618","sequential-stimulus-presentation","17","152448","0.0-8.0-1.4","SS1612933089163","trial","","40","800","4735.714999999618","","","","","0","simple_similar","images/stimuli/spore_stims/simple_12_B_d.gif","right","","","","",""
"","null","html-keyboard-response","18","153663","0.0-8.0-0.5","SS1612933089163","","","null","","","<p><img src= images/blank.png width =""200"" height = ""200"" style = ""float:right""></p><p><img src=images/blank.png width =""800"" height = ""200""></p>","","","","","","","","","","","",""
"","1175.8449999979348","sequential-stimulus-presentation","19","155651","0.0-8.0-1.5","SS1612933089163","trial","","40","800","1975.8449999979348","","","","","0","simple_similar","images/stimuli/spore_stims/simple_12_B_d.gif","right","","","","",""
"","null","html-keyboard-response","20","156474","0.0-8.0-0.6","SS1612933089163","","","null","","","<p><img src= images/blank.png width =""200"" height = ""200"" style = ""float:right""></p><p><img src=images/blank.png width =""800"" height = ""200""></p>","","","","","","","","","","","",""
"","1169.1849999988335","sequential-stimulus-presentation","21","158458","0.0-8.0-1.6","SS1612933089163","trial","","40","800","1969.1849999988335","","","","","0","simple_similar","images/stimuli/spore_stims/simple_12_B_d.gif","right","","","","",""
"","null","html-keyboard-response","22","159494","0.0-8.0-0.7","SS1612933089163","","","null","","","<p><img src= images/blank.png width =""200"" height = ""200"" style = ""float:right""></p><p><img src=images/blank.png width =""800"" height = ""200""></p>","","","","","","","","","","","",""
"","1632.7049999963492","sequential-stimulus-presentation","23","161936","0.0-8.0-1.7","SS1612933089163","trial","","40","800","2432.704999996349","","","","","0","simple_similar","images/stimuli/spore_stims/simple_12_B_d.gif","right","","","","",""
"","1541.6750000003958","html-keyboard-response","24","163479","0.0-9.0","SS1612933089163","pref_question","","97","","","<video width ='960' height = '540' style='padding-top:8%' autoplay muted><source src='images/stimuli/wall_pref.mp4' type='video/mp4'></video>","1","left","25%","0","","","","","","","",""
"","3637.3900000035064","sequential-stimulus-presentation","25","167922","0.0-10.0","SS1612933089163","pref_reveal","","40","800","4437.390000003506","","","","","0","","","","novel","","","",""
"","null","html-keyboard-response","26","169044","0.0-11.0-0.0","SS1612933089163","","","null","","","<p><img src= images/blank.png width =""200"" height = ""200"" style = ""float:right""></p><p><img src=images/blank.png width =""800"" height = ""200""></p>","","","","","","","","","","","",""
"","2970.0099999972736","sequential-stimulus-presentation","27","172828","0.0-11.0-1.0","SS1612933089163","trial","","40","800","3770.0099999972736","","","","","1","complex_similar","images/stimuli/spore_stims/complex_12_B_c.gif","middle","","","","",""
"","null","html-keyboard-response","28","174107","0.0-11.0-0.1","SS1612933089163","","","null","","","<p><img src= images/blank.png width =""200"" height = ""200"" style = ""float:right""></p><p><img src=images/blank.png width =""800"" height = ""200""></p>","","","","","","","","","","","",""
"","2019.5450000028359","sequential-stimulus-presentation","29","176937","0.0-11.0-1.1","SS1612933089163","trial","","40","800","2819.545000002836","","","","","1","complex_similar","images/stimuli/spore_stims/complex_12_B_c.gif","middle","","","","",""
"","null","html-keyboard-response","30","178097","0.0-11.0-0.2","SS1612933089163","","","null","","","<p><img src= images/blank.png width =""200"" height = ""200"" style = ""float:right""></p><p><img src=images/blank.png width =""800"" height = ""200""></p>","","","","","","","","","","","",""
"","2205.2550000007614","sequential-stimulus-presentation","31","181111","0.0-11.0-1.2","SS1612933089163","trial","","40","800","3005.2550000007614","","","","","1","complex_similar","images/stimuli/spore_stims/complex_12_B_c.gif","middle","","","","",""
"","null","html-keyboard-response","32","182270","0.0-11.0-0.3","SS1612933089163","","","null","","","<p><img src= images/blank.png width =""200"" height = ""200"" style = ""float:right""></p><p><img src=images/blank.png width =""800"" height = ""200""></p>","","","","","","","","","","","",""
"","1955.7500000009895","sequential-stimulus-presentation","33","185035","0.0-11.0-1.3","SS1612933089163","trial","","40","800","2755.7500000009895","","","","","1","complex_similar","images/stimuli/spore_stims/complex_12_B_c.gif","middle","","","","",""
"","null","html-keyboard-response","34","186055","0.0-11.0-0.4","SS1612933089163","","","null","","","<p><img src= images/blank.png width =""200"" height = ""200"" style = ""float:right""></p><p><img src=images/blank.png width =""800"" height = ""200""></p>","","","","","","","","","","","",""
"","2200.4149999993388","sequential-stimulus-presentation","35","189069","0.0-11.0-1.4","SS1612933089163","trial","","40","800","3000.4149999993388","","","","","1","complex_similar","images/stimuli/spore_stims/complex_12_B_c.gif","middle","","","","",""
"","null","html-keyboard-response","36","189927","0.0-11.0-0.5","SS1612933089163","","","null","","","<p><img src= images/blank.png width =""200"" height = ""200"" style = ""float:right""></p><p><img src=images/blank.png width =""800"" height = ""200""></p>","","","","","","","","","","","",""
"","1921.5649999969173","sequential-stimulus-presentation","37","192657","0.0-11.0-1.5","SS1612933089163","trial","","40","800","2721.5649999969173","","","","","1","complex_similar","images/stimuli/spore_stims/complex_12_B_c.gif","middle","","","","",""
"","null","html-keyboard-response","38","193557","0.0-11.0-0.6","SS1612933089163","","","null","","","<p><img src= images/blank.png width =""200"" height = ""200"" style = ""float:right""></p><p><img src=images/blank.png width =""800"" height = ""200""></p>","","","","","","","","","","","",""
"","1983.860000000277","sequential-stimulus-presentation","39","196357","0.0-11.0-1.6","SS1612933089163","trial","","40","800","2783.860000000277","","","","","1","complex_similar","images/stimuli/spore_stims/complex_12_B_c.gif","middle","","","","",""
"","null","html-keyboard-response","40","197227","0.0-11.0-0.7","SS1612933089163","","","null","","","<p><img src= images/blank.png width =""200"" height = ""200"" style = ""float:right""></p><p><img src=images/blank.png width =""800"" height = ""200""></p>","","","","","","","","","","","",""
"","2112.8399999943213","sequential-stimulus-presentation","41","200149","0.0-11.0-1.7","SS1612933089163","trial","","40","800","2912.8399999943213","","","","","1","complex_similar","images/stimuli/spore_stims/complex_12_A_c.gif","left","","","","",""
"","1262.4700000014855","html-keyboard-response","42","201417","0.0-12.0","SS1612933089163","pref_question","","99","","","<video width ='960' height = '540' style='padding-top:8%' autoplay muted><source src='images/stimuli/wall_pref.mp4' type='video/mp4'></video>","3","right","66%","1","","","","","","","",""
"","2597.7400000047055","sequential-stimulus-presentation","43","204828","0.0-13.0","SS1612933089163","pref_reveal","","40","800","3397.7400000047055","","","","","1","","","","novel","","","",""
"","null","html-keyboard-response","44","206039","0.0-14.0-0.0","SS1612933089163","","","null","","","<p><img src= images/blank.png width =""200"" height = ""200"" style = ""float:right""></p><p><img src=images/blank.png width =""800"" height = ""200""></p>","","","","","","","","","","","",""
"","2636.815000005299","sequential-stimulus-presentation","45","209492","0.0-14.0-1.0","SS1612933089163","trial","","40","800","3436.815000005299","","","","","2","simple_dissimilar","images/stimuli/spore_stims/simple_19_B_d.gif","left","","","","",""
"","null","html-keyboard-response","46","210718","0.0-14.0-0.1","SS1612933089163","","","null","","","<p><img src= images/blank.png width =""200"" height = ""200"" style = ""float:right""></p><p><img src=images/blank.png width =""800"" height = ""200""></p>","","","","","","","","","","","",""
"","2591.1100000012084","sequential-stimulus-presentation","47","214120","0.0-14.0-1.1","SS1612933089163","trial","","40","800","3391.1100000012084","","","","","2","simple_dissimilar","images/stimuli/spore_stims/simple_19_B_d.gif","left","","","","",""
"","null","html-keyboard-response","48","214988","0.0-14.0-0.2","SS1612933089163","","","null","","","<p><img src= images/blank.png width =""200"" height = ""200"" style = ""float:right""></p><p><img src=images/blank.png width =""800"" height = ""200""></p>","","","","","","","","","","","",""
"","2237.0200000004843","sequential-stimulus-presentation","49","218031","0.0-14.0-1.2","SS1612933089163","trial","","40","800","3037.0200000004843","","","","","2","simple_dissimilar","images/stimuli/spore_stims/simple_02_A_b.gif","middle","","","","",""
"","null","html-keyboard-response","50","218995","0.0-14.0-0.3","SS1612933089163","","","null","","","<p><img src= images/blank.png width =""200"" height = ""200"" style = ""float:right""></p><p><img src=images/blank.png width =""800"" height = ""200""></p>","","","","","","","","","","","",""
"","2083.324999999604","sequential-stimulus-presentation","51","221885","0.0-14.0-1.3","SS1612933089163","trial","","40","800","2883.324999999604","","","","","2","simple_dissimilar","images/stimuli/spore_stims/simple_19_B_d.gif","left","","","","",""
"","null","html-keyboard-response","52","223108","0.0-14.0-0.4","SS1612933089163","","","null","","","<p><img src= images/blank.png width =""200"" height = ""200"" style = ""float:right""></p><p><img src=images/blank.png width =""800"" height = ""200""></p>","","","","","","","","","","","",""
"","2721.799999999348","sequential-stimulus-presentation","53","226641","0.0-14.0-1.4","SS1612933089163","trial","","40","800","3521.799999999348","","","","","2","simple_dissimilar","images/stimuli/spore_stims/simple_19_B_d.gif","left","","","","",""
"","null","html-keyboard-response","54","227773","0.0-14.0-0.5","SS1612933089163","","","null","","","<p><img src= images/blank.png width =""200"" height = ""200"" style = ""float:right""></p><p><img src=images/blank.png width =""800"" height = ""200""></p>","","","","","","","","","","","",""
"","2905.749999998079","sequential-stimulus-presentation","55","231489","0.0-14.0-1.5","SS1612933089163","trial","","40","800","3705.749999998079","","","","","2","simple_dissimilar","images/stimuli/spore_stims/simple_19_B_d.gif","left","","","","",""
"","null","html-keyboard-response","56","232778","0.0-14.0-0.6","SS1612933089163","","","null","","","<p><img src= images/blank.png width =""200"" height = ""200"" style = ""float:right""></p><p><img src=images/blank.png width =""800"" height = ""200""></p>","","","","","","","","","","","",""
"","2976.584999996703","sequential-stimulus-presentation","57","236562","0.0-14.0-1.6","SS1612933089163","trial","","40","800","3776.584999996703","","","","","2","simple_dissimilar","images/stimuli/spore_stims/simple_19_B_d.gif","left","","","","",""
"","null","html-keyboard-response","58","237702","0.0-14.0-0.7","SS1612933089163","","","null","","","<p><img src= images/blank.png width =""200"" height = ""200"" style = ""float:right""></p><p><img src=images/blank.png width =""800"" height = ""200""></p>","","","","","","","","","","","",""
"","3049.364999998943","sequential-stimulus-presentation","59","241562","0.0-14.0-1.7","SS1612933089163","trial","","40","800","3849.364999998943","","","","","2","simple_dissimilar","images/stimuli/spore_stims/simple_19_B_d.gif","left","","","","",""
"","924.1350000011153","html-keyboard-response","60","242492","0.0-15.0","SS1612933089163","pref_question","","99","","","<video width ='960' height = '540' style='padding-top:8%' autoplay muted><source src='images/stimuli/wall_pref.mp4' type='video/mp4'></video>","3","right","66%","2","","","","","","","",""
"","2184.0099999972153","sequential-stimulus-presentation","61","245484","0.0-16.0","SS1612933089163","pref_reveal","","40","800","2984.0099999972153","","","","","2","","","","novel","","","",""
"","null","html-keyboard-response","62","246478","0.0-17.0-0.0","SS1612933089163","","","null","","","<p><img src= images/blank.png width =""200"" height = ""200"" style = ""float:right""></p><p><img src=images/blank.png width =""800"" height = ""200""></p>","","","","","","","","","","","",""
"","2159.1300000000047","sequential-stimulus-presentation","63","249452","0.0-17.0-1.0","SS1612933089163","trial","","40","800","2959.1300000000047","","","","","3","complex_dissimilar","images/stimuli/spore_stims/complex_20_A_a.gif","left","","","","",""
"","null","html-keyboard-response","64","250586","0.0-17.0-0.1","SS1612933089163","","","null","","","<p><img src= images/blank.png width =""200"" height = ""200"" style = ""float:right""></p><p><img src=images/blank.png width =""800"" height = ""200""></p>","","","","","","","","","","","",""
"","2154.965000001539","sequential-stimulus-presentation","65","253549","0.0-17.0-1.1","SS1612933089163","trial","","40","800","2954.965000001539","","","","","3","complex_dissimilar","images/stimuli/spore_stims/complex_20_A_a.gif","left","","","","",""
"","null","html-keyboard-response","66","254358","0.0-17.0-0.2","SS1612933089163","","","null","","","<p><img src= images/blank.png width =""200"" height = ""200"" style = ""float:right""></p><p><img src=images/blank.png width =""800"" height = ""200""></p>","","","","","","","","","","","",""
"","1961.3250000038533","sequential-stimulus-presentation","67","257133","0.0-17.0-1.2","SS1612933089163","trial","","40","800","2761.3250000038533","","","","","3","complex_dissimilar","images/stimuli/spore_stims/complex_20_A_a.gif","left","","","","",""
"","null","html-keyboard-response","68","258334","0.0-17.0-0.3","SS1612933089163","","","null","","","<p><img src= images/blank.png width =""200"" height = ""200"" style = ""float:right""></p><p><img src=images/blank.png width =""800"" height = ""200""></p>","","","","","","","","","","","",""
"","1805.769999999029","sequential-stimulus-presentation","69","260954","0.0-17.0-1.3","SS1612933089163","trial","","40","800","2605.769999999029","","","","","3","complex_dissimilar","images/stimuli/spore_stims/complex_20_A_a.gif","left","","","","",""
"","null","html-keyboard-response","70","262168","0.0-17.0-0.4","SS1612933089163","","","null","","","<p><img src= images/blank.png width =""200"" height = ""200"" style = ""float:right""></p><p><img src=images/blank.png width =""800"" height = ""200""></p>","","","","","","","","","","","",""
"","1971.3799999954063","sequential-stimulus-presentation","71","264951","0.0-17.0-1.4","SS1612933089163","trial","","40","800","2771.3799999954063","","","","","3","complex_dissimilar","images/stimuli/spore_stims/complex_20_A_a.gif","left","","","","",""
"","null","html-keyboard-response","72","266053","0.0-17.0-0.5","SS1612933089163","","","null","","","<p><img src= images/blank.png width =""200"" height = ""200"" style = ""float:right""></p><p><img src=images/blank.png width =""800"" height = ""200""></p>","","","","","","","","","","","",""
"","1960.7800000012503","sequential-stimulus-presentation","73","268827","0.0-17.0-1.5","SS1612933089163","trial","","40","800","2760.7800000012503","","","","","3","complex_dissimilar","images/stimuli/spore_stims/complex_09_A_a.gif","right","","","","",""
"","null","html-keyboard-response","74","269730","0.0-17.0-0.6","SS1612933089163","","","null","","","<p><img src= images/blank.png width =""200"" height = ""200"" style = ""float:right""></p><p><img src=images/blank.png width =""800"" height = ""200""></p>","","","","","","","","","","","",""
"","1792.9949999961536","sequential-stimulus-presentation","75","272335","0.0-17.0-1.6","SS1612933089163","trial","","40","800","2592.9949999961536","","","","","3","complex_dissimilar","images/stimuli/spore_stims/complex_20_A_a.gif","left","","","","",""
"","null","html-keyboard-response","76","273511","0.0-17.0-0.7","SS1612933089163","","","null","","","<p><img src= images/blank.png width =""200"" height = ""200"" style = ""float:right""></p><p><img src=images/blank.png width =""800"" height = ""200""></p>","","","","","","","","","","","",""
"","1906.1750000037136","sequential-stimulus-presentation","77","276227","0.0-17.0-1.7","SS1612933089163","trial","","40","800","2706.1750000037136","","","","","3","complex_dissimilar","images/stimuli/spore_stims/complex_20_A_a.gif","left","","","","",""
"","599.065000002156","html-keyboard-response","78","276828","0.0-18.0","SS1612933089163","pref_question","","98","","","<video width ='960' height = '540' style='padding-top:8%' autoplay muted><source src='images/stimuli/wall_pref.mp4' type='video/mp4'></video>","2","middle","45%","3","","","","","","","",""
"","2207.6449999949546","sequential-stimulus-presentation","79","279841","0.0-19.0","SS1612933089163","pref_reveal","","40","800","3007.6449999949546","","","","","3","","","","novel","","","",""
"","null","html-keyboard-response","80","280987","0.0-20.0-0.0","SS1612933089163","","","null","","","<p><img src= images/blank.png width =""200"" height = ""200"" style = ""float:right""></p><p><img src=images/blank.png width =""800"" height = ""200""></p>","","","","","","","","","","","",""
"","1990.60499999905","sequential-stimulus-presentation","81","283789","0.0-20.0-1.0","SS1612933089163","trial","","40","800","2790.60499999905","","","","","4","simple_similar","images/stimuli/spore_stims/simple_20_B_d.gif","right","","","","",""
"","null","html-keyboard-response","82","284654","0.0-20.0-0.1","SS1612933089163","","","null","","","<p><img src= images/blank.png width =""200"" height = ""200"" style = ""float:right""></p><p><img src=images/blank.png width =""800"" height = ""200""></p>","","","","","","","","","","","",""
"","2469.010000000708","sequential-stimulus-presentation","83","287932","0.0-20.0-1.1","SS1612933089163","trial","","40","800","3269.010000000708","","","","","4","simple_similar","images/stimuli/spore_stims/simple_20_B_d.gif","right","","","","",""
"","null","html-keyboard-response","84","288812","0.0-20.0-0.2","SS1612933089163","","","null","","","<p><img src= images/blank.png width =""200"" height = ""200"" style = ""float:right""></p><p><img src=images/blank.png width =""800"" height = ""200""></p>","","","","","","","","","","","",""
"","2458.854999997129","sequential-stimulus-presentation","85","292085","0.0-20.0-1.2","SS1612933089163","trial","","40","800","3258.854999997129","","","","","4","simple_similar","images/stimuli/spore_stims/simple_20_A_d.gif","middle","","","","",""
"","null","html-keyboard-response","86","293117","0.0-20.0-0.3","SS1612933089163","","","null","","","<p><img src= images/blank.png width =""200"" height = ""200"" style = ""float:right""></p><p><img src=images/blank.png width =""800"" height = ""200""></p>","","","","","","","","","","","",""
"","3553.954999995767","sequential-stimulus-presentation","87","297480","0.0-20.0-1.3","SS1612933089163","trial","","40","800","4353.954999995767","","","","","4","simple_similar","images/stimuli/spore_stims/simple_20_B_d.gif","right","","","","",""
"","null","html-keyboard-response","88","298715","0.0-20.0-0.4","SS1612933089163","","","null","","","<p><img src= images/blank.png width =""200"" height = ""200"" style = ""float:right""></p><p><img src=images/blank.png width =""800"" height = ""200""></p>","","","","","","","","","","","",""
"","1446.8649999980698","sequential-stimulus-presentation","89","300976","0.0-20.0-1.4","SS1612933089163","trial","","40","800","2246.86499999807","","","","","4","simple_similar","images/stimuli/spore_stims/simple_20_B_d.gif","right","","","","",""
"","null","html-keyboard-response","90","302151","0.0-20.0-0.5","SS1612933089163","","","null","","","<p><img src= images/blank.png width =""200"" height = ""200"" style = ""float:right""></p><p><img src=images/blank.png width =""800"" height = ""200""></p>","","","","","","","","","","","",""
"","3370.2249999987544","sequential-stimulus-presentation","91","306331","0.0-20.0-1.5","SS1612933089163","trial","","40","800","4170.224999998754","","","","","4","simple_similar","images/stimuli/spore_stims/simple_20_B_d.gif","right","","","","",""
"","null","html-keyboard-response","92","307591","0.0-20.0-0.6","SS1612933089163","","","null","","","<p><img src= images/blank.png width =""200"" height = ""200"" style = ""float:right""></p><p><img src=images/blank.png width =""800"" height = ""200""></p>","","","","","","","","","","","",""
"","3776.3300000005984","sequential-stimulus-presentation","93","312179","0.0-20.0-1.6","SS1612933089163","trial","","40","800","4576.330000000598","","","","","4","simple_similar","images/stimuli/spore_stims/simple_20_B_d.gif","right","","","","",""
"","null","html-keyboard-response","94","313239","0.0-20.0-0.7","SS1612933089163","","","null","","","<p><img src= images/blank.png width =""200"" height = ""200"" style = ""float:right""></p><p><img src=images/blank.png width =""800"" height = ""200""></p>","","","","","","","","","","","",""
"","3150.2649999965797","sequential-stimulus-presentation","95","317192","0.0-20.0-1.7","SS1612933089163","trial","","40","800","3950.2649999965797","","","","","4","simple_similar","images/stimuli/spore_stims/simple_20_B_d.gif","right","","","","",""
"","6039.4000000014785","html-keyboard-response","96","323236","0.0-21.0","SS1612933089163","pref_question","","98","","","<video width ='960' height = '540' style='padding-top:8%' autoplay muted><source src='images/stimuli/wall_pref.mp4' type='video/mp4'></video>","2","middle","45%","4","","","","","","","",""
"","3597.0699999961653","sequential-stimulus-presentation","97","327646","0.0-22.0","SS1612933089163","pref_reveal","","40","800","4397.069999996165","","","","","4","","","","deviant","","","",""
"","null","html-keyboard-response","98","328635","0.0-23.0-0.0","SS1612933089163","","","null","","","<p><img src= images/blank.png width =""200"" height = ""200"" style = ""float:right""></p><p><img src=images/blank.png width =""800"" height = ""200""></p>","","","","","","","","","","","",""
"","2164.345000004687","sequential-stimulus-presentation","99","331608","0.0-23.0-1.0","SS1612933089163","trial","","40","800","2964.345000004687","","","","","5","complex_similar","images/stimuli/spore_stims/complex_01_A_a.gif","left","","","","",""
"","null","html-keyboard-response","100","332687","0.0-23.0-0.1","SS1612933089163","","","null","","","<p><img src= images/blank.png width =""200"" height = ""200"" style = ""float:right""></p><p><img src=images/blank.png width =""800"" height = ""200""></p>","","","","","","","","","","","",""
"","1999.325000004319","sequential-stimulus-presentation","101","335501","0.0-23.0-1.1","SS1612933089163","trial","","40","800","2799.325000004319","","","","","5","complex_similar","images/stimuli/spore_stims/complex_01_A_a.gif","left","","","","",""
"","null","html-keyboard-response","102","336620","0.0-23.0-0.2","SS1612933089163","","","null","","","<p><img src= images/blank.png width =""200"" height = ""200"" style = ""float:right""></p><p><img src=images/blank.png width =""800"" height = ""200""></p>","","","","","","","","","","","",""
"","2078.250000005937","sequential-stimulus-presentation","103","339513","0.0-23.0-1.2","SS1612933089163","trial","","40","800","2878.250000005937","","","","","5","complex_similar","images/stimuli/spore_stims/complex_01_A_a.gif","left","","","","",""
"","null","html-keyboard-response","104","340364","0.0-23.0-0.3","SS1612933089163","","","null","","","<p><img src= images/blank.png width =""200"" height = ""200"" style = ""float:right""></p><p><img src=images/blank.png width =""800"" height = ""200""></p>","","","","","","","","","","","",""
"","1878.6250000048312","sequential-stimulus-presentation","105","343053","0.0-23.0-1.3","SS1612933089163","trial","","40","800","2678.6250000048312","","","","","5","complex_similar","images/stimuli/spore_stims/complex_01_A_a.gif","left","","","","",""
"","null","html-keyboard-response","106","344056","0.0-23.0-0.4","SS1612933089163","","","null","","","<p><img src= images/blank.png width =""200"" height = ""200"" style = ""float:right""></p><p><img src=images/blank.png width =""800"" height = ""200""></p>","","","","","","","","","","","",""
"","1828.0850000010105","sequential-stimulus-presentation","107","346696","0.0-23.0-1.4","SS1612933089163","trial","","40","800","2628.0850000010105","","","","","5","complex_similar","images/stimuli/spore_stims/complex_01_A_a.gif","left","","","","",""
"","null","html-keyboard-response","108","347978","0.0-23.0-0.5","SS1612933089163","","","null","","","<p><img src= images/blank.png width =""200"" height = ""200"" style = ""float:right""></p><p><img src=images/blank.png width =""800"" height = ""200""></p>","","","","","","","","","","","",""
"","1871.6849999982514","sequential-stimulus-presentation","109","350667","0.0-23.0-1.5","SS1612933089163","trial","","40","800","2671.6849999982514","","","","","5","complex_similar","images/stimuli/spore_stims/complex_01_A_a.gif","left","","","","",""
"","null","html-keyboard-response","110","351588","0.0-23.0-0.6","SS1612933089163","","","null","","","<p><img src= images/blank.png width =""200"" height = ""200"" style = ""float:right""></p><p><img src=images/blank.png width =""800"" height = ""200""></p>","","","","","","","","","","","",""
"","1866.3249999954132","sequential-stimulus-presentation","111","354270","0.0-23.0-1.6","SS1612933089163","trial","","40","800","2666.3249999954132","","","","","5","complex_similar","images/stimuli/spore_stims/complex_01_A_a.gif","left","","","","",""
"","null","html-keyboard-response","112","355378","0.0-23.0-0.7","SS1612933089163","","","null","","","<p><img src= images/blank.png width =""200"" height = ""200"" style = ""float:right""></p><p><img src=images/blank.png width =""800"" height = ""200""></p>","","","","","","","","","","","",""
"","2049.4000000035157","sequential-stimulus-presentation","113","358248","0.0-23.0-1.7","SS1612933089163","trial","","40","800","2849.4000000035157","","","","","5","complex_similar","images/stimuli/spore_stims/complex_01_B_a.gif","middle","","","","",""
"","725.1550000000861","html-keyboard-response","114","358978","0.0-24.0","SS1612933089163","pref_question","","99","","","<video width ='960' height = '540' style='padding-top:8%' autoplay muted><source src='images/stimuli/wall_pref.mp4' type='video/mp4'></video>","3","right","66%","5","","","","","","","",""
"","2305.335000004561","sequential-stimulus-presentation","115","362090","0.0-25.0","SS1612933089163","pref_reveal","","40","800","3105.335000004561","","","","","5","","","","novel","","","",""
"","null","html-keyboard-response","116","363212","0.0-26.0-0.0","SS1612933089163","","","null","","","<p><img src= images/blank.png width =""200"" height = ""200"" style = ""float:right""></p><p><img src=images/blank.png width =""800"" height = ""200""></p>","","","","","","","","","","","",""
"","2420.464999995602","sequential-stimulus-presentation","117","366460","0.0-26.0-1.0","SS1612933089163","trial","","40","800","3220.464999995602","","","","","6","simple_similar","images/stimuli/spore_stims/simple_03_B_c.gif","left","","","","",""
"","null","html-keyboard-response","118","367510","0.0-26.0-0.1","SS1612933089163","","","null","","","<p><img src= images/blank.png width =""200"" height = ""200"" style = ""float:right""></p><p><img src=images/blank.png width =""800"" height = ""200""></p>","","","","","","","","","","","",""
"","2575.6800000017392","sequential-stimulus-presentation","119","370908","0.0-26.0-1.1","SS1612933089163","trial","","40","800","3375.6800000017392","","","","","6","simple_similar","images/stimuli/spore_stims/simple_03_B_c.gif","left","","","","",""
"","null","html-keyboard-response","120","371835","0.0-26.0-0.2","SS1612933089163","","","null","","","<p><img src= images/blank.png width =""200"" height = ""200"" style = ""float:right""></p><p><img src=images/blank.png width =""800"" height = ""200""></p>","","","","","","","","","","","",""
"","2995.3500000046915","sequential-stimulus-presentation","121","375640","0.0-26.0-1.2","SS1612933089163","trial","","40","800","3795.3500000046915","","","","","6","simple_similar","images/stimuli/spore_stims/simple_03_B_c.gif","left","","","","",""
"","null","html-keyboard-response","122","376545","0.0-26.0-0.3","SS1612933089163","","","null","","","<p><img src= images/blank.png width =""200"" height = ""200"" style = ""float:right""></p><p><img src=images/blank.png width =""800"" height = ""200""></p>","","","","","","","","","","","",""
"","3423.1349999972736","sequential-stimulus-presentation","123","380781","0.0-26.0-1.3","SS1612933089163","trial","","40","800","4223.134999997274","","","","","6","simple_similar","images/stimuli/spore_stims/simple_03_B_c.gif","left","","","","",""
"","null","html-keyboard-response","124","382065","0.0-26.0-0.4","SS1612933089163","","","null","","","<p><img src= images/blank.png width =""200"" height = ""200"" style = ""float:right""></p><p><img src=images/blank.png width =""800"" height = ""200""></p>","","","","","","","","","","","",""
"","2734.6250000045984","sequential-stimulus-presentation","125","385614","0.0-26.0-1.4","SS1612933089163","trial","","40","800","3534.6250000045984","","","","","6","simple_similar","images/stimuli/spore_stims/simple_03_B_c.gif","left","","","","",""
"","null","html-keyboard-response","126","386701","0.0-26.0-0.5","SS1612933089163","","","null","","","<p><img src= images/blank.png width =""200"" height = ""200"" style = ""float:right""></p><p><img src=images/blank.png width =""800"" height = ""200""></p>","","","","","","","","","","","",""
"","3277.7399999977206","sequential-stimulus-presentation","127","390786","0.0-26.0-1.5","SS1612933089163","trial","","40","800","4077.7399999977206","","","","","6","simple_similar","images/stimuli/spore_stims/simple_03_B_c.gif","left","","","","",""
"","null","html-keyboard-response","128","391852","0.0-26.0-0.6","SS1612933089163","","","null","","","<p><img src= images/blank.png width =""200"" height = ""200"" style = ""float:right""></p><p><img src=images/blank.png width =""800"" height = ""200""></p>","","","","","","","","","","","",""
"","3140.095000002475","sequential-stimulus-presentation","129","395806","0.0-26.0-1.6","SS1612933089163","trial","","40","800","3940.095000002475","","","","","6","simple_similar","images/stimuli/spore_stims/simple_03_B_c.gif","left","","","","",""
"","null","html-keyboard-response","130","396805","0.0-26.0-0.7","SS1612933089163","","","null","","","<p><img src= images/blank.png width =""200"" height = ""200"" style = ""float:right""></p><p><img src=images/blank.png width =""800"" height = ""200""></p>","","","","","","","","","","","",""
"","2181.1000000016065","sequential-stimulus-presentation","131","399798","0.0-26.0-1.7","SS1612933089163","trial","","40","800","2981.1000000016065","","","","","6","simple_similar","images/stimuli/spore_stims/simple_03_A_c.gif","middle","","","","",""
"","616.4750000025379","html-keyboard-response","132","400428","0.0-27.0","SS1612933089163","pref_question","","99","","","<video width ='960' height = '540' style='padding-top:8%' autoplay muted><source src='images/stimuli/wall_pref.mp4' type='video/mp4'></video>","3","right","66%","6","","","","","","","",""
"","2332.2600000028615","sequential-stimulus-presentation","133","403575","0.0-28.0","SS1612933089163","pref_reveal","","40","800","3132.2600000028615","","","","","6","","","","novel","","","",""
"","null","html-keyboard-response","134","404582","0.0-29.0-0.0","SS1612933089163","","","null","","","<p><img src= images/blank.png width =""200"" height = ""200"" style = ""float:right""></p><p><img src=images/blank.png width =""800"" height = ""200""></p>","","","","","","","","","","","",""
"","2060.875000002852","sequential-stimulus-presentation","135","407455","0.0-29.0-1.0","SS1612933089163","trial","","40","800","2860.875000002852","","","","","7","complex_dissimilar","images/stimuli/spore_stims/complex_07_A_d.gif","left","","","","",""
"","null","html-keyboard-response","136","408637","0.0-29.0-0.1","SS1612933089163","","","null","","","<p><img src= images/blank.png width =""200"" height = ""200"" style = ""float:right""></p><p><img src=images/blank.png width =""800"" height = ""200""></p>","","","","","","","","","","","",""
"","2153.425000004063","sequential-stimulus-presentation","137","411600","0.0-29.0-1.1","SS1612933089163","trial","","40","800","2953.425000004063","","","","","7","complex_dissimilar","images/stimuli/spore_stims/complex_07_A_d.gif","left","","","","",""
"","null","html-keyboard-response","138","412789","0.0-29.0-0.2","SS1612933089163","","","null","","","<p><img src= images/blank.png width =""200"" height = ""200"" style = ""float:right""></p><p><img src=images/blank.png width =""800"" height = ""200""></p>","","","","","","","","","","","",""
"","2306.059999995341","sequential-stimulus-presentation","139","415905","0.0-29.0-1.2","SS1612933089163","trial","","40","800","3106.059999995341","","","","","7","complex_dissimilar","images/stimuli/spore_stims/complex_07_A_d.gif","left","","","","",""
"","null","html-keyboard-response","140","417137","0.0-29.0-0.3","SS1612933089163","","","null","","","<p><img src= images/blank.png width =""200"" height = ""200"" style = ""float:right""></p><p><img src=images/blank.png width =""800"" height = ""200""></p>","","","","","","","","","","","",""
"","2091.4800000027753","sequential-stimulus-presentation","141","420041","0.0-29.0-1.3","SS1612933089163","trial","","40","800","2891.4800000027753","","","","","7","complex_dissimilar","images/stimuli/spore_stims/complex_07_A_d.gif","left","","","","",""
"","null","html-keyboard-response","142","420883","0.0-29.0-0.4","SS1612933089163","","","null","","","<p><img src= images/blank.png width =""200"" height = ""200"" style = ""float:right""></p><p><img src=images/blank.png width =""800"" height = ""200""></p>","","","","","","","","","","","",""
"","2196.8899999992573","sequential-stimulus-presentation","143","423893","0.0-29.0-1.4","SS1612933089163","trial","","40","800","2996.8899999992573","","","","","7","complex_dissimilar","images/stimuli/spore_stims/complex_07_A_d.gif","left","","","","",""
"","null","html-keyboard-response","144","424959","0.0-29.0-0.5","SS1612933089163","","","null","","","<p><img src= images/blank.png width =""200"" height = ""200"" style = ""float:right""></p><p><img src=images/blank.png width =""800"" height = ""200""></p>","","","","","","","","","","","",""
"","2125.110000000859","sequential-stimulus-presentation","145","427895","0.0-29.0-1.5","SS1612933089163","trial","","40","800","2925.110000000859","","","","","7","complex_dissimilar","images/stimuli/spore_stims/complex_13_B_b.gif","right","","","","",""
"","null","html-keyboard-response","146","428968","0.0-29.0-0.6","SS1612933089163","","","null","","","<p><img src= images/blank.png width =""200"" height = ""200"" style = ""float:right""></p><p><img src=images/blank.png width =""800"" height = ""200""></p>","","","","","","","","","","","",""
"","2234.7050000025774","sequential-stimulus-presentation","147","432015","0.0-29.0-1.6","SS1612933089163","trial","","40","800","3034.7050000025774","","","","","7","complex_dissimilar","images/stimuli/spore_stims/complex_07_A_d.gif","left","","","","",""
"","null","html-keyboard-response","148","433131","0.0-29.0-0.7","SS1612933089163","","","null","","","<p><img src= images/blank.png width =""200"" height = ""200"" style = ""float:right""></p><p><img src=images/blank.png width =""800"" height = ""200""></p>","","","","","","","","","","","",""
"","2434.67000000237","sequential-stimulus-presentation","149","436377","0.0-29.0-1.7","SS1612933089163","trial","","40","800","3234.67000000237","","","","","7","complex_dissimilar","images/stimuli/spore_stims/complex_07_A_d.gif","left","","","","",""
"","628.5600000046543","html-keyboard-response","150","437008","0.0-30.0","SS1612933089163","pref_question","","98","","","<video width ='960' height = '540' style='padding-top:8%' autoplay muted><source src='images/stimuli/wall_pref.mp4' type='video/mp4'></video>","2","middle","45%","7","","","","","","","",""
"","2339.9050000007264","sequential-stimulus-presentation","151","440159","0.0-31.0","SS1612933089163","pref_reveal","","40","800","3139.9050000007264","","","","","7","","","","novel","","","",""
"","null","html-keyboard-response","152","441122","0.0-32.0-0.0","SS1612933089163","","","null","","","<p><img src= images/blank.png width =""200"" height = ""200"" style = ""float:right""></p><p><img src=images/blank.png width =""800"" height = ""200""></p>","","","","","","","","","","","",""
"","1841.8049999963841","sequential-stimulus-presentation","153","443771","0.0-32.0-1.0","SS1612933089163","trial","","40","800","2641.804999996384","","","","","8","simple_similar","images/stimuli/spore_stims/simple_05_A_a.gif","middle","","","","",""
"","null","html-keyboard-response","154","444853","0.0-32.0-0.1","SS1612933089163","","","null","","","<p><img src= images/blank.png width =""200"" height = ""200"" style = ""float:right""></p><p><img src=images/blank.png width =""800"" height = ""200""></p>","","","","","","","","","","","",""
"","2065.6250000029104","sequential-stimulus-presentation","155","447732","0.0-32.0-1.1","SS1612933089163","trial","","40","800","2865.6250000029104","","","","","8","simple_similar","images/stimuli/spore_stims/simple_05_A_a.gif","middle","","","","",""
"","null","html-keyboard-response","156","448730","0.0-32.0-0.2","SS1612933089163","","","null","","","<p><img src= images/blank.png width =""200"" height = ""200"" style = ""float:right""></p><p><img src=images/blank.png width =""800"" height = ""200""></p>","","","","","","","","","","","",""
"","2199.9499999947147","sequential-stimulus-presentation","157","451740","0.0-32.0-1.2","SS1612933089163","trial","","40","800","2999.9499999947147","","","","","8","simple_similar","images/stimuli/spore_stims/simple_05_A_a.gif","middle","","","","",""
"","null","html-keyboard-response","158","452708","0.0-32.0-0.3","SS1612933089163","","","null","","","<p><img src= images/blank.png width =""200"" height = ""200"" style = ""float:right""></p><p><img src=images/blank.png width =""800"" height = ""200""></p>","","","","","","","","","","","",""
"","2179.7349999978906","sequential-stimulus-presentation","159","455697","0.0-32.0-1.3","SS1612933089163","trial","","40","800","2979.7349999978906","","","","","8","simple_similar","images/stimuli/spore_stims/simple_05_A_a.gif","middle","","","","",""
"","null","html-keyboard-response","160","456559","0.0-32.0-0.4","SS1612933089163","","","null","","","<p><img src= images/blank.png width =""200"" height = ""200"" style = ""float:right""></p><p><img src=images/blank.png width =""800"" height = ""200""></p>","","","","","","","","","","","",""
"","2108.3050000015646","sequential-stimulus-presentation","161","459478","0.0-32.0-1.4","SS1612933089163","trial","","40","800","2908.3050000015646","","","","","8","simple_similar","images/stimuli/spore_stims/simple_05_A_a.gif","middle","","","","",""
"","null","html-keyboard-response","162","460622","0.0-32.0-0.5","SS1612933089163","","","null","","","<p><img src= images/blank.png width =""200"" height = ""200"" style = ""float:right""></p><p><img src=images/blank.png width =""800"" height = ""200""></p>","","","","","","","","","","","",""
"","2093.6599999986356","sequential-stimulus-presentation","163","463542","0.0-32.0-1.5","SS1612933089163","trial","","40","800","2893.6599999986356","","","","","8","simple_similar","images/stimuli/spore_stims/simple_05_B_a.gif","left","","","","",""
"","null","html-keyboard-response","164","464627","0.0-32.0-0.6","SS1612933089163","","","null","","","<p><img src= images/blank.png width =""200"" height = ""200"" style = ""float:right""></p><p><img src=images/blank.png width =""800"" height = ""200""></p>","","","","","","","","","","","",""
"","1871.5050000027986","sequential-stimulus-presentation","165","467321","0.0-32.0-1.6","SS1612933089163","trial","","40","800","2671.5050000027986","","","","","8","simple_similar","images/stimuli/spore_stims/simple_05_A_a.gif","middle","","","","",""
"","null","html-keyboard-response","166","468196","0.0-32.0-0.7","SS1612933089163","","","null","","","<p><img src= images/blank.png width =""200"" height = ""200"" style = ""float:right""></p><p><img src=images/blank.png width =""800"" height = ""200""></p>","","","","","","","","","","","",""
"","1767.0800000050804","sequential-stimulus-presentation","167","470774","0.0-32.0-1.7","SS1612933089163","trial","","40","800","2567.0800000050804","","","","","8","simple_similar","images/stimuli/spore_stims/simple_05_A_a.gif","middle","","","","",""
"","711.8699999991804","html-keyboard-response","168","471491","0.0-33.0","SS1612933089163","pref_question","","99","","","<video width ='960' height = '540' style='padding-top:8%' autoplay muted><source src='images/stimuli/wall_pref.mp4' type='video/mp4'></video>","3","right","66%","8","","","","","","","",""
"","2311.585000003106","sequential-stimulus-presentation","169","474616","0.0-34.0","SS1612933089163","pref_reveal","","40","800","3111.585000003106","","","","","8","","","","novel","","","",""
"","null","html-keyboard-response","170","475840","0.0-35.0-0.0","SS1612933089163","","","null","","","<p><img src= images/blank.png width =""200"" height = ""200"" style = ""float:right""></p><p><img src=images/blank.png width =""800"" height = ""200""></p>","","","","","","","","","","","",""
"","2243.4200000061537","sequential-stimulus-presentation","171","478892","0.0-35.0-1.0","SS1612933089163","trial","","40","800","3043.4200000061537","","","","","9","complex_dissimilar","images/stimuli/spore_stims/complex_02_A_c.gif","right","","","","",""
"","null","html-keyboard-response","172","479929","0.0-35.0-0.1","SS1612933089163","","","null","","","<p><img src= images/blank.png width =""200"" height = ""200"" style = ""float:right""></p><p><img src=images/blank.png width =""800"" height = ""200""></p>","","","","","","","","","","","",""
"","2444.3800000008196","sequential-stimulus-presentation","173","483185","0.0-35.0-1.1","SS1612933089163","trial","","40","800","3244.3800000008196","","","","","9","complex_dissimilar","images/stimuli/spore_stims/complex_02_A_c.gif","right","","","","",""
"","null","html-keyboard-response","174","484413","0.0-35.0-0.2","SS1612933089163","","","null","","","<p><img src= images/blank.png width =""200"" height = ""200"" style = ""float:right""></p><p><img src=images/blank.png width =""800"" height = ""200""></p>","","","","","","","","","","","",""
"","2284.69000000041","sequential-stimulus-presentation","175","487511","0.0-35.0-1.2","SS1612933089163","trial","","40","800","3084.69000000041","","","","","9","complex_dissimilar","images/stimuli/spore_stims/complex_13_A_c.gif","left","","","","",""
"","null","html-keyboard-response","176","488764","0.0-35.0-0.3","SS1612933089163","","","null","","","<p><img src= images/blank.png width =""200"" height = ""200"" style = ""float:right""></p><p><img src=images/blank.png width =""800"" height = ""200""></p>","","","","","","","","","","","",""
"","2116.3349999987986","sequential-stimulus-presentation","177","491691","0.0-35.0-1.3","SS1612933089163","trial","","40","800","2916.3349999987986","","","","","9","complex_dissimilar","images/stimuli/spore_stims/complex_02_A_c.gif","right","","","","",""
"","null","html-keyboard-response","178","492883","0.0-35.0-0.4","SS1612933089163","","","null","","","<p><img src= images/blank.png width =""200"" height = ""200"" style = ""float:right""></p><p><img src=images/blank.png width =""800"" height = ""200""></p>","","","","","","","","","","","",""
"","2194.6200000020326","sequential-stimulus-presentation","179","495891","0.0-35.0-1.4","SS1612933089163","trial","","40","800","2994.6200000020326","","","","","9","complex_dissimilar","images/stimuli/spore_stims/complex_02_A_c.gif","right","","","","",""
"","null","html-keyboard-response","180","497124","0.0-35.0-0.5","SS1612933089163","","","null","","","<p><img src= images/blank.png width =""200"" height = ""200"" style = ""float:right""></p><p><img src=images/blank.png width =""800"" height = ""200""></p>","","","","","","","","","","","",""
"","2229.059999997844","sequential-stimulus-presentation","181","500164","0.0-35.0-1.5","SS1612933089163","trial","","40","800","3029.059999997844","","","","","9","complex_dissimilar","images/stimuli/spore_stims/complex_02_A_c.gif","right","","","","",""
"","null","html-keyboard-response","182","501261","0.0-35.0-0.6","SS1612933089163","","","null","","","<p><img src= images/blank.png width =""200"" height = ""200"" style = ""float:right""></p><p><img src=images/blank.png width =""800"" height = ""200""></p>","","","","","","","","","","","",""
"","2283.9250000033644","sequential-stimulus-presentation","183","504353","0.0-35.0-1.6","SS1612933089163","trial","","40","800","3083.9250000033644","","","","","9","complex_dissimilar","images/stimuli/spore_stims/complex_02_A_c.gif","right","","","","",""
"","null","html-keyboard-response","184","505603","0.0-35.0-0.7","SS1612933089163","","","null","","","<p><img src= images/blank.png width =""200"" height = ""200"" style = ""float:right""></p><p><img src=images/blank.png width =""800"" height = ""200""></p>","","","","","","","","","","","",""
"","2235.3650000004563","sequential-stimulus-presentation","185","508662","0.0-35.0-1.7","SS1612933089163","trial","","40","800","3035.3650000004563","","","","","9","complex_dissimilar","images/stimuli/spore_stims/complex_02_A_c.gif","right","","","","",""
"","661.2700000041514","html-keyboard-response","186","509333","0.0-36.0","SS1612933089163","pref_question","","98","","","<video width ='960' height = '540' style='padding-top:8%' autoplay muted><source src='images/stimuli/wall_pref.mp4' type='video/mp4'></video>","2","middle","45%","9","","","","","","","",""
"","2392.554999998538","sequential-stimulus-presentation","187","512545","0.0-37.0","SS1612933089163","pref_reveal","","40","800","3192.554999998538","","","","","9","","","","novel","","","",""
"","null","html-keyboard-response","188","513427","0.0-38.0-0.0","SS1612933089163","","","null","","","<p><img src= images/blank.png width =""200"" height = ""200"" style = ""float:right""></p><p><img src=images/blank.png width =""800"" height = ""200""></p>","","","","","","","","","","","",""
"","1997.8449999980512","sequential-stimulus-presentation","189","516249","0.0-38.0-1.0","SS1612933089163","trial","","40","800","2797.844999998051","","","","","10","complex_dissimilar","images/stimuli/spore_stims/complex_04_B_a.gif","left","","","","",""
"","null","html-keyboard-response","190","517472","0.0-38.0-0.1","SS1612933089163","","","null","","","<p><img src= images/blank.png width =""200"" height = ""200"" style = ""float:right""></p><p><img src=images/blank.png width =""800"" height = ""200""></p>","","","","","","","","","","","",""
"","2259.7099999984493","sequential-stimulus-presentation","191","520556","0.0-38.0-1.1","SS1612933089163","trial","","40","800","3059.7099999984493","","","","","10","complex_dissimilar","images/stimuli/spore_stims/complex_04_B_a.gif","left","","","","",""
"","null","html-keyboard-response","192","521760","0.0-38.0-0.2","SS1612933089163","","","null","","","<p><img src= images/blank.png width =""200"" height = ""200"" style = ""float:right""></p><p><img src=images/blank.png width =""800"" height = ""200""></p>","","","","","","","","","","","",""
"","2112.8800000005867","sequential-stimulus-presentation","193","524683","0.0-38.0-1.2","SS1612933089163","trial","","40","800","2912.8800000005867","","","","","10","complex_dissimilar","images/stimuli/spore_stims/complex_04_B_a.gif","left","","","","",""
"","null","html-keyboard-response","194","525906","0.0-38.0-0.3","SS1612933089163","","","null","","","<p><img src= images/blank.png width =""200"" height = ""200"" style = ""float:right""></p><p><img src=images/blank.png width =""800"" height = ""200""></p>","","","","","","","","","","","",""
"","1975.3700000001118","sequential-stimulus-presentation","195","528692","0.0-38.0-1.3","SS1612933089163","trial","","40","800","2775.3700000001118","","","","","10","complex_dissimilar","images/stimuli/spore_stims/complex_04_B_a.gif","left","","","","",""
"","null","html-keyboard-response","196","529730","0.0-38.0-0.4","SS1612933089163","","","null","","","<p><img src= images/blank.png width =""200"" height = ""200"" style = ""float:right""></p><p><img src=images/blank.png width =""800"" height = ""200""></p>","","","","","","","","","","","",""
"","2001.8150000033202","sequential-stimulus-presentation","197","532537","0.0-38.0-1.4","SS1612933089163","trial","","40","800","2801.81500000332","","","","","10","complex_dissimilar","images/stimuli/spore_stims/complex_04_B_a.gif","left","","","","",""
"","null","html-keyboard-response","198","533385","0.0-38.0-0.5","SS1612933089163","","","null","","","<p><img src= images/blank.png width =""200"" height = ""200"" style = ""float:right""></p><p><img src=images/blank.png width =""800"" height = ""200""></p>","","","","","","","","","","","",""
"","2331.63499999512","sequential-stimulus-presentation","199","536528","0.0-38.0-1.5","SS1612933089163","trial","","40","800","3131.63499999512","","","","","10","complex_dissimilar","images/stimuli/spore_stims/complex_04_B_a.gif","left","","","","",""
"","null","html-keyboard-response","200","537568","0.0-38.0-0.6","SS1612933089163","","","null","","","<p><img src= images/blank.png width =""200"" height = ""200"" style = ""float:right""></p><p><img src=images/blank.png width =""800"" height = ""200""></p>","","","","","","","","","","","",""
"","2233.424999998533","sequential-stimulus-presentation","201","540618","0.0-38.0-1.6","SS1612933089163","trial","","40","800","3033.424999998533","","","","","10","complex_dissimilar","images/stimuli/spore_stims/complex_04_B_a.gif","left","","","","",""
"","null","html-keyboard-response","202","541849","0.0-38.0-0.7","SS1612933089163","","","null","","","<p><img src= images/blank.png width =""200"" height = ""200"" style = ""float:right""></p><p><img src=images/blank.png width =""800"" height = ""200""></p>","","","","","","","","","","","",""
"","2403.215000005788","sequential-stimulus-presentation","203","545069","0.0-38.0-1.7","SS1612933089163","trial","","40","800","3203.215000005788","","","","","10","complex_dissimilar","images/stimuli/spore_stims/complex_18_B_b.gif","middle","","","","",""
"","698.539999997709","html-keyboard-response","204","545770","0.0-39.0","SS1612933089163","pref_question","","99","","","<video width ='960' height = '540' style='padding-top:8%' autoplay muted><source src='images/stimuli/wall_pref.mp4' type='video/mp4'></video>","3","right","66%","10","","","","","","","",""
"","3607.365000003483","sequential-stimulus-presentation","205","550197","0.0-40.0","SS1612933089163","pref_reveal","","40","800","4407.365000003483","","","","","10","","","","novel","","","",""
"","null","html-keyboard-response","206","551300","0.0-41.0-0.0","SS1612933089163","","","null","","","<p><img src= images/blank.png width =""200"" height = ""200"" style = ""float:right""></p><p><img src=images/blank.png width =""800"" height = ""200""></p>","","","","","","","","","","","",""
"","2225.174999999581","sequential-stimulus-presentation","207","554336","0.0-41.0-1.0","SS1612933089163","trial","","40","800","3025.174999999581","","","","","11","complex_similar","images/stimuli/spore_stims/complex_10_A_c.gif","right","","","","",""
"","null","html-keyboard-response","208","555590","0.0-41.0-0.1","SS1612933089163","","","null","","","<p><img src= images/blank.png width =""200"" height = ""200"" style = ""float:right""></p><p><img src=images/blank.png width =""800"" height = ""200""></p>","","","","","","","","","","","",""
"","2436.044999994803","sequential-stimulus-presentation","209","558840","0.0-41.0-1.1","SS1612933089163","trial","","40","800","3236.044999994803","","","","","11","complex_similar","images/stimuli/spore_stims/complex_10_A_c.gif","right","","","","",""
"","null","html-keyboard-response","210","559711","0.0-41.0-0.2","SS1612933089163","","","null","","","<p><img src= images/blank.png width =""200"" height = ""200"" style = ""float:right""></p><p><img src=images/blank.png width =""800"" height = ""200""></p>","","","","","","","","","","","",""
"","2209.445000000531","sequential-stimulus-presentation","211","562737","0.0-41.0-1.2","SS1612933089163","trial","","40","800","3009.445000000531","","","","","11","complex_similar","images/stimuli/spore_stims/complex_10_A_c.gif","right","","","","",""
"","null","html-keyboard-response","212","563785","0.0-41.0-0.3","SS1612933089163","","","null","","","<p><img src= images/blank.png width =""200"" height = ""200"" style = ""float:right""></p><p><img src=images/blank.png width =""800"" height = ""200""></p>","","","","","","","","","","","",""
"","2343.4400000042515","sequential-stimulus-presentation","213","566935","0.0-41.0-1.3","SS1612933089163","trial","","40","800","3143.4400000042515","","","","","11","complex_similar","images/stimuli/spore_stims/complex_10_A_c.gif","right","","","","",""
"","null","html-keyboard-response","214","567939","0.0-41.0-0.4","SS1612933089163","","","null","","","<p><img src= images/blank.png width =""200"" height = ""200"" style = ""float:right""></p><p><img src=images/blank.png width =""800"" height = ""200""></p>","","","","","","","","","","","",""
"","2430.9649999995017","sequential-stimulus-presentation","215","571181","0.0-41.0-1.4","SS1612933089163","trial","","40","800","3230.9649999995017","","","","","11","complex_similar","images/stimuli/spore_stims/complex_10_A_c.gif","right","","","","",""
"","null","html-keyboard-response","216","572117","0.0-41.0-0.5","SS1612933089163","","","null","","","<p><img src= images/blank.png width =""200"" height = ""200"" style = ""float:right""></p><p><img src=images/blank.png width =""800"" height = ""200""></p>","","","","","","","","","","","",""
"","2369.7099999990314","sequential-stimulus-presentation","217","575299","0.0-41.0-1.5","SS1612933089163","trial","","40","800","3169.7099999990314","","","","","11","complex_similar","images/stimuli/spore_stims/complex_10_A_c.gif","right","","","","",""
"","null","html-keyboard-response","218","576243","0.0-41.0-0.6","SS1612933089163","","","null","","","<p><img src= images/blank.png width =""200"" height = ""200"" style = ""float:right""></p><p><img src=images/blank.png width =""800"" height = ""200""></p>","","","","","","","","","","","",""
"","2554.4149999986403","sequential-stimulus-presentation","219","579615","0.0-41.0-1.6","SS1612933089163","trial","","40","800","3354.4149999986403","","","","","11","complex_similar","images/stimuli/spore_stims/complex_10_B_c.gif","left","","","","",""
"","null","html-keyboard-response","220","580903","0.0-41.0-0.7","SS1612933089163","","","null","","","<p><img src= images/blank.png width =""200"" height = ""200"" style = ""float:right""></p><p><img src=images/blank.png width =""800"" height = ""200""></p>","","","","","","","","","","","",""
"","2177.305000004708","sequential-stimulus-presentation","221","583894","0.0-41.0-1.7","SS1612933089163","trial","","40","800","2977.305000004708","","","","","11","complex_similar","images/stimuli/spore_stims/complex_10_A_c.gif","right","","","","",""
"","610.6100000033621","html-keyboard-response","222","584507","0.0-42.0","SS1612933089163","pref_question","","98","","","<video width ='960' height = '540' style='padding-top:8%' autoplay muted><source src='images/stimuli/wall_pref.mp4' type='video/mp4'></video>","2","middle","45%","11","","","","","","","",""
"","2287.0299999995623","sequential-stimulus-presentation","223","587609","0.0-43.0","SS1612933089163","pref_reveal","","40","800","3087.0299999995623","","","","","11","","","","novel","","","",""
"","null","html-keyboard-response","224","588597","0.0-44.0-0.0","SS1612933089163","","","null","","","<p><img src= images/blank.png width =""200"" height = ""200"" style = ""float:right""></p><p><img src=images/blank.png width =""800"" height = ""200""></p>","","","","","","","","","","","",""
"","2329.9299999998184","sequential-stimulus-presentation","225","591740","0.0-44.0-1.0","SS1612933089163","trial","","40","800","3129.9299999998184","","","","","12","simple_dissimilar","images/stimuli/spore_stims/simple_18_B_d.gif","right","","","","",""
"","null","html-keyboard-response","226","593016","0.0-44.0-0.1","SS1612933089163","","","null","","","<p><img src= images/blank.png width =""200"" height = ""200"" style = ""float:right""></p><p><img src=images/blank.png width =""800"" height = ""200""></p>","","","","","","","","","","","",""
"","2367.879999997909","sequential-stimulus-presentation","227","596194","0.0-44.0-1.1","SS1612933089163","trial","","40","800","3167.879999997909","","","","","12","simple_dissimilar","images/stimuli/spore_stims/simple_18_B_d.gif","right","","","","",""
"","null","html-keyboard-response","228","597282","0.0-44.0-0.2","SS1612933089163","","","null","","","<p><img src= images/blank.png width =""200"" height = ""200"" style = ""float:right""></p><p><img src=images/blank.png width =""800"" height = ""200""></p>","","","","","","","","","","","",""
"","2713.9200000019046","sequential-stimulus-presentation","229","600806","0.0-44.0-1.2","SS1612933089163","trial","","40","800","3513.9200000019046","","","","","12","simple_dissimilar","images/stimuli/spore_stims/simple_18_B_d.gif","right","","","","",""
"","null","html-keyboard-response","230","601852","0.0-44.0-0.3","SS1612933089163","","","null","","","<p><img src= images/blank.png width =""200"" height = ""200"" style = ""float:right""></p><p><img src=images/blank.png width =""800"" height = ""200""></p>","","","","","","","","","","","",""
"","2780.6099999942817","sequential-stimulus-presentation","231","605446","0.0-44.0-1.3","SS1612933089163","trial","","40","800","3580.6099999942817","","","","","12","simple_dissimilar","images/stimuli/spore_stims/simple_18_B_d.gif","right","","","","",""
"","null","html-keyboard-response","232","606480","0.0-44.0-0.4","SS1612933089163","","","null","","","<p><img src= images/blank.png width =""200"" height = ""200"" style = ""float:right""></p><p><img src=images/blank.png width =""800"" height = ""200""></p>","","","","","","","","","","","",""
"","2256.9049999947893","sequential-stimulus-presentation","233","609550","0.0-44.0-1.4","SS1612933089163","trial","","40","800","3056.9049999947893","","","","","12","simple_dissimilar","images/stimuli/spore_stims/simple_11_A_c.gif","left","","","","",""
"","null","html-keyboard-response","234","610615","0.0-44.0-0.5","SS1612933089163","","","null","","","<p><img src= images/blank.png width =""200"" height = ""200"" style = ""float:right""></p><p><img src=images/blank.png width =""800"" height = ""200""></p>","","","","","","","","","","","",""
"","1723.8200000065845","sequential-stimulus-presentation","235","613150","0.0-44.0-1.5","SS1612933089163","trial","","40","800","2523.8200000065845","","","","","12","simple_dissimilar","images/stimuli/spore_stims/simple_18_B_d.gif","right","","","","",""
"","null","html-keyboard-response","236","614286","0.0-44.0-0.6","SS1612933089163","","","null","","","<p><img src= images/blank.png width =""200"" height = ""200"" style = ""float:right""></p><p><img src=images/blank.png width =""800"" height = ""200""></p>","","","","","","","","","","","",""
"","2885.6050000031246","sequential-stimulus-presentation","237","617983","0.0-44.0-1.6","SS1612933089163","trial","","40","800","3685.6050000031246","","","","","12","simple_dissimilar","images/stimuli/spore_stims/simple_18_B_d.gif","right","","","","",""
"","null","html-keyboard-response","238","618958","0.0-44.0-0.7","SS1612933089163","","","null","","","<p><img src= images/blank.png width =""200"" height = ""200"" style = ""float:right""></p><p><img src=images/blank.png width =""800"" height = ""200""></p>","","","","","","","","","","","",""
"","3328.634999997914","sequential-stimulus-presentation","239","623098","0.0-44.0-1.7","SS1612933089163","trial","","40","800","4128.634999997914","","","","","12","simple_dissimilar","images/stimuli/spore_stims/simple_18_B_d.gif","right","","","","",""
"","561.2249999976484","html-keyboard-response","240","623662","0.0-45.0","SS1612933089163","pref_question","","98","","","<video width ='960' height = '540' style='padding-top:8%' autoplay muted><source src='images/stimuli/wall_pref.mp4' type='video/mp4'></video>","2","middle","45%","12","","","","","","","",""
"","2599.4750000026543","sequential-stimulus-presentation","241","627067","0.0-46.0","SS1612933089163","pref_reveal","","40","800","3399.4750000026543","","","","","12","","","","novel","","","",""
"","null","html-keyboard-response","242","628068","0.0-47.0-0.0","SS1612933089163","","","null","","","<p><img src= images/blank.png width =""200"" height = ""200"" style = ""float:right""></p><p><img src=images/blank.png width =""800"" height = ""200""></p>","","","","","","","","","","","",""
"","2123.429999999702","sequential-stimulus-presentation","243","631004","0.0-47.0-1.0","SS1612933089163","trial","","40","800","2923.429999999702","","","","","13","complex_dissimilar","images/stimuli/spore_stims/complex_02_B_a.gif","middle","","","","",""
"","null","html-keyboard-response","244","632264","0.0-47.0-0.1","SS1612933089163","","","null","","","<p><img src= images/blank.png width =""200"" height = ""200"" style = ""float:right""></p><p><img src=images/blank.png width =""800"" height = ""200""></p>","","","","","","","","","","","",""
"","2304.9100000062026","sequential-stimulus-presentation","245","635378","0.0-47.0-1.1","SS1612933089163","trial","","40","800","3104.9100000062026","","","","","13","complex_dissimilar","images/stimuli/spore_stims/complex_02_B_a.gif","middle","","","","",""
"","null","html-keyboard-response","246","636472","0.0-47.0-0.2","SS1612933089163","","","null","","","<p><img src= images/blank.png width =""200"" height = ""200"" style = ""float:right""></p><p><img src=images/blank.png width =""800"" height = ""200""></p>","","","","","","","","","","","",""
"","2256.804999997141","sequential-stimulus-presentation","247","639536","0.0-47.0-1.2","SS1612933089163","trial","","40","800","3056.804999997141","","","","","13","complex_dissimilar","images/stimuli/spore_stims/complex_02_B_a.gif","middle","","","","",""
"","null","html-keyboard-response","248","640603","0.0-47.0-0.3","SS1612933089163","","","null","","","<p><img src= images/blank.png width =""200"" height = ""200"" style = ""float:right""></p><p><img src=images/blank.png width =""800"" height = ""200""></p>","","","","","","","","","","","",""
"","2070.9449999995995","sequential-stimulus-presentation","249","643485","0.0-47.0-1.3","SS1612933089163","trial","","40","800","2870.9449999995995","","","","","13","complex_dissimilar","images/stimuli/spore_stims/complex_02_B_a.gif","middle","","","","",""
"","null","html-keyboard-response","250","644633","0.0-47.0-0.4","SS1612933089163","","","null","","","<p><img src= images/blank.png width =""200"" height = ""200"" style = ""float:right""></p><p><img src=images/blank.png width =""800"" height = ""200""></p>","","","","","","","","","","","",""
"","2316.8250000016997","sequential-stimulus-presentation","251","647761","0.0-47.0-1.4","SS1612933089163","trial","","40","800","3116.8250000016997","","","","","13","complex_dissimilar","images/stimuli/spore_stims/complex_08_B_b.gif","right","","","","",""
"","null","html-keyboard-response","252","648596","0.0-47.0-0.5","SS1612933089163","","","null","","","<p><img src= images/blank.png width =""200"" height = ""200"" style = ""float:right""></p><p><img src=images/blank.png width =""800"" height = ""200""></p>","","","","","","","","","","","",""
"","2100.7299999983516","sequential-stimulus-presentation","253","651509","0.0-47.0-1.5","SS1612933089163","trial","","40","800","2900.7299999983516","","","","","13","complex_dissimilar","images/stimuli/spore_stims/complex_02_B_a.gif","middle","","","","",""
"","null","html-keyboard-response","254","652786","0.0-47.0-0.6","SS1612933089163","","","null","","","<p><img src= images/blank.png width =""200"" height = ""200"" style = ""float:right""></p><p><img src=images/blank.png width =""800"" height = ""200""></p>","","","","","","","","","","","",""
"","1918.3550000016112","sequential-stimulus-presentation","255","655521","0.0-47.0-1.6","SS1612933089163","trial","","40","800","2718.355000001611","","","","","13","complex_dissimilar","images/stimuli/spore_stims/complex_02_B_a.gif","middle","","","","",""
"","null","html-keyboard-response","256","656623","0.0-47.0-0.7","SS1612933089163","","","null","","","<p><img src= images/blank.png width =""200"" height = ""200"" style = ""float:right""></p><p><img src=images/blank.png width =""800"" height = ""200""></p>","","","","","","","","","","","",""
"","2158.274999994319","sequential-stimulus-presentation","257","659592","0.0-47.0-1.7","SS1612933089163","trial","","40","800","2958.274999994319","","","","","13","complex_dissimilar","images/stimuli/spore_stims/complex_02_B_a.gif","middle","","","","",""
"","594.2999999970198","html-keyboard-response","258","660192","0.0-48.0","SS1612933089163","pref_question","","97","","","<video width ='960' height = '540' style='padding-top:8%' autoplay muted><source src='images/stimuli/wall_pref.mp4' type='video/mp4'></video>","1","left","25%","13","","","","","","","",""
"","2280.709999999148","sequential-stimulus-presentation","259","663279","0.0-49.0","SS1612933089163","pref_reveal","","40","800","3080.709999999148","","","","","13","","","","novel","","","",""
"","null","html-keyboard-response","260","664590","0.0-50.0-0.0","SS1612933089163","","","null","","","<p><img src= images/blank.png width =""200"" height = ""200"" style = ""float:right""></p><p><img src=images/blank.png width =""800"" height = ""200""></p>","","","","","","","","","","","",""
"","2831.095000001369","sequential-stimulus-presentation","261","668234","0.0-50.0-1.0","SS1612933089163","trial","","40","800","3631.095000001369","","","","","14","simple_dissimilar","images/stimuli/spore_stims/simple_14_B_d.gif","left","","","","",""
"","null","html-keyboard-response","262","669440","0.0-50.0-0.1","SS1612933089163","","","null","","","<p><img src= images/blank.png width =""200"" height = ""200"" style = ""float:right""></p><p><img src=images/blank.png width =""800"" height = ""200""></p>","","","","","","","","","","","",""
"","3448.729999996489","sequential-stimulus-presentation","263","673706","0.0-50.0-1.1","SS1612933089163","trial","","40","800","4248.729999996489","","","","","14","simple_dissimilar","images/stimuli/spore_stims/simple_14_B_d.gif","left","","","","",""
"","null","html-keyboard-response","264","674629","0.0-50.0-0.2","SS1612933089163","","","null","","","<p><img src= images/blank.png width =""200"" height = ""200"" style = ""float:right""></p><p><img src=images/blank.png width =""800"" height = ""200""></p>","","","","","","","","","","","",""
"","2822.6250000006985","sequential-stimulus-presentation","265","678262","0.0-50.0-1.2","SS1612933089163","trial","","40","800","3622.6250000006985","","","","","14","simple_dissimilar","images/stimuli/spore_stims/simple_14_B_d.gif","left","","","","",""
"","null","html-keyboard-response","266","679370","0.0-50.0-0.3","SS1612933089163","","","null","","","<p><img src= images/blank.png width =""200"" height = ""200"" style = ""float:right""></p><p><img src=images/blank.png width =""800"" height = ""200""></p>","","","","","","","","","","","",""
"","3443.2549999982584","sequential-stimulus-presentation","267","683627","0.0-50.0-1.3","SS1612933089163","trial","","40","800","4243.254999998258","","","","","14","simple_dissimilar","images/stimuli/spore_stims/simple_14_B_d.gif","left","","","","",""
"","null","html-keyboard-response","268","684770","0.0-50.0-0.4","SS1612933089163","","","null","","","<p><img src= images/blank.png width =""200"" height = ""200"" style = ""float:right""></p><p><img src=images/blank.png width =""800"" height = ""200""></p>","","","","","","","","","","","",""
"","3666.994999999646","sequential-stimulus-presentation","269","689249","0.0-50.0-1.4","SS1612933089163","trial","","40","800","4466.994999999646","","","","","14","simple_dissimilar","images/stimuli/spore_stims/simple_14_B_d.gif","left","","","","",""
"","null","html-keyboard-response","270","690341","0.0-50.0-0.5","SS1612933089163","","","null","","","<p><img src= images/blank.png width =""200"" height = ""200"" style = ""float:right""></p><p><img src=images/blank.png width =""800"" height = ""200""></p>","","","","","","","","","","","",""
"","2003.244999999879","sequential-stimulus-presentation","271","693154","0.0-50.0-1.5","SS1612933089163","trial","","40","800","2803.244999999879","","","","","14","simple_dissimilar","images/stimuli/spore_stims/simple_16_A_b.gif","right","","","","",""
"","null","html-keyboard-response","272","693982","0.0-50.0-0.6","SS1612933089163","","","null","","","<p><img src= images/blank.png width =""200"" height = ""200"" style = ""float:right""></p><p><img src=images/blank.png width =""800"" height = ""200""></p>","","","","","","","","","","","",""
"","2853.2499999928987","sequential-stimulus-presentation","273","697647","0.0-50.0-1.6","SS1612933089163","trial","","40","800","3653.2499999928987","","","","","14","simple_dissimilar","images/stimuli/spore_stims/simple_14_B_d.gif","left","","","","",""
"","null","html-keyboard-response","274","698863","0.0-50.0-0.7","SS1612933089163","","","null","","","<p><img src= images/blank.png width =""200"" height = ""200"" style = ""float:right""></p><p><img src=images/blank.png width =""800"" height = ""200""></p>","","","","","","","","","","","",""
"","3408.7499999951106","sequential-stimulus-presentation","275","703088","0.0-50.0-1.7","SS1612933089163","trial","","40","800","4208.749999995111","","","","","14","simple_dissimilar","images/stimuli/spore_stims/simple_14_B_d.gif","left","","","","",""
"","749.6450000035111","html-keyboard-response","276","703840","0.0-51.0","SS1612933089163","pref_question","","98","","","<video width ='960' height = '540' style='padding-top:8%' autoplay muted><source src='images/stimuli/wall_pref.mp4' type='video/mp4'></video>","2","middle","45%","14","","","","","","","",""
"","2727.974999994389","sequential-stimulus-presentation","277","707377","0.0-52.0","SS1612933089163","pref_reveal","","40","800","3527.974999994389","","","","","14","","","","novel","","","",""
"","null","html-keyboard-response","278","708586","0.0-53.0-0.0","SS1612933089163","","","null","","","<p><img src= images/blank.png width =""200"" height = ""200"" style = ""float:right""></p><p><img src=images/blank.png width =""800"" height = ""200""></p>","","","","","","","","","","","",""
"","2131.609999996843","sequential-stimulus-presentation","279","711528","0.0-53.0-1.0","SS1612933089163","trial","","40","800","2931.609999996843","","","","","15","simple_similar","images/stimuli/spore_stims/simple_11_B_b.gif","right","","","","",""
"","null","html-keyboard-response","280","712424","0.0-53.0-0.1","SS1612933089163","","","null","","","<p><img src= images/blank.png width =""200"" height = ""200"" style = ""float:right""></p><p><img src=images/blank.png width =""800"" height = ""200""></p>","","","","","","","","","","","",""
"","2554.1749999974854","sequential-stimulus-presentation","281","715788","0.0-53.0-1.1","SS1612933089163","trial","","40","800","3354.1749999974854","","","","","15","simple_similar","images/stimuli/spore_stims/simple_11_B_b.gif","right","","","","",""
"","null","html-keyboard-response","282","716808","0.0-53.0-0.2","SS1612933089163","","","null","","","<p><img src= images/blank.png width =""200"" height = ""200"" style = ""float:right""></p><p><img src=images/blank.png width =""800"" height = ""200""></p>","","","","","","","","","","","",""
"","3001.4650000011316","sequential-stimulus-presentation","283","720618","0.0-53.0-1.2","SS1612933089163","trial","","40","800","3801.4650000011316","","","","","15","simple_similar","images/stimuli/spore_stims/simple_11_A_b.gif","middle","","","","",""
"","null","html-keyboard-response","284","721777","0.0-53.0-0.3","SS1612933089163","","","null","","","<p><img src= images/blank.png width =""200"" height = ""200"" style = ""float:right""></p><p><img src=images/blank.png width =""800"" height = ""200""></p>","","","","","","","","","","","",""
"","3287.9849999953294","sequential-stimulus-presentation","285","725886","0.0-53.0-1.3","SS1612933089163","trial","","40","800","4087.9849999953294","","","","","15","simple_similar","images/stimuli/spore_stims/simple_11_B_b.gif","right","","","","",""
"","null","html-keyboard-response","286","726728","0.0-53.0-0.4","SS1612933089163","","","null","","","<p><img src= images/blank.png width =""200"" height = ""200"" style = ""float:right""></p><p><img src=images/blank.png width =""800"" height = ""200""></p>","","","","","","","","","","","",""
"","3289.2050000008894","sequential-stimulus-presentation","287","730846","0.0-53.0-1.4","SS1612933089163","trial","","40","800","4089.2050000008894","","","","","15","simple_similar","images/stimuli/spore_stims/simple_11_B_b.gif","right","","","","",""
"","null","html-keyboard-response","288","731776","0.0-53.0-0.5","SS1612933089163","","","null","","","<p><img src= images/blank.png width =""200"" height = ""200"" style = ""float:right""></p><p><img src=images/blank.png width =""800"" height = ""200""></p>","","","","","","","","","","","",""
"","3213.6249999967404","sequential-stimulus-presentation","289","735799","0.0-53.0-1.5","SS1612933089163","trial","","40","800","4013.6249999967404","","","","","15","simple_similar","images/stimuli/spore_stims/simple_11_B_b.gif","right","","","","",""
"","null","html-keyboard-response","290","736932","0.0-53.0-0.6","SS1612933089163","","","null","","","<p><img src= images/blank.png width =""200"" height = ""200"" style = ""float:right""></p><p><img src=images/blank.png width =""800"" height = ""200""></p>","","","","","","","","","","","",""
"","3568.550000003539","sequential-stimulus-presentation","291","741311","0.0-53.0-1.6","SS1612933089163","trial","","40","800","4368.550000003539","","","","","15","simple_similar","images/stimuli/spore_stims/simple_11_B_b.gif","right","","","","",""
"","null","html-keyboard-response","292","742525","0.0-53.0-0.7","SS1612933089163","","","null","","","<p><img src= images/blank.png width =""200"" height = ""200"" style = ""float:right""></p><p><img src=images/blank.png width =""800"" height = ""200""></p>","","","","","","","","","","","",""
"","3297.924999998999","sequential-stimulus-presentation","293","746645","0.0-53.0-1.7","SS1612933089163","trial","","40","800","4097.924999998999","","","","","15","simple_similar","images/stimuli/spore_stims/simple_11_B_b.gif","right","","","","",""
"","694.8300000004238","html-keyboard-response","294","747344","0.0-54.0","SS1612933089163","pref_question","","97","","","<video width ='960' height = '540' style='padding-top:8%' autoplay muted><source src='images/stimuli/wall_pref.mp4' type='video/mp4'></video>","1","left","25%","15","","","","","","","",""
"","2523.9000000001397","sequential-stimulus-presentation","295","750688","0.0-55.0","SS1612933089163","pref_reveal","","40","800","3323.9000000001397","","","","","15","","","","novel","","","",""
"","null","html-keyboard-response","296","751839","0.0-56.0-0.0","SS1612933089163","","","null","","","<p><img src= images/blank.png width =""200"" height = ""200"" style = ""float:right""></p><p><img src=images/blank.png width =""800"" height = ""200""></p>","","","","","","","","","","","",""
"","1865.8250000007683","sequential-stimulus-presentation","297","754534","0.0-56.0-1.0","SS1612933089163","trial","","40","800","2665.8250000007683","","","","","16","complex_similar","images/stimuli/spore_stims/complex_06_B_c.gif","left","","","","",""
"","null","html-keyboard-response","298","755529","0.0-56.0-0.1","SS1612933089163","","","null","","","<p><img src= images/blank.png width =""200"" height = ""200"" style = ""float:right""></p><p><img src=images/blank.png width =""800"" height = ""200""></p>","","","","","","","","","","","",""
"","2494.1650000037625","sequential-stimulus-presentation","299","758835","0.0-56.0-1.1","SS1612933089163","trial","","40","800","3294.1650000037625","","","","","16","complex_similar","images/stimuli/spore_stims/complex_06_B_c.gif","left","","","","",""
"","null","html-keyboard-response","300","759931","0.0-56.0-0.2","SS1612933089163","","","null","","","<p><img src= images/blank.png width =""200"" height = ""200"" style = ""float:right""></p><p><img src=images/blank.png width =""800"" height = ""200""></p>","","","","","","","","","","","",""
"","3123.1450000050245","sequential-stimulus-presentation","301","763865","0.0-56.0-1.2","SS1612933089163","trial","","40","800","3923.1450000050245","","","","","16","complex_similar","images/stimuli/spore_stims/complex_06_B_c.gif","left","","","","",""
"","null","html-keyboard-response","302","765064","0.0-56.0-0.3","SS1612933089163","","","null","","","<p><img src= images/blank.png width =""200"" height = ""200"" style = ""float:right""></p><p><img src=images/blank.png width =""800"" height = ""200""></p>","","","","","","","","","","","",""
"","3082.470000001136","sequential-stimulus-presentation","303","768956","0.0-56.0-1.3","SS1612933089163","trial","","40","800","3882.470000001136","","","","","16","complex_similar","images/stimuli/spore_stims/complex_06_B_c.gif","left","","","","",""
"","null","html-keyboard-response","304","770148","0.0-56.0-0.4","SS1612933089163","","","null","","","<p><img src= images/blank.png width =""200"" height = ""200"" style = ""float:right""></p><p><img src=images/blank.png width =""800"" height = ""200""></p>","","","","","","","","","","","",""
"","2994.7399999946356","sequential-stimulus-presentation","305","773954","0.0-56.0-1.4","SS1612933089163","trial","","40","800","3794.7399999946356","","","","","16","complex_similar","images/stimuli/spore_stims/complex_06_B_c.gif","left","","","","",""
"","null","html-keyboard-response","306","775065","0.0-56.0-0.5","SS1612933089163","","","null","","","<p><img src= images/blank.png width =""200"" height = ""200"" style = ""float:right""></p><p><img src=images/blank.png width =""800"" height = ""200""></p>","","","","","","","","","","","",""
"","2826.9700000018347","sequential-stimulus-presentation","307","778700","0.0-56.0-1.5","SS1612933089163","trial","","40","800","3626.9700000018347","","","","","16","complex_similar","images/stimuli/spore_stims/complex_06_A_c.gif","right","","","","",""
"","null","html-keyboard-response","308","779590","0.0-56.0-0.6","SS1612933089163","","","null","","","<p><img src= images/blank.png width =""200"" height = ""200"" style = ""float:right""></p><p><img src=images/blank.png width =""800"" height = ""200""></p>","","","","","","","","","","","",""
"","2489.214999994263","sequential-stimulus-presentation","309","782891","0.0-56.0-1.6","SS1612933089163","trial","","40","800","3289.214999994263","","","","","16","complex_similar","images/stimuli/spore_stims/complex_06_B_c.gif","left","","","","",""
"","null","html-keyboard-response","310","784040","0.0-56.0-0.7","SS1612933089163","","","null","","","<p><img src= images/blank.png width =""200"" height = ""200"" style = ""float:right""></p><p><img src=images/blank.png width =""800"" height = ""200""></p>","","","","","","","","","","","",""
"","2223.2749999966472","sequential-stimulus-presentation","311","787077","0.0-56.0-1.7","SS1612933089163","trial","","40","800","3023.2749999966472","","","","","16","complex_similar","images/stimuli/spore_stims/complex_06_B_c.gif","left","","","","",""
"","777.4049999935087","html-keyboard-response","312","787858","0.0-57.0","SS1612933089163","pref_question","","98","","","<video width ='960' height = '540' style='padding-top:8%' autoplay muted><source src='images/stimuli/wall_pref.mp4' type='video/mp4'></video>","2","middle","45%","16","","","","","","","",""
"","2328.665000000852","sequential-stimulus-presentation","313","790993","0.0-58.0","SS1612933089163","pref_reveal","","40","800","3128.665000000852","","","","","16","","","","novel","","","",""
"","null","html-keyboard-response","314","792082","0.0-59.0-0.0","SS1612933089163","","","null","","","<p><img src= images/blank.png width =""200"" height = ""200"" style = ""float:right""></p><p><img src=images/blank.png width =""800"" height = ""200""></p>","","","","","","","","","","","",""
"","2259.8500000021886","sequential-stimulus-presentation","315","795164","0.0-59.0-1.0","SS1612933089163","trial","","40","800","3059.8500000021886","","","","","17","simple_dissimilar","images/stimuli/spore_stims/simple_02_B_d.gif","middle","","","","",""
"","null","html-keyboard-response","316","796410","0.0-59.0-0.1","SS1612933089163","","","null","","","<p><img src= images/blank.png width =""200"" height = ""200"" style = ""float:right""></p><p><img src=images/blank.png width =""800"" height = ""200""></p>","","","","","","","","","","","",""
"","2275.1250000001164","sequential-stimulus-presentation","317","799491","0.0-59.0-1.1","SS1612933089163","trial","","40","800","3075.1250000001164","","","","","17","simple_dissimilar","images/stimuli/spore_stims/simple_02_B_d.gif","middle","","","","",""
"","null","html-keyboard-response","318","800781","0.0-59.0-0.2","SS1612933089163","","","null","","","<p><img src= images/blank.png width =""200"" height = ""200"" style = ""float:right""></p><p><img src=images/blank.png width =""800"" height = ""200""></p>","","","","","","","","","","","",""
"","2228.6549999990966","sequential-stimulus-presentation","319","803837","0.0-59.0-1.2","SS1612933089163","trial","","40","800","3028.6549999990966","","","","","17","simple_dissimilar","images/stimuli/spore_stims/simple_02_B_d.gif","middle","","","","",""
"","null","html-keyboard-response","320","804821","0.0-59.0-0.3","SS1612933089163","","","null","","","<p><img src= images/blank.png width =""200"" height = ""200"" style = ""float:right""></p><p><img src=images/blank.png width =""800"" height = ""200""></p>","","","","","","","","","","","",""
"","2499.2100000018254","sequential-stimulus-presentation","321","808131","0.0-59.0-1.3","SS1612933089163","trial","","40","800","3299.2100000018254","","","","","17","simple_dissimilar","images/stimuli/spore_stims/simple_02_B_d.gif","middle","","","","",""
"","null","html-keyboard-response","322","809059","0.0-59.0-0.4","SS1612933089163","","","null","","","<p><img src= images/blank.png width =""200"" height = ""200"" style = ""float:right""></p><p><img src=images/blank.png width =""800"" height = ""200""></p>","","","","","","","","","","","",""
"","2508.4700000006706","sequential-stimulus-presentation","323","812381","0.0-59.0-1.4","SS1612933089163","trial","","40","800","3308.4700000006706","","","","","17","simple_dissimilar","images/stimuli/spore_stims/simple_02_B_d.gif","middle","","","","",""
"","null","html-keyboard-response","324","813287","0.0-59.0-0.5","SS1612933089163","","","null","","","<p><img src= images/blank.png width =""200"" height = ""200"" style = ""float:right""></p><p><img src=images/blank.png width =""800"" height = ""200""></p>","","","","","","","","","","","",""
"","2526.5350000044564","sequential-stimulus-presentation","325","816625","0.0-59.0-1.5","SS1612933089163","trial","","40","800","3326.5350000044564","","","","","17","simple_dissimilar","images/stimuli/spore_stims/simple_02_B_d.gif","middle","","","","",""
"","null","html-keyboard-response","326","817695","0.0-59.0-0.6","SS1612933089163","","","null","","","<p><img src= images/blank.png width =""200"" height = ""200"" style = ""float:right""></p><p><img src=images/blank.png width =""800"" height = ""200""></p>","","","","","","","","","","","",""
"","2442.074999999022","sequential-stimulus-presentation","327","820961","0.0-59.0-1.6","SS1612933089163","trial","","40","800","3242.074999999022","","","","","17","simple_dissimilar","images/stimuli/spore_stims/simple_19_A_a.gif","right","","","","",""
"","null","html-keyboard-response","328","821788","0.0-59.0-0.7","SS1612933089163","","","null","","","<p><img src= images/blank.png width =""200"" height = ""200"" style = ""float:right""></p><p><img src=images/blank.png width =""800"" height = ""200""></p>","","","","","","","","","","","",""
"","1461.7849999994505","sequential-stimulus-presentation","329","824060","0.0-59.0-1.7","SS1612933089163","trial","","40","800","2261.7849999994505","","","","","17","simple_dissimilar","images/stimuli/spore_stims/simple_02_B_d.gif","middle","","","","",""
"","643.5550000023795","html-keyboard-response","330","824710","0.0-60.0","SS1612933089163","pref_question","","97","","","<video width ='960' height = '540' style='padding-top:8%' autoplay muted><source src='images/stimuli/wall_pref.mp4' type='video/mp4'></video>","1","left","25%","17","","","","","","","",""
"","3917.1600000044564","sequential-stimulus-presentation","331","829437","0.0-61.0","SS1612933089163","pref_reveal","","40","800","4717.160000004456","","","","","17","","","","novel","","","",""
"","null","html-keyboard-response","332","830646","0.0-62.0-0.0","SS1612933089163","","","null","","","<p><img src= images/blank.png width =""200"" height = ""200"" style = ""float:right""></p><p><img src=images/blank.png width =""800"" height = ""200""></p>","","","","","","","","","","","",""
"","2356.8599999998696","sequential-stimulus-presentation","333","833817","0.0-62.0-1.0","SS1612933089163","trial","","40","800","3156.8599999998696","","","","","18","complex_similar","images/stimuli/spore_stims/complex_16_B_c.gif","right","","","","",""
"","null","html-keyboard-response","334","834851","0.0-62.0-0.1","SS1612933089163","","","null","","","<p><img src= images/blank.png width =""200"" height = ""200"" style = ""float:right""></p><p><img src=images/blank.png width =""800"" height = ""200""></p>","","","","","","","","","","","",""
"","2222.034999998752","sequential-stimulus-presentation","335","837898","0.0-62.0-1.1","SS1612933089163","trial","","40","800","3022.034999998752","","","","","18","complex_similar","images/stimuli/spore_stims/complex_16_B_c.gif","right","","","","",""
"","null","html-keyboard-response","336","839068","0.0-62.0-0.2","SS1612933089163","","","null","","","<p><img src= images/blank.png width =""200"" height = ""200"" style = ""float:right""></p><p><img src=images/blank.png width =""800"" height = ""200""></p>","","","","","","","","","","","",""
"","2263.549999995972","sequential-stimulus-presentation","337","842145","0.0-62.0-1.2","SS1612933089163","trial","","40","800","3063.549999995972","","","","","18","complex_similar","images/stimuli/spore_stims/complex_16_B_c.gif","right","","","","",""
"","null","html-keyboard-response","338","843057","0.0-62.0-0.3","SS1612933089163","","","null","","","<p><img src= images/blank.png width =""200"" height = ""200"" style = ""float:right""></p><p><img src=images/blank.png width =""800"" height = ""200""></p>","","","","","","","","","","","",""
"","1851.0850000020582","sequential-stimulus-presentation","339","845723","0.0-62.0-1.3","SS1612933089163","trial","","40","800","2651.085000002058","","","","","18","complex_similar","images/stimuli/spore_stims/complex_16_B_c.gif","right","","","","",""
"","null","html-keyboard-response","340","846794","0.0-62.0-0.4","SS1612933089163","","","null","","","<p><img src= images/blank.png width =""200"" height = ""200"" style = ""float:right""></p><p><img src=images/blank.png width =""800"" height = ""200""></p>","","","","","","","","","","","",""
"","2093.8649999952177","sequential-stimulus-presentation","341","849699","0.0-62.0-1.4","SS1612933089163","trial","","40","800","2893.8649999952177","","","","","18","complex_similar","images/stimuli/spore_stims/complex_16_B_c.gif","right","","","","",""
"","null","html-keyboard-response","342","850803","0.0-62.0-0.5","SS1612933089163","","","null","","","<p><img src= images/blank.png width =""200"" height = ""200"" style = ""float:right""></p><p><img src=images/blank.png width =""800"" height = ""200""></p>","","","","","","","","","","","",""
"","2071.1799999990035","sequential-stimulus-presentation","343","853688","0.0-62.0-1.5","SS1612933089163","trial","","40","800","2871.1799999990035","","","","","18","complex_similar","images/stimuli/spore_stims/complex_16_B_c.gif","right","","","","",""
"","null","html-keyboard-response","344","854864","0.0-62.0-0.6","SS1612933089163","","","null","","","<p><img src= images/blank.png width =""200"" height = ""200"" style = ""float:right""></p><p><img src=images/blank.png width =""800"" height = ""200""></p>","","","","","","","","","","","",""
"","2181.4450000020443","sequential-stimulus-presentation","345","857859","0.0-62.0-1.6","SS1612933089163","trial","","40","800","2981.4450000020443","","","","","18","complex_similar","images/stimuli/spore_stims/complex_16_A_c.gif","left","","","","",""
"","null","html-keyboard-response","346","859100","0.0-62.0-0.7","SS1612933089163","","","null","","","<p><img src= images/blank.png width =""200"" height = ""200"" style = ""float:right""></p><p><img src=images/blank.png width =""800"" height = ""200""></p>","","","","","","","","","","","",""
"","2036.4499999994878","sequential-stimulus-presentation","347","861952","0.0-62.0-1.7","SS1612933089163","trial","","40","800","2836.4499999994878","","","","","18","complex_similar","images/stimuli/spore_stims/complex_16_B_c.gif","right","","","","",""
"","741.0200000012992","html-keyboard-response","348","862697","0.0-63.0","SS1612933089163","pref_question","","98","","","<video width ='960' height = '540' style='padding-top:8%' autoplay muted><source src='images/stimuli/wall_pref.mp4' type='video/mp4'></video>","2","middle","45%","18","","","","","","","",""
"","2168.740000000922","sequential-stimulus-presentation","349","865680","0.0-64.0","SS1612933089163","pref_reveal","","40","800","2968.740000000922","","","","","18","","","","novel","","","",""
"","null","html-keyboard-response","350","866885","0.0-65.0-0.0","SS1612933089163","","","null","","","<p><img src= images/blank.png width =""200"" height = ""200"" style = ""float:right""></p><p><img src=images/blank.png width =""800"" height = ""200""></p>","","","","","","","","","","","",""
"","1903.4749999991618","sequential-stimulus-presentation","351","869600","0.0-65.0-1.0","SS1612933089163","trial","","40","800","2703.474999999162","","","","","19","simple_dissimilar","images/stimuli/spore_stims/simple_01_B_a.gif","right","","","","",""
"","null","html-keyboard-response","352","870663","0.0-65.0-0.1","SS1612933089163","","","null","","","<p><img src= images/blank.png width =""200"" height = ""200"" style = ""float:right""></p><p><img src=images/blank.png width =""800"" height = ""200""></p>","","","","","","","","","","","",""
"","2217.399999994086","sequential-stimulus-presentation","353","873690","0.0-65.0-1.1","SS1612933089163","trial","","40","800","3017.399999994086","","","","","19","simple_dissimilar","images/stimuli/spore_stims/simple_01_B_a.gif","right","","","","",""
"","null","html-keyboard-response","354","874777","0.0-65.0-0.2","SS1612933089163","","","null","","","<p><img src= images/blank.png width =""200"" height = ""200"" style = ""float:right""></p><p><img src=images/blank.png width =""800"" height = ""200""></p>","","","","","","","","","","","",""
"","2248.4449999973876","sequential-stimulus-presentation","355","877839","0.0-65.0-1.2","SS1612933089163","trial","","40","800","3048.4449999973876","","","","","19","simple_dissimilar","images/stimuli/spore_stims/simple_01_B_a.gif","right","","","","",""
"","null","html-keyboard-response","356","879037","0.0-65.0-0.3","SS1612933089163","","","null","","","<p><img src= images/blank.png width =""200"" height = ""200"" style = ""float:right""></p><p><img src=images/blank.png width =""800"" height = ""200""></p>","","","","","","","","","","","",""
"","2237.4500000005355","sequential-stimulus-presentation","357","882103","0.0-65.0-1.3","SS1612933089163","trial","","40","800","3037.4500000005355","","","","","19","simple_dissimilar","images/stimuli/spore_stims/simple_01_B_a.gif","right","","","","",""
"","null","html-keyboard-response","358","883184","0.0-65.0-0.4","SS1612933089163","","","null","","","<p><img src= images/blank.png width =""200"" height = ""200"" style = ""float:right""></p><p><img src=images/blank.png width =""800"" height = ""200""></p>","","","","","","","","","","","",""
"","2457.0800000000745","sequential-stimulus-presentation","359","886455","0.0-65.0-1.4","SS1612933089163","trial","","40","800","3257.0800000000745","","","","","19","simple_dissimilar","images/stimuli/spore_stims/simple_17_B_c.gif","middle","","","","",""
"","null","html-keyboard-response","360","887382","0.0-65.0-0.5","SS1612933089163","","","null","","","<p><img src= images/blank.png width =""200"" height = ""200"" style = ""float:right""></p><p><img src=images/blank.png width =""800"" height = ""200""></p>","","","","","","","","","","","",""
"","2293.485000001965","sequential-stimulus-presentation","361","890489","0.0-65.0-1.5","SS1612933089163","trial","","40","800","3093.485000001965","","","","","19","simple_dissimilar","images/stimuli/spore_stims/simple_01_B_a.gif","right","","","","",""
"","null","html-keyboard-response","362","891363","0.0-65.0-0.6","SS1612933089163","","","null","","","<p><img src= images/blank.png width =""200"" height = ""200"" style = ""float:right""></p><p><img src=images/blank.png width =""800"" height = ""200""></p>","","","","","","","","","","","",""
"","2228.9900000032503","sequential-stimulus-presentation","363","894403","0.0-65.0-1.6","SS1612933089163","trial","","40","800","3028.9900000032503","","","","","19","simple_dissimilar","images/stimuli/spore_stims/simple_01_B_a.gif","right","","","","",""
