"view_history","rt","trial_type","trial_index","time_elapsed","internal_node_id","subject","stimulus_type","trial_stimulus","key_press","minimum_viewing_duration","trial_looking_time","block_deviant","block_background","stimulus","wall_pref","location","location_percent","block_number","block_type","stimulus_displayed","position_displayed","stim_type_selected","responses","question_order","stimulus_left","stimulus_right"
"[{""page_index"":0,""viewing_time"":3984.0000001713634}]","3986.0000000335276","instructions","0","3987","0.0-0.0","SS1613140721165","","","","","","","","","","","","","","","","","","","",""
"[{""page_index"":0,""viewing_time"":5011.000000406057},{""page_index"":1,""viewing_time"":5859.999999869615}]","10871.000000275671","instructions","1","16863","0.0-1.0","SS1613140721165","instructions","","","","","","","","","","","","","","","","","","",""
"","6634.000000078231","sequential-stimulus-presentation","2","24304","0.0-2.0","SS1613140721165","","","40","800","7434.000000078231","null","null","","","","","","","","","","","","",""
"","2257.9999999143183","sequential-stimulus-presentation","3","27368","0.0-3.0","SS1613140721165","","","40","800","3057.9999999143183","null","null","","","","","","","","","","","","",""
"[{""page_index"":0,""viewing_time"":3374.0000003017485}]","3374.0000003017485","instructions","4","30744","0.0-4.0","SS1613140721165","instructions","","","","","","","","","","","","","","","","","","",""
"","6694.00000013411","html-keyboard-response","5","37445","0.0-5.0","SS1613140721165","instructions","","49","","","","","<video width ='960' height = '540' autoplay muted><source src='images/stimuli/wall_pref.mp4' type='video/mp4'></video>","1","left","25%","","","","","","","","",""
"","1580.9999997727573","sequential-stimulus-presentation","6","39833","0.0-6.0","SS1613140721165","pref_reveal","","40","800","2380.9999997727573","null","null","","","","","","","","","","","","",""
"[{""page_index"":0,""viewing_time"":3155.999999959022},{""page_index"":1,""viewing_time"":4341.999999713153},{""page_index"":2,""viewing_time"":2428.000000305474},{""page_index"":3,""viewing_time"":1162.9999997094274}]","11088.999999687076","instructions","7","50926","0.0-7.0","SS1613140721165","instructions","","","","","","","","","","","","","","","","","","",""
"","null","html-keyboard-response","8","52068","0.0-8.0-0.0","SS1613140721165","","","null","","","","","<p><img src= images/blank.png width =""200"" height = ""200"" style = ""float:right""></p><p><img src=images/blank.png width =""800"" height = ""200""></p>","","","","","","","","","","","",""
"","1217.9999998770654","sequential-stimulus-presentation","9","54144","0.0-8.0-1.0","SS1613140721165","trial","","40","800","2017.9999998770654","images/stimuli/spore_stims/complex_11_B_b.gif","images/stimuli/spore_stims/complex_11_A_b.gif","","","","","0","complex_similar","images/stimuli/spore_stims/complex_11_A_b.gif","right","","","","",""
"","null","html-keyboard-response","10","55059","0.0-8.0-0.1","SS1613140721165","","","null","","","","","<p><img src= images/blank.png width =""200"" height = ""200"" style = ""float:right""></p><p><img src=images/blank.png width =""800"" height = ""200""></p>","","","","","","","","","","","",""
"","617.0000000856817","sequential-stimulus-presentation","11","56493","0.0-8.0-1.1","SS1613140721165","trial","","40","800","1417.0000000856817","images/stimuli/spore_stims/complex_11_B_b.gif","images/stimuli/spore_stims/complex_11_A_b.gif","","","","","0","complex_similar","images/stimuli/spore_stims/complex_11_A_b.gif","right","","","","",""
"","null","html-keyboard-response","12","57485","0.0-8.0-0.2","SS1613140721165","","","null","","","","","<p><img src= images/blank.png width =""200"" height = ""200"" style = ""float:right""></p><p><img src=images/blank.png width =""800"" height = ""200""></p>","","","","","","","","","","","",""
"","246.99999997392297","sequential-stimulus-presentation","13","58551","0.0-8.0-1.2","SS1613140721165","trial","","40","800","1046.999999973923","images/stimuli/spore_stims/complex_11_B_b.gif","images/stimuli/spore_stims/complex_11_A_b.gif","","","","","0","complex_similar","images/stimuli/spore_stims/complex_11_A_b.gif","right","","","","",""
"","null","html-keyboard-response","14","59550","0.0-8.0-0.3","SS1613140721165","","","null","","","","","<p><img src= images/blank.png width =""200"" height = ""200"" style = ""float:right""></p><p><img src=images/blank.png width =""800"" height = ""200""></p>","","","","","","","","","","","",""
"","1507.9999999143183","sequential-stimulus-presentation","15","61866","0.0-8.0-1.3","SS1613140721165","trial","","40","800","2307.9999999143183","images/stimuli/spore_stims/complex_11_B_b.gif","images/stimuli/spore_stims/complex_11_A_b.gif","","","","","0","complex_similar","images/stimuli/spore_stims/complex_11_A_b.gif","right","","","","",""
"","null","html-keyboard-response","16","63107","0.0-8.0-0.4","SS1613140721165","","","null","","","","","<p><img src= images/blank.png width =""200"" height = ""200"" style = ""float:right""></p><p><img src=images/blank.png width =""800"" height = ""200""></p>","","","","","","","","","","","",""
"","91.00000001490116","sequential-stimulus-presentation","17","64007","0.0-8.0-1.4","SS1613140721165","trial","","40","800","891.0000000149012","images/stimuli/spore_stims/complex_11_B_b.gif","images/stimuli/spore_stims/complex_11_A_b.gif","","","","","0","complex_similar","images/stimuli/spore_stims/complex_11_A_b.gif","right","","","","",""
"","null","html-keyboard-response","18","65043","0.0-8.0-0.5","SS1613140721165","","","null","","","","","<p><img src= images/blank.png width =""200"" height = ""200"" style = ""float:right""></p><p><img src=images/blank.png width =""800"" height = ""200""></p>","","","","","","","","","","","",""
"","958.9999997988343","sequential-stimulus-presentation","19","66818","0.0-8.0-1.5","SS1613140721165","trial","","40","800","1758.9999997988343","images/stimuli/spore_stims/complex_11_B_b.gif","images/stimuli/spore_stims/complex_11_A_b.gif","","","","","0","complex_similar","images/stimuli/spore_stims/complex_11_A_b.gif","right","","","","",""
"","null","html-keyboard-response","20","68031","0.0-8.0-0.6","SS1613140721165","","","null","","","","","<p><img src= images/blank.png width =""200"" height = ""200"" style = ""float:right""></p><p><img src=images/blank.png width =""800"" height = ""200""></p>","","","","","","","","","","","",""
"","1207.9999996349216","sequential-stimulus-presentation","21","70063","0.0-8.0-1.6","SS1613140721165","trial","","40","800","2007.9999996349216","images/stimuli/spore_stims/complex_11_B_b.gif","images/stimuli/spore_stims/complex_11_A_b.gif","","","","","0","complex_similar","images/stimuli/spore_stims/complex_11_B_b.gif","left","","","","",""
"","null","html-keyboard-response","22","71356","0.0-8.0-0.7","SS1613140721165","","","null","","","","","<p><img src= images/blank.png width =""200"" height = ""200"" style = ""float:right""></p><p><img src=images/blank.png width =""800"" height = ""200""></p>","","","","","","","","","","","",""
"","691.0000001080334","sequential-stimulus-presentation","23","72859","0.0-8.0-1.7","SS1613140721165","trial","","40","800","1491.0000001080334","images/stimuli/spore_stims/complex_11_B_b.gif","images/stimuli/spore_stims/complex_11_A_b.gif","","","","","0","complex_similar","images/stimuli/spore_stims/complex_11_A_b.gif","right","","","","",""
"","11389.000000432134","html-keyboard-response","24","84255","0.0-9.0","SS1613140721165","pref_question","","51","","","","","<video width ='960' height = '540' style='padding-top:8%' autoplay muted><source src='images/stimuli/wall_pref.mp4' type='video/mp4'></video>","3","right","66%","0","","","","","","","",""
"","1067.9999999701977","sequential-stimulus-presentation","25","86132","0.0-10.0","SS1613140721165","pref_reveal","","40","800","1867.9999999701977","null","null","","","","","0","","","","background","","","",""
"","null","html-keyboard-response","26","87080","0.0-11.0-0.0","SS1613140721165","","","null","","","","","<p><img src= images/blank.png width =""200"" height = ""200"" style = ""float:right""></p><p><img src=images/blank.png width =""800"" height = ""200""></p>","","","","","","","","","","","",""
"","1061.9999999180436","sequential-stimulus-presentation","27","88947","0.0-11.0-1.0","SS1613140721165","trial","","40","800","1861.9999999180436","images/stimuli/spore_stims/complex_10_B_b.gif","images/stimuli/spore_stims/complex_07_A_d.gif","","","","","1","complex_dissimilar","images/stimuli/spore_stims/complex_07_A_d.gif","left","","","","",""
"","null","html-keyboard-response","28","89862","0.0-11.0-0.1","SS1613140721165","","","null","","","","","<p><img src= images/blank.png width =""200"" height = ""200"" style = ""float:right""></p><p><img src=images/blank.png width =""800"" height = ""200""></p>","","","","","","","","","","","",""
"","748.0000001378357","sequential-stimulus-presentation","29","91445","0.0-11.0-1.1","SS1613140721165","trial","","40","800","1548.0000001378357","images/stimuli/spore_stims/complex_10_B_b.gif","images/stimuli/spore_stims/complex_07_A_d.gif","","","","","1","complex_dissimilar","images/stimuli/spore_stims/complex_07_A_d.gif","left","","","","",""
"","null","html-keyboard-response","30","92445","0.0-11.0-0.2","SS1613140721165","","","null","","","","","<p><img src= images/blank.png width =""200"" height = ""200"" style = ""float:right""></p><p><img src=images/blank.png width =""800"" height = ""200""></p>","","","","","","","","","","","",""
"","384.0000000782311","sequential-stimulus-presentation","31","93645","0.0-11.0-1.2","SS1613140721165","trial","","40","800","1184.000000078231","images/stimuli/spore_stims/complex_10_B_b.gif","images/stimuli/spore_stims/complex_07_A_d.gif","","","","","1","complex_dissimilar","images/stimuli/spore_stims/complex_07_A_d.gif","left","","","","",""
"","null","html-keyboard-response","32","94668","0.0-11.0-0.3","SS1613140721165","","","null","","","","","<p><img src= images/blank.png width =""200"" height = ""200"" style = ""float:right""></p><p><img src=images/blank.png width =""800"" height = ""200""></p>","","","","","","","","","","","",""
"","513.9999999664724","sequential-stimulus-presentation","33","96006","0.0-11.0-1.3","SS1613140721165","trial","","40","800","1313.9999999664724","images/stimuli/spore_stims/complex_10_B_b.gif","images/stimuli/spore_stims/complex_07_A_d.gif","","","","","1","complex_dissimilar","images/stimuli/spore_stims/complex_10_B_b.gif","right","","","","",""
"","null","html-keyboard-response","34","97074","0.0-11.0-0.4","SS1613140721165","","","null","","","","","<p><img src= images/blank.png width =""200"" height = ""200"" style = ""float:right""></p><p><img src=images/blank.png width =""800"" height = ""200""></p>","","","","","","","","","","","",""
"","1180.000000167638","sequential-stimulus-presentation","35","99064","0.0-11.0-1.4","SS1613140721165","trial","","40","800","1980.000000167638","images/stimuli/spore_stims/complex_10_B_b.gif","images/stimuli/spore_stims/complex_07_A_d.gif","","","","","1","complex_dissimilar","images/stimuli/spore_stims/complex_07_A_d.gif","left","","","","",""
"","null","html-keyboard-response","36","99982","0.0-11.0-0.5","SS1613140721165","","","null","","","","","<p><img src= images/blank.png width =""200"" height = ""200"" style = ""float:right""></p><p><img src=images/blank.png width =""800"" height = ""200""></p>","","","","","","","","","","","",""
"","49.000000115484","sequential-stimulus-presentation","37","100848","0.0-11.0-1.5","SS1613140721165","trial","","40","800","849.000000115484","images/stimuli/spore_stims/complex_10_B_b.gif","images/stimuli/spore_stims/complex_07_A_d.gif","","","","","1","complex_dissimilar","images/stimuli/spore_stims/complex_07_A_d.gif","left","","","","",""
"","null","html-keyboard-response","38","101997","0.0-11.0-0.6","SS1613140721165","","","null","","","","","<p><img src= images/blank.png width =""200"" height = ""200"" style = ""float:right""></p><p><img src=images/blank.png width =""800"" height = ""200""></p>","","","","","","","","","","","",""
"","129.0000001899898","sequential-stimulus-presentation","39","102938","0.0-11.0-1.6","SS1613140721165","trial","","40","800","929.0000001899898","images/stimuli/spore_stims/complex_10_B_b.gif","images/stimuli/spore_stims/complex_07_A_d.gif","","","","","1","complex_dissimilar","images/stimuli/spore_stims/complex_07_A_d.gif","left","","","","",""
"","null","html-keyboard-response","40","103785","0.0-11.0-0.7","SS1613140721165","","","null","","","","","<p><img src= images/blank.png width =""200"" height = ""200"" style = ""float:right""></p><p><img src=images/blank.png width =""800"" height = ""200""></p>","","","","","","","","","","","",""
"","758.0000003799796","sequential-stimulus-presentation","41","105357","0.0-11.0-1.7","SS1613140721165","trial","","40","800","1558.0000003799796","images/stimuli/spore_stims/complex_10_B_b.gif","images/stimuli/spore_stims/complex_07_A_d.gif","","","","","1","complex_dissimilar","images/stimuli/spore_stims/complex_07_A_d.gif","left","","","","",""
"","2663.99999987334","html-keyboard-response","42","108021","0.0-12.0","SS1613140721165","pref_question","","49","","","","","<video width ='960' height = '540' style='padding-top:8%' autoplay muted><source src='images/stimuli/wall_pref.mp4' type='video/mp4'></video>","1","left","25%","1","","","","","","","",""
"","315.00000040978193","sequential-stimulus-presentation","43","109144","0.0-13.0","SS1613140721165","pref_reveal","","40","800","1115.000000409782","null","null","","","","","1","","","","background","","","",""
"","null","html-keyboard-response","44","110434","0.0-14.0-0.0","SS1613140721165","","","null","","","","","<p><img src= images/blank.png width =""200"" height = ""200"" style = ""float:right""></p><p><img src=images/blank.png width =""800"" height = ""200""></p>","","","","","","","","","","","",""
"","615.9999999217689","sequential-stimulus-presentation","45","111869","0.0-14.0-1.0","SS1613140721165","trial","","40","800","1415.999999921769","images/stimuli/spore_stims/simple_07_B_d.gif","images/stimuli/spore_stims/simple_01_A_b.gif","","","","","2","simple_dissimilar","images/stimuli/spore_stims/simple_01_A_b.gif","right","","","","",""
"","null","html-keyboard-response","46","112925","0.0-14.0-0.1","SS1613140721165","","","null","","","","","<p><img src= images/blank.png width =""200"" height = ""200"" style = ""float:right""></p><p><img src=images/blank.png width =""800"" height = ""200""></p>","","","","","","","","","","","",""
"","225.99999979138374","sequential-stimulus-presentation","47","114009","0.0-14.0-1.1","SS1613140721165","trial","","40","800","1025.9999997913837","images/stimuli/spore_stims/simple_07_B_d.gif","images/stimuli/spore_stims/simple_01_A_b.gif","","","","","2","simple_dissimilar","images/stimuli/spore_stims/simple_01_A_b.gif","right","","","","",""
"","null","html-keyboard-response","48","115110","0.0-14.0-0.2","SS1613140721165","","","null","","","","","<p><img src= images/blank.png width =""200"" height = ""200"" style = ""float:right""></p><p><img src=images/blank.png width =""800"" height = ""200""></p>","","","","","","","","","","","",""
"","320.9999999962747","sequential-stimulus-presentation","49","116235","0.0-14.0-1.2","SS1613140721165","trial","","40","800","1120.9999999962747","images/stimuli/spore_stims/simple_07_B_d.gif","images/stimuli/spore_stims/simple_01_A_b.gif","","","","","2","simple_dissimilar","images/stimuli/spore_stims/simple_07_B_d.gif","middle","","","","",""
"","null","html-keyboard-response","50","117248","0.0-14.0-0.3","SS1613140721165","","","null","","","","","<p><img src= images/blank.png width =""200"" height = ""200"" style = ""float:right""></p><p><img src=images/blank.png width =""800"" height = ""200""></p>","","","","","","","","","","","",""
"","1914.0000003390014","sequential-stimulus-presentation","51","119994","0.0-14.0-1.3","SS1613140721165","trial","","40","800","2714.0000003390014","images/stimuli/spore_stims/simple_07_B_d.gif","images/stimuli/spore_stims/simple_01_A_b.gif","","","","","2","simple_dissimilar","images/stimuli/spore_stims/simple_01_A_b.gif","right","","","","",""
"","null","html-keyboard-response","52","121178","0.0-14.0-0.4","SS1613140721165","","","null","","","","","<p><img src= images/blank.png width =""200"" height = ""200"" style = ""float:right""></p><p><img src=images/blank.png width =""800"" height = ""200""></p>","","","","","","","","","","","",""
"","717.9999998770654","sequential-stimulus-presentation","53","122703","0.0-14.0-1.4","SS1613140721165","trial","","40","800","1517.9999998770654","images/stimuli/spore_stims/simple_07_B_d.gif","images/stimuli/spore_stims/simple_01_A_b.gif","","","","","2","simple_dissimilar","images/stimuli/spore_stims/simple_01_A_b.gif","right","","","","",""
"","null","html-keyboard-response","54","123613","0.0-14.0-0.5","SS1613140721165","","","null","","","","","<p><img src= images/blank.png width =""200"" height = ""200"" style = ""float:right""></p><p><img src=images/blank.png width =""800"" height = ""200""></p>","","","","","","","","","","","",""
"","802.000000141561","sequential-stimulus-presentation","55","125223","0.0-14.0-1.5","SS1613140721165","trial","","40","800","1602.000000141561","images/stimuli/spore_stims/simple_07_B_d.gif","images/stimuli/spore_stims/simple_01_A_b.gif","","","","","2","simple_dissimilar","images/stimuli/spore_stims/simple_01_A_b.gif","right","","","","",""
"","null","html-keyboard-response","56","126029","0.0-14.0-0.6","SS1613140721165","","","null","","","","","<p><img src= images/blank.png width =""200"" height = ""200"" style = ""float:right""></p><p><img src=images/blank.png width =""800"" height = ""200""></p>","","","","","","","","","","","",""
"","559.0000003576279","sequential-stimulus-presentation","57","127406","0.0-14.0-1.6","SS1613140721165","trial","","40","800","1359.0000003576279","images/stimuli/spore_stims/simple_07_B_d.gif","images/stimuli/spore_stims/simple_01_A_b.gif","","","","","2","simple_dissimilar","images/stimuli/spore_stims/simple_01_A_b.gif","right","","","","",""
"","null","html-keyboard-response","58","128582","0.0-14.0-0.7","SS1613140721165","","","null","","","","","<p><img src= images/blank.png width =""200"" height = ""200"" style = ""float:right""></p><p><img src=images/blank.png width =""800"" height = ""200""></p>","","","","","","","","","","","",""
"","595.000000204891","sequential-stimulus-presentation","59","130003","0.0-14.0-1.7","SS1613140721165","trial","","40","800","1395.000000204891","images/stimuli/spore_stims/simple_07_B_d.gif","images/stimuli/spore_stims/simple_01_A_b.gif","","","","","2","simple_dissimilar","images/stimuli/spore_stims/simple_01_A_b.gif","right","","","","",""
"","2229.000000283122","html-keyboard-response","60","132236","0.0-15.0","SS1613140721165","pref_question","","50","","","","","<video width ='960' height = '540' style='padding-top:8%' autoplay muted><source src='images/stimuli/wall_pref.mp4' type='video/mp4'></video>","2","middle","45%","2","","","","","","","",""
"","978.0000001192093","sequential-stimulus-presentation","61","134023","0.0-16.0","SS1613140721165","pref_reveal","","40","800","1778.0000001192093","null","null","","","","","2","","","","deviant","","","",""
"","null","html-keyboard-response","62","135315","0.0-17.0-0.0","SS1613140721165","","","null","","","","","<p><img src= images/blank.png width =""200"" height = ""200"" style = ""float:right""></p><p><img src=images/blank.png width =""800"" height = ""200""></p>","","","","","","","","","","","",""
"","299.000000115484","sequential-stimulus-presentation","63","136427","0.0-17.0-1.0","SS1613140721165","trial","","40","800","1099.000000115484","images/stimuli/spore_stims/simple_17_A_c.gif","images/stimuli/spore_stims/simple_17_B_c.gif","","","","","3","simple_similar","images/stimuli/spore_stims/simple_17_B_c.gif","left","","","","",""
"","null","html-keyboard-response","64","137649","0.0-17.0-0.1","SS1613140721165","","","null","","","","","<p><img src= images/blank.png width =""200"" height = ""200"" style = ""float:right""></p><p><img src=images/blank.png width =""800"" height = ""200""></p>","","","","","","","","","","","",""
"","454.9999996088445","sequential-stimulus-presentation","65","138918","0.0-17.0-1.1","SS1613140721165","trial","","40","800","1254.9999996088445","images/stimuli/spore_stims/simple_17_A_c.gif","images/stimuli/spore_stims/simple_17_B_c.gif","","","","","3","simple_similar","images/stimuli/spore_stims/simple_17_B_c.gif","left","","","","",""
"","null","html-keyboard-response","66","139946","0.0-17.0-0.2","SS1613140721165","","","null","","","","","<p><img src= images/blank.png width =""200"" height = ""200"" style = ""float:right""></p><p><img src=images/blank.png width =""800"" height = ""200""></p>","","","","","","","","","","","",""
"","967.9999998770654","sequential-stimulus-presentation","67","141723","0.0-17.0-1.2","SS1613140721165","trial","","40","800","1767.9999998770654","images/stimuli/spore_stims/simple_17_A_c.gif","images/stimuli/spore_stims/simple_17_B_c.gif","","","","","3","simple_similar","images/stimuli/spore_stims/simple_17_B_c.gif","left","","","","",""
"","null","html-keyboard-response","68","142565","0.0-17.0-0.3","SS1613140721165","","","null","","","","","<p><img src= images/blank.png width =""200"" height = ""200"" style = ""float:right""></p><p><img src=images/blank.png width =""800"" height = ""200""></p>","","","","","","","","","","","",""
"","817.9999999701977","sequential-stimulus-presentation","69","144184","0.0-17.0-1.3","SS1613140721165","trial","","40","800","1617.9999999701977","images/stimuli/spore_stims/simple_17_A_c.gif","images/stimuli/spore_stims/simple_17_B_c.gif","","","","","3","simple_similar","images/stimuli/spore_stims/simple_17_B_c.gif","left","","","","",""
"","null","html-keyboard-response","70","145115","0.0-17.0-0.4","SS1613140721165","","","null","","","","","<p><img src= images/blank.png width =""200"" height = ""200"" style = ""float:right""></p><p><img src=images/blank.png width =""800"" height = ""200""></p>","","","","","","","","","","","",""
"","641.9999999925494","sequential-stimulus-presentation","71","146578","0.0-17.0-1.4","SS1613140721165","trial","","40","800","1441.9999999925494","images/stimuli/spore_stims/simple_17_A_c.gif","images/stimuli/spore_stims/simple_17_B_c.gif","","","","","3","simple_similar","images/stimuli/spore_stims/simple_17_B_c.gif","left","","","","",""
"","null","html-keyboard-response","72","147846","0.0-17.0-0.5","SS1613140721165","","","null","","","","","<p><img src= images/blank.png width =""200"" height = ""200"" style = ""float:right""></p><p><img src=images/blank.png width =""800"" height = ""200""></p>","","","","","","","","","","","",""
"","707.0000004023314","sequential-stimulus-presentation","73","149378","0.0-17.0-1.5","SS1613140721165","trial","","40","800","1507.0000004023314","images/stimuli/spore_stims/simple_17_A_c.gif","images/stimuli/spore_stims/simple_17_B_c.gif","","","","","3","simple_similar","images/stimuli/spore_stims/simple_17_B_c.gif","left","","","","",""
"","null","html-keyboard-response","74","150534","0.0-17.0-0.6","SS1613140721165","","","null","","","","","<p><img src= images/blank.png width =""200"" height = ""200"" style = ""float:right""></p><p><img src=images/blank.png width =""800"" height = ""200""></p>","","","","","","","","","","","",""
"","294.0000002272427","sequential-stimulus-presentation","75","151639","0.0-17.0-1.6","SS1613140721165","trial","","40","800","1094.0000002272427","images/stimuli/spore_stims/simple_17_A_c.gif","images/stimuli/spore_stims/simple_17_B_c.gif","","","","","3","simple_similar","images/stimuli/spore_stims/simple_17_A_c.gif","middle","","","","",""
"","null","html-keyboard-response","76","152539","0.0-17.0-0.7","SS1613140721165","","","null","","","","","<p><img src= images/blank.png width =""200"" height = ""200"" style = ""float:right""></p><p><img src=images/blank.png width =""800"" height = ""200""></p>","","","","","","","","","","","",""
"","578.999999910593","sequential-stimulus-presentation","77","153934","0.0-17.0-1.7","SS1613140721165","trial","","40","800","1378.999999910593","images/stimuli/spore_stims/simple_17_A_c.gif","images/stimuli/spore_stims/simple_17_B_c.gif","","","","","3","simple_similar","images/stimuli/spore_stims/simple_17_B_c.gif","left","","","","",""
"","3285.999999847263","html-keyboard-response","78","157231","0.0-18.0","SS1613140721165","pref_question","","51","","","","","<video width ='960' height = '540' style='padding-top:8%' autoplay muted><source src='images/stimuli/wall_pref.mp4' type='video/mp4'></video>","3","right","66%","3","","","","","","","",""
"","382.9999999143183","sequential-stimulus-presentation","79","158423","0.0-19.0","SS1613140721165","pref_reveal","","40","800","1182.9999999143183","null","null","","","","","3","","","","novel","","","",""
"","null","html-keyboard-response","80","159717","0.0-20.0-0.0","SS1613140721165","","","null","","","","","<p><img src= images/blank.png width =""200"" height = ""200"" style = ""float:right""></p><p><img src=images/blank.png width =""800"" height = ""200""></p>","","","","","","","","","","","",""
"","253.00000002607703","sequential-stimulus-presentation","81","160790","0.0-20.0-1.0","SS1613140721165","trial","","40","800","1053.000000026077","images/stimuli/spore_stims/complex_16_A_b.gif","images/stimuli/spore_stims/complex_10_A_d.gif","","","","","4","complex_dissimilar","images/stimuli/spore_stims/complex_10_A_d.gif","right","","","","",""
"","null","html-keyboard-response","82","162069","0.0-20.0-0.1","SS1613140721165","","","null","","","","","<p><img src= images/blank.png width =""200"" height = ""200"" style = ""float:right""></p><p><img src=images/blank.png width =""800"" height = ""200""></p>","","","","","","","","","","","",""
"","496.0000002756715","sequential-stimulus-presentation","83","163383","0.0-20.0-1.1","SS1613140721165","trial","","40","800","1296.0000002756715","images/stimuli/spore_stims/complex_16_A_b.gif","images/stimuli/spore_stims/complex_10_A_d.gif","","","","","4","complex_dissimilar","images/stimuli/spore_stims/complex_10_A_d.gif","right","","","","",""
"","null","html-keyboard-response","84","164488","0.0-20.0-0.2","SS1613140721165","","","null","","","","","<p><img src= images/blank.png width =""200"" height = ""200"" style = ""float:right""></p><p><img src=images/blank.png width =""800"" height = ""200""></p>","","","","","","","","","","","",""
"","225.99999979138374","sequential-stimulus-presentation","85","165529","0.0-20.0-1.2","SS1613140721165","trial","","40","800","1025.9999997913837","images/stimuli/spore_stims/complex_16_A_b.gif","images/stimuli/spore_stims/complex_10_A_d.gif","","","","","4","complex_dissimilar","images/stimuli/spore_stims/complex_10_A_d.gif","right","","","","",""
"","null","html-keyboard-response","86","166685","0.0-20.0-0.3","SS1613140721165","","","null","","","","","<p><img src= images/blank.png width =""200"" height = ""200"" style = ""float:right""></p><p><img src=images/blank.png width =""800"" height = ""200""></p>","","","","","","","","","","","",""
"","13.999999966472387","sequential-stimulus-presentation","87","167524","0.0-20.0-1.3","SS1613140721165","trial","","40","800","813.9999999664724","images/stimuli/spore_stims/complex_16_A_b.gif","images/stimuli/spore_stims/complex_10_A_d.gif","","","","","4","complex_dissimilar","images/stimuli/spore_stims/complex_10_A_d.gif","right","","","","",""
"","null","html-keyboard-response","88","168599","0.0-20.0-0.4","SS1613140721165","","","null","","","","","<p><img src= images/blank.png width =""200"" height = ""200"" style = ""float:right""></p><p><img src=images/blank.png width =""800"" height = ""200""></p>","","","","","","","","","","","",""
"","202.99999974668026","sequential-stimulus-presentation","89","169612","0.0-20.0-1.4","SS1613140721165","trial","","40","800","1002.9999997466803","images/stimuli/spore_stims/complex_16_A_b.gif","images/stimuli/spore_stims/complex_10_A_d.gif","","","","","4","complex_dissimilar","images/stimuli/spore_stims/complex_10_A_d.gif","right","","","","",""
"","null","html-keyboard-response","90","170819","0.0-20.0-0.5","SS1613140721165","","","null","","","","","<p><img src= images/blank.png width =""200"" height = ""200"" style = ""float:right""></p><p><img src=images/blank.png width =""800"" height = ""200""></p>","","","","","","","","","","","",""
"","529.999999795109","sequential-stimulus-presentation","91","172163","0.0-20.0-1.5","SS1613140721165","trial","","40","800","1329.999999795109","images/stimuli/spore_stims/complex_16_A_b.gif","images/stimuli/spore_stims/complex_10_A_d.gif","","","","","4","complex_dissimilar","images/stimuli/spore_stims/complex_10_A_d.gif","right","","","","",""
"","null","html-keyboard-response","92","173059","0.0-20.0-0.6","SS1613140721165","","","null","","","","","<p><img src= images/blank.png width =""200"" height = ""200"" style = ""float:right""></p><p><img src=images/blank.png width =""800"" height = ""200""></p>","","","","","","","","","","","",""
"","466.99999971315265","sequential-stimulus-presentation","93","174424","0.0-20.0-1.6","SS1613140721165","trial","","40","800","1266.9999997131526","images/stimuli/spore_stims/complex_16_A_b.gif","images/stimuli/spore_stims/complex_10_A_d.gif","","","","","4","complex_dissimilar","images/stimuli/spore_stims/complex_10_A_d.gif","right","","","","",""
"","null","html-keyboard-response","94","175522","0.0-20.0-0.7","SS1613140721165","","","null","","","","","<p><img src= images/blank.png width =""200"" height = ""200"" style = ""float:right""></p><p><img src=images/blank.png width =""800"" height = ""200""></p>","","","","","","","","","","","",""
"","1284.9999996833503","sequential-stimulus-presentation","95","177617","0.0-20.0-1.7","SS1613140721165","trial","","40","800","2084.9999996833503","images/stimuli/spore_stims/complex_16_A_b.gif","images/stimuli/spore_stims/complex_10_A_d.gif","","","","","4","complex_dissimilar","images/stimuli/spore_stims/complex_16_A_b.gif","left","","","","",""
"","2388.9999999664724","html-keyboard-response","96","180013","0.0-21.0","SS1613140721165","pref_question","","49","","","","","<video width ='960' height = '540' style='padding-top:8%' autoplay muted><source src='images/stimuli/wall_pref.mp4' type='video/mp4'></video>","1","left","25%","4","","","","","","","",""
"","1203.0000002123415","sequential-stimulus-presentation","97","182021","0.0-22.0","SS1613140721165","pref_reveal","","40","800","2003.0000002123415","null","null","","","","","4","","","","deviant","","","",""
"","null","html-keyboard-response","98","182964","0.0-23.0-0.0","SS1613140721165","","","null","","","","","<p><img src= images/blank.png width =""200"" height = ""200"" style = ""float:right""></p><p><img src=images/blank.png width =""800"" height = ""200""></p>","","","","","","","","","","","",""
"","824.0000000223517","sequential-stimulus-presentation","99","184609","0.0-23.0-1.0","SS1613140721165","trial","","40","800","1624.0000000223517","images/stimuli/spore_stims/simple_14_B_d.gif","images/stimuli/spore_stims/simple_20_A_a.gif","","","","","5","simple_dissimilar","images/stimuli/spore_stims/simple_20_A_a.gif","middle","","","","",""
"","null","html-keyboard-response","100","185895","0.0-23.0-0.1","SS1613140721165","","","null","","","","","<p><img src= images/blank.png width =""200"" height = ""200"" style = ""float:right""></p><p><img src=images/blank.png width =""800"" height = ""200""></p>","","","","","","","","","","","",""
"","61.99999991804361","sequential-stimulus-presentation","101","186803","0.0-23.0-1.1","SS1613140721165","trial","","40","800","861.9999999180436","images/stimuli/spore_stims/simple_14_B_d.gif","images/stimuli/spore_stims/simple_20_A_a.gif","","","","","5","simple_dissimilar","images/stimuli/spore_stims/simple_20_A_a.gif","middle","","","","",""
"","null","html-keyboard-response","102","187717","0.0-23.0-0.2","SS1613140721165","","","null","","","","","<p><img src= images/blank.png width =""200"" height = ""200"" style = ""float:right""></p><p><img src=images/blank.png width =""800"" height = ""200""></p>","","","","","","","","","","","",""
"","297.9999999515712","sequential-stimulus-presentation","103","188832","0.0-23.0-1.2","SS1613140721165","trial","","40","800","1097.9999999515712","images/stimuli/spore_stims/simple_14_B_d.gif","images/stimuli/spore_stims/simple_20_A_a.gif","","","","","5","simple_dissimilar","images/stimuli/spore_stims/simple_20_A_a.gif","middle","","","","",""
"","null","html-keyboard-response","104","189950","0.0-23.0-0.3","SS1613140721165","","","null","","","","","<p><img src= images/blank.png width =""200"" height = ""200"" style = ""float:right""></p><p><img src=images/blank.png width =""800"" height = ""200""></p>","","","","","","","","","","","",""
"","26.999999769032","sequential-stimulus-presentation","105","190792","0.0-23.0-1.3","SS1613140721165","trial","","40","800","826.999999769032","images/stimuli/spore_stims/simple_14_B_d.gif","images/stimuli/spore_stims/simple_20_A_a.gif","","","","","5","simple_dissimilar","images/stimuli/spore_stims/simple_14_B_d.gif","left","","","","",""
"","null","html-keyboard-response","106","191777","0.0-23.0-0.4","SS1613140721165","","","null","","","","","<p><img src= images/blank.png width =""200"" height = ""200"" style = ""float:right""></p><p><img src=images/blank.png width =""800"" height = ""200""></p>","","","","","","","","","","","",""
"","3.000000026077032","sequential-stimulus-presentation","107","192601","0.0-23.0-1.4","SS1613140721165","trial","","40","800","803.000000026077","images/stimuli/spore_stims/simple_14_B_d.gif","images/stimuli/spore_stims/simple_20_A_a.gif","","","","","5","simple_dissimilar","images/stimuli/spore_stims/simple_20_A_a.gif","middle","","","","",""
"","null","html-keyboard-response","108","193874","0.0-23.0-0.5","SS1613140721165","","","null","","","","","<p><img src= images/blank.png width =""200"" height = ""200"" style = ""float:right""></p><p><img src=images/blank.png width =""800"" height = ""200""></p>","","","","","","","","","","","",""
"","405.9999999590218","sequential-stimulus-presentation","109","195107","0.0-23.0-1.5","SS1613140721165","trial","","40","800","1205.9999999590218","images/stimuli/spore_stims/simple_14_B_d.gif","images/stimuli/spore_stims/simple_20_A_a.gif","","","","","5","simple_dissimilar","images/stimuli/spore_stims/simple_20_A_a.gif","middle","","","","",""
"","null","html-keyboard-response","110","196260","0.0-23.0-0.6","SS1613140721165","","","null","","","","","<p><img src= images/blank.png width =""200"" height = ""200"" style = ""float:right""></p><p><img src=images/blank.png width =""800"" height = ""200""></p>","","","","","","","","","","","",""
"","293.00000006332994","sequential-stimulus-presentation","111","197369","0.0-23.0-1.6","SS1613140721165","trial","","40","800","1093.00000006333","images/stimuli/spore_stims/simple_14_B_d.gif","images/stimuli/spore_stims/simple_20_A_a.gif","","","","","5","simple_dissimilar","images/stimuli/spore_stims/simple_20_A_a.gif","middle","","","","",""
"","null","html-keyboard-response","112","198680","0.0-23.0-0.7","SS1613140721165","","","null","","","","","<p><img src= images/blank.png width =""200"" height = ""200"" style = ""float:right""></p><p><img src=images/blank.png width =""800"" height = ""200""></p>","","","","","","","","","","","",""
"","697.0000001601875","sequential-stimulus-presentation","113","200196","0.0-23.0-1.7","SS1613140721165","trial","","40","800","1497.0000001601875","images/stimuli/spore_stims/simple_14_B_d.gif","images/stimuli/spore_stims/simple_20_A_a.gif","","","","","5","simple_dissimilar","images/stimuli/spore_stims/simple_20_A_a.gif","middle","","","","",""
"","2481.999999843538","html-keyboard-response","114","202685","0.0-24.0","SS1613140721165","pref_question","","51","","","","","<video width ='960' height = '540' style='padding-top:8%' autoplay muted><source src='images/stimuli/wall_pref.mp4' type='video/mp4'></video>","3","right","66%","5","","","","","","","",""
"","674.000000115484","sequential-stimulus-presentation","115","204166","0.0-25.0","SS1613140721165","pref_reveal","","40","800","1474.000000115484","null","null","","","","","5","","","","novel","","","",""
"","null","html-keyboard-response","116","205022","0.0-26.0-0.0","SS1613140721165","","","null","","","","","<p><img src= images/blank.png width =""200"" height = ""200"" style = ""float:right""></p><p><img src=images/blank.png width =""800"" height = ""200""></p>","","","","","","","","","","","",""
"","416.99999989941716","sequential-stimulus-presentation","117","206264","0.0-26.0-1.0","SS1613140721165","trial","","40","800","1216.9999998994172","images/stimuli/spore_stims/complex_15_A_b.gif","images/stimuli/spore_stims/complex_15_B_b.gif","","","","","6","complex_similar","images/stimuli/spore_stims/complex_15_B_b.gif","right","","","","",""
"","null","html-keyboard-response","118","207450","0.0-26.0-0.1","SS1613140721165","","","null","","","","","<p><img src= images/blank.png width =""200"" height = ""200"" style = ""float:right""></p><p><img src=images/blank.png width =""800"" height = ""200""></p>","","","","","","","","","","","",""
"","635.9999999403954","sequential-stimulus-presentation","119","208896","0.0-26.0-1.1","SS1613140721165","trial","","40","800","1435.9999999403954","images/stimuli/spore_stims/complex_15_A_b.gif","images/stimuli/spore_stims/complex_15_B_b.gif","","","","","6","complex_similar","images/stimuli/spore_stims/complex_15_B_b.gif","right","","","","",""
"","null","html-keyboard-response","120","209793","0.0-26.0-0.2","SS1613140721165","","","null","","","","","<p><img src= images/blank.png width =""200"" height = ""200"" style = ""float:right""></p><p><img src=images/blank.png width =""800"" height = ""200""></p>","","","","","","","","","","","",""
"","215.00000031664968","sequential-stimulus-presentation","121","210821","0.0-26.0-1.2","SS1613140721165","trial","","40","800","1015.0000003166497","images/stimuli/spore_stims/complex_15_A_b.gif","images/stimuli/spore_stims/complex_15_B_b.gif","","","","","6","complex_similar","images/stimuli/spore_stims/complex_15_A_b.gif","left","","","","",""
"","null","html-keyboard-response","122","211651","0.0-26.0-0.3","SS1613140721165","","","null","","","","","<p><img src= images/blank.png width =""200"" height = ""200"" style = ""float:right""></p><p><img src=images/blank.png width =""800"" height = ""200""></p>","","","","","","","","","","","",""
"","430.00000016763806","sequential-stimulus-presentation","123","212894","0.0-26.0-1.3","SS1613140721165","trial","","40","800","1230.000000167638","images/stimuli/spore_stims/complex_15_A_b.gif","images/stimuli/spore_stims/complex_15_B_b.gif","","","","","6","complex_similar","images/stimuli/spore_stims/complex_15_B_b.gif","right","","","","",""
"","null","html-keyboard-response","124","214144","0.0-26.0-0.4","SS1613140721165","","","null","","","","","<p><img src= images/blank.png width =""200"" height = ""200"" style = ""float:right""></p><p><img src=images/blank.png width =""800"" height = ""200""></p>","","","","","","","","","","","",""
"","904.999999795109","sequential-stimulus-presentation","125","215891","0.0-26.0-1.4","SS1613140721165","trial","","40","800","1704.999999795109","images/stimuli/spore_stims/complex_15_A_b.gif","images/stimuli/spore_stims/complex_15_B_b.gif","","","","","6","complex_similar","images/stimuli/spore_stims/complex_15_B_b.gif","right","","","","",""
"","null","html-keyboard-response","126","217160","0.0-26.0-0.5","SS1613140721165","","","null","","","","","<p><img src= images/blank.png width =""200"" height = ""200"" style = ""float:right""></p><p><img src=images/blank.png width =""800"" height = ""200""></p>","","","","","","","","","","","",""
"","141.00000029429793","sequential-stimulus-presentation","127","218128","0.0-26.0-1.5","SS1613140721165","trial","","40","800","941.0000002942979","images/stimuli/spore_stims/complex_15_A_b.gif","images/stimuli/spore_stims/complex_15_B_b.gif","","","","","6","complex_similar","images/stimuli/spore_stims/complex_15_B_b.gif","right","","","","",""
"","null","html-keyboard-response","128","219307","0.0-26.0-0.6","SS1613140721165","","","null","","","","","<p><img src= images/blank.png width =""200"" height = ""200"" style = ""float:right""></p><p><img src=images/blank.png width =""800"" height = ""200""></p>","","","","","","","","","","","",""
"","1635.9999999403954","sequential-stimulus-presentation","129","221779","0.0-26.0-1.6","SS1613140721165","trial","","40","800","2435.9999999403954","images/stimuli/spore_stims/complex_15_A_b.gif","images/stimuli/spore_stims/complex_15_B_b.gif","","","","","6","complex_similar","images/stimuli/spore_stims/complex_15_B_b.gif","right","","","","",""
"","null","html-keyboard-response","130","223061","0.0-26.0-0.7","SS1613140721165","","","null","","","","","<p><img src= images/blank.png width =""200"" height = ""200"" style = ""float:right""></p><p><img src=images/blank.png width =""800"" height = ""200""></p>","","","","","","","","","","","",""
"","1956.99999993667","sequential-stimulus-presentation","131","225851","0.0-26.0-1.7","SS1613140721165","trial","","40","800","2756.99999993667","images/stimuli/spore_stims/complex_15_A_b.gif","images/stimuli/spore_stims/complex_15_B_b.gif","","","","","6","complex_similar","images/stimuli/spore_stims/complex_15_B_b.gif","right","","","","",""
"","1879.9999998882413","html-keyboard-response","132","227740","0.0-27.0","SS1613140721165","pref_question","","49","","","","","<video width ='960' height = '540' style='padding-top:8%' autoplay muted><source src='images/stimuli/wall_pref.mp4' type='video/mp4'></video>","1","left","25%","6","","","","","","","",""
"","158.99999998509884","sequential-stimulus-presentation","133","228722","0.0-28.0","SS1613140721165","pref_reveal","","40","800","958.9999999850988","null","null","","","","","6","","","","deviant","","","",""
"","null","html-keyboard-response","134","229718","0.0-29.0-0.0","SS1613140721165","","","null","","","","","<p><img src= images/blank.png width =""200"" height = ""200"" style = ""float:right""></p><p><img src=images/blank.png width =""800"" height = ""200""></p>","","","","","","","","","","","",""
"","1767.999999690801","sequential-stimulus-presentation","135","232306","0.0-29.0-1.0","SS1613140721165","trial","","40","800","2567.999999690801","images/stimuli/spore_stims/complex_17_B_a.gif","images/stimuli/spore_stims/complex_17_A_a.gif","","","","","7","complex_similar","images/stimuli/spore_stims/complex_17_A_a.gif","left","","","","",""
"","null","html-keyboard-response","136","233581","0.0-29.0-0.1","SS1613140721165","","","null","","","","","<p><img src= images/blank.png width =""200"" height = ""200"" style = ""float:right""></p><p><img src=images/blank.png width =""800"" height = ""200""></p>","","","","","","","","","","","",""
"","600.0000000931323","sequential-stimulus-presentation","137","235006","0.0-29.0-1.1","SS1613140721165","trial","","40","800","1400.0000000931323","images/stimuli/spore_stims/complex_17_B_a.gif","images/stimuli/spore_stims/complex_17_A_a.gif","","","","","7","complex_similar","images/stimuli/spore_stims/complex_17_A_a.gif","left","","","","",""
"","null","html-keyboard-response","138","236214","0.0-29.0-0.2","SS1613140721165","","","null","","","","","<p><img src= images/blank.png width =""200"" height = ""200"" style = ""float:right""></p><p><img src=images/blank.png width =""800"" height = ""200""></p>","","","","","","","","","","","",""
"","481.9999998435378","sequential-stimulus-presentation","139","237503","0.0-29.0-1.2","SS1613140721165","trial","","40","800","1281.9999998435378","images/stimuli/spore_stims/complex_17_B_a.gif","images/stimuli/spore_stims/complex_17_A_a.gif","","","","","7","complex_similar","images/stimuli/spore_stims/complex_17_B_a.gif","right","","","","",""
"","null","html-keyboard-response","140","238741","0.0-29.0-0.3","SS1613140721165","","","null","","","","","<p><img src= images/blank.png width =""200"" height = ""200"" style = ""float:right""></p><p><img src=images/blank.png width =""800"" height = ""200""></p>","","","","","","","","","","","",""
"","344.9999997392297","sequential-stimulus-presentation","141","239893","0.0-29.0-1.3","SS1613140721165","trial","","40","800","1144.9999997392297","images/stimuli/spore_stims/complex_17_B_a.gif","images/stimuli/spore_stims/complex_17_A_a.gif","","","","","7","complex_similar","images/stimuli/spore_stims/complex_17_A_a.gif","left","","","","",""
"","null","html-keyboard-response","142","241115","0.0-29.0-0.4","SS1613140721165","","","null","","","","","<p><img src= images/blank.png width =""200"" height = ""200"" style = ""float:right""></p><p><img src=images/blank.png width =""800"" height = ""200""></p>","","","","","","","","","","","",""
"","1929.0000000037253","sequential-stimulus-presentation","143","243855","0.0-29.0-1.4","SS1613140721165","trial","","40","800","2729.0000000037253","images/stimuli/spore_stims/complex_17_B_a.gif","images/stimuli/spore_stims/complex_17_A_a.gif","","","","","7","complex_similar","images/stimuli/spore_stims/complex_17_A_a.gif","left","","","","",""
"","null","html-keyboard-response","144","245138","0.0-29.0-0.5","SS1613140721165","","","null","","","","","<p><img src= images/blank.png width =""200"" height = ""200"" style = ""float:right""></p><p><img src=images/blank.png width =""800"" height = ""200""></p>","","","","","","","","","","","",""
"","506.00000005215406","sequential-stimulus-presentation","145","246453","0.0-29.0-1.5","SS1613140721165","trial","","40","800","1306.000000052154","images/stimuli/spore_stims/complex_17_B_a.gif","images/stimuli/spore_stims/complex_17_A_a.gif","","","","","7","complex_similar","images/stimuli/spore_stims/complex_17_A_a.gif","left","","","","",""
"","null","html-keyboard-response","146","247455","0.0-29.0-0.6","SS1613140721165","","","null","","","","","<p><img src= images/blank.png width =""200"" height = ""200"" style = ""float:right""></p><p><img src=images/blank.png width =""800"" height = ""200""></p>","","","","","","","","","","","",""
"","359.99999986961484","sequential-stimulus-presentation","147","248635","0.0-29.0-1.6","SS1613140721165","trial","","40","800","1159.9999998696148","images/stimuli/spore_stims/complex_17_B_a.gif","images/stimuli/spore_stims/complex_17_A_a.gif","","","","","7","complex_similar","images/stimuli/spore_stims/complex_17_A_a.gif","left","","","","",""
"","null","html-keyboard-response","148","249589","0.0-29.0-0.7","SS1613140721165","","","null","","","","","<p><img src= images/blank.png width =""200"" height = ""200"" style = ""float:right""></p><p><img src=images/blank.png width =""800"" height = ""200""></p>","","","","","","","","","","","",""
"","413.99999987334013","sequential-stimulus-presentation","149","250824","0.0-29.0-1.7","SS1613140721165","trial","","40","800","1213.9999998733401","images/stimuli/spore_stims/complex_17_B_a.gif","images/stimuli/spore_stims/complex_17_A_a.gif","","","","","7","complex_similar","images/stimuli/spore_stims/complex_17_A_a.gif","left","","","","",""
"","1952.0000000484288","html-keyboard-response","150","252788","0.0-30.0","SS1613140721165","pref_question","","50","","","","","<video width ='960' height = '540' style='padding-top:8%' autoplay muted><source src='images/stimuli/wall_pref.mp4' type='video/mp4'></video>","2","middle","45%","7","","","","","","","",""
"","296.00000008940697","sequential-stimulus-presentation","151","253896","0.0-31.0","SS1613140721165","pref_reveal","","40","800","1096.000000089407","null","null","","","","","7","","","","novel","","","",""
"","null","html-keyboard-response","152","255070","0.0-32.0-0.0","SS1613140721165","","","null","","","","","<p><img src= images/blank.png width =""200"" height = ""200"" style = ""float:right""></p><p><img src=images/blank.png width =""800"" height = ""200""></p>","","","","","","","","","","","",""
"","682.0000000298023","sequential-stimulus-presentation","153","256568","0.0-32.0-1.0","SS1613140721165","trial","","40","800","1482.0000000298023","images/stimuli/spore_stims/simple_16_B_d.gif","images/stimuli/spore_stims/simple_16_A_d.gif","","","","","8","simple_similar","images/stimuli/spore_stims/simple_16_A_d.gif","middle","","","","",""
"","null","html-keyboard-response","154","257654","0.0-32.0-0.1","SS1613140721165","","","null","","","","","<p><img src= images/blank.png width =""200"" height = ""200"" style = ""float:right""></p><p><img src=images/blank.png width =""800"" height = ""200""></p>","","","","","","","","","","","",""
"","211.00000012665987","sequential-stimulus-presentation","155","258680","0.0-32.0-1.1","SS1613140721165","trial","","40","800","1011.0000001266599","images/stimuli/spore_stims/simple_16_B_d.gif","images/stimuli/spore_stims/simple_16_A_d.gif","","","","","8","simple_similar","images/stimuli/spore_stims/simple_16_A_d.gif","middle","","","","",""
"","null","html-keyboard-response","156","259750","0.0-32.0-0.2","SS1613140721165","","","null","","","","","<p><img src= images/blank.png width =""200"" height = ""200"" style = ""float:right""></p><p><img src=images/blank.png width =""800"" height = ""200""></p>","","","","","","","","","","","",""
"","203.99999991059303","sequential-stimulus-presentation","157","260765","0.0-32.0-1.2","SS1613140721165","trial","","40","800","1003.999999910593","images/stimuli/spore_stims/simple_16_B_d.gif","images/stimuli/spore_stims/simple_16_A_d.gif","","","","","8","simple_similar","images/stimuli/spore_stims/simple_16_A_d.gif","middle","","","","",""
"","null","html-keyboard-response","158","261653","0.0-32.0-0.3","SS1613140721165","","","null","","","","","<p><img src= images/blank.png width =""200"" height = ""200"" style = ""float:right""></p><p><img src=images/blank.png width =""800"" height = ""200""></p>","","","","","","","","","","","",""
"","496.99999997392297","sequential-stimulus-presentation","159","262974","0.0-32.0-1.3","SS1613140721165","trial","","40","800","1296.999999973923","images/stimuli/spore_stims/simple_16_B_d.gif","images/stimuli/spore_stims/simple_16_A_d.gif","","","","","8","simple_similar","images/stimuli/spore_stims/simple_16_A_d.gif","middle","","","","",""
"","null","html-keyboard-response","160","264180","0.0-32.0-0.4","SS1613140721165","","","null","","","","","<p><img src= images/blank.png width =""200"" height = ""200"" style = ""float:right""></p><p><img src=images/blank.png width =""800"" height = ""200""></p>","","","","","","","","","","","",""
"","717.0000001788139","sequential-stimulus-presentation","161","265704","0.0-32.0-1.4","SS1613140721165","trial","","40","800","1517.000000178814","images/stimuli/spore_stims/simple_16_B_d.gif","images/stimuli/spore_stims/simple_16_A_d.gif","","","","","8","simple_similar","images/stimuli/spore_stims/simple_16_B_d.gif","right","","","","",""
"","null","html-keyboard-response","162","266935","0.0-32.0-0.5","SS1613140721165","","","null","","","","","<p><img src= images/blank.png width =""200"" height = ""200"" style = ""float:right""></p><p><img src=images/blank.png width =""800"" height = ""200""></p>","","","","","","","","","","","",""
"","620.9999998100102","sequential-stimulus-presentation","163","268364","0.0-32.0-1.5","SS1613140721165","trial","","40","800","1420.9999998100102","images/stimuli/spore_stims/simple_16_B_d.gif","images/stimuli/spore_stims/simple_16_A_d.gif","","","","","8","simple_similar","images/stimuli/spore_stims/simple_16_A_d.gif","middle","","","","",""
"","null","html-keyboard-response","164","269530","0.0-32.0-0.6","SS1613140721165","","","null","","","","","<p><img src= images/blank.png width =""200"" height = ""200"" style = ""float:right""></p><p><img src=images/blank.png width =""800"" height = ""200""></p>","","","","","","","","","","","",""
"","542.0000003650784","sequential-stimulus-presentation","165","270897","0.0-32.0-1.6","SS1613140721165","trial","","40","800","1342.0000003650784","images/stimuli/spore_stims/simple_16_B_d.gif","images/stimuli/spore_stims/simple_16_A_d.gif","","","","","8","simple_similar","images/stimuli/spore_stims/simple_16_A_d.gif","middle","","","","",""
"","null","html-keyboard-response","166","271989","0.0-32.0-0.7","SS1613140721165","","","null","","","","","<p><img src= images/blank.png width =""200"" height = ""200"" style = ""float:right""></p><p><img src=images/blank.png width =""800"" height = ""200""></p>","","","","","","","","","","","",""
"","393.9999998547137","sequential-stimulus-presentation","167","273199","0.0-32.0-1.7","SS1613140721165","trial","","40","800","1193.9999998547137","images/stimuli/spore_stims/simple_16_B_d.gif","images/stimuli/spore_stims/simple_16_A_d.gif","","","","","8","simple_similar","images/stimuli/spore_stims/simple_16_A_d.gif","middle","","","","",""
"","1774.9999999068677","html-keyboard-response","168","275000","0.0-33.0","SS1613140721165","pref_question","","51","","","","","<video width ='960' height = '540' style='padding-top:8%' autoplay muted><source src='images/stimuli/wall_pref.mp4' type='video/mp4'></video>","3","right","66%","8","","","","","","","",""
"","375","sequential-stimulus-presentation","169","276191","0.0-34.0","SS1613140721165","pref_reveal","","40","800","1175","null","null","","","","","8","","","","deviant","","","",""
"","null","html-keyboard-response","170","277027","0.0-35.0-0.0","SS1613140721165","","","null","","","","","<p><img src= images/blank.png width =""200"" height = ""200"" style = ""float:right""></p><p><img src=images/blank.png width =""800"" height = ""200""></p>","","","","","","","","","","","",""
"","615.0000002235174","sequential-stimulus-presentation","171","278466","0.0-35.0-1.0","SS1613140721165","trial","","40","800","1415.0000002235174","images/stimuli/spore_stims/complex_01_B_d.gif","images/stimuli/spore_stims/complex_04_A_d.gif","","","","","9","complex_dissimilar","images/stimuli/spore_stims/complex_04_A_d.gif","left","","","","",""
"","null","html-keyboard-response","172","279771","0.0-35.0-0.1","SS1613140721165","","","null","","","","","<p><img src= images/blank.png width =""200"" height = ""200"" style = ""float:right""></p><p><img src=images/blank.png width =""800"" height = ""200""></p>","","","","","","","","","","","",""
"","294.0000002272427","sequential-stimulus-presentation","173","280892","0.0-35.0-1.1","SS1613140721165","trial","","40","800","1094.0000002272427","images/stimuli/spore_stims/complex_01_B_d.gif","images/stimuli/spore_stims/complex_04_A_d.gif","","","","","9","complex_dissimilar","images/stimuli/spore_stims/complex_04_A_d.gif","left","","","","",""
"","null","html-keyboard-response","174","282061","0.0-35.0-0.2","SS1613140721165","","","null","","","","","<p><img src= images/blank.png width =""200"" height = ""200"" style = ""float:right""></p><p><img src=images/blank.png width =""800"" height = ""200""></p>","","","","","","","","","","","",""
"","382.00000021606684","sequential-stimulus-presentation","175","283269","0.0-35.0-1.2","SS1613140721165","trial","","40","800","1182.0000002160668","images/stimuli/spore_stims/complex_01_B_d.gif","images/stimuli/spore_stims/complex_04_A_d.gif","","","","","9","complex_dissimilar","images/stimuli/spore_stims/complex_04_A_d.gif","left","","","","",""
"","null","html-keyboard-response","176","284460","0.0-35.0-0.3","SS1613140721165","","","null","","","","","<p><img src= images/blank.png width =""200"" height = ""200"" style = ""float:right""></p><p><img src=images/blank.png width =""800"" height = ""200""></p>","","","","","","","","","","","",""
"","132.99999991431832","sequential-stimulus-presentation","177","285410","0.0-35.0-1.3","SS1613140721165","trial","","40","800","932.9999999143183","images/stimuli/spore_stims/complex_01_B_d.gif","images/stimuli/spore_stims/complex_04_A_d.gif","","","","","9","complex_dissimilar","images/stimuli/spore_stims/complex_04_A_d.gif","left","","","","",""
"","null","html-keyboard-response","178","286410","0.0-35.0-0.4","SS1613140721165","","","null","","","","","<p><img src= images/blank.png width =""200"" height = ""200"" style = ""float:right""></p><p><img src=images/blank.png width =""800"" height = ""200""></p>","","","","","","","","","","","",""
"","94.0000000409782","sequential-stimulus-presentation","179","287326","0.0-35.0-1.4","SS1613140721165","trial","","40","800","894.0000000409782","images/stimuli/spore_stims/complex_01_B_d.gif","images/stimuli/spore_stims/complex_04_A_d.gif","","","","","9","complex_dissimilar","images/stimuli/spore_stims/complex_04_A_d.gif","left","","","","",""
"","null","html-keyboard-response","180","288251","0.0-35.0-0.5","SS1613140721165","","","null","","","","","<p><img src= images/blank.png width =""200"" height = ""200"" style = ""float:right""></p><p><img src=images/blank.png width =""800"" height = ""200""></p>","","","","","","","","","","","",""
"","203.00000021234155","sequential-stimulus-presentation","181","289274","0.0-35.0-1.5","SS1613140721165","trial","","40","800","1003.0000002123415","images/stimuli/spore_stims/complex_01_B_d.gif","images/stimuli/spore_stims/complex_04_A_d.gif","","","","","9","complex_dissimilar","images/stimuli/spore_stims/complex_01_B_d.gif","right","","","","",""
"","null","html-keyboard-response","182","290417","0.0-35.0-0.6","SS1613140721165","","","null","","","","","<p><img src= images/blank.png width =""200"" height = ""200"" style = ""float:right""></p><p><img src=images/blank.png width =""800"" height = ""200""></p>","","","","","","","","","","","",""
"","501.99999986216426","sequential-stimulus-presentation","183","291736","0.0-35.0-1.6","SS1613140721165","trial","","40","800","1301.9999998621643","images/stimuli/spore_stims/complex_01_B_d.gif","images/stimuli/spore_stims/complex_04_A_d.gif","","","","","9","complex_dissimilar","images/stimuli/spore_stims/complex_04_A_d.gif","left","","","","",""
"","null","html-keyboard-response","184","292550","0.0-35.0-0.7","SS1613140721165","","","null","","","","","<p><img src= images/blank.png width =""200"" height = ""200"" style = ""float:right""></p><p><img src=images/blank.png width =""800"" height = ""200""></p>","","","","","","","","","","","",""
"","151.00000007078052","sequential-stimulus-presentation","185","293516","0.0-35.0-1.7","SS1613140721165","trial","","40","800","951.0000000707805","images/stimuli/spore_stims/complex_01_B_d.gif","images/stimuli/spore_stims/complex_04_A_d.gif","","","","","9","complex_dissimilar","images/stimuli/spore_stims/complex_04_A_d.gif","left","","","","",""
"","1873.0000001378357","html-keyboard-response","186","295396","0.0-36.0","SS1613140721165","pref_question","","50","","","","","<video width ='960' height = '540' style='padding-top:8%' autoplay muted><source src='images/stimuli/wall_pref.mp4' type='video/mp4'></video>","2","middle","45%","9","","","","","","","",""
"","138.0000002682209","sequential-stimulus-presentation","187","296382","0.0-37.0","SS1613140721165","pref_reveal","","40","800","938.0000002682209","null","null","","","","","9","","","","novel","","","",""
"","null","html-keyboard-response","188","297274","0.0-38.0-0.0","SS1613140721165","","","null","","","","","<p><img src= images/blank.png width =""200"" height = ""200"" style = ""float:right""></p><p><img src=images/blank.png width =""800"" height = ""200""></p>","","","","","","","","","","","",""
"","407.99999982118607","sequential-stimulus-presentation","189","298490","0.0-38.0-1.0","SS1613140721165","trial","","40","800","1207.999999821186","images/stimuli/spore_stims/complex_05_A_d.gif","images/stimuli/spore_stims/complex_09_A_a.gif","","","","","10","complex_dissimilar","images/stimuli/spore_stims/complex_09_A_a.gif","middle","","","","",""
"","null","html-keyboard-response","190","299749","0.0-38.0-0.1","SS1613140721165","","","null","","","","","<p><img src= images/blank.png width =""200"" height = ""200"" style = ""float:right""></p><p><img src=images/blank.png width =""800"" height = ""200""></p>","","","","","","","","","","","",""
"","171.00000008940697","sequential-stimulus-presentation","191","300744","0.0-38.0-1.1","SS1613140721165","trial","","40","800","971.000000089407","images/stimuli/spore_stims/complex_05_A_d.gif","images/stimuli/spore_stims/complex_09_A_a.gif","","","","","10","complex_dissimilar","images/stimuli/spore_stims/complex_09_A_a.gif","middle","","","","",""
"","null","html-keyboard-response","192","301955","0.0-38.0-0.2","SS1613140721165","","","null","","","","","<p><img src= images/blank.png width =""200"" height = ""200"" style = ""float:right""></p><p><img src=images/blank.png width =""800"" height = ""200""></p>","","","","","","","","","","","",""
"","121.99999997392297","sequential-stimulus-presentation","193","302885","0.0-38.0-1.2","SS1613140721165","trial","","40","800","921.999999973923","images/stimuli/spore_stims/complex_05_A_d.gif","images/stimuli/spore_stims/complex_09_A_a.gif","","","","","10","complex_dissimilar","images/stimuli/spore_stims/complex_09_A_a.gif","middle","","","","",""
"","null","html-keyboard-response","194","303696","0.0-38.0-0.3","SS1613140721165","","","null","","","","","<p><img src= images/blank.png width =""200"" height = ""200"" style = ""float:right""></p><p><img src=images/blank.png width =""800"" height = ""200""></p>","","","","","","","","","","","",""
"","296.99999978765845","sequential-stimulus-presentation","195","304816","0.0-38.0-1.3","SS1613140721165","trial","","40","800","1096.9999997876585","images/stimuli/spore_stims/complex_05_A_d.gif","images/stimuli/spore_stims/complex_09_A_a.gif","","","","","10","complex_dissimilar","images/stimuli/spore_stims/complex_05_A_d.gif","left","","","","",""
"","null","html-keyboard-response","196","305666","0.0-38.0-0.4","SS1613140721165","","","null","","","","","<p><img src= images/blank.png width =""200"" height = ""200"" style = ""float:right""></p><p><img src=images/blank.png width =""800"" height = ""200""></p>","","","","","","","","","","","",""
"","108.00000000745058","sequential-stimulus-presentation","197","306589","0.0-38.0-1.4","SS1613140721165","trial","","40","800","908.0000000074506","images/stimuli/spore_stims/complex_05_A_d.gif","images/stimuli/spore_stims/complex_09_A_a.gif","","","","","10","complex_dissimilar","images/stimuli/spore_stims/complex_09_A_a.gif","middle","","","","",""
"","null","html-keyboard-response","198","307763","0.0-38.0-0.5","SS1613140721165","","","null","","","","","<p><img src= images/blank.png width =""200"" height = ""200"" style = ""float:right""></p><p><img src=images/blank.png width =""800"" height = ""200""></p>","","","","","","","","","","","",""
"","295.0000003911555","sequential-stimulus-presentation","199","308881","0.0-38.0-1.5","SS1613140721165","trial","","40","800","1095.0000003911555","images/stimuli/spore_stims/complex_05_A_d.gif","images/stimuli/spore_stims/complex_09_A_a.gif","","","","","10","complex_dissimilar","images/stimuli/spore_stims/complex_09_A_a.gif","middle","","","","",""
"","null","html-keyboard-response","200","309743","0.0-38.0-0.6","SS1613140721165","","","null","","","","","<p><img src= images/blank.png width =""200"" height = ""200"" style = ""float:right""></p><p><img src=images/blank.png width =""800"" height = ""200""></p>","","","","","","","","","","","",""
"","563.0000000819564","sequential-stimulus-presentation","201","311137","0.0-38.0-1.6","SS1613140721165","trial","","40","800","1363.0000000819564","images/stimuli/spore_stims/complex_05_A_d.gif","images/stimuli/spore_stims/complex_09_A_a.gif","","","","","10","complex_dissimilar","images/stimuli/spore_stims/complex_09_A_a.gif","middle","","","","",""
"","null","html-keyboard-response","202","312203","0.0-38.0-0.7","SS1613140721165","","","null","","","","","<p><img src= images/blank.png width =""200"" height = ""200"" style = ""float:right""></p><p><img src=images/blank.png width =""800"" height = ""200""></p>","","","","","","","","","","","",""
"","169.0000002272427","sequential-stimulus-presentation","203","313203","0.0-38.0-1.7","SS1613140721165","trial","","40","800","969.0000002272427","images/stimuli/spore_stims/complex_05_A_d.gif","images/stimuli/spore_stims/complex_09_A_a.gif","","","","","10","complex_dissimilar","images/stimuli/spore_stims/complex_09_A_a.gif","middle","","","","",""
"","2668.00000006333","html-keyboard-response","204","315897","0.0-39.0","SS1613140721165","pref_question","","49","","","","","<video width ='960' height = '540' style='padding-top:8%' autoplay muted><source src='images/stimuli/wall_pref.mp4' type='video/mp4'></video>","1","left","25%","10","","","","","","","",""
"","259.0000000782311","sequential-stimulus-presentation","205","316967","0.0-40.0","SS1613140721165","pref_reveal","","40","800","1059.000000078231","null","null","","","","","10","","","","deviant","","","",""
"","null","html-keyboard-response","206","317927","0.0-41.0-0.0","SS1613140721165","","","null","","","","","<p><img src= images/blank.png width =""200"" height = ""200"" style = ""float:right""></p><p><img src=images/blank.png width =""800"" height = ""200""></p>","","","","","","","","","","","",""
"","550.9999999776483","sequential-stimulus-presentation","207","319289","0.0-41.0-1.0","SS1613140721165","trial","","40","800","1350.9999999776483","images/stimuli/spore_stims/complex_12_B_c.gif","images/stimuli/spore_stims/complex_12_A_c.gif","","","","","11","complex_similar","images/stimuli/spore_stims/complex_12_A_c.gif","left","","","","",""
"","null","html-keyboard-response","208","320336","0.0-41.0-0.1","SS1613140721165","","","null","","","","","<p><img src= images/blank.png width =""200"" height = ""200"" style = ""float:right""></p><p><img src=images/blank.png width =""800"" height = ""200""></p>","","","","","","","","","","","",""
"","296.99999978765845","sequential-stimulus-presentation","209","321446","0.0-41.0-1.1","SS1613140721165","trial","","40","800","1096.9999997876585","images/stimuli/spore_stims/complex_12_B_c.gif","images/stimuli/spore_stims/complex_12_A_c.gif","","","","","11","complex_similar","images/stimuli/spore_stims/complex_12_A_c.gif","left","","","","",""
"","null","html-keyboard-response","210","322353","0.0-41.0-0.2","SS1613140721165","","","null","","","","","<p><img src= images/blank.png width =""200"" height = ""200"" style = ""float:right""></p><p><img src=images/blank.png width =""800"" height = ""200""></p>","","","","","","","","","","","",""
"","972.9999997653067","sequential-stimulus-presentation","211","324145","0.0-41.0-1.2","SS1613140721165","trial","","40","800","1772.9999997653067","images/stimuli/spore_stims/complex_12_B_c.gif","images/stimuli/spore_stims/complex_12_A_c.gif","","","","","11","complex_similar","images/stimuli/spore_stims/complex_12_A_c.gif","left","","","","",""
"","null","html-keyboard-response","212","325029","0.0-41.0-0.3","SS1613140721165","","","null","","","","","<p><img src= images/blank.png width =""200"" height = ""200"" style = ""float:right""></p><p><img src=images/blank.png width =""800"" height = ""200""></p>","","","","","","","","","","","",""
"","212.99999998882413","sequential-stimulus-presentation","213","326065","0.0-41.0-1.3","SS1613140721165","trial","","40","800","1012.9999999888241","images/stimuli/spore_stims/complex_12_B_c.gif","images/stimuli/spore_stims/complex_12_A_c.gif","","","","","11","complex_similar","images/stimuli/spore_stims/complex_12_A_c.gif","left","","","","",""
"","null","html-keyboard-response","214","327178","0.0-41.0-0.4","SS1613140721165","","","null","","","","","<p><img src= images/blank.png width =""200"" height = ""200"" style = ""float:right""></p><p><img src=images/blank.png width =""800"" height = ""200""></p>","","","","","","","","","","","",""
"","659.9999996833503","sequential-stimulus-presentation","215","328665","0.0-41.0-1.4","SS1613140721165","trial","","40","800","1459.9999996833503","images/stimuli/spore_stims/complex_12_B_c.gif","images/stimuli/spore_stims/complex_12_A_c.gif","","","","","11","complex_similar","images/stimuli/spore_stims/complex_12_A_c.gif","left","","","","",""
"","null","html-keyboard-response","216","329974","0.0-41.0-0.5","SS1613140721165","","","null","","","","","<p><img src= images/blank.png width =""200"" height = ""200"" style = ""float:right""></p><p><img src=images/blank.png width =""800"" height = ""200""></p>","","","","","","","","","","","",""
"","587.9999999888241","sequential-stimulus-presentation","217","331387","0.0-41.0-1.5","SS1613140721165","trial","","40","800","1387.9999999888241","images/stimuli/spore_stims/complex_12_B_c.gif","images/stimuli/spore_stims/complex_12_A_c.gif","","","","","11","complex_similar","images/stimuli/spore_stims/complex_12_B_c.gif","right","","","","",""
"","null","html-keyboard-response","218","332383","0.0-41.0-0.6","SS1613140721165","","","null","","","","","<p><img src= images/blank.png width =""200"" height = ""200"" style = ""float:right""></p><p><img src=images/blank.png width =""800"" height = ""200""></p>","","","","","","","","","","","",""
"","76.00000035017729","sequential-stimulus-presentation","219","333275","0.0-41.0-1.6","SS1613140721165","trial","","40","800","876.0000003501773","images/stimuli/spore_stims/complex_12_B_c.gif","images/stimuli/spore_stims/complex_12_A_c.gif","","","","","11","complex_similar","images/stimuli/spore_stims/complex_12_A_c.gif","left","","","","",""
"","null","html-keyboard-response","220","334490","0.0-41.0-0.7","SS1613140721165","","","null","","","","","<p><img src= images/blank.png width =""200"" height = ""200"" style = ""float:right""></p><p><img src=images/blank.png width =""800"" height = ""200""></p>","","","","","","","","","","","",""
"","183.0000001937151","sequential-stimulus-presentation","221","335506","0.0-41.0-1.7","SS1613140721165","trial","","40","800","983.0000001937151","images/stimuli/spore_stims/complex_12_B_c.gif","images/stimuli/spore_stims/complex_12_A_c.gif","","","","","11","complex_similar","images/stimuli/spore_stims/complex_12_A_c.gif","left","","","","",""
"","1722.0000000670552","html-keyboard-response","222","337246","0.0-42.0","SS1613140721165","pref_question","","50","","","","","<video width ='960' height = '540' style='padding-top:8%' autoplay muted><source src='images/stimuli/wall_pref.mp4' type='video/mp4'></video>","2","middle","45%","11","","","","","","","",""
"","155.9999999590218","sequential-stimulus-presentation","223","338211","0.0-43.0","SS1613140721165","pref_reveal","","40","800","955.9999999590218","null","null","","","","","11","","","","novel","","","",""
"","null","html-keyboard-response","224","339337","0.0-44.0-0.0","SS1613140721165","","","null","","","","","<p><img src= images/blank.png width =""200"" height = ""200"" style = ""float:right""></p><p><img src=images/blank.png width =""800"" height = ""200""></p>","","","","","","","","","","","",""
"","166.00000020116568","sequential-stimulus-presentation","225","340336","0.0-44.0-1.0","SS1613140721165","trial","","40","800","966.0000002011657","images/stimuli/spore_stims/simple_10_B_b.gif","images/stimuli/spore_stims/simple_10_A_b.gif","","","","","12","simple_similar","images/stimuli/spore_stims/simple_10_A_b.gif","left","","","","",""
"","null","html-keyboard-response","226","341288","0.0-44.0-0.1","SS1613140721165","","","null","","","","","<p><img src= images/blank.png width =""200"" height = ""200"" style = ""float:right""></p><p><img src=images/blank.png width =""800"" height = ""200""></p>","","","","","","","","","","","",""
"","353.9999998174608","sequential-stimulus-presentation","227","342466","0.0-44.0-1.1","SS1613140721165","trial","","40","800","1153.9999998174608","images/stimuli/spore_stims/simple_10_B_b.gif","images/stimuli/spore_stims/simple_10_A_b.gif","","","","","12","simple_similar","images/stimuli/spore_stims/simple_10_A_b.gif","left","","","","",""
"","null","html-keyboard-response","228","343316","0.0-44.0-0.2","SS1613140721165","","","null","","","","","<p><img src= images/blank.png width =""200"" height = ""200"" style = ""float:right""></p><p><img src=images/blank.png width =""800"" height = ""200""></p>","","","","","","","","","","","",""
"","140.99999982863665","sequential-stimulus-presentation","229","344267","0.0-44.0-1.2","SS1613140721165","trial","","40","800","940.9999998286366","images/stimuli/spore_stims/simple_10_B_b.gif","images/stimuli/spore_stims/simple_10_A_b.gif","","","","","12","simple_similar","images/stimuli/spore_stims/simple_10_A_b.gif","left","","","","",""
"","null","html-keyboard-response","230","345155","0.0-44.0-0.3","SS1613140721165","","","null","","","","","<p><img src= images/blank.png width =""200"" height = ""200"" style = ""float:right""></p><p><img src=images/blank.png width =""800"" height = ""200""></p>","","","","","","","","","","","",""
"","532.0000001229346","sequential-stimulus-presentation","231","346509","0.0-44.0-1.3","SS1613140721165","trial","","40","800","1332.0000001229346","images/stimuli/spore_stims/simple_10_B_b.gif","images/stimuli/spore_stims/simple_10_A_b.gif","","","","","12","simple_similar","images/stimuli/spore_stims/simple_10_A_b.gif","left","","","","",""
"","null","html-keyboard-response","232","347802","0.0-44.0-0.4","SS1613140721165","","","null","","","","","<p><img src= images/blank.png width =""200"" height = ""200"" style = ""float:right""></p><p><img src=images/blank.png width =""800"" height = ""200""></p>","","","","","","","","","","","",""
"","836.9999998249114","sequential-stimulus-presentation","233","349457","0.0-44.0-1.4","SS1613140721165","trial","","40","800","1636.9999998249114","images/stimuli/spore_stims/simple_10_B_b.gif","images/stimuli/spore_stims/simple_10_A_b.gif","","","","","12","simple_similar","images/stimuli/spore_stims/simple_10_A_b.gif","left","","","","",""
"","null","html-keyboard-response","234","350407","0.0-44.0-0.5","SS1613140721165","","","null","","","","","<p><img src= images/blank.png width =""200"" height = ""200"" style = ""float:right""></p><p><img src=images/blank.png width =""800"" height = ""200""></p>","","","","","","","","","","","",""
"","399.00000020861626","sequential-stimulus-presentation","235","351626","0.0-44.0-1.5","SS1613140721165","trial","","40","800","1199.0000002086163","images/stimuli/spore_stims/simple_10_B_b.gif","images/stimuli/spore_stims/simple_10_A_b.gif","","","","","12","simple_similar","images/stimuli/spore_stims/simple_10_A_b.gif","left","","","","",""
"","null","html-keyboard-response","236","352649","0.0-44.0-0.6","SS1613140721165","","","null","","","","","<p><img src= images/blank.png width =""200"" height = ""200"" style = ""float:right""></p><p><img src=images/blank.png width =""800"" height = ""200""></p>","","","","","","","","","","","",""
"","591.9999997131526","sequential-stimulus-presentation","237","354056","0.0-44.0-1.6","SS1613140721165","trial","","40","800","1391.9999997131526","images/stimuli/spore_stims/simple_10_B_b.gif","images/stimuli/spore_stims/simple_10_A_b.gif","","","","","12","simple_similar","images/stimuli/spore_stims/simple_10_A_b.gif","left","","","","",""
"","null","html-keyboard-response","238","355206","0.0-44.0-0.7","SS1613140721165","","","null","","","","","<p><img src= images/blank.png width =""200"" height = ""200"" style = ""float:right""></p><p><img src=images/blank.png width =""800"" height = ""200""></p>","","","","","","","","","","","",""
"","316.0000001080334","sequential-stimulus-presentation","239","356333","0.0-44.0-1.7","SS1613140721165","trial","","40","800","1116.0000001080334","images/stimuli/spore_stims/simple_10_B_b.gif","images/stimuli/spore_stims/simple_10_A_b.gif","","","","","12","simple_similar","images/stimuli/spore_stims/simple_10_B_b.gif","middle","","","","",""
"","1874.0000003017485","html-keyboard-response","240","358225","0.0-45.0","SS1613140721165","pref_question","","51","","","","","<video width ='960' height = '540' style='padding-top:8%' autoplay muted><source src='images/stimuli/wall_pref.mp4' type='video/mp4'></video>","3","right","66%","12","","","","","","","",""
"","628.000000026077","sequential-stimulus-presentation","241","359667","0.0-46.0","SS1613140721165","pref_reveal","","40","800","1428.000000026077","null","null","","","","","12","","","","novel","","","",""
"","null","html-keyboard-response","242","360885","0.0-47.0-0.0","SS1613140721165","","","null","","","","","<p><img src= images/blank.png width =""200"" height = ""200"" style = ""float:right""></p><p><img src=images/blank.png width =""800"" height = ""200""></p>","","","","","","","","","","","",""
"","55.00000016763806","sequential-stimulus-presentation","243","361755","0.0-47.0-1.0","SS1613140721165","trial","","40","800","855.0000001676381","images/stimuli/spore_stims/simple_03_A_d.gif","images/stimuli/spore_stims/simple_09_A_c.gif","","","","","13","simple_dissimilar","images/stimuli/spore_stims/simple_09_A_c.gif","right","","","","",""
"","null","html-keyboard-response","244","363010","0.0-47.0-0.1","SS1613140721165","","","null","","","","","<p><img src= images/blank.png width =""200"" height = ""200"" style = ""float:right""></p><p><img src=images/blank.png width =""800"" height = ""200""></p>","","","","","","","","","","","",""
"","279.99999979510903","sequential-stimulus-presentation","245","364120","0.0-47.0-1.1","SS1613140721165","trial","","40","800","1079.999999795109","images/stimuli/spore_stims/simple_03_A_d.gif","images/stimuli/spore_stims/simple_09_A_c.gif","","","","","13","simple_dissimilar","images/stimuli/spore_stims/simple_09_A_c.gif","right","","","","",""
"","null","html-keyboard-response","246","365390","0.0-47.0-0.2","SS1613140721165","","","null","","","","","<p><img src= images/blank.png width =""200"" height = ""200"" style = ""float:right""></p><p><img src=images/blank.png width =""800"" height = ""200""></p>","","","","","","","","","","","",""
"","368.00000024959445","sequential-stimulus-presentation","247","366660","0.0-47.0-1.2","SS1613140721165","trial","","40","800","1168.0000002495944","images/stimuli/spore_stims/simple_03_A_d.gif","images/stimuli/spore_stims/simple_09_A_c.gif","","","","","13","simple_dissimilar","images/stimuli/spore_stims/simple_09_A_c.gif","right","","","","",""
"","null","html-keyboard-response","248","367483","0.0-47.0-0.3","SS1613140721165","","","null","","","","","<p><img src= images/blank.png width =""200"" height = ""200"" style = ""float:right""></p><p><img src=images/blank.png width =""800"" height = ""200""></p>","","","","","","","","","","","",""
"","516.9999999925494","sequential-stimulus-presentation","249","368869","0.0-47.0-1.3","SS1613140721165","trial","","40","800","1316.9999999925494","images/stimuli/spore_stims/simple_03_A_d.gif","images/stimuli/spore_stims/simple_09_A_c.gif","","","","","13","simple_dissimilar","images/stimuli/spore_stims/simple_09_A_c.gif","right","","","","",""
"","null","html-keyboard-response","250","369778","0.0-47.0-0.4","SS1613140721165","","","null","","","","","<p><img src= images/blank.png width =""200"" height = ""200"" style = ""float:right""></p><p><img src=images/blank.png width =""800"" height = ""200""></p>","","","","","","","","","","","",""
"","591.9999997131526","sequential-stimulus-presentation","251","371244","0.0-47.0-1.4","SS1613140721165","trial","","40","800","1391.9999997131526","images/stimuli/spore_stims/simple_03_A_d.gif","images/stimuli/spore_stims/simple_09_A_c.gif","","","","","13","simple_dissimilar","images/stimuli/spore_stims/simple_03_A_d.gif","middle","","","","",""
"","null","html-keyboard-response","252","372112","0.0-47.0-0.5","SS1613140721165","","","null","","","","","<p><img src= images/blank.png width =""200"" height = ""200"" style = ""float:right""></p><p><img src=images/blank.png width =""800"" height = ""200""></p>","","","","","","","","","","","",""
"","355.99999967962503","sequential-stimulus-presentation","253","373289","0.0-47.0-1.5","SS1613140721165","trial","","40","800","1155.999999679625","images/stimuli/spore_stims/simple_03_A_d.gif","images/stimuli/spore_stims/simple_09_A_c.gif","","","","","13","simple_dissimilar","images/stimuli/spore_stims/simple_09_A_c.gif","right","","","","",""
"","null","html-keyboard-response","254","374360","0.0-47.0-0.6","SS1613140721165","","","null","","","","","<p><img src= images/blank.png width =""200"" height = ""200"" style = ""float:right""></p><p><img src=images/blank.png width =""800"" height = ""200""></p>","","","","","","","","","","","",""
"","233.99999970570207","sequential-stimulus-presentation","255","375408","0.0-47.0-1.6","SS1613140721165","trial","","40","800","1033.999999705702","images/stimuli/spore_stims/simple_03_A_d.gif","images/stimuli/spore_stims/simple_09_A_c.gif","","","","","13","simple_dissimilar","images/stimuli/spore_stims/simple_09_A_c.gif","right","","","","",""
"","null","html-keyboard-response","256","376750","0.0-47.0-0.7","SS1613140721165","","","null","","","","","<p><img src= images/blank.png width =""200"" height = ""200"" style = ""float:right""></p><p><img src=images/blank.png width =""800"" height = ""200""></p>","","","","","","","","","","","",""
"","341.00000001490116","sequential-stimulus-presentation","257","377941","0.0-47.0-1.7","SS1613140721165","trial","","40","800","1141.0000000149012","images/stimuli/spore_stims/simple_03_A_d.gif","images/stimuli/spore_stims/simple_09_A_c.gif","","","","","13","simple_dissimilar","images/stimuli/spore_stims/simple_09_A_c.gif","right","","","","",""
"","1672.9999999515712","html-keyboard-response","258","379619","0.0-48.0","SS1613140721165","pref_question","","51","","","","","<video width ='960' height = '540' style='padding-top:8%' autoplay muted><source src='images/stimuli/wall_pref.mp4' type='video/mp4'></video>","3","right","66%","13","","","","","","","",""
"","212.99999998882413","sequential-stimulus-presentation","259","380654","0.0-49.0","SS1613140721165","pref_reveal","","40","800","1012.9999999888241","null","null","","","","","13","","","","background","","","",""
"","null","html-keyboard-response","260","381941","0.0-50.0-0.0","SS1613140721165","","","null","","","","","<p><img src= images/blank.png width =""200"" height = ""200"" style = ""float:right""></p><p><img src=images/blank.png width =""800"" height = ""200""></p>","","","","","","","","","","","",""
"","40.0000000372529","sequential-stimulus-presentation","261","382803","0.0-50.0-1.0","SS1613140721165","trial","","40","800","840.0000000372529","images/stimuli/spore_stims/simple_13_B_d.gif","images/stimuli/spore_stims/simple_13_A_d.gif","","","","","14","simple_similar","images/stimuli/spore_stims/simple_13_A_d.gif","middle","","","","",""
"","null","html-keyboard-response","262","383621","0.0-50.0-0.1","SS1613140721165","","","null","","","","","<p><img src= images/blank.png width =""200"" height = ""200"" style = ""float:right""></p><p><img src=images/blank.png width =""800"" height = ""200""></p>","","","","","","","","","","","",""
"","246.00000027567148","sequential-stimulus-presentation","263","384680","0.0-50.0-1.1","SS1613140721165","trial","","40","800","1046.0000002756715","images/stimuli/spore_stims/simple_13_B_d.gif","images/stimuli/spore_stims/simple_13_A_d.gif","","","","","14","simple_similar","images/stimuli/spore_stims/simple_13_A_d.gif","middle","","","","",""
"","null","html-keyboard-response","264","385567","0.0-50.0-0.2","SS1613140721165","","","null","","","","","<p><img src= images/blank.png width =""200"" height = ""200"" style = ""float:right""></p><p><img src=images/blank.png width =""800"" height = ""200""></p>","","","","","","","","","","","",""
"","263.9999999664724","sequential-stimulus-presentation","265","386651","0.0-50.0-1.2","SS1613140721165","trial","","40","800","1063.9999999664724","images/stimuli/spore_stims/simple_13_B_d.gif","images/stimuli/spore_stims/simple_13_A_d.gif","","","","","14","simple_similar","images/stimuli/spore_stims/simple_13_A_d.gif","middle","","","","",""
"","null","html-keyboard-response","266","387546","0.0-50.0-0.3","SS1613140721165","","","null","","","","","<p><img src= images/blank.png width =""200"" height = ""200"" style = ""float:right""></p><p><img src=images/blank.png width =""800"" height = ""200""></p>","","","","","","","","","","","",""
"","363.00000036135316","sequential-stimulus-presentation","267","388782","0.0-50.0-1.3","SS1613140721165","trial","","40","800","1163.0000003613532","images/stimuli/spore_stims/simple_13_B_d.gif","images/stimuli/spore_stims/simple_13_A_d.gif","","","","","14","simple_similar","images/stimuli/spore_stims/simple_13_A_d.gif","middle","","","","",""
"","null","html-keyboard-response","268","389818","0.0-50.0-0.4","SS1613140721165","","","null","","","","","<p><img src= images/blank.png width =""200"" height = ""200"" style = ""float:right""></p><p><img src=images/blank.png width =""800"" height = ""200""></p>","","","","","","","","","","","",""
"","80.0000000745058","sequential-stimulus-presentation","269","390717","0.0-50.0-1.4","SS1613140721165","trial","","40","800","880.0000000745058","images/stimuli/spore_stims/simple_13_B_d.gif","images/stimuli/spore_stims/simple_13_A_d.gif","","","","","14","simple_similar","images/stimuli/spore_stims/simple_13_A_d.gif","middle","","","","",""
"","null","html-keyboard-response","270","391976","0.0-50.0-0.5","SS1613140721165","","","null","","","","","<p><img src= images/blank.png width =""200"" height = ""200"" style = ""float:right""></p><p><img src=images/blank.png width =""800"" height = ""200""></p>","","","","","","","","","","","",""
"","177.99999983981252","sequential-stimulus-presentation","271","392982","0.0-50.0-1.5","SS1613140721165","trial","","40","800","977.9999998398125","images/stimuli/spore_stims/simple_13_B_d.gif","images/stimuli/spore_stims/simple_13_A_d.gif","","","","","14","simple_similar","images/stimuli/spore_stims/simple_13_B_d.gif","left","","","","",""
"","null","html-keyboard-response","272","393817","0.0-50.0-0.6","SS1613140721165","","","null","","","","","<p><img src= images/blank.png width =""200"" height = ""200"" style = ""float:right""></p><p><img src=images/blank.png width =""800"" height = ""200""></p>","","","","","","","","","","","",""
"","559.0000003576279","sequential-stimulus-presentation","273","395204","0.0-50.0-1.6","SS1613140721165","trial","","40","800","1359.0000003576279","images/stimuli/spore_stims/simple_13_B_d.gif","images/stimuli/spore_stims/simple_13_A_d.gif","","","","","14","simple_similar","images/stimuli/spore_stims/simple_13_A_d.gif","middle","","","","",""
"","null","html-keyboard-response","274","396272","0.0-50.0-0.7","SS1613140721165","","","null","","","","","<p><img src= images/blank.png width =""200"" height = ""200"" style = ""float:right""></p><p><img src=images/blank.png width =""800"" height = ""200""></p>","","","","","","","","","","","",""
"","371.99999997392297","sequential-stimulus-presentation","275","397456","0.0-50.0-1.7","SS1613140721165","trial","","40","800","1171.999999973923","images/stimuli/spore_stims/simple_13_B_d.gif","images/stimuli/spore_stims/simple_13_A_d.gif","","","","","14","simple_similar","images/stimuli/spore_stims/simple_13_A_d.gif","middle","","","","",""
"","1692.9999999701977","html-keyboard-response","276","399161","0.0-51.0","SS1613140721165","pref_question","","51","","","","","<video width ='960' height = '540' style='padding-top:8%' autoplay muted><source src='images/stimuli/wall_pref.mp4' type='video/mp4'></video>","3","right","66%","14","","","","","","","",""
"","274.00000020861626","sequential-stimulus-presentation","277","400257","0.0-52.0","SS1613140721165","pref_reveal","","40","800","1074.0000002086163","null","null","","","","","14","","","","novel","","","",""
"","null","html-keyboard-response","278","401468","0.0-53.0-0.0","SS1613140721165","","","null","","","","","<p><img src= images/blank.png width =""200"" height = ""200"" style = ""float:right""></p><p><img src=images/blank.png width =""800"" height = ""200""></p>","","","","","","","","","","","",""
"","758.9999996125698","sequential-stimulus-presentation","279","403068","0.0-53.0-1.0","SS1613140721165","trial","","40","800","1558.9999996125698","images/stimuli/spore_stims/complex_09_B_c.gif","images/stimuli/spore_stims/complex_03_A_d.gif","","","","","15","complex_dissimilar","images/stimuli/spore_stims/complex_03_A_d.gif","right","","","","",""
"","null","html-keyboard-response","280","403910","0.0-53.0-0.1","SS1613140721165","","","null","","","","","<p><img src= images/blank.png width =""200"" height = ""200"" style = ""float:right""></p><p><img src=images/blank.png width =""800"" height = ""200""></p>","","","","","","","","","","","",""
"","557.9999997280538","sequential-stimulus-presentation","281","405280","0.0-53.0-1.1","SS1613140721165","trial","","40","800","1357.9999997280538","images/stimuli/spore_stims/complex_09_B_c.gif","images/stimuli/spore_stims/complex_03_A_d.gif","","","","","15","complex_dissimilar","images/stimuli/spore_stims/complex_03_A_d.gif","right","","","","",""
"","null","html-keyboard-response","282","406270","0.0-53.0-0.2","SS1613140721165","","","null","","","","","<p><img src= images/blank.png width =""200"" height = ""200"" style = ""float:right""></p><p><img src=images/blank.png width =""800"" height = ""200""></p>","","","","","","","","","","","",""
"","408.99999998509884","sequential-stimulus-presentation","283","407486","0.0-53.0-1.2","SS1613140721165","trial","","40","800","1208.9999999850988","images/stimuli/spore_stims/complex_09_B_c.gif","images/stimuli/spore_stims/complex_03_A_d.gif","","","","","15","complex_dissimilar","images/stimuli/spore_stims/complex_03_A_d.gif","right","","","","",""
"","null","html-keyboard-response","284","408455","0.0-53.0-0.3","SS1613140721165","","","null","","","","","<p><img src= images/blank.png width =""200"" height = ""200"" style = ""float:right""></p><p><img src=images/blank.png width =""800"" height = ""200""></p>","","","","","","","","","","","",""
"","191.9999998062849","sequential-stimulus-presentation","285","409463","0.0-53.0-1.3","SS1613140721165","trial","","40","800","991.9999998062849","images/stimuli/spore_stims/complex_09_B_c.gif","images/stimuli/spore_stims/complex_03_A_d.gif","","","","","15","complex_dissimilar","images/stimuli/spore_stims/complex_03_A_d.gif","right","","","","",""
"","null","html-keyboard-response","286","410320","0.0-53.0-0.4","SS1613140721165","","","null","","","","","<p><img src= images/blank.png width =""200"" height = ""200"" style = ""float:right""></p><p><img src=images/blank.png width =""800"" height = ""200""></p>","","","","","","","","","","","",""
"","385.99999994039536","sequential-stimulus-presentation","287","411541","0.0-53.0-1.4","SS1613140721165","trial","","40","800","1185.9999999403954","images/stimuli/spore_stims/complex_09_B_c.gif","images/stimuli/spore_stims/complex_03_A_d.gif","","","","","15","complex_dissimilar","images/stimuli/spore_stims/complex_03_A_d.gif","right","","","","",""
"","null","html-keyboard-response","288","412607","0.0-53.0-0.5","SS1613140721165","","","null","","","","","<p><img src= images/blank.png width =""200"" height = ""200"" style = ""float:right""></p><p><img src=images/blank.png width =""800"" height = ""200""></p>","","","","","","","","","","","",""
"","62.9999996162951","sequential-stimulus-presentation","289","413516","0.0-53.0-1.5","SS1613140721165","trial","","40","800","862.9999996162951","images/stimuli/spore_stims/complex_09_B_c.gif","images/stimuli/spore_stims/complex_03_A_d.gif","","","","","15","complex_dissimilar","images/stimuli/spore_stims/complex_09_B_c.gif","left","","","","",""
"","null","html-keyboard-response","290","414584","0.0-53.0-0.6","SS1613140721165","","","null","","","","","<p><img src= images/blank.png width =""200"" height = ""200"" style = ""float:right""></p><p><img src=images/blank.png width =""800"" height = ""200""></p>","","","","","","","","","","","",""
"","331.99999993667006","sequential-stimulus-presentation","291","415728","0.0-53.0-1.6","SS1613140721165","trial","","40","800","1131.99999993667","images/stimuli/spore_stims/complex_09_B_c.gif","images/stimuli/spore_stims/complex_03_A_d.gif","","","","","15","complex_dissimilar","images/stimuli/spore_stims/complex_03_A_d.gif","right","","","","",""
"","null","html-keyboard-response","292","416713","0.0-53.0-0.7","SS1613140721165","","","null","","","","","<p><img src= images/blank.png width =""200"" height = ""200"" style = ""float:right""></p><p><img src=images/blank.png width =""800"" height = ""200""></p>","","","","","","","","","","","",""
"","577.9999997466803","sequential-stimulus-presentation","293","418103","0.0-53.0-1.7","SS1613140721165","trial","","40","800","1377.9999997466803","images/stimuli/spore_stims/complex_09_B_c.gif","images/stimuli/spore_stims/complex_03_A_d.gif","","","","","15","complex_dissimilar","images/stimuli/spore_stims/complex_03_A_d.gif","right","","","","",""
"","2307.0000000298023","html-keyboard-response","294","420416","0.0-54.0","SS1613140721165","pref_question","","50","","","","","<video width ='960' height = '540' style='padding-top:8%' autoplay muted><source src='images/stimuli/wall_pref.mp4' type='video/mp4'></video>","2","middle","45%","15","","","","","","","",""
"","453.99999991059303","sequential-stimulus-presentation","295","421704","0.0-55.0","SS1613140721165","pref_reveal","","40","800","1253.999999910593","null","null","","","","","15","","","","novel","","","",""
"","null","html-keyboard-response","296","422923","0.0-56.0-0.0","SS1613140721165","","","null","","","","","<p><img src= images/blank.png width =""200"" height = ""200"" style = ""float:right""></p><p><img src=images/blank.png width =""800"" height = ""200""></p>","","","","","","","","","","","",""
"","64.00000024586916","sequential-stimulus-presentation","297","423828","0.0-56.0-1.0","SS1613140721165","trial","","40","800","864.0000002458692","images/stimuli/spore_stims/complex_04_A_d.gif","images/stimuli/spore_stims/complex_04_B_d.gif","","","","","16","complex_similar","images/stimuli/spore_stims/complex_04_B_d.gif","right","","","","",""
"","null","html-keyboard-response","298","424987","0.0-56.0-0.1","SS1613140721165","","","null","","","","","<p><img src= images/blank.png width =""200"" height = ""200"" style = ""float:right""></p><p><img src=images/blank.png width =""800"" height = ""200""></p>","","","","","","","","","","","",""
"","576.9999995827675","sequential-stimulus-presentation","299","426386","0.0-56.0-1.1","SS1613140721165","trial","","40","800","1376.9999995827675","images/stimuli/spore_stims/complex_04_A_d.gif","images/stimuli/spore_stims/complex_04_B_d.gif","","","","","16","complex_similar","images/stimuli/spore_stims/complex_04_B_d.gif","right","","","","",""
"","null","html-keyboard-response","300","427393","0.0-56.0-0.2","SS1613140721165","","","null","","","","","<p><img src= images/blank.png width =""200"" height = ""200"" style = ""float:right""></p><p><img src=images/blank.png width =""800"" height = ""200""></p>","","","","","","","","","","","",""
"","173.9999996498227","sequential-stimulus-presentation","301","428386","0.0-56.0-1.2","SS1613140721165","trial","","40","800","973.9999996498227","images/stimuli/spore_stims/complex_04_A_d.gif","images/stimuli/spore_stims/complex_04_B_d.gif","","","","","16","complex_similar","images/stimuli/spore_stims/complex_04_B_d.gif","right","","","","",""
"","null","html-keyboard-response","302","429640","0.0-56.0-0.3","SS1613140721165","","","null","","","","","<p><img src= images/blank.png width =""200"" height = ""200"" style = ""float:right""></p><p><img src=images/blank.png width =""800"" height = ""200""></p>","","","","","","","","","","","",""
"","740.0000002235174","sequential-stimulus-presentation","303","431225","0.0-56.0-1.3","SS1613140721165","trial","","40","800","1540.0000002235174","images/stimuli/spore_stims/complex_04_A_d.gif","images/stimuli/spore_stims/complex_04_B_d.gif","","","","","16","complex_similar","images/stimuli/spore_stims/complex_04_A_d.gif","left","","","","",""
"","null","html-keyboard-response","304","432478","0.0-56.0-0.4","SS1613140721165","","","null","","","","","<p><img src= images/blank.png width =""200"" height = ""200"" style = ""float:right""></p><p><img src=images/blank.png width =""800"" height = ""200""></p>","","","","","","","","","","","",""
"","504.0000001899898","sequential-stimulus-presentation","305","433804","0.0-56.0-1.4","SS1613140721165","trial","","40","800","1304.0000001899898","images/stimuli/spore_stims/complex_04_A_d.gif","images/stimuli/spore_stims/complex_04_B_d.gif","","","","","16","complex_similar","images/stimuli/spore_stims/complex_04_B_d.gif","right","","","","",""
"","null","html-keyboard-response","306","435014","0.0-56.0-0.5","SS1613140721165","","","null","","","","","<p><img src= images/blank.png width =""200"" height = ""200"" style = ""float:right""></p><p><img src=images/blank.png width =""800"" height = ""200""></p>","","","","","","","","","","","",""
"","134.0000000782311","sequential-stimulus-presentation","307","435966","0.0-56.0-1.5","SS1613140721165","trial","","40","800","934.0000000782311","images/stimuli/spore_stims/complex_04_A_d.gif","images/stimuli/spore_stims/complex_04_B_d.gif","","","","","16","complex_similar","images/stimuli/spore_stims/complex_04_B_d.gif","right","","","","",""
"","null","html-keyboard-response","308","437252","0.0-56.0-0.6","SS1613140721165","","","null","","","","","<p><img src= images/blank.png width =""200"" height = ""200"" style = ""float:right""></p><p><img src=images/blank.png width =""800"" height = ""200""></p>","","","","","","","","","","","",""
"","174.99999981373549","sequential-stimulus-presentation","309","438245","0.0-56.0-1.6","SS1613140721165","trial","","40","800","974.9999998137355","images/stimuli/spore_stims/complex_04_A_d.gif","images/stimuli/spore_stims/complex_04_B_d.gif","","","","","16","complex_similar","images/stimuli/spore_stims/complex_04_B_d.gif","right","","","","",""
"","null","html-keyboard-response","310","439379","0.0-56.0-0.7","SS1613140721165","","","null","","","","","<p><img src= images/blank.png width =""200"" height = ""200"" style = ""float:right""></p><p><img src=images/blank.png width =""800"" height = ""200""></p>","","","","","","","","","","","",""
"","288.00000017508864","sequential-stimulus-presentation","311","440488","0.0-56.0-1.7","SS1613140721165","trial","","40","800","1088.0000001750886","images/stimuli/spore_stims/complex_04_A_d.gif","images/stimuli/spore_stims/complex_04_B_d.gif","","","","","16","complex_similar","images/stimuli/spore_stims/complex_04_B_d.gif","right","","","","",""
"","1336.0000001266599","html-keyboard-response","312","441847","0.0-57.0","SS1613140721165","pref_question","","51","","","","","<video width ='960' height = '540' style='padding-top:8%' autoplay muted><source src='images/stimuli/wall_pref.mp4' type='video/mp4'></video>","3","right","66%","16","","","","","","","",""
