"view_history","rt","trial_type","trial_index","time_elapsed","internal_node_id","subject","stimulus_type","trial_stimulus","key_press","minimum_viewing_duration","trial_looking_time","block_deviant","block_background","stimulus","wall_pref","location","location_percent","block_number","block_type","stimulus_displayed","position_displayed","stim_type_selected","responses","question_order","stimulus_left","stimulus_right"
"[{""page_index"":0,""viewing_time"":2682.0149999985006}]","2682.6899999941816","instructions","0","2685","0.0-0.0","SS1613098839527","","","","","","","","","","","","","","","","","","","",""
"[{""page_index"":0,""viewing_time"":6110.265000002983},{""page_index"":1,""viewing_time"":5449.5999999999185}]","11560.315000002447","instructions","1","16253","0.0-1.0","SS1613098839527","instructions","","","","","","","","","","","","","","","","","","",""
"","12672.389999999723","sequential-stimulus-presentation","2","29734","0.0-2.0","SS1613098839527","","","40","800","13472.389999999723","null","null","","","","","","","","","","","","",""
"","4167.255000000296","sequential-stimulus-presentation","3","34707","0.0-3.0","SS1613098839527","","","40","800","4967.255000000296","null","null","","","","","","","","","","","","",""
"[{""page_index"":0,""viewing_time"":3210.7149999937974}]","3211.1649999933434","instructions","4","37920","0.0-4.0","SS1613098839527","instructions","","","","","","","","","","","","","","","","","","",""
"","6710.78999999736","html-keyboard-response","5","44635","0.0-5.0","SS1613098839527","instructions","","50","","","","","<video width ='960' height = '540' autoplay muted><source src='images/stimuli/wall_pref.mp4' type='video/mp4'></video>","2","middle","45%","","","","","","","","",""
"","1537.1200000008685","sequential-stimulus-presentation","6","46979","0.0-6.0","SS1613098839527","pref_reveal","","40","800","2337.1200000008685","null","null","","","","","","","","","","","","",""
"[{""page_index"":0,""viewing_time"":7178.335000004154},{""page_index"":1,""viewing_time"":4079.924999998184},{""page_index"":2,""viewing_time"":1290.0099999969825},{""page_index"":3,""viewing_time"":1513.0500000013853}]","14061.770000000251","instructions","7","61043","0.0-7.0","SS1613098839527","instructions","","","","","","","","","","","","","","","","","","",""
"","null","html-keyboard-response","8","62292","0.0-8.0-0.0","SS1613098839527","","","null","","","","","<p><img src= images/blank.png width =""200"" height = ""200"" style = ""float:right""></p><p><img src=images/blank.png width =""800"" height = ""200""></p>","","","","","","","","","","","",""
"","3623.8200000007055","sequential-stimulus-presentation","9","66725","0.0-8.0-1.0","SS1613098839527","trial","","40","800","4423.8200000007055","images/stimuli/spore_stims/simple_12_B_c.gif","images/stimuli/spore_stims/simple_12_A_c.gif","","","","","0","simple_similar","images/stimuli/spore_stims/simple_12_A_c.gif","middle","","","","",""
"","null","html-keyboard-response","10","67848","0.0-8.0-0.1","SS1613098839527","","","null","","","","","<p><img src= images/blank.png width =""200"" height = ""200"" style = ""float:right""></p><p><img src=images/blank.png width =""800"" height = ""200""></p>","","","","","","","","","","","",""
"","4549.545000001672","sequential-stimulus-presentation","11","73203","0.0-8.0-1.1","SS1613098839527","trial","","40","800","5349.545000001672","images/stimuli/spore_stims/simple_12_B_c.gif","images/stimuli/spore_stims/simple_12_A_c.gif","","","","","0","simple_similar","images/stimuli/spore_stims/simple_12_A_c.gif","middle","","","","",""
"","null","html-keyboard-response","12","74494","0.0-8.0-0.2","SS1613098839527","","","null","","","","","<p><img src= images/blank.png width =""200"" height = ""200"" style = ""float:right""></p><p><img src=images/blank.png width =""800"" height = ""200""></p>","","","","","","","","","","","",""
"","4281.940000000759","sequential-stimulus-presentation","13","79589","0.0-8.0-1.2","SS1613098839527","trial","","40","800","5081.940000000759","images/stimuli/spore_stims/simple_12_B_c.gif","images/stimuli/spore_stims/simple_12_A_c.gif","","","","","0","simple_similar","images/stimuli/spore_stims/simple_12_A_c.gif","middle","","","","",""
"","null","html-keyboard-response","14","80453","0.0-8.0-0.3","SS1613098839527","","","null","","","","","<p><img src= images/blank.png width =""200"" height = ""200"" style = ""float:right""></p><p><img src=images/blank.png width =""800"" height = ""200""></p>","","","","","","","","","","","",""
"","4365.415000000212","sequential-stimulus-presentation","15","85627","0.0-8.0-1.3","SS1613098839527","trial","","40","800","5165.415000000212","images/stimuli/spore_stims/simple_12_B_c.gif","images/stimuli/spore_stims/simple_12_A_c.gif","","","","","0","simple_similar","images/stimuli/spore_stims/simple_12_A_c.gif","middle","","","","",""
"","null","html-keyboard-response","16","86513","0.0-8.0-0.4","SS1613098839527","","","null","","","","","<p><img src= images/blank.png width =""200"" height = ""200"" style = ""float:right""></p><p><img src=images/blank.png width =""800"" height = ""200""></p>","","","","","","","","","","","",""
"","2860.630000002857","sequential-stimulus-presentation","17","90180","0.0-8.0-1.4","SS1613098839527","trial","","40","800","3660.630000002857","images/stimuli/spore_stims/simple_12_B_c.gif","images/stimuli/spore_stims/simple_12_A_c.gif","","","","","0","simple_similar","images/stimuli/spore_stims/simple_12_B_c.gif","right","","","","",""
"","null","html-keyboard-response","18","91040","0.0-8.0-0.5","SS1613098839527","","","null","","","","","<p><img src= images/blank.png width =""200"" height = ""200"" style = ""float:right""></p><p><img src=images/blank.png width =""800"" height = ""200""></p>","","","","","","","","","","","",""
"","1156.1650000003283","sequential-stimulus-presentation","19","93003","0.0-8.0-1.5","SS1613098839527","trial","","40","800","1956.1650000003283","images/stimuli/spore_stims/simple_12_B_c.gif","images/stimuli/spore_stims/simple_12_A_c.gif","","","","","0","simple_similar","images/stimuli/spore_stims/simple_12_A_c.gif","middle","","","","",""
"","null","html-keyboard-response","20","93838","0.0-8.0-0.6","SS1613098839527","","","null","","","","","<p><img src= images/blank.png width =""200"" height = ""200"" style = ""float:right""></p><p><img src=images/blank.png width =""800"" height = ""200""></p>","","","","","","","","","","","",""
"","518.5899999996764","sequential-stimulus-presentation","21","95163","0.0-8.0-1.6","SS1613098839527","trial","","40","800","1318.5899999996764","images/stimuli/spore_stims/simple_12_B_c.gif","images/stimuli/spore_stims/simple_12_A_c.gif","","","","","0","simple_similar","images/stimuli/spore_stims/simple_12_A_c.gif","middle","","","","",""
"","null","html-keyboard-response","22","96367","0.0-8.0-0.7","SS1613098839527","","","null","","","","","<p><img src= images/blank.png width =""200"" height = ""200"" style = ""float:right""></p><p><img src=images/blank.png width =""800"" height = ""200""></p>","","","","","","","","","","","",""
"","645.9549999999581","sequential-stimulus-presentation","23","97819","0.0-8.0-1.7","SS1613098839527","trial","","40","800","1445.954999999958","images/stimuli/spore_stims/simple_12_B_c.gif","images/stimuli/spore_stims/simple_12_A_c.gif","","","","","0","simple_similar","images/stimuli/spore_stims/simple_12_A_c.gif","middle","","","","",""
"","2621.274999997695","html-keyboard-response","24","100445","0.0-9.0","SS1613098839527","pref_question","","49","","","","","<video width ='960' height = '540' style='padding-top:8%' autoplay muted><source src='images/stimuli/wall_pref.mp4' type='video/mp4'></video>","1","left","25%","0","","","","","","","",""
"","3917.509999999311","sequential-stimulus-presentation","25","105171","0.0-10.0","SS1613098839527","pref_reveal","","40","800","4717.509999999311","null","null","","","","","0","","","","novel","","","",""
"","null","html-keyboard-response","26","106101","0.0-11.0-0.0","SS1613098839527","","","null","","","","","<p><img src= images/blank.png width =""200"" height = ""200"" style = ""float:right""></p><p><img src=images/blank.png width =""800"" height = ""200""></p>","","","","","","","","","","","",""
"","3815.4349999967963","sequential-stimulus-presentation","27","110748","0.0-11.0-1.0","SS1613098839527","trial","","40","800","4615.434999996796","images/stimuli/spore_stims/complex_13_B_c.gif","images/stimuli/spore_stims/complex_15_B_d.gif","","","","","1","complex_dissimilar","images/stimuli/spore_stims/complex_15_B_d.gif","left","","","","",""
"","null","html-keyboard-response","28","111920","0.0-11.0-0.1","SS1613098839527","","","null","","","","","<p><img src= images/blank.png width =""200"" height = ""200"" style = ""float:right""></p><p><img src=images/blank.png width =""800"" height = ""200""></p>","","","","","","","","","","","",""
"","1588.5699999998906","sequential-stimulus-presentation","29","114315","0.0-11.0-1.1","SS1613098839527","trial","","40","800","2388.5699999998906","images/stimuli/spore_stims/complex_13_B_c.gif","images/stimuli/spore_stims/complex_15_B_d.gif","","","","","1","complex_dissimilar","images/stimuli/spore_stims/complex_15_B_d.gif","left","","","","",""
"","null","html-keyboard-response","30","115215","0.0-11.0-0.2","SS1613098839527","","","null","","","","","<p><img src= images/blank.png width =""200"" height = ""200"" style = ""float:right""></p><p><img src=images/blank.png width =""800"" height = ""200""></p>","","","","","","","","","","","",""
"","3445.4899999982445","sequential-stimulus-presentation","31","119467","0.0-11.0-1.2","SS1613098839527","trial","","40","800","4245.4899999982445","images/stimuli/spore_stims/complex_13_B_c.gif","images/stimuli/spore_stims/complex_15_B_d.gif","","","","","1","complex_dissimilar","images/stimuli/spore_stims/complex_13_B_c.gif","middle","","","","",""
"","null","html-keyboard-response","32","120659","0.0-11.0-0.3","SS1613098839527","","","null","","","","","<p><img src= images/blank.png width =""200"" height = ""200"" style = ""float:right""></p><p><img src=images/blank.png width =""800"" height = ""200""></p>","","","","","","","","","","","",""
"","1876.5199999979814","sequential-stimulus-presentation","33","123357","0.0-11.0-1.3","SS1613098839527","trial","","40","800","2676.5199999979814","images/stimuli/spore_stims/complex_13_B_c.gif","images/stimuli/spore_stims/complex_15_B_d.gif","","","","","1","complex_dissimilar","images/stimuli/spore_stims/complex_15_B_d.gif","left","","","","",""
"","null","html-keyboard-response","34","124375","0.0-11.0-0.4","SS1613098839527","","","null","","","","","<p><img src= images/blank.png width =""200"" height = ""200"" style = ""float:right""></p><p><img src=images/blank.png width =""800"" height = ""200""></p>","","","","","","","","","","","",""
"","1932.6599999985774","sequential-stimulus-presentation","35","127115","0.0-11.0-1.4","SS1613098839527","trial","","40","800","2732.6599999985774","images/stimuli/spore_stims/complex_13_B_c.gif","images/stimuli/spore_stims/complex_15_B_d.gif","","","","","1","complex_dissimilar","images/stimuli/spore_stims/complex_15_B_d.gif","left","","","","",""
"","null","html-keyboard-response","36","128002","0.0-11.0-0.5","SS1613098839527","","","null","","","","","<p><img src= images/blank.png width =""200"" height = ""200"" style = ""float:right""></p><p><img src=images/blank.png width =""800"" height = ""200""></p>","","","","","","","","","","","",""
"","2946.8899999992573","sequential-stimulus-presentation","37","131755","0.0-11.0-1.5","SS1613098839527","trial","","40","800","3746.8899999992573","images/stimuli/spore_stims/complex_13_B_c.gif","images/stimuli/spore_stims/complex_15_B_d.gif","","","","","1","complex_dissimilar","images/stimuli/spore_stims/complex_15_B_d.gif","left","","","","",""
"","null","html-keyboard-response","38","132840","0.0-11.0-0.6","SS1613098839527","","","null","","","","","<p><img src= images/blank.png width =""200"" height = ""200"" style = ""float:right""></p><p><img src=images/blank.png width =""800"" height = ""200""></p>","","","","","","","","","","","",""
"","2678.155000001425","sequential-stimulus-presentation","39","136325","0.0-11.0-1.6","SS1613098839527","trial","","40","800","3478.155000001425","images/stimuli/spore_stims/complex_13_B_c.gif","images/stimuli/spore_stims/complex_15_B_d.gif","","","","","1","complex_dissimilar","images/stimuli/spore_stims/complex_15_B_d.gif","left","","","","",""
"","null","html-keyboard-response","40","137411","0.0-11.0-0.7","SS1613098839527","","","null","","","","","<p><img src= images/blank.png width =""200"" height = ""200"" style = ""float:right""></p><p><img src=images/blank.png width =""800"" height = ""200""></p>","","","","","","","","","","","",""
"","1102.3200000054203","sequential-stimulus-presentation","41","139321","0.0-11.0-1.7","SS1613098839527","trial","","40","800","1902.3200000054203","images/stimuli/spore_stims/complex_13_B_c.gif","images/stimuli/spore_stims/complex_15_B_d.gif","","","","","1","complex_dissimilar","images/stimuli/spore_stims/complex_15_B_d.gif","left","","","","",""
"","2836.6949999981443","html-keyboard-response","42","142163","0.0-12.0","SS1613098839527","pref_question","","51","","","","","<video width ='960' height = '540' style='padding-top:8%' autoplay muted><source src='images/stimuli/wall_pref.mp4' type='video/mp4'></video>","3","right","66%","1","","","","","","","",""
"","6419.164999999339","sequential-stimulus-presentation","43","149389","0.0-13.0","SS1613098839527","pref_reveal","","40","800","7219.164999999339","null","null","","","","","1","","","","novel","","","",""
"","null","html-keyboard-response","44","150256","0.0-14.0-0.0","SS1613098839527","","","null","","","","","<p><img src= images/blank.png width =""200"" height = ""200"" style = ""float:right""></p><p><img src=images/blank.png width =""800"" height = ""200""></p>","","","","","","","","","","","",""
"","2253.229999994801","sequential-stimulus-presentation","45","153316","0.0-14.0-1.0","SS1613098839527","trial","","40","800","3053.229999994801","images/stimuli/spore_stims/complex_04_B_c.gif","images/stimuli/spore_stims/complex_02_B_b.gif","","","","","2","complex_dissimilar","images/stimuli/spore_stims/complex_02_B_b.gif","right","","","","",""
"","null","html-keyboard-response","46","154154","0.0-14.0-0.1","SS1613098839527","","","null","","","","","<p><img src= images/blank.png width =""200"" height = ""200"" style = ""float:right""></p><p><img src=images/blank.png width =""800"" height = ""200""></p>","","","","","","","","","","","",""
"","2554.32500000461","sequential-stimulus-presentation","47","157515","0.0-14.0-1.1","SS1613098839527","trial","","40","800","3354.32500000461","images/stimuli/spore_stims/complex_04_B_c.gif","images/stimuli/spore_stims/complex_02_B_b.gif","","","","","2","complex_dissimilar","images/stimuli/spore_stims/complex_02_B_b.gif","right","","","","",""
"","null","html-keyboard-response","48","158332","0.0-14.0-0.2","SS1613098839527","","","null","","","","","<p><img src= images/blank.png width =""200"" height = ""200"" style = ""float:right""></p><p><img src=images/blank.png width =""800"" height = ""200""></p>","","","","","","","","","","","",""
"","2688.0700000037905","sequential-stimulus-presentation","49","161829","0.0-14.0-1.2","SS1613098839527","trial","","40","800","3488.0700000037905","images/stimuli/spore_stims/complex_04_B_c.gif","images/stimuli/spore_stims/complex_02_B_b.gif","","","","","2","complex_dissimilar","images/stimuli/spore_stims/complex_04_B_c.gif","left","","","","",""
"","null","html-keyboard-response","50","163154","0.0-14.0-0.3","SS1613098839527","","","null","","","","","<p><img src= images/blank.png width =""200"" height = ""200"" style = ""float:right""></p><p><img src=images/blank.png width =""800"" height = ""200""></p>","","","","","","","","","","","",""
"","2514.294999993581","sequential-stimulus-presentation","51","166475","0.0-14.0-1.3","SS1613098839527","trial","","40","800","3314.294999993581","images/stimuli/spore_stims/complex_04_B_c.gif","images/stimuli/spore_stims/complex_02_B_b.gif","","","","","2","complex_dissimilar","images/stimuli/spore_stims/complex_02_B_b.gif","right","","","","",""
"","null","html-keyboard-response","52","167399","0.0-14.0-0.4","SS1613098839527","","","null","","","","","<p><img src= images/blank.png width =""200"" height = ""200"" style = ""float:right""></p><p><img src=images/blank.png width =""800"" height = ""200""></p>","","","","","","","","","","","",""
"","3220.979999998235","sequential-stimulus-presentation","53","171427","0.0-14.0-1.4","SS1613098839527","trial","","40","800","4020.979999998235","images/stimuli/spore_stims/complex_04_B_c.gif","images/stimuli/spore_stims/complex_02_B_b.gif","","","","","2","complex_dissimilar","images/stimuli/spore_stims/complex_02_B_b.gif","right","","","","",""
"","null","html-keyboard-response","54","172415","0.0-14.0-0.5","SS1613098839527","","","null","","","","","<p><img src= images/blank.png width =""200"" height = ""200"" style = ""float:right""></p><p><img src=images/blank.png width =""800"" height = ""200""></p>","","","","","","","","","","","",""
"","4839.49500000017","sequential-stimulus-presentation","55","178061","0.0-14.0-1.5","SS1613098839527","trial","","40","800","5639.49500000017","images/stimuli/spore_stims/complex_04_B_c.gif","images/stimuli/spore_stims/complex_02_B_b.gif","","","","","2","complex_dissimilar","images/stimuli/spore_stims/complex_02_B_b.gif","right","","","","",""
"","null","html-keyboard-response","56","178995","0.0-14.0-0.6","SS1613098839527","","","null","","","","","<p><img src= images/blank.png width =""200"" height = ""200"" style = ""float:right""></p><p><img src=images/blank.png width =""800"" height = ""200""></p>","","","","","","","","","","","",""
"","1313.2949999999255","sequential-stimulus-presentation","57","181115","0.0-14.0-1.6","SS1613098839527","trial","","40","800","2113.2949999999255","images/stimuli/spore_stims/complex_04_B_c.gif","images/stimuli/spore_stims/complex_02_B_b.gif","","","","","2","complex_dissimilar","images/stimuli/spore_stims/complex_02_B_b.gif","right","","","","",""
"","null","html-keyboard-response","58","182161","0.0-14.0-0.7","SS1613098839527","","","null","","","","","<p><img src= images/blank.png width =""200"" height = ""200"" style = ""float:right""></p><p><img src=images/blank.png width =""800"" height = ""200""></p>","","","","","","","","","","","",""
"","307.3900000017602","sequential-stimulus-presentation","59","183275","0.0-14.0-1.7","SS1613098839527","trial","","40","800","1107.3900000017602","images/stimuli/spore_stims/complex_04_B_c.gif","images/stimuli/spore_stims/complex_02_B_b.gif","","","","","2","complex_dissimilar","images/stimuli/spore_stims/complex_02_B_b.gif","right","","","","",""
"","1931.0249999980442","html-keyboard-response","60","185211","0.0-15.0","SS1613098839527","pref_question","","50","","","","","<video width ='960' height = '540' style='padding-top:8%' autoplay muted><source src='images/stimuli/wall_pref.mp4' type='video/mp4'></video>","2","middle","45%","2","","","","","","","",""
"","2170.4200000021956","sequential-stimulus-presentation","61","188189","0.0-16.0","SS1613098839527","pref_reveal","","40","800","2970.4200000021956","null","null","","","","","2","","","","novel","","","",""
"","null","html-keyboard-response","62","189119","0.0-17.0-0.0","SS1613098839527","","","null","","","","","<p><img src= images/blank.png width =""200"" height = ""200"" style = ""float:right""></p><p><img src=images/blank.png width =""800"" height = ""200""></p>","","","","","","","","","","","",""
"","3291.4100000052713","sequential-stimulus-presentation","63","193219","0.0-17.0-1.0","SS1613098839527","trial","","40","800","4091.4100000052713","images/stimuli/spore_stims/simple_10_B_a.gif","images/stimuli/spore_stims/simple_06_A_b.gif","","","","","3","simple_dissimilar","images/stimuli/spore_stims/simple_06_A_b.gif","left","","","","",""
"","null","html-keyboard-response","64","194241","0.0-17.0-0.1","SS1613098839527","","","null","","","","","<p><img src= images/blank.png width =""200"" height = ""200"" style = ""float:right""></p><p><img src=images/blank.png width =""800"" height = ""200""></p>","","","","","","","","","","","",""
"","1098.9250000056927","sequential-stimulus-presentation","65","196147","0.0-17.0-1.1","SS1613098839527","trial","","40","800","1898.9250000056927","images/stimuli/spore_stims/simple_10_B_a.gif","images/stimuli/spore_stims/simple_06_A_b.gif","","","","","3","simple_dissimilar","images/stimuli/spore_stims/simple_06_A_b.gif","left","","","","",""
"","null","html-keyboard-response","66","197184","0.0-17.0-0.2","SS1613098839527","","","null","","","","","<p><img src= images/blank.png width =""200"" height = ""200"" style = ""float:right""></p><p><img src=images/blank.png width =""800"" height = ""200""></p>","","","","","","","","","","","",""
"","476.7749999955413","sequential-stimulus-presentation","67","198469","0.0-17.0-1.2","SS1613098839527","trial","","40","800","1276.7749999955413","images/stimuli/spore_stims/simple_10_B_a.gif","images/stimuli/spore_stims/simple_06_A_b.gif","","","","","3","simple_dissimilar","images/stimuli/spore_stims/simple_06_A_b.gif","left","","","","",""
"","null","html-keyboard-response","68","199383","0.0-17.0-0.3","SS1613098839527","","","null","","","","","<p><img src= images/blank.png width =""200"" height = ""200"" style = ""float:right""></p><p><img src=images/blank.png width =""800"" height = ""200""></p>","","","","","","","","","","","",""
"","877.2100000060163","sequential-stimulus-presentation","69","201067","0.0-17.0-1.3","SS1613098839527","trial","","40","800","1677.2100000060163","images/stimuli/spore_stims/simple_10_B_a.gif","images/stimuli/spore_stims/simple_06_A_b.gif","","","","","3","simple_dissimilar","images/stimuli/spore_stims/simple_06_A_b.gif","left","","","","",""
"","null","html-keyboard-response","70","202095","0.0-17.0-0.4","SS1613098839527","","","null","","","","","<p><img src= images/blank.png width =""200"" height = ""200"" style = ""float:right""></p><p><img src=images/blank.png width =""800"" height = ""200""></p>","","","","","","","","","","","",""
"","1180.2949999982957","sequential-stimulus-presentation","71","204084","0.0-17.0-1.4","SS1613098839527","trial","","40","800","1980.2949999982957","images/stimuli/spore_stims/simple_10_B_a.gif","images/stimuli/spore_stims/simple_06_A_b.gif","","","","","3","simple_dissimilar","images/stimuli/spore_stims/simple_06_A_b.gif","left","","","","",""
"","null","html-keyboard-response","72","205028","0.0-17.0-0.5","SS1613098839527","","","null","","","","","<p><img src= images/blank.png width =""200"" height = ""200"" style = ""float:right""></p><p><img src=images/blank.png width =""800"" height = ""200""></p>","","","","","","","","","","","",""
"","1672.4549999998999","sequential-stimulus-presentation","73","207507","0.0-17.0-1.5","SS1613098839527","trial","","40","800","2472.4549999999","images/stimuli/spore_stims/simple_10_B_a.gif","images/stimuli/spore_stims/simple_06_A_b.gif","","","","","3","simple_dissimilar","images/stimuli/spore_stims/simple_10_B_a.gif","middle","","","","",""
"","null","html-keyboard-response","74","208314","0.0-17.0-0.6","SS1613098839527","","","null","","","","","<p><img src= images/blank.png width =""200"" height = ""200"" style = ""float:right""></p><p><img src=images/blank.png width =""800"" height = ""200""></p>","","","","","","","","","","","",""
"","1193.5500000035972","sequential-stimulus-presentation","75","210317","0.0-17.0-1.6","SS1613098839527","trial","","40","800","1993.5500000035972","images/stimuli/spore_stims/simple_10_B_a.gif","images/stimuli/spore_stims/simple_06_A_b.gif","","","","","3","simple_dissimilar","images/stimuli/spore_stims/simple_06_A_b.gif","left","","","","",""
"","null","html-keyboard-response","76","211197","0.0-17.0-0.7","SS1613098839527","","","null","","","","","<p><img src= images/blank.png width =""200"" height = ""200"" style = ""float:right""></p><p><img src=images/blank.png width =""800"" height = ""200""></p>","","","","","","","","","","","",""
"","1206.8849999996019","sequential-stimulus-presentation","77","213211","0.0-17.0-1.7","SS1613098839527","trial","","40","800","2006.8849999996019","images/stimuli/spore_stims/simple_10_B_a.gif","images/stimuli/spore_stims/simple_06_A_b.gif","","","","","3","simple_dissimilar","images/stimuli/spore_stims/simple_06_A_b.gif","left","","","","",""
"","1938.8449999969453","html-keyboard-response","78","215155","0.0-18.0","SS1613098839527","pref_question","","50","","","","","<video width ='960' height = '540' style='padding-top:8%' autoplay muted><source src='images/stimuli/wall_pref.mp4' type='video/mp4'></video>","2","middle","45%","3","","","","","","","",""
"","2441.0750000024564","sequential-stimulus-presentation","79","218403","0.0-19.0","SS1613098839527","pref_reveal","","40","800","3241.0750000024564","null","null","","","","","3","","","","deviant","","","",""
"","null","html-keyboard-response","80","219679","0.0-20.0-0.0","SS1613098839527","","","null","","","","","<p><img src= images/blank.png width =""200"" height = ""200"" style = ""float:right""></p><p><img src=images/blank.png width =""800"" height = ""200""></p>","","","","","","","","","","","",""
"","5485.334999997576","sequential-stimulus-presentation","81","225973","0.0-20.0-1.0","SS1613098839527","trial","","40","800","6285.334999997576","images/stimuli/spore_stims/complex_14_A_b.gif","images/stimuli/spore_stims/complex_14_B_b.gif","","","","","4","complex_similar","images/stimuli/spore_stims/complex_14_B_b.gif","right","","","","",""
"","null","html-keyboard-response","82","227133","0.0-20.0-0.1","SS1613098839527","","","null","","","","","<p><img src= images/blank.png width =""200"" height = ""200"" style = ""float:right""></p><p><img src=images/blank.png width =""800"" height = ""200""></p>","","","","","","","","","","","",""
"","2879.574999999022","sequential-stimulus-presentation","83","230819","0.0-20.0-1.1","SS1613098839527","trial","","40","800","3679.574999999022","images/stimuli/spore_stims/complex_14_A_b.gif","images/stimuli/spore_stims/complex_14_B_b.gif","","","","","4","complex_similar","images/stimuli/spore_stims/complex_14_B_b.gif","right","","","","",""
"","null","html-keyboard-response","84","232024","0.0-20.0-0.2","SS1613098839527","","","null","","","","","<p><img src= images/blank.png width =""200"" height = ""200"" style = ""float:right""></p><p><img src=images/blank.png width =""800"" height = ""200""></p>","","","","","","","","","","","",""
"","922.8300000031595","sequential-stimulus-presentation","85","233755","0.0-20.0-1.2","SS1613098839527","trial","","40","800","1722.8300000031595","images/stimuli/spore_stims/complex_14_A_b.gif","images/stimuli/spore_stims/complex_14_B_b.gif","","","","","4","complex_similar","images/stimuli/spore_stims/complex_14_B_b.gif","right","","","","",""
"","null","html-keyboard-response","86","234845","0.0-20.0-0.3","SS1613098839527","","","null","","","","","<p><img src= images/blank.png width =""200"" height = ""200"" style = ""float:right""></p><p><img src=images/blank.png width =""800"" height = ""200""></p>","","","","","","","","","","","",""
"","977.5000000008731","sequential-stimulus-presentation","87","236628","0.0-20.0-1.3","SS1613098839527","trial","","40","800","1777.5000000008731","images/stimuli/spore_stims/complex_14_A_b.gif","images/stimuli/spore_stims/complex_14_B_b.gif","","","","","4","complex_similar","images/stimuli/spore_stims/complex_14_B_b.gif","right","","","","",""
"","null","html-keyboard-response","88","237737","0.0-20.0-0.4","SS1613098839527","","","null","","","","","<p><img src= images/blank.png width =""200"" height = ""200"" style = ""float:right""></p><p><img src=images/blank.png width =""800"" height = ""200""></p>","","","","","","","","","","","",""
"","683.1899999961024","sequential-stimulus-presentation","89","239227","0.0-20.0-1.4","SS1613098839527","trial","","40","800","1483.1899999961024","images/stimuli/spore_stims/complex_14_A_b.gif","images/stimuli/spore_stims/complex_14_B_b.gif","","","","","4","complex_similar","images/stimuli/spore_stims/complex_14_B_b.gif","right","","","","",""
"","null","html-keyboard-response","90","240123","0.0-20.0-0.5","SS1613098839527","","","null","","","","","<p><img src= images/blank.png width =""200"" height = ""200"" style = ""float:right""></p><p><img src=images/blank.png width =""800"" height = ""200""></p>","","","","","","","","","","","",""
"","1160.5599999966216","sequential-stimulus-presentation","91","242091","0.0-20.0-1.5","SS1613098839527","trial","","40","800","1960.5599999966216","images/stimuli/spore_stims/complex_14_A_b.gif","images/stimuli/spore_stims/complex_14_B_b.gif","","","","","4","complex_similar","images/stimuli/spore_stims/complex_14_A_b.gif","middle","","","","",""
"","null","html-keyboard-response","92","243176","0.0-20.0-0.6","SS1613098839527","","","null","","","","","<p><img src= images/blank.png width =""200"" height = ""200"" style = ""float:right""></p><p><img src=images/blank.png width =""800"" height = ""200""></p>","","","","","","","","","","","",""
"","1339.3399999986286","sequential-stimulus-presentation","93","245324","0.0-20.0-1.6","SS1613098839527","trial","","40","800","2139.3399999986286","images/stimuli/spore_stims/complex_14_A_b.gif","images/stimuli/spore_stims/complex_14_B_b.gif","","","","","4","complex_similar","images/stimuli/spore_stims/complex_14_B_b.gif","right","","","","",""
"","null","html-keyboard-response","94","246285","0.0-20.0-0.7","SS1613098839527","","","null","","","","","<p><img src= images/blank.png width =""200"" height = ""200"" style = ""float:right""></p><p><img src=images/blank.png width =""800"" height = ""200""></p>","","","","","","","","","","","",""
"","1296.329999997397","sequential-stimulus-presentation","95","248388","0.0-20.0-1.7","SS1613098839527","trial","","40","800","2096.329999997397","images/stimuli/spore_stims/complex_14_A_b.gif","images/stimuli/spore_stims/complex_14_B_b.gif","","","","","4","complex_similar","images/stimuli/spore_stims/complex_14_B_b.gif","right","","","","",""
"","1686.0149999993155","html-keyboard-response","96","250101","0.0-21.0","SS1613098839527","pref_question","","49","","","","","<video width ='960' height = '540' style='padding-top:8%' autoplay muted><source src='images/stimuli/wall_pref.mp4' type='video/mp4'></video>","1","left","25%","4","","","","","","","",""
"","3710.9399999972084","sequential-stimulus-presentation","97","254619","0.0-22.0","SS1613098839527","pref_reveal","","40","800","4510.939999997208","null","null","","","","","4","","","","novel","","","",""
"","null","html-keyboard-response","98","255458","0.0-23.0-0.0","SS1613098839527","","","null","","","","","<p><img src= images/blank.png width =""200"" height = ""200"" style = ""float:right""></p><p><img src=images/blank.png width =""800"" height = ""200""></p>","","","","","","","","","","","",""
"","2145.1250000027358","sequential-stimulus-presentation","99","258412","0.0-23.0-1.0","SS1613098839527","trial","","40","800","2945.1250000027358","images/stimuli/spore_stims/complex_01_B_b.gif","images/stimuli/spore_stims/complex_01_A_b.gif","","","","","5","complex_similar","images/stimuli/spore_stims/complex_01_A_b.gif","right","","","","",""
"","null","html-keyboard-response","100","259552","0.0-23.0-0.1","SS1613098839527","","","null","","","","","<p><img src= images/blank.png width =""200"" height = ""200"" style = ""float:right""></p><p><img src=images/blank.png width =""800"" height = ""200""></p>","","","","","","","","","","","",""
"","2239.1849999985425","sequential-stimulus-presentation","101","262603","0.0-23.0-1.1","SS1613098839527","trial","","40","800","3039.1849999985425","images/stimuli/spore_stims/complex_01_B_b.gif","images/stimuli/spore_stims/complex_01_A_b.gif","","","","","5","complex_similar","images/stimuli/spore_stims/complex_01_A_b.gif","right","","","","",""
"","null","html-keyboard-response","102","263896","0.0-23.0-0.2","SS1613098839527","","","null","","","","","<p><img src= images/blank.png width =""200"" height = ""200"" style = ""float:right""></p><p><img src=images/blank.png width =""800"" height = ""200""></p>","","","","","","","","","","","",""
"","1675.889999998617","sequential-stimulus-presentation","103","266379","0.0-23.0-1.2","SS1613098839527","trial","","40","800","2475.889999998617","images/stimuli/spore_stims/complex_01_B_b.gif","images/stimuli/spore_stims/complex_01_A_b.gif","","","","","5","complex_similar","images/stimuli/spore_stims/complex_01_A_b.gif","right","","","","",""
"","null","html-keyboard-response","104","267649","0.0-23.0-0.3","SS1613098839527","","","null","","","","","<p><img src= images/blank.png width =""200"" height = ""200"" style = ""float:right""></p><p><img src=images/blank.png width =""800"" height = ""200""></p>","","","","","","","","","","","",""
"","1700.2200000060839","sequential-stimulus-presentation","105","270156","0.0-23.0-1.3","SS1613098839527","trial","","40","800","2500.220000006084","images/stimuli/spore_stims/complex_01_B_b.gif","images/stimuli/spore_stims/complex_01_A_b.gif","","","","","5","complex_similar","images/stimuli/spore_stims/complex_01_A_b.gif","right","","","","",""
"","null","html-keyboard-response","106","270964","0.0-23.0-0.4","SS1613098839527","","","null","","","","","<p><img src= images/blank.png width =""200"" height = ""200"" style = ""float:right""></p><p><img src=images/blank.png width =""800"" height = ""200""></p>","","","","","","","","","","","",""
"","1422.854999997071","sequential-stimulus-presentation","107","273194","0.0-23.0-1.4","SS1613098839527","trial","","40","800","2222.854999997071","images/stimuli/spore_stims/complex_01_B_b.gif","images/stimuli/spore_stims/complex_01_A_b.gif","","","","","5","complex_similar","images/stimuli/spore_stims/complex_01_A_b.gif","right","","","","",""
"","null","html-keyboard-response","108","274237","0.0-23.0-0.5","SS1613098839527","","","null","","","","","<p><img src= images/blank.png width =""200"" height = ""200"" style = ""float:right""></p><p><img src=images/blank.png width =""800"" height = ""200""></p>","","","","","","","","","","","",""
"","1102.1849999960978","sequential-stimulus-presentation","109","276146","0.0-23.0-1.5","SS1613098839527","trial","","40","800","1902.1849999960978","images/stimuli/spore_stims/complex_01_B_b.gif","images/stimuli/spore_stims/complex_01_A_b.gif","","","","","5","complex_similar","images/stimuli/spore_stims/complex_01_B_b.gif","middle","","","","",""
"","null","html-keyboard-response","110","277153","0.0-23.0-0.6","SS1613098839527","","","null","","","","","<p><img src= images/blank.png width =""200"" height = ""200"" style = ""float:right""></p><p><img src=images/blank.png width =""800"" height = ""200""></p>","","","","","","","","","","","",""
"","1202.4249999958556","sequential-stimulus-presentation","111","279162","0.0-23.0-1.6","SS1613098839527","trial","","40","800","2002.4249999958556","images/stimuli/spore_stims/complex_01_B_b.gif","images/stimuli/spore_stims/complex_01_A_b.gif","","","","","5","complex_similar","images/stimuli/spore_stims/complex_01_A_b.gif","right","","","","",""
"","null","html-keyboard-response","112","280418","0.0-23.0-0.7","SS1613098839527","","","null","","","","","<p><img src= images/blank.png width =""200"" height = ""200"" style = ""float:right""></p><p><img src=images/blank.png width =""800"" height = ""200""></p>","","","","","","","","","","","",""
"","1545.1949999987846","sequential-stimulus-presentation","113","282772","0.0-23.0-1.7","SS1613098839527","trial","","40","800","2345.1949999987846","images/stimuli/spore_stims/complex_01_B_b.gif","images/stimuli/spore_stims/complex_01_A_b.gif","","","","","5","complex_similar","images/stimuli/spore_stims/complex_01_A_b.gif","right","","","","",""
"","10113.679999994929","html-keyboard-response","114","292892","0.0-24.0","SS1613098839527","pref_question","","51","","","","","<video width ='960' height = '540' style='padding-top:8%' autoplay muted><source src='images/stimuli/wall_pref.mp4' type='video/mp4'></video>","3","right","66%","5","","","","","","","",""
"","4807.539999994333","sequential-stimulus-presentation","115","298506","0.0-25.0","SS1613098839527","pref_reveal","","40","800","5607.539999994333","null","null","","","","","5","","","","background","","","",""
"","null","html-keyboard-response","116","299715","0.0-26.0-0.0","SS1613098839527","","","null","","","","","<p><img src= images/blank.png width =""200"" height = ""200"" style = ""float:right""></p><p><img src=images/blank.png width =""800"" height = ""200""></p>","","","","","","","","","","","",""
"","13367.26500000077","sequential-stimulus-presentation","117","313892","0.0-26.0-1.0","SS1613098839527","trial","","40","800","14167.26500000077","images/stimuli/spore_stims/simple_08_A_d.gif","images/stimuli/spore_stims/simple_11_A_a.gif","","","","","6","simple_dissimilar","images/stimuli/spore_stims/simple_11_A_a.gif","right","","","","",""
"","null","html-keyboard-response","118","315060","0.0-26.0-0.1","SS1613098839527","","","null","","","","","<p><img src= images/blank.png width =""200"" height = ""200"" style = ""float:right""></p><p><img src=images/blank.png width =""800"" height = ""200""></p>","","","","","","","","","","","",""
"","933.0000000045402","sequential-stimulus-presentation","119","316803","0.0-26.0-1.1","SS1613098839527","trial","","40","800","1733.0000000045402","images/stimuli/spore_stims/simple_08_A_d.gif","images/stimuli/spore_stims/simple_11_A_a.gif","","","","","6","simple_dissimilar","images/stimuli/spore_stims/simple_11_A_a.gif","right","","","","",""
"","null","html-keyboard-response","120","317811","0.0-26.0-0.2","SS1613098839527","","","null","","","","","<p><img src= images/blank.png width =""200"" height = ""200"" style = ""float:right""></p><p><img src=images/blank.png width =""800"" height = ""200""></p>","","","","","","","","","","","",""
"","232.36999999789987","sequential-stimulus-presentation","121","318850","0.0-26.0-1.2","SS1613098839527","trial","","40","800","1032.3699999978999","images/stimuli/spore_stims/simple_08_A_d.gif","images/stimuli/spore_stims/simple_11_A_a.gif","","","","","6","simple_dissimilar","images/stimuli/spore_stims/simple_11_A_a.gif","right","","","","",""
"","null","html-keyboard-response","122","319693","0.0-26.0-0.3","SS1613098839527","","","null","","","","","<p><img src= images/blank.png width =""200"" height = ""200"" style = ""float:right""></p><p><img src=images/blank.png width =""800"" height = ""200""></p>","","","","","","","","","","","",""
"","238.69500000000698","sequential-stimulus-presentation","123","320739","0.0-26.0-1.3","SS1613098839527","trial","","40","800","1038.695000000007","images/stimuli/spore_stims/simple_08_A_d.gif","images/stimuli/spore_stims/simple_11_A_a.gif","","","","","6","simple_dissimilar","images/stimuli/spore_stims/simple_11_A_a.gif","right","","","","",""
"","null","html-keyboard-response","124","321602","0.0-26.0-0.4","SS1613098839527","","","null","","","","","<p><img src= images/blank.png width =""200"" height = ""200"" style = ""float:right""></p><p><img src=images/blank.png width =""800"" height = ""200""></p>","","","","","","","","","","","",""
"","474.7300000017276","sequential-stimulus-presentation","125","322906","0.0-26.0-1.4","SS1613098839527","trial","","40","800","1274.7300000017276","images/stimuli/spore_stims/simple_08_A_d.gif","images/stimuli/spore_stims/simple_11_A_a.gif","","","","","6","simple_dissimilar","images/stimuli/spore_stims/simple_11_A_a.gif","right","","","","",""
"","null","html-keyboard-response","126","324073","0.0-26.0-0.5","SS1613098839527","","","null","","","","","<p><img src= images/blank.png width =""200"" height = ""200"" style = ""float:right""></p><p><img src=images/blank.png width =""800"" height = ""200""></p>","","","","","","","","","","","",""
"","225.91000000102213","sequential-stimulus-presentation","127","325108","0.0-26.0-1.5","SS1613098839527","trial","","40","800","1025.9100000010221","images/stimuli/spore_stims/simple_08_A_d.gif","images/stimuli/spore_stims/simple_11_A_a.gif","","","","","6","simple_dissimilar","images/stimuli/spore_stims/simple_11_A_a.gif","right","","","","",""
"","null","html-keyboard-response","128","325922","0.0-26.0-0.6","SS1613098839527","","","null","","","","","<p><img src= images/blank.png width =""200"" height = ""200"" style = ""float:right""></p><p><img src=images/blank.png width =""800"" height = ""200""></p>","","","","","","","","","","","",""
"","254.6199999997043","sequential-stimulus-presentation","129","326986","0.0-26.0-1.6","SS1613098839527","trial","","40","800","1054.6199999997043","images/stimuli/spore_stims/simple_08_A_d.gif","images/stimuli/spore_stims/simple_11_A_a.gif","","","","","6","simple_dissimilar","images/stimuli/spore_stims/simple_11_A_a.gif","right","","","","",""
"","null","html-keyboard-response","130","328264","0.0-26.0-0.7","SS1613098839527","","","null","","","","","<p><img src= images/blank.png width =""200"" height = ""200"" style = ""float:right""></p><p><img src=images/blank.png width =""800"" height = ""200""></p>","","","","","","","","","","","",""
"","2258.3099999974365","sequential-stimulus-presentation","131","331331","0.0-26.0-1.7","SS1613098839527","trial","","40","800","3058.3099999974365","images/stimuli/spore_stims/simple_08_A_d.gif","images/stimuli/spore_stims/simple_11_A_a.gif","","","","","6","simple_dissimilar","images/stimuli/spore_stims/simple_08_A_d.gif","left","","","","",""
"","1744.1649999964284","html-keyboard-response","132","333083","0.0-27.0","SS1613098839527","pref_question","","50","","","","","<video width ='960' height = '540' style='padding-top:8%' autoplay muted><source src='images/stimuli/wall_pref.mp4' type='video/mp4'></video>","2","middle","45%","6","","","","","","","",""
"","1768.965000002936","sequential-stimulus-presentation","133","335660","0.0-28.0","SS1613098839527","pref_reveal","","40","800","2568.965000002936","null","null","","","","","6","","","","novel","","","",""
"","null","html-keyboard-response","134","336465","0.0-29.0-0.0","SS1613098839527","","","null","","","","","<p><img src= images/blank.png width =""200"" height = ""200"" style = ""float:right""></p><p><img src=images/blank.png width =""800"" height = ""200""></p>","","","","","","","","","","","",""
"","2855.8349999948405","sequential-stimulus-presentation","135","340130","0.0-29.0-1.0","SS1613098839527","trial","","40","800","3655.8349999948405","images/stimuli/spore_stims/simple_14_B_a.gif","images/stimuli/spore_stims/simple_02_A_d.gif","","","","","7","simple_dissimilar","images/stimuli/spore_stims/simple_02_A_d.gif","middle","","","","",""
"","null","html-keyboard-response","136","341288","0.0-29.0-0.1","SS1613098839527","","","null","","","","","<p><img src= images/blank.png width =""200"" height = ""200"" style = ""float:right""></p><p><img src=images/blank.png width =""800"" height = ""200""></p>","","","","","","","","","","","",""
"","2313.3149999994203","sequential-stimulus-presentation","137","344434","0.0-29.0-1.1","SS1613098839527","trial","","40","800","3113.3149999994203","images/stimuli/spore_stims/simple_14_B_a.gif","images/stimuli/spore_stims/simple_02_A_d.gif","","","","","7","simple_dissimilar","images/stimuli/spore_stims/simple_02_A_d.gif","middle","","","","",""
"","null","html-keyboard-response","138","345275","0.0-29.0-0.2","SS1613098839527","","","null","","","","","<p><img src= images/blank.png width =""200"" height = ""200"" style = ""float:right""></p><p><img src=images/blank.png width =""800"" height = ""200""></p>","","","","","","","","","","","",""
"","2369.0050000004703","sequential-stimulus-presentation","139","348452","0.0-29.0-1.2","SS1613098839527","trial","","40","800","3169.0050000004703","images/stimuli/spore_stims/simple_14_B_a.gif","images/stimuli/spore_stims/simple_02_A_d.gif","","","","","7","simple_dissimilar","images/stimuli/spore_stims/simple_02_A_d.gif","middle","","","","",""
"","null","html-keyboard-response","140","349429","0.0-29.0-0.3","SS1613098839527","","","null","","","","","<p><img src= images/blank.png width =""200"" height = ""200"" style = ""float:right""></p><p><img src=images/blank.png width =""800"" height = ""200""></p>","","","","","","","","","","","",""
"","2356.9900000002235","sequential-stimulus-presentation","141","352595","0.0-29.0-1.3","SS1613098839527","trial","","40","800","3156.9900000002235","images/stimuli/spore_stims/simple_14_B_a.gif","images/stimuli/spore_stims/simple_02_A_d.gif","","","","","7","simple_dissimilar","images/stimuli/spore_stims/simple_02_A_d.gif","middle","","","","",""
"","null","html-keyboard-response","142","353773","0.0-29.0-0.4","SS1613098839527","","","null","","","","","<p><img src= images/blank.png width =""200"" height = ""200"" style = ""float:right""></p><p><img src=images/blank.png width =""800"" height = ""200""></p>","","","","","","","","","","","",""
"","2739.565000003495","sequential-stimulus-presentation","143","357322","0.0-29.0-1.4","SS1613098839527","trial","","40","800","3539.565000003495","images/stimuli/spore_stims/simple_14_B_a.gif","images/stimuli/spore_stims/simple_02_A_d.gif","","","","","7","simple_dissimilar","images/stimuli/spore_stims/simple_14_B_a.gif","left","","","","",""
"","null","html-keyboard-response","144","358237","0.0-29.0-0.5","SS1613098839527","","","null","","","","","<p><img src= images/blank.png width =""200"" height = ""200"" style = ""float:right""></p><p><img src=images/blank.png width =""800"" height = ""200""></p>","","","","","","","","","","","",""
"","2942.1650000003865","sequential-stimulus-presentation","145","361989","0.0-29.0-1.5","SS1613098839527","trial","","40","800","3742.1650000003865","images/stimuli/spore_stims/simple_14_B_a.gif","images/stimuli/spore_stims/simple_02_A_d.gif","","","","","7","simple_dissimilar","images/stimuli/spore_stims/simple_02_A_d.gif","middle","","","","",""
"","null","html-keyboard-response","146","362979","0.0-29.0-0.6","SS1613098839527","","","null","","","","","<p><img src= images/blank.png width =""200"" height = ""200"" style = ""float:right""></p><p><img src=images/blank.png width =""800"" height = ""200""></p>","","","","","","","","","","","",""
"","1093.7600000033854","sequential-stimulus-presentation","147","364883","0.0-29.0-1.6","SS1613098839527","trial","","40","800","1893.7600000033854","images/stimuli/spore_stims/simple_14_B_a.gif","images/stimuli/spore_stims/simple_02_A_d.gif","","","","","7","simple_dissimilar","images/stimuli/spore_stims/simple_02_A_d.gif","middle","","","","",""
"","null","html-keyboard-response","148","365795","0.0-29.0-0.7","SS1613098839527","","","null","","","","","<p><img src= images/blank.png width =""200"" height = ""200"" style = ""float:right""></p><p><img src=images/blank.png width =""800"" height = ""200""></p>","","","","","","","","","","","",""
"","1735.2150000006077","sequential-stimulus-presentation","149","368339","0.0-29.0-1.7","SS1613098839527","trial","","40","800","2535.2150000006077","images/stimuli/spore_stims/simple_14_B_a.gif","images/stimuli/spore_stims/simple_02_A_d.gif","","","","","7","simple_dissimilar","images/stimuli/spore_stims/simple_02_A_d.gif","middle","","","","",""
"","2464.5200000013574","html-keyboard-response","150","370811","0.0-30.0","SS1613098839527","pref_question","","51","","","","","<video width ='960' height = '540' style='padding-top:8%' autoplay muted><source src='images/stimuli/wall_pref.mp4' type='video/mp4'></video>","3","right","66%","7","","","","","","","",""
"","2144.5549999989453","sequential-stimulus-presentation","151","373764","0.0-31.0","SS1613098839527","pref_reveal","","40","800","2944.5549999989453","null","null","","","","","7","","","","novel","","","",""
"","null","html-keyboard-response","152","374867","0.0-32.0-0.0","SS1613098839527","","","null","","","","","<p><img src= images/blank.png width =""200"" height = ""200"" style = ""float:right""></p><p><img src=images/blank.png width =""800"" height = ""200""></p>","","","","","","","","","","","",""
"","1471.044999998412","sequential-stimulus-presentation","153","377146","0.0-32.0-1.0","SS1613098839527","trial","","40","800","2271.044999998412","images/stimuli/spore_stims/simple_13_A_b.gif","images/stimuli/spore_stims/simple_13_B_b.gif","","","","","8","simple_similar","images/stimuli/spore_stims/simple_13_B_b.gif","middle","","","","",""
"","null","html-keyboard-response","154","378057","0.0-32.0-0.1","SS1613098839527","","","null","","","","","<p><img src= images/blank.png width =""200"" height = ""200"" style = ""float:right""></p><p><img src=images/blank.png width =""800"" height = ""200""></p>","","","","","","","","","","","",""
"","1384.3749999941792","sequential-stimulus-presentation","155","380250","0.0-32.0-1.1","SS1613098839527","trial","","40","800","2184.3749999941792","images/stimuli/spore_stims/simple_13_A_b.gif","images/stimuli/spore_stims/simple_13_B_b.gif","","","","","8","simple_similar","images/stimuli/spore_stims/simple_13_B_b.gif","middle","","","","",""
"","null","html-keyboard-response","156","381200","0.0-32.0-0.2","SS1613098839527","","","null","","","","","<p><img src= images/blank.png width =""200"" height = ""200"" style = ""float:right""></p><p><img src=images/blank.png width =""800"" height = ""200""></p>","","","","","","","","","","","",""
"","1107.0000000036089","sequential-stimulus-presentation","157","383117","0.0-32.0-1.2","SS1613098839527","trial","","40","800","1907.0000000036089","images/stimuli/spore_stims/simple_13_A_b.gif","images/stimuli/spore_stims/simple_13_B_b.gif","","","","","8","simple_similar","images/stimuli/spore_stims/simple_13_B_b.gif","middle","","","","",""
"","null","html-keyboard-response","158","384183","0.0-32.0-0.3","SS1613098839527","","","null","","","","","<p><img src= images/blank.png width =""200"" height = ""200"" style = ""float:right""></p><p><img src=images/blank.png width =""800"" height = ""200""></p>","","","","","","","","","","","",""
"","1004.415000003064","sequential-stimulus-presentation","159","385996","0.0-32.0-1.3","SS1613098839527","trial","","40","800","1804.415000003064","images/stimuli/spore_stims/simple_13_A_b.gif","images/stimuli/spore_stims/simple_13_B_b.gif","","","","","8","simple_similar","images/stimuli/spore_stims/simple_13_B_b.gif","middle","","","","",""
"","null","html-keyboard-response","160","387280","0.0-32.0-0.4","SS1613098839527","","","null","","","","","<p><img src= images/blank.png width =""200"" height = ""200"" style = ""float:right""></p><p><img src=images/blank.png width =""800"" height = ""200""></p>","","","","","","","","","","","",""
"","1114.434999995865","sequential-stimulus-presentation","161","389203","0.0-32.0-1.4","SS1613098839527","trial","","40","800","1914.434999995865","images/stimuli/spore_stims/simple_13_A_b.gif","images/stimuli/spore_stims/simple_13_B_b.gif","","","","","8","simple_similar","images/stimuli/spore_stims/simple_13_A_b.gif","right","","","","",""
"","null","html-keyboard-response","162","390056","0.0-32.0-0.5","SS1613098839527","","","null","","","","","<p><img src= images/blank.png width =""200"" height = ""200"" style = ""float:right""></p><p><img src=images/blank.png width =""800"" height = ""200""></p>","","","","","","","","","","","",""
"","1481.8749999976717","sequential-stimulus-presentation","163","392347","0.0-32.0-1.5","SS1613098839527","trial","","40","800","2281.8749999976717","images/stimuli/spore_stims/simple_13_A_b.gif","images/stimuli/spore_stims/simple_13_B_b.gif","","","","","8","simple_similar","images/stimuli/spore_stims/simple_13_B_b.gif","middle","","","","",""
"","null","html-keyboard-response","164","393217","0.0-32.0-0.6","SS1613098839527","","","null","","","","","<p><img src= images/blank.png width =""200"" height = ""200"" style = ""float:right""></p><p><img src=images/blank.png width =""800"" height = ""200""></p>","","","","","","","","","","","",""
"","1481.2149999997928","sequential-stimulus-presentation","165","395507","0.0-32.0-1.6","SS1613098839527","trial","","40","800","2281.214999999793","images/stimuli/spore_stims/simple_13_A_b.gif","images/stimuli/spore_stims/simple_13_B_b.gif","","","","","8","simple_similar","images/stimuli/spore_stims/simple_13_B_b.gif","middle","","","","",""
"","null","html-keyboard-response","166","396325","0.0-32.0-0.7","SS1613098839527","","","null","","","","","<p><img src= images/blank.png width =""200"" height = ""200"" style = ""float:right""></p><p><img src=images/blank.png width =""800"" height = ""200""></p>","","","","","","","","","","","",""
"","1471.0500000001048","sequential-stimulus-presentation","167","398628","0.0-32.0-1.7","SS1613098839527","trial","","40","800","2271.050000000105","images/stimuli/spore_stims/simple_13_A_b.gif","images/stimuli/spore_stims/simple_13_B_b.gif","","","","","8","simple_similar","images/stimuli/spore_stims/simple_13_B_b.gif","middle","","","","",""
"","3712.0749999958207","html-keyboard-response","168","402347","0.0-33.0","SS1613098839527","pref_question","","51","","","","","<video width ='960' height = '540' style='padding-top:8%' autoplay muted><source src='images/stimuli/wall_pref.mp4' type='video/mp4'></video>","3","right","66%","8","","","","","","","",""
"","1494.1950000065845","sequential-stimulus-presentation","169","404651","0.0-34.0","SS1613098839527","pref_reveal","","40","800","2294.1950000065845","null","null","","","","","8","","","","deviant","","","",""
"","null","html-keyboard-response","170","405883","0.0-35.0-0.0","SS1613098839527","","","null","","","","","<p><img src= images/blank.png width =""200"" height = ""200"" style = ""float:right""></p><p><img src=images/blank.png width =""800"" height = ""200""></p>","","","","","","","","","","","",""
"","1654.5249999981024","sequential-stimulus-presentation","171","408347","0.0-35.0-1.0","SS1613098839527","trial","","40","800","2454.5249999981024","images/stimuli/spore_stims/complex_18_B_a.gif","images/stimuli/spore_stims/complex_18_A_a.gif","","","","","9","complex_similar","images/stimuli/spore_stims/complex_18_A_a.gif","right","","","","",""
"","null","html-keyboard-response","172","409293","0.0-35.0-0.1","SS1613098839527","","","null","","","","","<p><img src= images/blank.png width =""200"" height = ""200"" style = ""float:right""></p><p><img src=images/blank.png width =""800"" height = ""200""></p>","","","","","","","","","","","",""
"","1660.7400000066264","sequential-stimulus-presentation","173","411764","0.0-35.0-1.1","SS1613098839527","trial","","40","800","2460.7400000066264","images/stimuli/spore_stims/complex_18_B_a.gif","images/stimuli/spore_stims/complex_18_A_a.gif","","","","","9","complex_similar","images/stimuli/spore_stims/complex_18_A_a.gif","right","","","","",""
"","null","html-keyboard-response","174","412648","0.0-35.0-0.2","SS1613098839527","","","null","","","","","<p><img src= images/blank.png width =""200"" height = ""200"" style = ""float:right""></p><p><img src=images/blank.png width =""800"" height = ""200""></p>","","","","","","","","","","","",""
"","2928.809999997611","sequential-stimulus-presentation","175","416387","0.0-35.0-1.2","SS1613098839527","trial","","40","800","3728.809999997611","images/stimuli/spore_stims/complex_18_B_a.gif","images/stimuli/spore_stims/complex_18_A_a.gif","","","","","9","complex_similar","images/stimuli/spore_stims/complex_18_A_a.gif","right","","","","",""
"","null","html-keyboard-response","176","417297","0.0-35.0-0.3","SS1613098839527","","","null","","","","","<p><img src= images/blank.png width =""200"" height = ""200"" style = ""float:right""></p><p><img src=images/blank.png width =""800"" height = ""200""></p>","","","","","","","","","","","",""
"","1567.815000002156","sequential-stimulus-presentation","177","419675","0.0-35.0-1.3","SS1613098839527","trial","","40","800","2367.815000002156","images/stimuli/spore_stims/complex_18_B_a.gif","images/stimuli/spore_stims/complex_18_A_a.gif","","","","","9","complex_similar","images/stimuli/spore_stims/complex_18_A_a.gif","right","","","","",""
"","null","html-keyboard-response","178","420556","0.0-35.0-0.4","SS1613098839527","","","null","","","","","<p><img src= images/blank.png width =""200"" height = ""200"" style = ""float:right""></p><p><img src=images/blank.png width =""800"" height = ""200""></p>","","","","","","","","","","","",""
"","2221.704999996291","sequential-stimulus-presentation","179","423588","0.0-35.0-1.4","SS1613098839527","trial","","40","800","3021.704999996291","images/stimuli/spore_stims/complex_18_B_a.gif","images/stimuli/spore_stims/complex_18_A_a.gif","","","","","9","complex_similar","images/stimuli/spore_stims/complex_18_A_a.gif","right","","","","",""
"","null","html-keyboard-response","180","424636","0.0-35.0-0.5","SS1613098839527","","","null","","","","","<p><img src= images/blank.png width =""200"" height = ""200"" style = ""float:right""></p><p><img src=images/blank.png width =""800"" height = ""200""></p>","","","","","","","","","","","",""
"","844.4099999978789","sequential-stimulus-presentation","181","426291","0.0-35.0-1.5","SS1613098839527","trial","","40","800","1644.409999997879","images/stimuli/spore_stims/complex_18_B_a.gif","images/stimuli/spore_stims/complex_18_A_a.gif","","","","","9","complex_similar","images/stimuli/spore_stims/complex_18_A_a.gif","right","","","","",""
"","null","html-keyboard-response","182","427197","0.0-35.0-0.6","SS1613098839527","","","null","","","","","<p><img src= images/blank.png width =""200"" height = ""200"" style = ""float:right""></p><p><img src=images/blank.png width =""800"" height = ""200""></p>","","","","","","","","","","","",""
"","1235.8749999984866","sequential-stimulus-presentation","183","429243","0.0-35.0-1.6","SS1613098839527","trial","","40","800","2035.8749999984866","images/stimuli/spore_stims/complex_18_B_a.gif","images/stimuli/spore_stims/complex_18_A_a.gif","","","","","9","complex_similar","images/stimuli/spore_stims/complex_18_B_a.gif","left","","","","",""
"","null","html-keyboard-response","184","430460","0.0-35.0-0.7","SS1613098839527","","","null","","","","","<p><img src= images/blank.png width =""200"" height = ""200"" style = ""float:right""></p><p><img src=images/blank.png width =""800"" height = ""200""></p>","","","","","","","","","","","",""
"","836.5199999971082","sequential-stimulus-presentation","185","432107","0.0-35.0-1.7","SS1613098839527","trial","","40","800","1636.5199999971082","images/stimuli/spore_stims/complex_18_B_a.gif","images/stimuli/spore_stims/complex_18_A_a.gif","","","","","9","complex_similar","images/stimuli/spore_stims/complex_18_A_a.gif","right","","","","",""
"","1729.8399999999674","html-keyboard-response","186","433844","0.0-36.0","SS1613098839527","pref_question","","50","","","","","<video width ='960' height = '540' style='padding-top:8%' autoplay muted><source src='images/stimuli/wall_pref.mp4' type='video/mp4'></video>","2","middle","45%","9","","","","","","","",""
"","2677.064999996219","sequential-stimulus-presentation","187","437331","0.0-37.0","SS1613098839527","pref_reveal","","40","800","3477.064999996219","null","null","","","","","9","","","","novel","","","",""
"","null","html-keyboard-response","188","438459","0.0-38.0-0.0","SS1613098839527","","","null","","","","","<p><img src= images/blank.png width =""200"" height = ""200"" style = ""float:right""></p><p><img src=images/blank.png width =""800"" height = ""200""></p>","","","","","","","","","","","",""
"","2572.534999999334","sequential-stimulus-presentation","189","441843","0.0-38.0-1.0","SS1613098839527","trial","","40","800","3372.534999999334","images/stimuli/spore_stims/simple_09_B_b.gif","images/stimuli/spore_stims/simple_09_A_d.gif","","","","","10","simple_dissimilar","images/stimuli/spore_stims/simple_09_A_d.gif","right","","","","",""
"","null","html-keyboard-response","190","442934","0.0-38.0-0.1","SS1613098839527","","","null","","","","","<p><img src= images/blank.png width =""200"" height = ""200"" style = ""float:right""></p><p><img src=images/blank.png width =""800"" height = ""200""></p>","","","","","","","","","","","",""
"","3772.2300000023097","sequential-stimulus-presentation","191","447516","0.0-38.0-1.1","SS1613098839527","trial","","40","800","4572.23000000231","images/stimuli/spore_stims/simple_09_B_b.gif","images/stimuli/spore_stims/simple_09_A_d.gif","","","","","10","simple_dissimilar","images/stimuli/spore_stims/simple_09_A_d.gif","right","","","","",""
"","null","html-keyboard-response","192","448323","0.0-38.0-0.2","SS1613098839527","","","null","","","","","<p><img src= images/blank.png width =""200"" height = ""200"" style = ""float:right""></p><p><img src=images/blank.png width =""800"" height = ""200""></p>","","","","","","","","","","","",""
"","2501.9150000007357","sequential-stimulus-presentation","193","451635","0.0-38.0-1.2","SS1613098839527","trial","","40","800","3301.9150000007357","images/stimuli/spore_stims/simple_09_B_b.gif","images/stimuli/spore_stims/simple_09_A_d.gif","","","","","10","simple_dissimilar","images/stimuli/spore_stims/simple_09_A_d.gif","right","","","","",""
"","null","html-keyboard-response","194","452538","0.0-38.0-0.3","SS1613098839527","","","null","","","","","<p><img src= images/blank.png width =""200"" height = ""200"" style = ""float:right""></p><p><img src=images/blank.png width =""800"" height = ""200""></p>","","","","","","","","","","","",""
"","2291.8699999936507","sequential-stimulus-presentation","195","455643","0.0-38.0-1.3","SS1613098839527","trial","","40","800","3091.8699999936507","images/stimuli/spore_stims/simple_09_B_b.gif","images/stimuli/spore_stims/simple_09_A_d.gif","","","","","10","simple_dissimilar","images/stimuli/spore_stims/simple_09_A_d.gif","right","","","","",""
"","null","html-keyboard-response","196","456880","0.0-38.0-0.4","SS1613098839527","","","null","","","","","<p><img src= images/blank.png width =""200"" height = ""200"" style = ""float:right""></p><p><img src=images/blank.png width =""800"" height = ""200""></p>","","","","","","","","","","","",""
"","3490.2950000032433","sequential-stimulus-presentation","197","461181","0.0-38.0-1.4","SS1613098839527","trial","","40","800","4290.295000003243","images/stimuli/spore_stims/simple_09_B_b.gif","images/stimuli/spore_stims/simple_09_A_d.gif","","","","","10","simple_dissimilar","images/stimuli/spore_stims/simple_09_A_d.gif","right","","","","",""
"","null","html-keyboard-response","198","462445","0.0-38.0-0.5","SS1613098839527","","","null","","","","","<p><img src= images/blank.png width =""200"" height = ""200"" style = ""float:right""></p><p><img src=images/blank.png width =""800"" height = ""200""></p>","","","","","","","","","","","",""
"","3802.974999998696","sequential-stimulus-presentation","199","467059","0.0-38.0-1.5","SS1613098839527","trial","","40","800","4602.974999998696","images/stimuli/spore_stims/simple_09_B_b.gif","images/stimuli/spore_stims/simple_09_A_d.gif","","","","","10","simple_dissimilar","images/stimuli/spore_stims/simple_09_B_b.gif","middle","","","","",""
"","null","html-keyboard-response","200","468199","0.0-38.0-0.6","SS1613098839527","","","null","","","","","<p><img src= images/blank.png width =""200"" height = ""200"" style = ""float:right""></p><p><img src=images/blank.png width =""800"" height = ""200""></p>","","","","","","","","","","","",""
"","1723.4650000027614","sequential-stimulus-presentation","201","470732","0.0-38.0-1.6","SS1613098839527","trial","","40","800","2523.4650000027614","images/stimuli/spore_stims/simple_09_B_b.gif","images/stimuli/spore_stims/simple_09_A_d.gif","","","","","10","simple_dissimilar","images/stimuli/spore_stims/simple_09_A_d.gif","right","","","","",""
"","null","html-keyboard-response","202","471726","0.0-38.0-0.7","SS1613098839527","","","null","","","","","<p><img src= images/blank.png width =""200"" height = ""200"" style = ""float:right""></p><p><img src=images/blank.png width =""800"" height = ""200""></p>","","","","","","","","","","","",""
"","1906.1650000003283","sequential-stimulus-presentation","203","474469","0.0-38.0-1.7","SS1613098839527","trial","","40","800","2706.1650000003283","images/stimuli/spore_stims/simple_09_B_b.gif","images/stimuli/spore_stims/simple_09_A_d.gif","","","","","10","simple_dissimilar","images/stimuli/spore_stims/simple_09_A_d.gif","right","","","","",""
"","1638.664999998582","html-keyboard-response","204","476115","0.0-39.0","SS1613098839527","pref_question","","49","","","","","<video width ='960' height = '540' style='padding-top:8%' autoplay muted><source src='images/stimuli/wall_pref.mp4' type='video/mp4'></video>","1","left","25%","10","","","","","","","",""
"","3670.529999995779","sequential-stimulus-presentation","205","480595","0.0-40.0","SS1613098839527","pref_reveal","","40","800","4470.529999995779","null","null","","","","","10","","","","novel","","","",""
"","null","html-keyboard-response","206","481862","0.0-41.0-0.0","SS1613098839527","","","null","","","","","<p><img src= images/blank.png width =""200"" height = ""200"" style = ""float:right""></p><p><img src=images/blank.png width =""800"" height = ""200""></p>","","","","","","","","","","","",""
"","1602.8099999966798","sequential-stimulus-presentation","207","484275","0.0-41.0-1.0","SS1613098839527","trial","","40","800","2402.80999999668","images/stimuli/spore_stims/simple_16_B_b.gif","images/stimuli/spore_stims/simple_16_A_b.gif","","","","","11","simple_similar","images/stimuli/spore_stims/simple_16_A_b.gif","right","","","","",""
"","null","html-keyboard-response","208","485101","0.0-41.0-0.1","SS1613098839527","","","null","","","","","<p><img src= images/blank.png width =""200"" height = ""200"" style = ""float:right""></p><p><img src=images/blank.png width =""800"" height = ""200""></p>","","","","","","","","","","","",""
"","1524.9299999995856","sequential-stimulus-presentation","209","487437","0.0-41.0-1.1","SS1613098839527","trial","","40","800","2324.9299999995856","images/stimuli/spore_stims/simple_16_B_b.gif","images/stimuli/spore_stims/simple_16_A_b.gif","","","","","11","simple_similar","images/stimuli/spore_stims/simple_16_A_b.gif","right","","","","",""
"","null","html-keyboard-response","210","488345","0.0-41.0-0.2","SS1613098839527","","","null","","","","","<p><img src= images/blank.png width =""200"" height = ""200"" style = ""float:right""></p><p><img src=images/blank.png width =""800"" height = ""200""></p>","","","","","","","","","","","",""
"","1463.224999999511","sequential-stimulus-presentation","211","490619","0.0-41.0-1.2","SS1613098839527","trial","","40","800","2263.224999999511","images/stimuli/spore_stims/simple_16_B_b.gif","images/stimuli/spore_stims/simple_16_A_b.gif","","","","","11","simple_similar","images/stimuli/spore_stims/simple_16_A_b.gif","right","","","","",""
"","null","html-keyboard-response","212","491580","0.0-41.0-0.3","SS1613098839527","","","null","","","","","<p><img src= images/blank.png width =""200"" height = ""200"" style = ""float:right""></p><p><img src=images/blank.png width =""800"" height = ""200""></p>","","","","","","","","","","","",""
"","2010.9250000023167","sequential-stimulus-presentation","213","494403","0.0-41.0-1.3","SS1613098839527","trial","","40","800","2810.9250000023167","images/stimuli/spore_stims/simple_16_B_b.gif","images/stimuli/spore_stims/simple_16_A_b.gif","","","","","11","simple_similar","images/stimuli/spore_stims/simple_16_A_b.gif","right","","","","",""
"","null","html-keyboard-response","214","495307","0.0-41.0-0.4","SS1613098839527","","","null","","","","","<p><img src= images/blank.png width =""200"" height = ""200"" style = ""float:right""></p><p><img src=images/blank.png width =""800"" height = ""200""></p>","","","","","","","","","","","",""
"","2359.1599999999744","sequential-stimulus-presentation","215","498479","0.0-41.0-1.4","SS1613098839527","trial","","40","800","3159.1599999999744","images/stimuli/spore_stims/simple_16_B_b.gif","images/stimuli/spore_stims/simple_16_A_b.gif","","","","","11","simple_similar","images/stimuli/spore_stims/simple_16_B_b.gif","left","","","","",""
"","null","html-keyboard-response","216","499784","0.0-41.0-0.5","SS1613098839527","","","null","","","","","<p><img src= images/blank.png width =""200"" height = ""200"" style = ""float:right""></p><p><img src=images/blank.png width =""800"" height = ""200""></p>","","","","","","","","","","","",""
"","1964.3399999985704","sequential-stimulus-presentation","217","502571","0.0-41.0-1.5","SS1613098839527","trial","","40","800","2764.3399999985704","images/stimuli/spore_stims/simple_16_B_b.gif","images/stimuli/spore_stims/simple_16_A_b.gif","","","","","11","simple_similar","images/stimuli/spore_stims/simple_16_A_b.gif","right","","","","",""
"","null","html-keyboard-response","218","503664","0.0-41.0-0.6","SS1613098839527","","","null","","","","","<p><img src= images/blank.png width =""200"" height = ""200"" style = ""float:right""></p><p><img src=images/blank.png width =""800"" height = ""200""></p>","","","","","","","","","","","",""
"","2656.8950000000186","sequential-stimulus-presentation","219","507172","0.0-41.0-1.6","SS1613098839527","trial","","40","800","3456.8950000000186","images/stimuli/spore_stims/simple_16_B_b.gif","images/stimuli/spore_stims/simple_16_A_b.gif","","","","","11","simple_similar","images/stimuli/spore_stims/simple_16_A_b.gif","right","","","","",""
"","null","html-keyboard-response","220","508305","0.0-41.0-0.7","SS1613098839527","","","null","","","","","<p><img src= images/blank.png width =""200"" height = ""200"" style = ""float:right""></p><p><img src=images/blank.png width =""800"" height = ""200""></p>","","","","","","","","","","","",""
"","1583.9100000011967","sequential-stimulus-presentation","221","510700","0.0-41.0-1.7","SS1613098839527","trial","","40","800","2383.9100000011967","images/stimuli/spore_stims/simple_16_B_b.gif","images/stimuli/spore_stims/simple_16_A_b.gif","","","","","11","simple_similar","images/stimuli/spore_stims/simple_16_A_b.gif","right","","","","",""
"","2238.9750000002095","html-keyboard-response","222","512947","0.0-42.0","SS1613098839527","pref_question","","50","","","","","<video width ='960' height = '540' style='padding-top:8%' autoplay muted><source src='images/stimuli/wall_pref.mp4' type='video/mp4'></video>","2","middle","45%","11","","","","","","","",""
"","23028.85000000242","sequential-stimulus-presentation","223","536787","0.0-43.0","SS1613098839527","pref_reveal","","40","800","23828.85000000242","null","null","","","","","11","","","","novel","","","",""
"","null","html-keyboard-response","224","537968","0.0-44.0-0.0","SS1613098839527","","","null","","","","","<p><img src= images/blank.png width =""200"" height = ""200"" style = ""float:right""></p><p><img src=images/blank.png width =""800"" height = ""200""></p>","","","","","","","","","","","",""
"","316.8299999961164","sequential-stimulus-presentation","225","539099","0.0-44.0-1.0","SS1613098839527","trial","","40","800","1116.8299999961164","images/stimuli/spore_stims/complex_09_A_d.gif","images/stimuli/spore_stims/complex_06_B_a.gif","","","","","12","complex_dissimilar","images/stimuli/spore_stims/complex_06_B_a.gif","middle","","","","",""
"","null","html-keyboard-response","226","540197","0.0-44.0-0.1","SS1613098839527","","","null","","","","","<p><img src= images/blank.png width =""200"" height = ""200"" style = ""float:right""></p><p><img src=images/blank.png width =""800"" height = ""200""></p>","","","","","","","","","","","",""
"","630.054999994114","sequential-stimulus-presentation","227","541636","0.0-44.0-1.1","SS1613098839527","trial","","40","800","1430.054999994114","images/stimuli/spore_stims/complex_09_A_d.gif","images/stimuli/spore_stims/complex_06_B_a.gif","","","","","12","complex_dissimilar","images/stimuli/spore_stims/complex_06_B_a.gif","middle","","","","",""
"","null","html-keyboard-response","228","542689","0.0-44.0-0.2","SS1613098839527","","","null","","","","","<p><img src= images/blank.png width =""200"" height = ""200"" style = ""float:right""></p><p><img src=images/blank.png width =""800"" height = ""200""></p>","","","","","","","","","","","",""
"","1183.8500000012573","sequential-stimulus-presentation","229","544715","0.0-44.0-1.2","SS1613098839527","trial","","40","800","1983.8500000012573","images/stimuli/spore_stims/complex_09_A_d.gif","images/stimuli/spore_stims/complex_06_B_a.gif","","","","","12","complex_dissimilar","images/stimuli/spore_stims/complex_06_B_a.gif","middle","","","","",""
"","null","html-keyboard-response","230","545737","0.0-44.0-0.3","SS1613098839527","","","null","","","","","<p><img src= images/blank.png width =""200"" height = ""200"" style = ""float:right""></p><p><img src=images/blank.png width =""800"" height = ""200""></p>","","","","","","","","","","","",""
"","1124.790000001667","sequential-stimulus-presentation","231","547675","0.0-44.0-1.3","SS1613098839527","trial","","40","800","1924.790000001667","images/stimuli/spore_stims/complex_09_A_d.gif","images/stimuli/spore_stims/complex_06_B_a.gif","","","","","12","complex_dissimilar","images/stimuli/spore_stims/complex_06_B_a.gif","middle","","","","",""
"","null","html-keyboard-response","232","548764","0.0-44.0-0.4","SS1613098839527","","","null","","","","","<p><img src= images/blank.png width =""200"" height = ""200"" style = ""float:right""></p><p><img src=images/blank.png width =""800"" height = ""200""></p>","","","","","","","","","","","",""
"","2038.9999999969732","sequential-stimulus-presentation","233","551619","0.0-44.0-1.4","SS1613098839527","trial","","40","800","2838.999999996973","images/stimuli/spore_stims/complex_09_A_d.gif","images/stimuli/spore_stims/complex_06_B_a.gif","","","","","12","complex_dissimilar","images/stimuli/spore_stims/complex_06_B_a.gif","middle","","","","",""
"","null","html-keyboard-response","234","552664","0.0-44.0-0.5","SS1613098839527","","","null","","","","","<p><img src= images/blank.png width =""200"" height = ""200"" style = ""float:right""></p><p><img src=images/blank.png width =""800"" height = ""200""></p>","","","","","","","","","","","",""
"","3645.73499999824","sequential-stimulus-presentation","235","557133","0.0-44.0-1.5","SS1613098839527","trial","","40","800","4445.73499999824","images/stimuli/spore_stims/complex_09_A_d.gif","images/stimuli/spore_stims/complex_06_B_a.gif","","","","","12","complex_dissimilar","images/stimuli/spore_stims/complex_09_A_d.gif","left","","","","",""
"","null","html-keyboard-response","236","558361","0.0-44.0-0.6","SS1613098839527","","","null","","","","","<p><img src= images/blank.png width =""200"" height = ""200"" style = ""float:right""></p><p><img src=images/blank.png width =""800"" height = ""200""></p>","","","","","","","","","","","",""
"","1442.4199999993434","sequential-stimulus-presentation","237","560619","0.0-44.0-1.6","SS1613098839527","trial","","40","800","2242.4199999993434","images/stimuli/spore_stims/complex_09_A_d.gif","images/stimuli/spore_stims/complex_06_B_a.gif","","","","","12","complex_dissimilar","images/stimuli/spore_stims/complex_06_B_a.gif","middle","","","","",""
"","null","html-keyboard-response","238","561505","0.0-44.0-0.7","SS1613098839527","","","null","","","","","<p><img src= images/blank.png width =""200"" height = ""200"" style = ""float:right""></p><p><img src=images/blank.png width =""800"" height = ""200""></p>","","","","","","","","","","","",""
"","2879.1199999977835","sequential-stimulus-presentation","239","565195","0.0-44.0-1.7","SS1613098839527","trial","","40","800","3679.1199999977835","images/stimuli/spore_stims/complex_09_A_d.gif","images/stimuli/spore_stims/complex_06_B_a.gif","","","","","12","complex_dissimilar","images/stimuli/spore_stims/complex_06_B_a.gif","middle","","","","",""
"","1886.6049999996321","html-keyboard-response","240","567091","0.0-45.0","SS1613098839527","pref_question","","50","","","","","<video width ='960' height = '540' style='padding-top:8%' autoplay muted><source src='images/stimuli/wall_pref.mp4' type='video/mp4'></video>","2","middle","45%","12","","","","","","","",""
"","967.3850000036182","sequential-stimulus-presentation","241","568868","0.0-46.0","SS1613098839527","pref_reveal","","40","800","1767.3850000036182","null","null","","","","","12","","","","background","","","",""
"","null","html-keyboard-response","242","570108","0.0-47.0-0.0","SS1613098839527","","","null","","","","","<p><img src= images/blank.png width =""200"" height = ""200"" style = ""float:right""></p><p><img src=images/blank.png width =""800"" height = ""200""></p>","","","","","","","","","","","",""
"","70028.03500000294","sequential-stimulus-presentation","243","641587","0.0-47.0-1.0","SS1613098839527","trial","","40","800","70828.03500000294","images/stimuli/spore_stims/simple_07_B_c.gif","images/stimuli/spore_stims/simple_04_B_c.gif","","","","","13","simple_dissimilar","images/stimuli/spore_stims/simple_04_B_c.gif","left","","","","",""
"","null","html-keyboard-response","244","642697","0.0-47.0-0.1","SS1613098839527","","","null","","","","","<p><img src= images/blank.png width =""200"" height = ""200"" style = ""float:right""></p><p><img src=images/blank.png width =""800"" height = ""200""></p>","","","","","","","","","","","",""
"","1162.0699999985518","sequential-stimulus-presentation","245","644671","0.0-47.0-1.1","SS1613098839527","trial","","40","800","1962.0699999985518","images/stimuli/spore_stims/simple_07_B_c.gif","images/stimuli/spore_stims/simple_04_B_c.gif","","","","","13","simple_dissimilar","images/stimuli/spore_stims/simple_04_B_c.gif","left","","","","",""
"","null","html-keyboard-response","246","645634","0.0-47.0-0.2","SS1613098839527","","","null","","","","","<p><img src= images/blank.png width =""200"" height = ""200"" style = ""float:right""></p><p><img src=images/blank.png width =""800"" height = ""200""></p>","","","","","","","","","","","",""
"","1305.3599999984726","sequential-stimulus-presentation","247","647755","0.0-47.0-1.2","SS1613098839527","trial","","40","800","2105.3599999984726","images/stimuli/spore_stims/simple_07_B_c.gif","images/stimuli/spore_stims/simple_04_B_c.gif","","","","","13","simple_dissimilar","images/stimuli/spore_stims/simple_07_B_c.gif","right","","","","",""
"","null","html-keyboard-response","248","648689","0.0-47.0-0.3","SS1613098839527","","","null","","","","","<p><img src= images/blank.png width =""200"" height = ""200"" style = ""float:right""></p><p><img src=images/blank.png width =""800"" height = ""200""></p>","","","","","","","","","","","",""
"","1590.9200000023702","sequential-stimulus-presentation","249","651091","0.0-47.0-1.3","SS1613098839527","trial","","40","800","2390.92000000237","images/stimuli/spore_stims/simple_07_B_c.gif","images/stimuli/spore_stims/simple_04_B_c.gif","","","","","13","simple_dissimilar","images/stimuli/spore_stims/simple_04_B_c.gif","left","","","","",""
"","null","html-keyboard-response","250","652070","0.0-47.0-0.4","SS1613098839527","","","null","","","","","<p><img src= images/blank.png width =""200"" height = ""200"" style = ""float:right""></p><p><img src=images/blank.png width =""800"" height = ""200""></p>","","","","","","","","","","","",""
"","826.1749999946915","sequential-stimulus-presentation","251","653707","0.0-47.0-1.4","SS1613098839527","trial","","40","800","1626.1749999946915","images/stimuli/spore_stims/simple_07_B_c.gif","images/stimuli/spore_stims/simple_04_B_c.gif","","","","","13","simple_dissimilar","images/stimuli/spore_stims/simple_04_B_c.gif","left","","","","",""
"","null","html-keyboard-response","252","654700","0.0-47.0-0.5","SS1613098839527","","","null","","","","","<p><img src= images/blank.png width =""200"" height = ""200"" style = ""float:right""></p><p><img src=images/blank.png width =""800"" height = ""200""></p>","","","","","","","","","","","",""
"","1294.7500000009313","sequential-stimulus-presentation","253","656805","0.0-47.0-1.5","SS1613098839527","trial","","40","800","2094.7500000009313","images/stimuli/spore_stims/simple_07_B_c.gif","images/stimuli/spore_stims/simple_04_B_c.gif","","","","","13","simple_dissimilar","images/stimuli/spore_stims/simple_04_B_c.gif","left","","","","",""
"","null","html-keyboard-response","254","658107","0.0-47.0-0.6","SS1613098839527","","","null","","","","","<p><img src= images/blank.png width =""200"" height = ""200"" style = ""float:right""></p><p><img src=images/blank.png width =""800"" height = ""200""></p>","","","","","","","","","","","",""
"","1877.5850000019418","sequential-stimulus-presentation","255","660795","0.0-47.0-1.6","SS1613098839527","trial","","40","800","2677.585000001942","images/stimuli/spore_stims/simple_07_B_c.gif","images/stimuli/spore_stims/simple_04_B_c.gif","","","","","13","simple_dissimilar","images/stimuli/spore_stims/simple_04_B_c.gif","left","","","","",""
"","null","html-keyboard-response","256","661820","0.0-47.0-0.7","SS1613098839527","","","null","","","","","<p><img src= images/blank.png width =""200"" height = ""200"" style = ""float:right""></p><p><img src=images/blank.png width =""800"" height = ""200""></p>","","","","","","","","","","","",""
"","1670.3199999973876","sequential-stimulus-presentation","257","664301","0.0-47.0-1.7","SS1613098839527","trial","","40","800","2470.3199999973876","images/stimuli/spore_stims/simple_07_B_c.gif","images/stimuli/spore_stims/simple_04_B_c.gif","","","","","13","simple_dissimilar","images/stimuli/spore_stims/simple_04_B_c.gif","left","","","","",""
"","1764.114999998128","html-keyboard-response","258","666076","0.0-48.0","SS1613098839527","pref_question","","51","","","","","<video width ='960' height = '540' style='padding-top:8%' autoplay muted><source src='images/stimuli/wall_pref.mp4' type='video/mp4'></video>","3","right","66%","13","","","","","","","",""
"","2134.649999999907","sequential-stimulus-presentation","259","669022","0.0-49.0","SS1613098839527","pref_reveal","","40","800","2934.649999999907","null","null","","","","","13","","","","deviant","","","",""
"","null","html-keyboard-response","260","670104","0.0-50.0-0.0","SS1613098839527","","","null","","","","","<p><img src= images/blank.png width =""200"" height = ""200"" style = ""float:right""></p><p><img src=images/blank.png width =""800"" height = ""200""></p>","","","","","","","","","","","",""
"","3030.9500000003027","sequential-stimulus-presentation","261","673947","0.0-50.0-1.0","SS1613098839527","trial","","40","800","3830.9500000003027","images/stimuli/spore_stims/simple_18_A_c.gif","images/stimuli/spore_stims/simple_18_B_c.gif","","","","","14","simple_similar","images/stimuli/spore_stims/simple_18_B_c.gif","middle","","","","",""
"","null","html-keyboard-response","262","675072","0.0-50.0-0.1","SS1613098839527","","","null","","","","","<p><img src= images/blank.png width =""200"" height = ""200"" style = ""float:right""></p><p><img src=images/blank.png width =""800"" height = ""200""></p>","","","","","","","","","","","",""
"","1206.9849999970756","sequential-stimulus-presentation","263","677123","0.0-50.0-1.1","SS1613098839527","trial","","40","800","2006.9849999970756","images/stimuli/spore_stims/simple_18_A_c.gif","images/stimuli/spore_stims/simple_18_B_c.gif","","","","","14","simple_similar","images/stimuli/spore_stims/simple_18_B_c.gif","middle","","","","",""
"","null","html-keyboard-response","264","678075","0.0-50.0-0.2","SS1613098839527","","","null","","","","","<p><img src= images/blank.png width =""200"" height = ""200"" style = ""float:right""></p><p><img src=images/blank.png width =""800"" height = ""200""></p>","","","","","","","","","","","",""
"","966.4200000043493","sequential-stimulus-presentation","265","679853","0.0-50.0-1.2","SS1613098839527","trial","","40","800","1766.4200000043493","images/stimuli/spore_stims/simple_18_A_c.gif","images/stimuli/spore_stims/simple_18_B_c.gif","","","","","14","simple_similar","images/stimuli/spore_stims/simple_18_A_c.gif","right","","","","",""
"","null","html-keyboard-response","266","680723","0.0-50.0-0.3","SS1613098839527","","","null","","","","","<p><img src= images/blank.png width =""200"" height = ""200"" style = ""float:right""></p><p><img src=images/blank.png width =""800"" height = ""200""></p>","","","","","","","","","","","",""
"","942.8050000061048","sequential-stimulus-presentation","267","682476","0.0-50.0-1.3","SS1613098839527","trial","","40","800","1742.8050000061048","images/stimuli/spore_stims/simple_18_A_c.gif","images/stimuli/spore_stims/simple_18_B_c.gif","","","","","14","simple_similar","images/stimuli/spore_stims/simple_18_B_c.gif","middle","","","","",""
"","null","html-keyboard-response","268","683302","0.0-50.0-0.4","SS1613098839527","","","null","","","","","<p><img src= images/blank.png width =""200"" height = ""200"" style = ""float:right""></p><p><img src=images/blank.png width =""800"" height = ""200""></p>","","","","","","","","","","","",""
"","1056.9699999977602","sequential-stimulus-presentation","269","685171","0.0-50.0-1.4","SS1613098839527","trial","","40","800","1856.9699999977602","images/stimuli/spore_stims/simple_18_A_c.gif","images/stimuli/spore_stims/simple_18_B_c.gif","","","","","14","simple_similar","images/stimuli/spore_stims/simple_18_B_c.gif","middle","","","","",""
"","null","html-keyboard-response","270","686431","0.0-50.0-0.5","SS1613098839527","","","null","","","","","<p><img src= images/blank.png width =""200"" height = ""200"" style = ""float:right""></p><p><img src=images/blank.png width =""800"" height = ""200""></p>","","","","","","","","","","","",""
"","1241.7100000020582","sequential-stimulus-presentation","271","688484","0.0-50.0-1.5","SS1613098839527","trial","","40","800","2041.7100000020582","images/stimuli/spore_stims/simple_18_A_c.gif","images/stimuli/spore_stims/simple_18_B_c.gif","","","","","14","simple_similar","images/stimuli/spore_stims/simple_18_B_c.gif","middle","","","","",""
"","null","html-keyboard-response","272","689476","0.0-50.0-0.6","SS1613098839527","","","null","","","","","<p><img src= images/blank.png width =""200"" height = ""200"" style = ""float:right""></p><p><img src=images/blank.png width =""800"" height = ""200""></p>","","","","","","","","","","","",""
"","1245.7599999979138","sequential-stimulus-presentation","273","691533","0.0-50.0-1.6","SS1613098839527","trial","","40","800","2045.7599999979138","images/stimuli/spore_stims/simple_18_A_c.gif","images/stimuli/spore_stims/simple_18_B_c.gif","","","","","14","simple_similar","images/stimuli/spore_stims/simple_18_B_c.gif","middle","","","","",""
"","null","html-keyboard-response","274","692619","0.0-50.0-0.7","SS1613098839527","","","null","","","","","<p><img src= images/blank.png width =""200"" height = ""200"" style = ""float:right""></p><p><img src=images/blank.png width =""800"" height = ""200""></p>","","","","","","","","","","","",""
"","2274.2949999957345","sequential-stimulus-presentation","275","695707","0.0-50.0-1.7","SS1613098839527","trial","","40","800","3074.2949999957345","images/stimuli/spore_stims/simple_18_A_c.gif","images/stimuli/spore_stims/simple_18_B_c.gif","","","","","14","simple_similar","images/stimuli/spore_stims/simple_18_B_c.gif","middle","","","","",""
"","1854.124999998021","html-keyboard-response","276","697571","0.0-51.0","SS1613098839527","pref_question","","51","","","","","<video width ='960' height = '540' style='padding-top:8%' autoplay muted><source src='images/stimuli/wall_pref.mp4' type='video/mp4'></video>","3","right","66%","14","","","","","","","",""
"","1804.645000003744","sequential-stimulus-presentation","277","700187","0.0-52.0","SS1613098839527","pref_reveal","","40","800","2604.645000003744","null","null","","","","","14","","","","deviant","","","",""
"","null","html-keyboard-response","278","701143","0.0-53.0-0.0","SS1613098839527","","","null","","","","","<p><img src= images/blank.png width =""200"" height = ""200"" style = ""float:right""></p><p><img src=images/blank.png width =""800"" height = ""200""></p>","","","","","","","","","","","",""
"","2562.280000005616","sequential-stimulus-presentation","279","704517","0.0-53.0-1.0","SS1613098839527","trial","","40","800","3362.280000005616","images/stimuli/spore_stims/complex_15_A_b.gif","images/stimuli/spore_stims/complex_12_B_c.gif","","","","","15","complex_dissimilar","images/stimuli/spore_stims/complex_12_B_c.gif","right","","","","",""
"","null","html-keyboard-response","280","705343","0.0-53.0-0.1","SS1613098839527","","","null","","","","","<p><img src= images/blank.png width =""200"" height = ""200"" style = ""float:right""></p><p><img src=images/blank.png width =""800"" height = ""200""></p>","","","","","","","","","","","",""
"","1896.615000005113","sequential-stimulus-presentation","281","708051","0.0-53.0-1.1","SS1613098839527","trial","","40","800","2696.615000005113","images/stimuli/spore_stims/complex_15_A_b.gif","images/stimuli/spore_stims/complex_12_B_c.gif","","","","","15","complex_dissimilar","images/stimuli/spore_stims/complex_12_B_c.gif","right","","","","",""
"","null","html-keyboard-response","282","709228","0.0-53.0-0.2","SS1613098839527","","","null","","","","","<p><img src= images/blank.png width =""200"" height = ""200"" style = ""float:right""></p><p><img src=images/blank.png width =""800"" height = ""200""></p>","","","","","","","","","","","",""
"","2515.1000000041677","sequential-stimulus-presentation","283","712556","0.0-53.0-1.2","SS1613098839527","trial","","40","800","3315.1000000041677","images/stimuli/spore_stims/complex_15_A_b.gif","images/stimuli/spore_stims/complex_12_B_c.gif","","","","","15","complex_dissimilar","images/stimuli/spore_stims/complex_12_B_c.gif","right","","","","",""
"","null","html-keyboard-response","284","713441","0.0-53.0-0.3","SS1613098839527","","","null","","","","","<p><img src= images/blank.png width =""200"" height = ""200"" style = ""float:right""></p><p><img src=images/blank.png width =""800"" height = ""200""></p>","","","","","","","","","","","",""
"","2772.6899999980815","sequential-stimulus-presentation","285","717028","0.0-53.0-1.3","SS1613098839527","trial","","40","800","3572.6899999980815","images/stimuli/spore_stims/complex_15_A_b.gif","images/stimuli/spore_stims/complex_12_B_c.gif","","","","","15","complex_dissimilar","images/stimuli/spore_stims/complex_12_B_c.gif","right","","","","",""
"","null","html-keyboard-response","286","718255","0.0-53.0-0.4","SS1613098839527","","","null","","","","","<p><img src= images/blank.png width =""200"" height = ""200"" style = ""float:right""></p><p><img src=images/blank.png width =""800"" height = ""200""></p>","","","","","","","","","","","",""
"","840.9499999979744","sequential-stimulus-presentation","287","719907","0.0-53.0-1.4","SS1613098839527","trial","","40","800","1640.9499999979744","images/stimuli/spore_stims/complex_15_A_b.gif","images/stimuli/spore_stims/complex_12_B_c.gif","","","","","15","complex_dissimilar","images/stimuli/spore_stims/complex_12_B_c.gif","right","","","","",""
"","null","html-keyboard-response","288","721105","0.0-53.0-0.5","SS1613098839527","","","null","","","","","<p><img src= images/blank.png width =""200"" height = ""200"" style = ""float:right""></p><p><img src=images/blank.png width =""800"" height = ""200""></p>","","","","","","","","","","","",""
"","2735.464999997872","sequential-stimulus-presentation","289","724651","0.0-53.0-1.5","SS1613098839527","trial","","40","800","3535.464999997872","images/stimuli/spore_stims/complex_15_A_b.gif","images/stimuli/spore_stims/complex_12_B_c.gif","","","","","15","complex_dissimilar","images/stimuli/spore_stims/complex_12_B_c.gif","right","","","","",""
"","null","html-keyboard-response","290","725945","0.0-53.0-0.6","SS1613098839527","","","null","","","","","<p><img src= images/blank.png width =""200"" height = ""200"" style = ""float:right""></p><p><img src=images/blank.png width =""800"" height = ""200""></p>","","","","","","","","","","","",""
"","1966.3599999984726","sequential-stimulus-presentation","291","728725","0.0-53.0-1.6","SS1613098839527","trial","","40","800","2766.3599999984726","images/stimuli/spore_stims/complex_15_A_b.gif","images/stimuli/spore_stims/complex_12_B_c.gif","","","","","15","complex_dissimilar","images/stimuli/spore_stims/complex_12_B_c.gif","right","","","","",""
"","null","html-keyboard-response","292","729986","0.0-53.0-0.7","SS1613098839527","","","null","","","","","<p><img src= images/blank.png width =""200"" height = ""200"" style = ""float:right""></p><p><img src=images/blank.png width =""800"" height = ""200""></p>","","","","","","","","","","","",""
"","3726.1650000000373","sequential-stimulus-presentation","293","734523","0.0-53.0-1.7","SS1613098839527","trial","","40","800","4526.165000000037","images/stimuli/spore_stims/complex_15_A_b.gif","images/stimuli/spore_stims/complex_12_B_c.gif","","","","","15","complex_dissimilar","images/stimuli/spore_stims/complex_15_A_b.gif","middle","","","","",""
"","2523.880000000703","html-keyboard-response","294","737059","0.0-54.0","SS1613098839527","pref_question","","51","","","","","<video width ='960' height = '540' style='padding-top:8%' autoplay muted><source src='images/stimuli/wall_pref.mp4' type='video/mp4'></video>","3","right","66%","15","","","","","","","",""
"","1575.2250000005588","sequential-stimulus-presentation","295","739445","0.0-55.0","SS1613098839527","pref_reveal","","40","800","2375.225000000559","null","null","","","","","15","","","","background","","","",""
"","null","html-keyboard-response","296","740653","0.0-56.0-0.0","SS1613098839527","","","null","","","","","<p><img src= images/blank.png width =""200"" height = ""200"" style = ""float:right""></p><p><img src=images/blank.png width =""800"" height = ""200""></p>","","","","","","","","","","","",""
"","2426.0350000039907","sequential-stimulus-presentation","297","743891","0.0-56.0-1.0","SS1613098839527","trial","","40","800","3226.0350000039907","images/stimuli/spore_stims/complex_05_B_a.gif","images/stimuli/spore_stims/complex_05_A_a.gif","","","","","16","complex_similar","images/stimuli/spore_stims/complex_05_A_a.gif","middle","","","","",""
"","null","html-keyboard-response","298","744970","0.0-56.0-0.1","SS1613098839527","","","null","","","","","<p><img src= images/blank.png width =""200"" height = ""200"" style = ""float:right""></p><p><img src=images/blank.png width =""800"" height = ""200""></p>","","","","","","","","","","","",""
"","2461.9499999971595","sequential-stimulus-presentation","299","748243","0.0-56.0-1.1","SS1613098839527","trial","","40","800","3261.9499999971595","images/stimuli/spore_stims/complex_05_B_a.gif","images/stimuli/spore_stims/complex_05_A_a.gif","","","","","16","complex_similar","images/stimuli/spore_stims/complex_05_A_a.gif","middle","","","","",""
"","null","html-keyboard-response","300","749325","0.0-56.0-0.2","SS1613098839527","","","null","","","","","<p><img src= images/blank.png width =""200"" height = ""200"" style = ""float:right""></p><p><img src=images/blank.png width =""800"" height = ""200""></p>","","","","","","","","","","","",""
"","2087.729999999283","sequential-stimulus-presentation","301","752236","0.0-56.0-1.2","SS1613098839527","trial","","40","800","2887.729999999283","images/stimuli/spore_stims/complex_05_B_a.gif","images/stimuli/spore_stims/complex_05_A_a.gif","","","","","16","complex_similar","images/stimuli/spore_stims/complex_05_A_a.gif","middle","","","","",""
"","null","html-keyboard-response","302","753487","0.0-56.0-0.3","SS1613098839527","","","null","","","","","<p><img src= images/blank.png width =""200"" height = ""200"" style = ""float:right""></p><p><img src=images/blank.png width =""800"" height = ""200""></p>","","","","","","","","","","","",""
"","2073.5200000053737","sequential-stimulus-presentation","303","756372","0.0-56.0-1.3","SS1613098839527","trial","","40","800","2873.5200000053737","images/stimuli/spore_stims/complex_05_B_a.gif","images/stimuli/spore_stims/complex_05_A_a.gif","","","","","16","complex_similar","images/stimuli/spore_stims/complex_05_B_a.gif","right","","","","",""
"","null","html-keyboard-response","304","757465","0.0-56.0-0.4","SS1613098839527","","","null","","","","","<p><img src= images/blank.png width =""200"" height = ""200"" style = ""float:right""></p><p><img src=images/blank.png width =""800"" height = ""200""></p>","","","","","","","","","","","",""
"","2126.574999994831","sequential-stimulus-presentation","305","760405","0.0-56.0-1.4","SS1613098839527","trial","","40","800","2926.574999994831","images/stimuli/spore_stims/complex_05_B_a.gif","images/stimuli/spore_stims/complex_05_A_a.gif","","","","","16","complex_similar","images/stimuli/spore_stims/complex_05_A_a.gif","middle","","","","",""
"","null","html-keyboard-response","306","761672","0.0-56.0-0.5","SS1613098839527","","","null","","","","","<p><img src= images/blank.png width =""200"" height = ""200"" style = ""float:right""></p><p><img src=images/blank.png width =""800"" height = ""200""></p>","","","","","","","","","","","",""
"","1615.9849999967264","sequential-stimulus-presentation","307","764101","0.0-56.0-1.5","SS1613098839527","trial","","40","800","2415.9849999967264","images/stimuli/spore_stims/complex_05_B_a.gif","images/stimuli/spore_stims/complex_05_A_a.gif","","","","","16","complex_similar","images/stimuli/spore_stims/complex_05_A_a.gif","middle","","","","",""
"","null","html-keyboard-response","308","765236","0.0-56.0-0.6","SS1613098839527","","","null","","","","","<p><img src= images/blank.png width =""200"" height = ""200"" style = ""float:right""></p><p><img src=images/blank.png width =""800"" height = ""200""></p>","","","","","","","","","","","",""
"","1932.3750000039581","sequential-stimulus-presentation","309","767980","0.0-56.0-1.6","SS1613098839527","trial","","40","800","2732.375000003958","images/stimuli/spore_stims/complex_05_B_a.gif","images/stimuli/spore_stims/complex_05_A_a.gif","","","","","16","complex_similar","images/stimuli/spore_stims/complex_05_A_a.gif","middle","","","","",""
"","null","html-keyboard-response","310","769020","0.0-56.0-0.7","SS1613098839527","","","null","","","","","<p><img src= images/blank.png width =""200"" height = ""200"" style = ""float:right""></p><p><img src=images/blank.png width =""800"" height = ""200""></p>","","","","","","","","","","","",""
"","2291.704999996","sequential-stimulus-presentation","311","772123","0.0-56.0-1.7","SS1613098839527","trial","","40","800","3091.704999996","images/stimuli/spore_stims/complex_05_B_a.gif","images/stimuli/spore_stims/complex_05_A_a.gif","","","","","16","complex_similar","images/stimuli/spore_stims/complex_05_A_a.gif","middle","","","","",""
