"view_history","rt","trial_type","trial_index","time_elapsed","internal_node_id","subject","stimulus_type","trial_stimulus","key_press","minimum_viewing_duration","trial_looking_time","block_deviant","block_background","stimulus","wall_pref","location","location_percent","block_number","block_type","stimulus_displayed","position_displayed","stim_type_selected","responses","question_order","stimulus_left","stimulus_right"
"[{""page_index"":0,""viewing_time"":13848}]","13849","instructions","0","13852","0.0-0.0","SS1613170069241","","","","","","","","","","","","","","","","","","","",""
"[{""page_index"":0,""viewing_time"":13888},{""page_index"":1,""viewing_time"":8255}]","22143","instructions","1","38003","0.0-1.0","SS1613170069241","instructions","","","","","","","","","","","","","","","","","","",""
"","11309","sequential-stimulus-presentation","2","50148","0.0-2.0","SS1613170069241","","","40","800","12109","null","null","","","","","","","","","","","","",""
"","10453","sequential-stimulus-presentation","3","61412","0.0-3.0","SS1613170069241","","","40","800","11253","null","null","","","","","","","","","","","","",""
"[{""page_index"":0,""viewing_time"":5941}]","5941","instructions","4","67355","0.0-4.0","SS1613170069241","instructions","","","","","","","","","","","","","","","","","","",""
"","19981","html-keyboard-response","5","87342","0.0-5.0","SS1613170069241","instructions","","49","","","","","<video width ='960' height = '540' autoplay muted><source src='images/stimuli/wall_pref.mp4' type='video/mp4'></video>","1","left","25%","","","","","","","","",""
"","4300","sequential-stimulus-presentation","6","92459","0.0-6.0","SS1613170069241","pref_reveal","","40","800","5100","null","null","","","","","","","","","","","","",""
"[{""page_index"":0,""viewing_time"":9029},{""page_index"":1,""viewing_time"":6247},{""page_index"":2,""viewing_time"":1834},{""page_index"":3,""viewing_time"":1872}]","18982","instructions","7","111443","0.0-7.0","SS1613170069241","instructions","","","","","","","","","","","","","","","","","","",""
"","null","html-keyboard-response","8","112608","0.0-8.0-0.0","SS1613170069241","","","null","","","","","<p><img src= images/blank.png width =""200"" height = ""200"" style = ""float:right""></p><p><img src=images/blank.png width =""800"" height = ""200""></p>","","","","","","","","","","","",""
"","6533","sequential-stimulus-presentation","9","119961","0.0-8.0-1.0","SS1613170069241","trial","","40","800","7333","images/stimuli/spore_stims/simple_11_A_a.gif","images/stimuli/spore_stims/simple_03_A_a.gif","","","","","0","simple_dissimilar","images/stimuli/spore_stims/simple_03_A_a.gif","right","","","","",""
"","null","html-keyboard-response","10","121209","0.0-8.0-0.1","SS1613170069241","","","null","","","","","<p><img src= images/blank.png width =""200"" height = ""200"" style = ""float:right""></p><p><img src=images/blank.png width =""800"" height = ""200""></p>","","","","","","","","","","","",""
"","6697","sequential-stimulus-presentation","11","128725","0.0-8.0-1.1","SS1613170069241","trial","","40","800","7497","images/stimuli/spore_stims/simple_11_A_a.gif","images/stimuli/spore_stims/simple_03_A_a.gif","","","","","0","simple_dissimilar","images/stimuli/spore_stims/simple_03_A_a.gif","right","","","","",""
"","null","html-keyboard-response","12","130038","0.0-8.0-0.2","SS1613170069241","","","null","","","","","<p><img src= images/blank.png width =""200"" height = ""200"" style = ""float:right""></p><p><img src=images/blank.png width =""800"" height = ""200""></p>","","","","","","","","","","","",""
"","8081","sequential-stimulus-presentation","13","138940","0.0-8.0-1.2","SS1613170069241","trial","","40","800","8881","images/stimuli/spore_stims/simple_11_A_a.gif","images/stimuli/spore_stims/simple_03_A_a.gif","","","","","0","simple_dissimilar","images/stimuli/spore_stims/simple_03_A_a.gif","right","","","","",""
"","null","html-keyboard-response","14","140019","0.0-8.0-0.3","SS1613170069241","","","null","","","","","<p><img src= images/blank.png width =""200"" height = ""200"" style = ""float:right""></p><p><img src=images/blank.png width =""800"" height = ""200""></p>","","","","","","","","","","","",""
"","4294","sequential-stimulus-presentation","15","145133","0.0-8.0-1.3","SS1613170069241","trial","","40","800","5094","images/stimuli/spore_stims/simple_11_A_a.gif","images/stimuli/spore_stims/simple_03_A_a.gif","","","","","0","simple_dissimilar","images/stimuli/spore_stims/simple_03_A_a.gif","right","","","","",""
"","null","html-keyboard-response","16","146149","0.0-8.0-0.4","SS1613170069241","","","null","","","","","<p><img src= images/blank.png width =""200"" height = ""200"" style = ""float:right""></p><p><img src=images/blank.png width =""800"" height = ""200""></p>","","","","","","","","","","","",""
"","7490","sequential-stimulus-presentation","17","154458","0.0-8.0-1.4","SS1613170069241","trial","","40","800","8290","images/stimuli/spore_stims/simple_11_A_a.gif","images/stimuli/spore_stims/simple_03_A_a.gif","","","","","0","simple_dissimilar","images/stimuli/spore_stims/simple_03_A_a.gif","right","","","","",""
"","null","html-keyboard-response","18","155468","0.0-8.0-0.5","SS1613170069241","","","null","","","","","<p><img src= images/blank.png width =""200"" height = ""200"" style = ""float:right""></p><p><img src=images/blank.png width =""800"" height = ""200""></p>","","","","","","","","","","","",""
"","5732","sequential-stimulus-presentation","19","162020","0.0-8.0-1.5","SS1613170069241","trial","","40","800","6532","images/stimuli/spore_stims/simple_11_A_a.gif","images/stimuli/spore_stims/simple_03_A_a.gif","","","","","0","simple_dissimilar","images/stimuli/spore_stims/simple_03_A_a.gif","right","","","","",""
"","null","html-keyboard-response","20","162919","0.0-8.0-0.6","SS1613170069241","","","null","","","","","<p><img src= images/blank.png width =""200"" height = ""200"" style = ""float:right""></p><p><img src=images/blank.png width =""800"" height = ""200""></p>","","","","","","","","","","","",""
"","4329","sequential-stimulus-presentation","21","168067","0.0-8.0-1.6","SS1613170069241","trial","","40","800","5129","images/stimuli/spore_stims/simple_11_A_a.gif","images/stimuli/spore_stims/simple_03_A_a.gif","","","","","0","simple_dissimilar","images/stimuli/spore_stims/simple_11_A_a.gif","left","","","","",""
"","null","html-keyboard-response","22","169018","0.0-8.0-0.7","SS1613170069241","","","null","","","","","<p><img src= images/blank.png width =""200"" height = ""200"" style = ""float:right""></p><p><img src=images/blank.png width =""800"" height = ""200""></p>","","","","","","","","","","","",""
"","3578","sequential-stimulus-presentation","23","173417","0.0-8.0-1.7","SS1613170069241","trial","","40","800","4378","images/stimuli/spore_stims/simple_11_A_a.gif","images/stimuli/spore_stims/simple_03_A_a.gif","","","","","0","simple_dissimilar","images/stimuli/spore_stims/simple_03_A_a.gif","right","","","","",""
"","2598","html-keyboard-response","24","176018","0.0-9.0","SS1613170069241","pref_question","","50","","","","","<video width ='960' height = '540' style='padding-top:8%' autoplay muted><source src='images/stimuli/wall_pref.mp4' type='video/mp4'></video>","2","middle","45%","0","","","","","","","",""
"","2683","sequential-stimulus-presentation","25","179521","0.0-10.0","SS1613170069241","pref_reveal","","40","800","3483","null","null","","","","","0","","","","novel","","","",""
"","null","html-keyboard-response","26","180398","0.0-11.0-0.0","SS1613170069241","","","null","","","","","<p><img src= images/blank.png width =""200"" height = ""200"" style = ""float:right""></p><p><img src=images/blank.png width =""800"" height = ""200""></p>","","","","","","","","","","","",""
"","3372","sequential-stimulus-presentation","27","184591","0.0-11.0-1.0","SS1613170069241","trial","","40","800","4172","images/stimuli/spore_stims/complex_13_A_d.gif","images/stimuli/spore_stims/complex_13_B_d.gif","","","","","1","complex_similar","images/stimuli/spore_stims/complex_13_B_d.gif","middle","","","","",""
"","null","html-keyboard-response","28","185758","0.0-11.0-0.1","SS1613170069241","","","null","","","","","<p><img src= images/blank.png width =""200"" height = ""200"" style = ""float:right""></p><p><img src=images/blank.png width =""800"" height = ""200""></p>","","","","","","","","","","","",""
"","2332","sequential-stimulus-presentation","29","188900","0.0-11.0-1.1","SS1613170069241","trial","","40","800","3132","images/stimuli/spore_stims/complex_13_A_d.gif","images/stimuli/spore_stims/complex_13_B_d.gif","","","","","1","complex_similar","images/stimuli/spore_stims/complex_13_B_d.gif","middle","","","","",""
"","null","html-keyboard-response","30","189788","0.0-11.0-0.2","SS1613170069241","","","null","","","","","<p><img src= images/blank.png width =""200"" height = ""200"" style = ""float:right""></p><p><img src=images/blank.png width =""800"" height = ""200""></p>","","","","","","","","","","","",""
"","1984","sequential-stimulus-presentation","31","192593","0.0-11.0-1.2","SS1613170069241","trial","","40","800","2784","images/stimuli/spore_stims/complex_13_A_d.gif","images/stimuli/spore_stims/complex_13_B_d.gif","","","","","1","complex_similar","images/stimuli/spore_stims/complex_13_B_d.gif","middle","","","","",""
"","null","html-keyboard-response","32","193768","0.0-11.0-0.3","SS1613170069241","","","null","","","","","<p><img src= images/blank.png width =""200"" height = ""200"" style = ""float:right""></p><p><img src=images/blank.png width =""800"" height = ""200""></p>","","","","","","","","","","","",""
"","1491","sequential-stimulus-presentation","33","196070","0.0-11.0-1.3","SS1613170069241","trial","","40","800","2291","images/stimuli/spore_stims/complex_13_A_d.gif","images/stimuli/spore_stims/complex_13_B_d.gif","","","","","1","complex_similar","images/stimuli/spore_stims/complex_13_B_d.gif","middle","","","","",""
"","null","html-keyboard-response","34","197138","0.0-11.0-0.4","SS1613170069241","","","null","","","","","<p><img src= images/blank.png width =""200"" height = ""200"" style = ""float:right""></p><p><img src=images/blank.png width =""800"" height = ""200""></p>","","","","","","","","","","","",""
"","1559","sequential-stimulus-presentation","35","199518","0.0-11.0-1.4","SS1613170069241","trial","","40","800","2359","images/stimuli/spore_stims/complex_13_A_d.gif","images/stimuli/spore_stims/complex_13_B_d.gif","","","","","1","complex_similar","images/stimuli/spore_stims/complex_13_B_d.gif","middle","","","","",""
"","null","html-keyboard-response","36","200438","0.0-11.0-0.5","SS1613170069241","","","null","","","","","<p><img src= images/blank.png width =""200"" height = ""200"" style = ""float:right""></p><p><img src=images/blank.png width =""800"" height = ""200""></p>","","","","","","","","","","","",""
"","1833","sequential-stimulus-presentation","37","203093","0.0-11.0-1.5","SS1613170069241","trial","","40","800","2633","images/stimuli/spore_stims/complex_13_A_d.gif","images/stimuli/spore_stims/complex_13_B_d.gif","","","","","1","complex_similar","images/stimuli/spore_stims/complex_13_B_d.gif","middle","","","","",""
"","null","html-keyboard-response","38","204079","0.0-11.0-0.6","SS1613170069241","","","null","","","","","<p><img src= images/blank.png width =""200"" height = ""200"" style = ""float:right""></p><p><img src=images/blank.png width =""800"" height = ""200""></p>","","","","","","","","","","","",""
"","1602","sequential-stimulus-presentation","39","206495","0.0-11.0-1.6","SS1613170069241","trial","","40","800","2402","images/stimuli/spore_stims/complex_13_A_d.gif","images/stimuli/spore_stims/complex_13_B_d.gif","","","","","1","complex_similar","images/stimuli/spore_stims/complex_13_A_d.gif","right","","","","",""
"","null","html-keyboard-response","40","207508","0.0-11.0-0.7","SS1613170069241","","","null","","","","","<p><img src= images/blank.png width =""200"" height = ""200"" style = ""float:right""></p><p><img src=images/blank.png width =""800"" height = ""200""></p>","","","","","","","","","","","",""
"","815","sequential-stimulus-presentation","41","209143","0.0-11.0-1.7","SS1613170069241","trial","","40","800","1615","images/stimuli/spore_stims/complex_13_A_d.gif","images/stimuli/spore_stims/complex_13_B_d.gif","","","","","1","complex_similar","images/stimuli/spore_stims/complex_13_B_d.gif","middle","","","","",""
"","1884","html-keyboard-response","42","211032","0.0-12.0","SS1613170069241","pref_question","","49","","","","","<video width ='960' height = '540' style='padding-top:8%' autoplay muted><source src='images/stimuli/wall_pref.mp4' type='video/mp4'></video>","1","left","25%","1","","","","","","","",""
"","2275","sequential-stimulus-presentation","43","214115","0.0-13.0","SS1613170069241","pref_reveal","","40","800","3075","null","null","","","","","1","","","","novel","","","",""
"","null","html-keyboard-response","44","215058","0.0-14.0-0.0","SS1613170069241","","","null","","","","","<p><img src= images/blank.png width =""200"" height = ""200"" style = ""float:right""></p><p><img src=images/blank.png width =""800"" height = ""200""></p>","","","","","","","","","","","",""
"","2277","sequential-stimulus-presentation","45","218156","0.0-14.0-1.0","SS1613170069241","trial","","40","800","3077","images/stimuli/spore_stims/simple_15_A_c.gif","images/stimuli/spore_stims/simple_20_B_a.gif","","","","","2","simple_dissimilar","images/stimuli/spore_stims/simple_20_B_a.gif","left","","","","",""
"","null","html-keyboard-response","46","218998","0.0-14.0-0.1","SS1613170069241","","","null","","","","","<p><img src= images/blank.png width =""200"" height = ""200"" style = ""float:right""></p><p><img src=images/blank.png width =""800"" height = ""200""></p>","","","","","","","","","","","",""
"","1351","sequential-stimulus-presentation","47","221171","0.0-14.0-1.1","SS1613170069241","trial","","40","800","2151","images/stimuli/spore_stims/simple_15_A_c.gif","images/stimuli/spore_stims/simple_20_B_a.gif","","","","","2","simple_dissimilar","images/stimuli/spore_stims/simple_20_B_a.gif","left","","","","",""
"","null","html-keyboard-response","48","222038","0.0-14.0-0.2","SS1613170069241","","","null","","","","","<p><img src= images/blank.png width =""200"" height = ""200"" style = ""float:right""></p><p><img src=images/blank.png width =""800"" height = ""200""></p>","","","","","","","","","","","",""
"","1793","sequential-stimulus-presentation","49","224651","0.0-14.0-1.2","SS1613170069241","trial","","40","800","2593","images/stimuli/spore_stims/simple_15_A_c.gif","images/stimuli/spore_stims/simple_20_B_a.gif","","","","","2","simple_dissimilar","images/stimuli/spore_stims/simple_15_A_c.gif","middle","","","","",""
"","null","html-keyboard-response","50","225558","0.0-14.0-0.3","SS1613170069241","","","null","","","","","<p><img src= images/blank.png width =""200"" height = ""200"" style = ""float:right""></p><p><img src=images/blank.png width =""800"" height = ""200""></p>","","","","","","","","","","","",""
"","1541","sequential-stimulus-presentation","51","227920","0.0-14.0-1.3","SS1613170069241","trial","","40","800","2341","images/stimuli/spore_stims/simple_15_A_c.gif","images/stimuli/spore_stims/simple_20_B_a.gif","","","","","2","simple_dissimilar","images/stimuli/spore_stims/simple_20_B_a.gif","left","","","","",""
"","null","html-keyboard-response","52","228878","0.0-14.0-0.4","SS1613170069241","","","null","","","","","<p><img src= images/blank.png width =""200"" height = ""200"" style = ""float:right""></p><p><img src=images/blank.png width =""800"" height = ""200""></p>","","","","","","","","","","","",""
"","1599","sequential-stimulus-presentation","53","231297","0.0-14.0-1.4","SS1613170069241","trial","","40","800","2399","images/stimuli/spore_stims/simple_15_A_c.gif","images/stimuli/spore_stims/simple_20_B_a.gif","","","","","2","simple_dissimilar","images/stimuli/spore_stims/simple_20_B_a.gif","left","","","","",""
"","null","html-keyboard-response","54","232148","0.0-14.0-0.5","SS1613170069241","","","null","","","","","<p><img src= images/blank.png width =""200"" height = ""200"" style = ""float:right""></p><p><img src=images/blank.png width =""800"" height = ""200""></p>","","","","","","","","","","","",""
"","1705","sequential-stimulus-presentation","55","234674","0.0-14.0-1.5","SS1613170069241","trial","","40","800","2505","images/stimuli/spore_stims/simple_15_A_c.gif","images/stimuli/spore_stims/simple_20_B_a.gif","","","","","2","simple_dissimilar","images/stimuli/spore_stims/simple_20_B_a.gif","left","","","","",""
"","null","html-keyboard-response","56","235548","0.0-14.0-0.6","SS1613170069241","","","null","","","","","<p><img src= images/blank.png width =""200"" height = ""200"" style = ""float:right""></p><p><img src=images/blank.png width =""800"" height = ""200""></p>","","","","","","","","","","","",""
"","1875","sequential-stimulus-presentation","57","238245","0.0-14.0-1.6","SS1613170069241","trial","","40","800","2675","images/stimuli/spore_stims/simple_15_A_c.gif","images/stimuli/spore_stims/simple_20_B_a.gif","","","","","2","simple_dissimilar","images/stimuli/spore_stims/simple_20_B_a.gif","left","","","","",""
"","null","html-keyboard-response","58","239426","0.0-14.0-0.7","SS1613170069241","","","null","","","","","<p><img src= images/blank.png width =""200"" height = ""200"" style = ""float:right""></p><p><img src=images/blank.png width =""800"" height = ""200""></p>","","","","","","","","","","","",""
"","3291","sequential-stimulus-presentation","59","243529","0.0-14.0-1.7","SS1613170069241","trial","","40","800","4091","images/stimuli/spore_stims/simple_15_A_c.gif","images/stimuli/spore_stims/simple_20_B_a.gif","","","","","2","simple_dissimilar","images/stimuli/spore_stims/simple_20_B_a.gif","left","","","","",""
"","1631","html-keyboard-response","60","245166","0.0-15.0","SS1613170069241","pref_question","","51","","","","","<video width ='960' height = '540' style='padding-top:8%' autoplay muted><source src='images/stimuli/wall_pref.mp4' type='video/mp4'></video>","3","right","66%","2","","","","","","","",""
"","3252","sequential-stimulus-presentation","61","249230","0.0-16.0","SS1613170069241","pref_reveal","","40","800","4052","null","null","","","","","2","","","","novel","","","",""
"","null","html-keyboard-response","62","250098","0.0-17.0-0.0","SS1613170069241","","","null","","","","","<p><img src= images/blank.png width =""200"" height = ""200"" style = ""float:right""></p><p><img src=images/blank.png width =""800"" height = ""200""></p>","","","","","","","","","","","",""
"","1849","sequential-stimulus-presentation","63","252767","0.0-17.0-1.0","SS1613170069241","trial","","40","800","2649","images/stimuli/spore_stims/complex_11_B_b.gif","images/stimuli/spore_stims/complex_11_A_b.gif","","","","","3","complex_similar","images/stimuli/spore_stims/complex_11_A_b.gif","right","","","","",""
"","null","html-keyboard-response","64","253598","0.0-17.0-0.1","SS1613170069241","","","null","","","","","<p><img src= images/blank.png width =""200"" height = ""200"" style = ""float:right""></p><p><img src=images/blank.png width =""800"" height = ""200""></p>","","","","","","","","","","","",""
"","1215","sequential-stimulus-presentation","65","255633","0.0-17.0-1.1","SS1613170069241","trial","","40","800","2015","images/stimuli/spore_stims/complex_11_B_b.gif","images/stimuli/spore_stims/complex_11_A_b.gif","","","","","3","complex_similar","images/stimuli/spore_stims/complex_11_A_b.gif","right","","","","",""
"","null","html-keyboard-response","66","256458","0.0-17.0-0.2","SS1613170069241","","","null","","","","","<p><img src= images/blank.png width =""200"" height = ""200"" style = ""float:right""></p><p><img src=images/blank.png width =""800"" height = ""200""></p>","","","","","","","","","","","",""
"","1505","sequential-stimulus-presentation","67","258783","0.0-17.0-1.2","SS1613170069241","trial","","40","800","2305","images/stimuli/spore_stims/complex_11_B_b.gif","images/stimuli/spore_stims/complex_11_A_b.gif","","","","","3","complex_similar","images/stimuli/spore_stims/complex_11_A_b.gif","right","","","","",""
"","null","html-keyboard-response","68","259679","0.0-17.0-0.3","SS1613170069241","","","null","","","","","<p><img src= images/blank.png width =""200"" height = ""200"" style = ""float:right""></p><p><img src=images/blank.png width =""800"" height = ""200""></p>","","","","","","","","","","","",""
"","1047","sequential-stimulus-presentation","69","261544","0.0-17.0-1.3","SS1613170069241","trial","","40","800","1847","images/stimuli/spore_stims/complex_11_B_b.gif","images/stimuli/spore_stims/complex_11_A_b.gif","","","","","3","complex_similar","images/stimuli/spore_stims/complex_11_A_b.gif","right","","","","",""
"","null","html-keyboard-response","70","262588","0.0-17.0-0.4","SS1613170069241","","","null","","","","","<p><img src= images/blank.png width =""200"" height = ""200"" style = ""float:right""></p><p><img src=images/blank.png width =""800"" height = ""200""></p>","","","","","","","","","","","",""
"","1259","sequential-stimulus-presentation","71","264659","0.0-17.0-1.4","SS1613170069241","trial","","40","800","2059","images/stimuli/spore_stims/complex_11_B_b.gif","images/stimuli/spore_stims/complex_11_A_b.gif","","","","","3","complex_similar","images/stimuli/spore_stims/complex_11_A_b.gif","right","","","","",""
"","null","html-keyboard-response","72","265798","0.0-17.0-0.5","SS1613170069241","","","null","","","","","<p><img src= images/blank.png width =""200"" height = ""200"" style = ""float:right""></p><p><img src=images/blank.png width =""800"" height = ""200""></p>","","","","","","","","","","","",""
"","1294","sequential-stimulus-presentation","73","267914","0.0-17.0-1.5","SS1613170069241","trial","","40","800","2094","images/stimuli/spore_stims/complex_11_B_b.gif","images/stimuli/spore_stims/complex_11_A_b.gif","","","","","3","complex_similar","images/stimuli/spore_stims/complex_11_B_b.gif","middle","","","","",""
"","null","html-keyboard-response","74","268828","0.0-17.0-0.6","SS1613170069241","","","null","","","","","<p><img src= images/blank.png width =""200"" height = ""200"" style = ""float:right""></p><p><img src=images/blank.png width =""800"" height = ""200""></p>","","","","","","","","","","","",""
"","810","sequential-stimulus-presentation","75","270458","0.0-17.0-1.6","SS1613170069241","trial","","40","800","1610","images/stimuli/spore_stims/complex_11_B_b.gif","images/stimuli/spore_stims/complex_11_A_b.gif","","","","","3","complex_similar","images/stimuli/spore_stims/complex_11_A_b.gif","right","","","","",""
"","null","html-keyboard-response","76","271728","0.0-17.0-0.7","SS1613170069241","","","null","","","","","<p><img src= images/blank.png width =""200"" height = ""200"" style = ""float:right""></p><p><img src=images/blank.png width =""800"" height = ""200""></p>","","","","","","","","","","","",""
"","764","sequential-stimulus-presentation","77","273312","0.0-17.0-1.7","SS1613170069241","trial","","40","800","1564","images/stimuli/spore_stims/complex_11_B_b.gif","images/stimuli/spore_stims/complex_11_A_b.gif","","","","","3","complex_similar","images/stimuli/spore_stims/complex_11_A_b.gif","right","","","","",""
"","1773","html-keyboard-response","78","275090","0.0-18.0","SS1613170069241","pref_question","","49","","","","","<video width ='960' height = '540' style='padding-top:8%' autoplay muted><source src='images/stimuli/wall_pref.mp4' type='video/mp4'></video>","1","left","25%","3","","","","","","","",""
"","2534","sequential-stimulus-presentation","79","278432","0.0-19.0","SS1613170069241","pref_reveal","","40","800","3334","null","null","","","","","3","","","","novel","","","",""
"","null","html-keyboard-response","80","279473","0.0-20.0-0.0","SS1613170069241","","","null","","","","","<p><img src= images/blank.png width =""200"" height = ""200"" style = ""float:right""></p><p><img src=images/blank.png width =""800"" height = ""200""></p>","","","","","","","","","","","",""
"","1863","sequential-stimulus-presentation","81","282151","0.0-20.0-1.0","SS1613170069241","trial","","40","800","2663","images/stimuli/spore_stims/complex_09_A_a.gif","images/stimuli/spore_stims/complex_09_B_a.gif","","","","","4","complex_similar","images/stimuli/spore_stims/complex_09_B_a.gif","left","","","","",""
"","null","html-keyboard-response","82","283229","0.0-20.0-0.1","SS1613170069241","","","null","","","","","<p><img src= images/blank.png width =""200"" height = ""200"" style = ""float:right""></p><p><img src=images/blank.png width =""800"" height = ""200""></p>","","","","","","","","","","","",""
"","1876","sequential-stimulus-presentation","83","285924","0.0-20.0-1.1","SS1613170069241","trial","","40","800","2676","images/stimuli/spore_stims/complex_09_A_a.gif","images/stimuli/spore_stims/complex_09_B_a.gif","","","","","4","complex_similar","images/stimuli/spore_stims/complex_09_B_a.gif","left","","","","",""
"","null","html-keyboard-response","84","286858","0.0-20.0-0.2","SS1613170069241","","","null","","","","","<p><img src= images/blank.png width =""200"" height = ""200"" style = ""float:right""></p><p><img src=images/blank.png width =""800"" height = ""200""></p>","","","","","","","","","","","",""
"","712","sequential-stimulus-presentation","85","288391","0.0-20.0-1.2","SS1613170069241","trial","","40","800","1512","images/stimuli/spore_stims/complex_09_A_a.gif","images/stimuli/spore_stims/complex_09_B_a.gif","","","","","4","complex_similar","images/stimuli/spore_stims/complex_09_B_a.gif","left","","","","",""
"","null","html-keyboard-response","86","289359","0.0-20.0-0.3","SS1613170069241","","","null","","","","","<p><img src= images/blank.png width =""200"" height = ""200"" style = ""float:right""></p><p><img src=images/blank.png width =""800"" height = ""200""></p>","","","","","","","","","","","",""
"","479","sequential-stimulus-presentation","87","290658","0.0-20.0-1.3","SS1613170069241","trial","","40","800","1279","images/stimuli/spore_stims/complex_09_A_a.gif","images/stimuli/spore_stims/complex_09_B_a.gif","","","","","4","complex_similar","images/stimuli/spore_stims/complex_09_B_a.gif","left","","","","",""
"","null","html-keyboard-response","88","291858","0.0-20.0-0.4","SS1613170069241","","","null","","","","","<p><img src= images/blank.png width =""200"" height = ""200"" style = ""float:right""></p><p><img src=images/blank.png width =""800"" height = ""200""></p>","","","","","","","","","","","",""
"","950","sequential-stimulus-presentation","89","293630","0.0-20.0-1.4","SS1613170069241","trial","","40","800","1750","images/stimuli/spore_stims/complex_09_A_a.gif","images/stimuli/spore_stims/complex_09_B_a.gif","","","","","4","complex_similar","images/stimuli/spore_stims/complex_09_B_a.gif","left","","","","",""
"","null","html-keyboard-response","90","294738","0.0-20.0-0.5","SS1613170069241","","","null","","","","","<p><img src= images/blank.png width =""200"" height = ""200"" style = ""float:right""></p><p><img src=images/blank.png width =""800"" height = ""200""></p>","","","","","","","","","","","",""
"","769","sequential-stimulus-presentation","91","296327","0.0-20.0-1.5","SS1613170069241","trial","","40","800","1569","images/stimuli/spore_stims/complex_09_A_a.gif","images/stimuli/spore_stims/complex_09_B_a.gif","","","","","4","complex_similar","images/stimuli/spore_stims/complex_09_B_a.gif","left","","","","",""
"","null","html-keyboard-response","92","297198","0.0-20.0-0.6","SS1613170069241","","","null","","","","","<p><img src= images/blank.png width =""200"" height = ""200"" style = ""float:right""></p><p><img src=images/blank.png width =""800"" height = ""200""></p>","","","","","","","","","","","",""
"","691","sequential-stimulus-presentation","93","298710","0.0-20.0-1.6","SS1613170069241","trial","","40","800","1491","images/stimuli/spore_stims/complex_09_A_a.gif","images/stimuli/spore_stims/complex_09_B_a.gif","","","","","4","complex_similar","images/stimuli/spore_stims/complex_09_B_a.gif","left","","","","",""
"","null","html-keyboard-response","94","299828","0.0-20.0-0.7","SS1613170069241","","","null","","","","","<p><img src= images/blank.png width =""200"" height = ""200"" style = ""float:right""></p><p><img src=images/blank.png width =""800"" height = ""200""></p>","","","","","","","","","","","",""
"","1364","sequential-stimulus-presentation","95","302003","0.0-20.0-1.7","SS1613170069241","trial","","40","800","2164","images/stimuli/spore_stims/complex_09_A_a.gif","images/stimuli/spore_stims/complex_09_B_a.gif","","","","","4","complex_similar","images/stimuli/spore_stims/complex_09_A_a.gif","right","","","","",""
"","1912","html-keyboard-response","96","303919","0.0-21.0","SS1613170069241","pref_question","","50","","","","","<video width ='960' height = '540' style='padding-top:8%' autoplay muted><source src='images/stimuli/wall_pref.mp4' type='video/mp4'></video>","2","middle","45%","4","","","","","","","",""
"","1700","sequential-stimulus-presentation","97","306429","0.0-22.0","SS1613170069241","pref_reveal","","40","800","2500","null","null","","","","","4","","","","novel","","","",""
"","null","html-keyboard-response","98","307338","0.0-23.0-0.0","SS1613170069241","","","null","","","","","<p><img src= images/blank.png width =""200"" height = ""200"" style = ""float:right""></p><p><img src=images/blank.png width =""800"" height = ""200""></p>","","","","","","","","","","","",""
"","1621","sequential-stimulus-presentation","99","309780","0.0-23.0-1.0","SS1613170069241","trial","","40","800","2421","images/stimuli/spore_stims/complex_08_A_c.gif","images/stimuli/spore_stims/complex_20_A_d.gif","","","","","5","complex_dissimilar","images/stimuli/spore_stims/complex_20_A_d.gif","right","","","","",""
"","null","html-keyboard-response","100","310679","0.0-23.0-0.1","SS1613170069241","","","null","","","","","<p><img src= images/blank.png width =""200"" height = ""200"" style = ""float:right""></p><p><img src=images/blank.png width =""800"" height = ""200""></p>","","","","","","","","","","","",""
"","937","sequential-stimulus-presentation","101","312435","0.0-23.0-1.1","SS1613170069241","trial","","40","800","1737","images/stimuli/spore_stims/complex_08_A_c.gif","images/stimuli/spore_stims/complex_20_A_d.gif","","","","","5","complex_dissimilar","images/stimuli/spore_stims/complex_20_A_d.gif","right","","","","",""
"","null","html-keyboard-response","102","313328","0.0-23.0-0.2","SS1613170069241","","","null","","","","","<p><img src= images/blank.png width =""200"" height = ""200"" style = ""float:right""></p><p><img src=images/blank.png width =""800"" height = ""200""></p>","","","","","","","","","","","",""
"","858","sequential-stimulus-presentation","103","315007","0.0-23.0-1.2","SS1613170069241","trial","","40","800","1658","images/stimuli/spore_stims/complex_08_A_c.gif","images/stimuli/spore_stims/complex_20_A_d.gif","","","","","5","complex_dissimilar","images/stimuli/spore_stims/complex_20_A_d.gif","right","","","","",""
"","null","html-keyboard-response","104","316118","0.0-23.0-0.3","SS1613170069241","","","null","","","","","<p><img src= images/blank.png width =""200"" height = ""200"" style = ""float:right""></p><p><img src=images/blank.png width =""800"" height = ""200""></p>","","","","","","","","","","","",""
"","772","sequential-stimulus-presentation","105","317711","0.0-23.0-1.3","SS1613170069241","trial","","40","800","1572","images/stimuli/spore_stims/complex_08_A_c.gif","images/stimuli/spore_stims/complex_20_A_d.gif","","","","","5","complex_dissimilar","images/stimuli/spore_stims/complex_20_A_d.gif","right","","","","",""
"","null","html-keyboard-response","106","318578","0.0-23.0-0.4","SS1613170069241","","","null","","","","","<p><img src= images/blank.png width =""200"" height = ""200"" style = ""float:right""></p><p><img src=images/blank.png width =""800"" height = ""200""></p>","","","","","","","","","","","",""
"","571","sequential-stimulus-presentation","107","319970","0.0-23.0-1.4","SS1613170069241","trial","","40","800","1371","images/stimuli/spore_stims/complex_08_A_c.gif","images/stimuli/spore_stims/complex_20_A_d.gif","","","","","5","complex_dissimilar","images/stimuli/spore_stims/complex_20_A_d.gif","right","","","","",""
"","null","html-keyboard-response","108","320908","0.0-23.0-0.5","SS1613170069241","","","null","","","","","<p><img src= images/blank.png width =""200"" height = ""200"" style = ""float:right""></p><p><img src=images/blank.png width =""800"" height = ""200""></p>","","","","","","","","","","","",""
"","817","sequential-stimulus-presentation","109","322545","0.0-23.0-1.5","SS1613170069241","trial","","40","800","1617","images/stimuli/spore_stims/complex_08_A_c.gif","images/stimuli/spore_stims/complex_20_A_d.gif","","","","","5","complex_dissimilar","images/stimuli/spore_stims/complex_20_A_d.gif","right","","","","",""
"","null","html-keyboard-response","110","323649","0.0-23.0-0.6","SS1613170069241","","","null","","","","","<p><img src= images/blank.png width =""200"" height = ""200"" style = ""float:right""></p><p><img src=images/blank.png width =""800"" height = ""200""></p>","","","","","","","","","","","",""
"","978","sequential-stimulus-presentation","111","325446","0.0-23.0-1.6","SS1613170069241","trial","","40","800","1778","images/stimuli/spore_stims/complex_08_A_c.gif","images/stimuli/spore_stims/complex_20_A_d.gif","","","","","5","complex_dissimilar","images/stimuli/spore_stims/complex_20_A_d.gif","right","","","","",""
"","null","html-keyboard-response","112","326428","0.0-23.0-0.7","SS1613170069241","","","null","","","","","<p><img src= images/blank.png width =""200"" height = ""200"" style = ""float:right""></p><p><img src=images/blank.png width =""800"" height = ""200""></p>","","","","","","","","","","","",""
"","2603","sequential-stimulus-presentation","113","329852","0.0-23.0-1.7","SS1613170069241","trial","","40","800","3403","images/stimuli/spore_stims/complex_08_A_c.gif","images/stimuli/spore_stims/complex_20_A_d.gif","","","","","5","complex_dissimilar","images/stimuli/spore_stims/complex_08_A_c.gif","middle","","","","",""
"","1998","html-keyboard-response","114","331856","0.0-24.0","SS1613170069241","pref_question","","49","","","","","<video width ='960' height = '540' style='padding-top:8%' autoplay muted><source src='images/stimuli/wall_pref.mp4' type='video/mp4'></video>","1","left","25%","5","","","","","","","",""
"","2213","sequential-stimulus-presentation","115","334894","0.0-25.0","SS1613170069241","pref_reveal","","40","800","3013","null","null","","","","","5","","","","novel","","","",""
"","null","html-keyboard-response","116","335718","0.0-26.0-0.0","SS1613170069241","","","null","","","","","<p><img src= images/blank.png width =""200"" height = ""200"" style = ""float:right""></p><p><img src=images/blank.png width =""800"" height = ""200""></p>","","","","","","","","","","","",""
"","1346","sequential-stimulus-presentation","117","337887","0.0-26.0-1.0","SS1613170069241","trial","","40","800","2146","images/stimuli/spore_stims/simple_15_B_d.gif","images/stimuli/spore_stims/simple_05_A_c.gif","","","","","6","simple_dissimilar","images/stimuli/spore_stims/simple_05_A_c.gif","middle","","","","",""
"","null","html-keyboard-response","118","339178","0.0-26.0-0.1","SS1613170069241","","","null","","","","","<p><img src= images/blank.png width =""200"" height = ""200"" style = ""float:right""></p><p><img src=images/blank.png width =""800"" height = ""200""></p>","","","","","","","","","","","",""
"","1399","sequential-stimulus-presentation","119","341398","0.0-26.0-1.1","SS1613170069241","trial","","40","800","2199","images/stimuli/spore_stims/simple_15_B_d.gif","images/stimuli/spore_stims/simple_05_A_c.gif","","","","","6","simple_dissimilar","images/stimuli/spore_stims/simple_05_A_c.gif","middle","","","","",""
"","null","html-keyboard-response","120","342628","0.0-26.0-0.2","SS1613170069241","","","null","","","","","<p><img src= images/blank.png width =""200"" height = ""200"" style = ""float:right""></p><p><img src=images/blank.png width =""800"" height = ""200""></p>","","","","","","","","","","","",""
"","1053","sequential-stimulus-presentation","121","344491","0.0-26.0-1.2","SS1613170069241","trial","","40","800","1853","images/stimuli/spore_stims/simple_15_B_d.gif","images/stimuli/spore_stims/simple_05_A_c.gif","","","","","6","simple_dissimilar","images/stimuli/spore_stims/simple_15_B_d.gif","left","","","","",""
"","null","html-keyboard-response","122","345534","0.0-26.0-0.3","SS1613170069241","","","null","","","","","<p><img src= images/blank.png width =""200"" height = ""200"" style = ""float:right""></p><p><img src=images/blank.png width =""800"" height = ""200""></p>","","","","","","","","","","","",""
"","2076","sequential-stimulus-presentation","123","348435","0.0-26.0-1.3","SS1613170069241","trial","","40","800","2876","images/stimuli/spore_stims/simple_15_B_d.gif","images/stimuli/spore_stims/simple_05_A_c.gif","","","","","6","simple_dissimilar","images/stimuli/spore_stims/simple_05_A_c.gif","middle","","","","",""
"","null","html-keyboard-response","124","349598","0.0-26.0-0.4","SS1613170069241","","","null","","","","","<p><img src= images/blank.png width =""200"" height = ""200"" style = ""float:right""></p><p><img src=images/blank.png width =""800"" height = ""200""></p>","","","","","","","","","","","",""
"","2210","sequential-stimulus-presentation","125","352619","0.0-26.0-1.4","SS1613170069241","trial","","40","800","3010","images/stimuli/spore_stims/simple_15_B_d.gif","images/stimuli/spore_stims/simple_05_A_c.gif","","","","","6","simple_dissimilar","images/stimuli/spore_stims/simple_05_A_c.gif","middle","","","","",""
"","null","html-keyboard-response","126","353668","0.0-26.0-0.5","SS1613170069241","","","null","","","","","<p><img src= images/blank.png width =""200"" height = ""200"" style = ""float:right""></p><p><img src=images/blank.png width =""800"" height = ""200""></p>","","","","","","","","","","","",""
"","1538","sequential-stimulus-presentation","127","356016","0.0-26.0-1.5","SS1613170069241","trial","","40","800","2338","images/stimuli/spore_stims/simple_15_B_d.gif","images/stimuli/spore_stims/simple_05_A_c.gif","","","","","6","simple_dissimilar","images/stimuli/spore_stims/simple_05_A_c.gif","middle","","","","",""
"","null","html-keyboard-response","128","356918","0.0-26.0-0.6","SS1613170069241","","","null","","","","","<p><img src= images/blank.png width =""200"" height = ""200"" style = ""float:right""></p><p><img src=images/blank.png width =""800"" height = ""200""></p>","","","","","","","","","","","",""
"","761","sequential-stimulus-presentation","129","358500","0.0-26.0-1.6","SS1613170069241","trial","","40","800","1561","images/stimuli/spore_stims/simple_15_B_d.gif","images/stimuli/spore_stims/simple_05_A_c.gif","","","","","6","simple_dissimilar","images/stimuli/spore_stims/simple_05_A_c.gif","middle","","","","",""
"","null","html-keyboard-response","130","359659","0.0-26.0-0.7","SS1613170069241","","","null","","","","","<p><img src= images/blank.png width =""200"" height = ""200"" style = ""float:right""></p><p><img src=images/blank.png width =""800"" height = ""200""></p>","","","","","","","","","","","",""
"","785","sequential-stimulus-presentation","131","361264","0.0-26.0-1.7","SS1613170069241","trial","","40","800","1585","images/stimuli/spore_stims/simple_15_B_d.gif","images/stimuli/spore_stims/simple_05_A_c.gif","","","","","6","simple_dissimilar","images/stimuli/spore_stims/simple_05_A_c.gif","middle","","","","",""
"","2069","html-keyboard-response","132","363343","0.0-27.0","SS1613170069241","pref_question","","51","","","","","<video width ='960' height = '540' style='padding-top:8%' autoplay muted><source src='images/stimuli/wall_pref.mp4' type='video/mp4'></video>","3","right","66%","6","","","","","","","",""
"","1886","sequential-stimulus-presentation","133","366044","0.0-28.0","SS1613170069241","pref_reveal","","40","800","2686","null","null","","","","","6","","","","novel","","","",""
"","null","html-keyboard-response","134","366948","0.0-29.0-0.0","SS1613170069241","","","null","","","","","<p><img src= images/blank.png width =""200"" height = ""200"" style = ""float:right""></p><p><img src=images/blank.png width =""800"" height = ""200""></p>","","","","","","","","","","","",""
"","1187","sequential-stimulus-presentation","135","368956","0.0-29.0-1.0","SS1613170069241","trial","","40","800","1987","images/stimuli/spore_stims/simple_19_B_d.gif","images/stimuli/spore_stims/simple_19_A_d.gif","","","","","7","simple_similar","images/stimuli/spore_stims/simple_19_A_d.gif","right","","","","",""
"","null","html-keyboard-response","136","370228","0.0-29.0-0.1","SS1613170069241","","","null","","","","","<p><img src= images/blank.png width =""200"" height = ""200"" style = ""float:right""></p><p><img src=images/blank.png width =""800"" height = ""200""></p>","","","","","","","","","","","",""
"","1017","sequential-stimulus-presentation","137","372066","0.0-29.0-1.1","SS1613170069241","trial","","40","800","1817","images/stimuli/spore_stims/simple_19_B_d.gif","images/stimuli/spore_stims/simple_19_A_d.gif","","","","","7","simple_similar","images/stimuli/spore_stims/simple_19_A_d.gif","right","","","","",""
"","null","html-keyboard-response","138","373328","0.0-29.0-0.2","SS1613170069241","","","null","","","","","<p><img src= images/blank.png width =""200"" height = ""200"" style = ""float:right""></p><p><img src=images/blank.png width =""800"" height = ""200""></p>","","","","","","","","","","","",""
"","452","sequential-stimulus-presentation","139","374601","0.0-29.0-1.2","SS1613170069241","trial","","40","800","1252","images/stimuli/spore_stims/simple_19_B_d.gif","images/stimuli/spore_stims/simple_19_A_d.gif","","","","","7","simple_similar","images/stimuli/spore_stims/simple_19_A_d.gif","right","","","","",""
"","null","html-keyboard-response","140","375678","0.0-29.0-0.3","SS1613170069241","","","null","","","","","<p><img src= images/blank.png width =""200"" height = ""200"" style = ""float:right""></p><p><img src=images/blank.png width =""800"" height = ""200""></p>","","","","","","","","","","","",""
"","1073","sequential-stimulus-presentation","141","377572","0.0-29.0-1.3","SS1613170069241","trial","","40","800","1873","images/stimuli/spore_stims/simple_19_B_d.gif","images/stimuli/spore_stims/simple_19_A_d.gif","","","","","7","simple_similar","images/stimuli/spore_stims/simple_19_A_d.gif","right","","","","",""
"","null","html-keyboard-response","142","378638","0.0-29.0-0.4","SS1613170069241","","","null","","","","","<p><img src= images/blank.png width =""200"" height = ""200"" style = ""float:right""></p><p><img src=images/blank.png width =""800"" height = ""200""></p>","","","","","","","","","","","",""
"","843","sequential-stimulus-presentation","143","380301","0.0-29.0-1.4","SS1613170069241","trial","","40","800","1643","images/stimuli/spore_stims/simple_19_B_d.gif","images/stimuli/spore_stims/simple_19_A_d.gif","","","","","7","simple_similar","images/stimuli/spore_stims/simple_19_A_d.gif","right","","","","",""
"","null","html-keyboard-response","144","381538","0.0-29.0-0.5","SS1613170069241","","","null","","","","","<p><img src= images/blank.png width =""200"" height = ""200"" style = ""float:right""></p><p><img src=images/blank.png width =""800"" height = ""200""></p>","","","","","","","","","","","",""
"","1091","sequential-stimulus-presentation","145","383450","0.0-29.0-1.5","SS1613170069241","trial","","40","800","1891","images/stimuli/spore_stims/simple_19_B_d.gif","images/stimuli/spore_stims/simple_19_A_d.gif","","","","","7","simple_similar","images/stimuli/spore_stims/simple_19_A_d.gif","right","","","","",""
"","null","html-keyboard-response","146","384658","0.0-29.0-0.6","SS1613170069241","","","null","","","","","<p><img src= images/blank.png width =""200"" height = ""200"" style = ""float:right""></p><p><img src=images/blank.png width =""800"" height = ""200""></p>","","","","","","","","","","","",""
"","2395","sequential-stimulus-presentation","147","387875","0.0-29.0-1.6","SS1613170069241","trial","","40","800","3195","images/stimuli/spore_stims/simple_19_B_d.gif","images/stimuli/spore_stims/simple_19_A_d.gif","","","","","7","simple_similar","images/stimuli/spore_stims/simple_19_B_d.gif","middle","","","","",""
"","null","html-keyboard-response","148","388788","0.0-29.0-0.7","SS1613170069241","","","null","","","","","<p><img src= images/blank.png width =""200"" height = ""200"" style = ""float:right""></p><p><img src=images/blank.png width =""800"" height = ""200""></p>","","","","","","","","","","","",""
"","635","sequential-stimulus-presentation","149","390244","0.0-29.0-1.7","SS1613170069241","trial","","40","800","1435","images/stimuli/spore_stims/simple_19_B_d.gif","images/stimuli/spore_stims/simple_19_A_d.gif","","","","","7","simple_similar","images/stimuli/spore_stims/simple_19_A_d.gif","right","","","","",""
"","1835","html-keyboard-response","150","392085","0.0-30.0","SS1613170069241","pref_question","","49","","","","","<video width ='960' height = '540' style='padding-top:8%' autoplay muted><source src='images/stimuli/wall_pref.mp4' type='video/mp4'></video>","1","left","25%","7","","","","","","","",""
"","2223","sequential-stimulus-presentation","151","395133","0.0-31.0","SS1613170069241","pref_reveal","","40","800","3023","null","null","","","","","7","","","","novel","","","",""
"","null","html-keyboard-response","152","396378","0.0-32.0-0.0","SS1613170069241","","","null","","","","","<p><img src= images/blank.png width =""200"" height = ""200"" style = ""float:right""></p><p><img src=images/blank.png width =""800"" height = ""200""></p>","","","","","","","","","","","",""
"","1185","sequential-stimulus-presentation","153","398384","0.0-32.0-1.0","SS1613170069241","trial","","40","800","1985","images/stimuli/spore_stims/simple_07_A_a.gif","images/stimuli/spore_stims/simple_07_B_a.gif","","","","","8","simple_similar","images/stimuli/spore_stims/simple_07_B_a.gif","middle","","","","",""
"","null","html-keyboard-response","154","399638","0.0-32.0-0.1","SS1613170069241","","","null","","","","","<p><img src= images/blank.png width =""200"" height = ""200"" style = ""float:right""></p><p><img src=images/blank.png width =""800"" height = ""200""></p>","","","","","","","","","","","",""
"","965","sequential-stimulus-presentation","155","401425","0.0-32.0-1.1","SS1613170069241","trial","","40","800","1765","images/stimuli/spore_stims/simple_07_A_a.gif","images/stimuli/spore_stims/simple_07_B_a.gif","","","","","8","simple_similar","images/stimuli/spore_stims/simple_07_B_a.gif","middle","","","","",""
"","null","html-keyboard-response","156","402718","0.0-32.0-0.2","SS1613170069241","","","null","","","","","<p><img src= images/blank.png width =""200"" height = ""200"" style = ""float:right""></p><p><img src=images/blank.png width =""800"" height = ""200""></p>","","","","","","","","","","","",""
"","1261","sequential-stimulus-presentation","157","404799","0.0-32.0-1.2","SS1613170069241","trial","","40","800","2061","images/stimuli/spore_stims/simple_07_A_a.gif","images/stimuli/spore_stims/simple_07_B_a.gif","","","","","8","simple_similar","images/stimuli/spore_stims/simple_07_A_a.gif","right","","","","",""
"","null","html-keyboard-response","158","405799","0.0-32.0-0.3","SS1613170069241","","","null","","","","","<p><img src= images/blank.png width =""200"" height = ""200"" style = ""float:right""></p><p><img src=images/blank.png width =""800"" height = ""200""></p>","","","","","","","","","","","",""
"","1458","sequential-stimulus-presentation","159","408076","0.0-32.0-1.3","SS1613170069241","trial","","40","800","2258","images/stimuli/spore_stims/simple_07_A_a.gif","images/stimuli/spore_stims/simple_07_B_a.gif","","","","","8","simple_similar","images/stimuli/spore_stims/simple_07_B_a.gif","middle","","","","",""
"","null","html-keyboard-response","160","409368","0.0-32.0-0.4","SS1613170069241","","","null","","","","","<p><img src= images/blank.png width =""200"" height = ""200"" style = ""float:right""></p><p><img src=images/blank.png width =""800"" height = ""200""></p>","","","","","","","","","","","",""
"","1287","sequential-stimulus-presentation","161","411475","0.0-32.0-1.4","SS1613170069241","trial","","40","800","2087","images/stimuli/spore_stims/simple_07_A_a.gif","images/stimuli/spore_stims/simple_07_B_a.gif","","","","","8","simple_similar","images/stimuli/spore_stims/simple_07_B_a.gif","middle","","","","",""
"","null","html-keyboard-response","162","412388","0.0-32.0-0.5","SS1613170069241","","","null","","","","","<p><img src= images/blank.png width =""200"" height = ""200"" style = ""float:right""></p><p><img src=images/blank.png width =""800"" height = ""200""></p>","","","","","","","","","","","",""
"","1004","sequential-stimulus-presentation","163","414212","0.0-32.0-1.5","SS1613170069241","trial","","40","800","1804","images/stimuli/spore_stims/simple_07_A_a.gif","images/stimuli/spore_stims/simple_07_B_a.gif","","","","","8","simple_similar","images/stimuli/spore_stims/simple_07_B_a.gif","middle","","","","",""
"","null","html-keyboard-response","164","415359","0.0-32.0-0.6","SS1613170069241","","","null","","","","","<p><img src= images/blank.png width =""200"" height = ""200"" style = ""float:right""></p><p><img src=images/blank.png width =""800"" height = ""200""></p>","","","","","","","","","","","",""
"","3390","sequential-stimulus-presentation","165","419564","0.0-32.0-1.6","SS1613170069241","trial","","40","800","4190","images/stimuli/spore_stims/simple_07_A_a.gif","images/stimuli/spore_stims/simple_07_B_a.gif","","","","","8","simple_similar","images/stimuli/spore_stims/simple_07_B_a.gif","middle","","","","",""
"","null","html-keyboard-response","166","420738","0.0-32.0-0.7","SS1613170069241","","","null","","","","","<p><img src= images/blank.png width =""200"" height = ""200"" style = ""float:right""></p><p><img src=images/blank.png width =""800"" height = ""200""></p>","","","","","","","","","","","",""
"","1161","sequential-stimulus-presentation","167","422720","0.0-32.0-1.7","SS1613170069241","trial","","40","800","1961","images/stimuli/spore_stims/simple_07_A_a.gif","images/stimuli/spore_stims/simple_07_B_a.gif","","","","","8","simple_similar","images/stimuli/spore_stims/simple_07_B_a.gif","middle","","","","",""
"","985","html-keyboard-response","168","423714","0.0-33.0","SS1613170069241","pref_question","","49","","","","","<video width ='960' height = '540' style='padding-top:8%' autoplay muted><source src='images/stimuli/wall_pref.mp4' type='video/mp4'></video>","1","left","25%","8","","","","","","","",""
"","2042","sequential-stimulus-presentation","169","426580","0.0-34.0","SS1613170069241","pref_reveal","","40","800","2842","null","null","","","","","8","","","","novel","","","",""
"","null","html-keyboard-response","170","427579","0.0-35.0-0.0","SS1613170069241","","","null","","","","","<p><img src= images/blank.png width =""200"" height = ""200"" style = ""float:right""></p><p><img src=images/blank.png width =""800"" height = ""200""></p>","","","","","","","","","","","",""
"","1012","sequential-stimulus-presentation","171","429412","0.0-35.0-1.0","SS1613170069241","trial","","40","800","1812","images/stimuli/spore_stims/simple_16_A_b.gif","images/stimuli/spore_stims/simple_16_B_b.gif","","","","","9","simple_similar","images/stimuli/spore_stims/simple_16_B_b.gif","middle","","","","",""
"","null","html-keyboard-response","172","430238","0.0-35.0-0.1","SS1613170069241","","","null","","","","","<p><img src= images/blank.png width =""200"" height = ""200"" style = ""float:right""></p><p><img src=images/blank.png width =""800"" height = ""200""></p>","","","","","","","","","","","",""
"","730","sequential-stimulus-presentation","173","431789","0.0-35.0-1.1","SS1613170069241","trial","","40","800","1530","images/stimuli/spore_stims/simple_16_A_b.gif","images/stimuli/spore_stims/simple_16_B_b.gif","","","","","9","simple_similar","images/stimuli/spore_stims/simple_16_B_b.gif","middle","","","","",""
"","null","html-keyboard-response","174","432678","0.0-35.0-0.2","SS1613170069241","","","null","","","","","<p><img src= images/blank.png width =""200"" height = ""200"" style = ""float:right""></p><p><img src=images/blank.png width =""800"" height = ""200""></p>","","","","","","","","","","","",""
"","520","sequential-stimulus-presentation","175","434009","0.0-35.0-1.2","SS1613170069241","trial","","40","800","1320","images/stimuli/spore_stims/simple_16_A_b.gif","images/stimuli/spore_stims/simple_16_B_b.gif","","","","","9","simple_similar","images/stimuli/spore_stims/simple_16_B_b.gif","middle","","","","",""
"","null","html-keyboard-response","176","434909","0.0-35.0-0.3","SS1613170069241","","","null","","","","","<p><img src= images/blank.png width =""200"" height = ""200"" style = ""float:right""></p><p><img src=images/blank.png width =""800"" height = ""200""></p>","","","","","","","","","","","",""
"","1915","sequential-stimulus-presentation","177","437633","0.0-35.0-1.3","SS1613170069241","trial","","40","800","2715","images/stimuli/spore_stims/simple_16_A_b.gif","images/stimuli/spore_stims/simple_16_B_b.gif","","","","","9","simple_similar","images/stimuli/spore_stims/simple_16_B_b.gif","middle","","","","",""
"","null","html-keyboard-response","178","438668","0.0-35.0-0.4","SS1613170069241","","","null","","","","","<p><img src= images/blank.png width =""200"" height = ""200"" style = ""float:right""></p><p><img src=images/blank.png width =""800"" height = ""200""></p>","","","","","","","","","","","",""
"","1483","sequential-stimulus-presentation","179","440960","0.0-35.0-1.4","SS1613170069241","trial","","40","800","2283","images/stimuli/spore_stims/simple_16_A_b.gif","images/stimuli/spore_stims/simple_16_B_b.gif","","","","","9","simple_similar","images/stimuli/spore_stims/simple_16_B_b.gif","middle","","","","",""
"","null","html-keyboard-response","180","442208","0.0-35.0-0.5","SS1613170069241","","","null","","","","","<p><img src= images/blank.png width =""200"" height = ""200"" style = ""float:right""></p><p><img src=images/blank.png width =""800"" height = ""200""></p>","","","","","","","","","","","",""
"","1779","sequential-stimulus-presentation","181","444807","0.0-35.0-1.5","SS1613170069241","trial","","40","800","2579","images/stimuli/spore_stims/simple_16_A_b.gif","images/stimuli/spore_stims/simple_16_B_b.gif","","","","","9","simple_similar","images/stimuli/spore_stims/simple_16_A_b.gif","right","","","","",""
"","null","html-keyboard-response","182","445949","0.0-35.0-0.6","SS1613170069241","","","null","","","","","<p><img src= images/blank.png width =""200"" height = ""200"" style = ""float:right""></p><p><img src=images/blank.png width =""800"" height = ""200""></p>","","","","","","","","","","","",""
"","1474","sequential-stimulus-presentation","183","448243","0.0-35.0-1.6","SS1613170069241","trial","","40","800","2274","images/stimuli/spore_stims/simple_16_A_b.gif","images/stimuli/spore_stims/simple_16_B_b.gif","","","","","9","simple_similar","images/stimuli/spore_stims/simple_16_B_b.gif","middle","","","","",""
"","null","html-keyboard-response","184","449408","0.0-35.0-0.7","SS1613170069241","","","null","","","","","<p><img src= images/blank.png width =""200"" height = ""200"" style = ""float:right""></p><p><img src=images/blank.png width =""800"" height = ""200""></p>","","","","","","","","","","","",""
"","1106","sequential-stimulus-presentation","185","451334","0.0-35.0-1.7","SS1613170069241","trial","","40","800","1906","images/stimuli/spore_stims/simple_16_A_b.gif","images/stimuli/spore_stims/simple_16_B_b.gif","","","","","9","simple_similar","images/stimuli/spore_stims/simple_16_B_b.gif","middle","","","","",""
"","1954","html-keyboard-response","186","453299","0.0-36.0","SS1613170069241","pref_question","","49","","","","","<video width ='960' height = '540' style='padding-top:8%' autoplay muted><source src='images/stimuli/wall_pref.mp4' type='video/mp4'></video>","1","left","25%","9","","","","","","","",""
"","1056","sequential-stimulus-presentation","187","455175","0.0-37.0","SS1613170069241","pref_reveal","","40","800","1856","null","null","","","","","9","","","","novel","","","",""
"","null","html-keyboard-response","188","456359","0.0-38.0-0.0","SS1613170069241","","","null","","","","","<p><img src= images/blank.png width =""200"" height = ""200"" style = ""float:right""></p><p><img src=images/blank.png width =""800"" height = ""200""></p>","","","","","","","","","","","",""
"","1821","sequential-stimulus-presentation","189","459000","0.0-38.0-1.0","SS1613170069241","trial","","40","800","2621","images/stimuli/spore_stims/complex_16_A_c.gif","images/stimuli/spore_stims/complex_01_A_c.gif","","","","","10","complex_dissimilar","images/stimuli/spore_stims/complex_01_A_c.gif","middle","","","","",""
"","null","html-keyboard-response","190","460109","0.0-38.0-0.1","SS1613170069241","","","null","","","","","<p><img src= images/blank.png width =""200"" height = ""200"" style = ""float:right""></p><p><img src=images/blank.png width =""800"" height = ""200""></p>","","","","","","","","","","","",""
"","543","sequential-stimulus-presentation","191","461472","0.0-38.0-1.1","SS1613170069241","trial","","40","800","1343","images/stimuli/spore_stims/complex_16_A_c.gif","images/stimuli/spore_stims/complex_01_A_c.gif","","","","","10","complex_dissimilar","images/stimuli/spore_stims/complex_01_A_c.gif","middle","","","","",""
"","null","html-keyboard-response","192","462638","0.0-38.0-0.2","SS1613170069241","","","null","","","","","<p><img src= images/blank.png width =""200"" height = ""200"" style = ""float:right""></p><p><img src=images/blank.png width =""800"" height = ""200""></p>","","","","","","","","","","","",""
"","808","sequential-stimulus-presentation","193","464266","0.0-38.0-1.2","SS1613170069241","trial","","40","800","1608","images/stimuli/spore_stims/complex_16_A_c.gif","images/stimuli/spore_stims/complex_01_A_c.gif","","","","","10","complex_dissimilar","images/stimuli/spore_stims/complex_01_A_c.gif","middle","","","","",""
"","null","html-keyboard-response","194","465308","0.0-38.0-0.3","SS1613170069241","","","null","","","","","<p><img src= images/blank.png width =""200"" height = ""200"" style = ""float:right""></p><p><img src=images/blank.png width =""800"" height = ""200""></p>","","","","","","","","","","","",""
"","1056","sequential-stimulus-presentation","195","467184","0.0-38.0-1.3","SS1613170069241","trial","","40","800","1856","images/stimuli/spore_stims/complex_16_A_c.gif","images/stimuli/spore_stims/complex_01_A_c.gif","","","","","10","complex_dissimilar","images/stimuli/spore_stims/complex_01_A_c.gif","middle","","","","",""
"","null","html-keyboard-response","196","468129","0.0-38.0-0.4","SS1613170069241","","","null","","","","","<p><img src= images/blank.png width =""200"" height = ""200"" style = ""float:right""></p><p><img src=images/blank.png width =""800"" height = ""200""></p>","","","","","","","","","","","",""
"","1789","sequential-stimulus-presentation","197","470738","0.0-38.0-1.4","SS1613170069241","trial","","40","800","2589","images/stimuli/spore_stims/complex_16_A_c.gif","images/stimuli/spore_stims/complex_01_A_c.gif","","","","","10","complex_dissimilar","images/stimuli/spore_stims/complex_16_A_c.gif","right","","","","",""
"","null","html-keyboard-response","198","471718","0.0-38.0-0.5","SS1613170069241","","","null","","","","","<p><img src= images/blank.png width =""200"" height = ""200"" style = ""float:right""></p><p><img src=images/blank.png width =""800"" height = ""200""></p>","","","","","","","","","","","",""
"","567","sequential-stimulus-presentation","199","473106","0.0-38.0-1.5","SS1613170069241","trial","","40","800","1367","images/stimuli/spore_stims/complex_16_A_c.gif","images/stimuli/spore_stims/complex_01_A_c.gif","","","","","10","complex_dissimilar","images/stimuli/spore_stims/complex_01_A_c.gif","middle","","","","",""
"","null","html-keyboard-response","200","474398","0.0-38.0-0.6","SS1613170069241","","","null","","","","","<p><img src= images/blank.png width =""200"" height = ""200"" style = ""float:right""></p><p><img src=images/blank.png width =""800"" height = ""200""></p>","","","","","","","","","","","",""
"","515","sequential-stimulus-presentation","201","475734","0.0-38.0-1.6","SS1613170069241","trial","","40","800","1315","images/stimuli/spore_stims/complex_16_A_c.gif","images/stimuli/spore_stims/complex_01_A_c.gif","","","","","10","complex_dissimilar","images/stimuli/spore_stims/complex_01_A_c.gif","middle","","","","",""
"","null","html-keyboard-response","202","476919","0.0-38.0-0.7","SS1613170069241","","","null","","","","","<p><img src= images/blank.png width =""200"" height = ""200"" style = ""float:right""></p><p><img src=images/blank.png width =""800"" height = ""200""></p>","","","","","","","","","","","",""
"","513","sequential-stimulus-presentation","203","478252","0.0-38.0-1.7","SS1613170069241","trial","","40","800","1313","images/stimuli/spore_stims/complex_16_A_c.gif","images/stimuli/spore_stims/complex_01_A_c.gif","","","","","10","complex_dissimilar","images/stimuli/spore_stims/complex_01_A_c.gif","middle","","","","",""
"","1722","html-keyboard-response","204","479983","0.0-39.0","SS1613170069241","pref_question","","49","","","","","<video width ='960' height = '540' style='padding-top:8%' autoplay muted><source src='images/stimuli/wall_pref.mp4' type='video/mp4'></video>","1","left","25%","10","","","","","","","",""
"","1902","sequential-stimulus-presentation","205","482701","0.0-40.0","SS1613170069241","pref_reveal","","40","800","2702","null","null","","","","","10","","","","novel","","","",""
"","null","html-keyboard-response","206","483838","0.0-41.0-0.0","SS1613170069241","","","null","","","","","<p><img src= images/blank.png width =""200"" height = ""200"" style = ""float:right""></p><p><img src=images/blank.png width =""800"" height = ""200""></p>","","","","","","","","","","","",""
"","1250","sequential-stimulus-presentation","207","485909","0.0-41.0-1.0","SS1613170069241","trial","","40","800","2050","images/stimuli/spore_stims/complex_20_B_a.gif","images/stimuli/spore_stims/complex_12_B_d.gif","","","","","11","complex_dissimilar","images/stimuli/spore_stims/complex_12_B_d.gif","left","","","","",""
"","null","html-keyboard-response","208","486998","0.0-41.0-0.1","SS1613170069241","","","null","","","","","<p><img src= images/blank.png width =""200"" height = ""200"" style = ""float:right""></p><p><img src=images/blank.png width =""800"" height = ""200""></p>","","","","","","","","","","","",""
"","1169","sequential-stimulus-presentation","209","488987","0.0-41.0-1.1","SS1613170069241","trial","","40","800","1969","images/stimuli/spore_stims/complex_20_B_a.gif","images/stimuli/spore_stims/complex_12_B_d.gif","","","","","11","complex_dissimilar","images/stimuli/spore_stims/complex_12_B_d.gif","left","","","","",""
"","null","html-keyboard-response","210","490238","0.0-41.0-0.2","SS1613170069241","","","null","","","","","<p><img src= images/blank.png width =""200"" height = ""200"" style = ""float:right""></p><p><img src=images/blank.png width =""800"" height = ""200""></p>","","","","","","","","","","","",""
"","1588","sequential-stimulus-presentation","211","492647","0.0-41.0-1.2","SS1613170069241","trial","","40","800","2388","images/stimuli/spore_stims/complex_20_B_a.gif","images/stimuli/spore_stims/complex_12_B_d.gif","","","","","11","complex_dissimilar","images/stimuli/spore_stims/complex_20_B_a.gif","right","","","","",""
"","null","html-keyboard-response","212","493479","0.0-41.0-0.3","SS1613170069241","","","null","","","","","<p><img src= images/blank.png width =""200"" height = ""200"" style = ""float:right""></p><p><img src=images/blank.png width =""800"" height = ""200""></p>","","","","","","","","","","","",""
"","1129","sequential-stimulus-presentation","213","495428","0.0-41.0-1.3","SS1613170069241","trial","","40","800","1929","images/stimuli/spore_stims/complex_20_B_a.gif","images/stimuli/spore_stims/complex_12_B_d.gif","","","","","11","complex_dissimilar","images/stimuli/spore_stims/complex_12_B_d.gif","left","","","","",""
"","null","html-keyboard-response","214","496279","0.0-41.0-0.4","SS1613170069241","","","null","","","","","<p><img src= images/blank.png width =""200"" height = ""200"" style = ""float:right""></p><p><img src=images/blank.png width =""800"" height = ""200""></p>","","","","","","","","","","","",""
"","910","sequential-stimulus-presentation","215","498009","0.0-41.0-1.4","SS1613170069241","trial","","40","800","1710","images/stimuli/spore_stims/complex_20_B_a.gif","images/stimuli/spore_stims/complex_12_B_d.gif","","","","","11","complex_dissimilar","images/stimuli/spore_stims/complex_12_B_d.gif","left","","","","",""
"","null","html-keyboard-response","216","499088","0.0-41.0-0.5","SS1613170069241","","","null","","","","","<p><img src= images/blank.png width =""200"" height = ""200"" style = ""float:right""></p><p><img src=images/blank.png width =""800"" height = ""200""></p>","","","","","","","","","","","",""
"","399","sequential-stimulus-presentation","217","500309","0.0-41.0-1.5","SS1613170069241","trial","","40","800","1199","images/stimuli/spore_stims/complex_20_B_a.gif","images/stimuli/spore_stims/complex_12_B_d.gif","","","","","11","complex_dissimilar","images/stimuli/spore_stims/complex_12_B_d.gif","left","","","","",""
"","null","html-keyboard-response","218","501548","0.0-41.0-0.6","SS1613170069241","","","null","","","","","<p><img src= images/blank.png width =""200"" height = ""200"" style = ""float:right""></p><p><img src=images/blank.png width =""800"" height = ""200""></p>","","","","","","","","","","","",""
"","334","sequential-stimulus-presentation","219","502703","0.0-41.0-1.6","SS1613170069241","trial","","40","800","1134","images/stimuli/spore_stims/complex_20_B_a.gif","images/stimuli/spore_stims/complex_12_B_d.gif","","","","","11","complex_dissimilar","images/stimuli/spore_stims/complex_12_B_d.gif","left","","","","",""
"","null","html-keyboard-response","220","503608","0.0-41.0-0.7","SS1613170069241","","","null","","","","","<p><img src= images/blank.png width =""200"" height = ""200"" style = ""float:right""></p><p><img src=images/blank.png width =""800"" height = ""200""></p>","","","","","","","","","","","",""
"","442","sequential-stimulus-presentation","221","504870","0.0-41.0-1.7","SS1613170069241","trial","","40","800","1242","images/stimuli/spore_stims/complex_20_B_a.gif","images/stimuli/spore_stims/complex_12_B_d.gif","","","","","11","complex_dissimilar","images/stimuli/spore_stims/complex_12_B_d.gif","left","","","","",""
"","1712","html-keyboard-response","222","506591","0.0-42.0","SS1613170069241","pref_question","","50","","","","","<video width ='960' height = '540' style='padding-top:8%' autoplay muted><source src='images/stimuli/wall_pref.mp4' type='video/mp4'></video>","2","middle","45%","11","","","","","","","",""
"","1645","sequential-stimulus-presentation","223","509053","0.0-43.0","SS1613170069241","pref_reveal","","40","800","2445","null","null","","","","","11","","","","novel","","","",""
"","null","html-keyboard-response","224","510349","0.0-44.0-0.0","SS1613170069241","","","null","","","","","<p><img src= images/blank.png width =""200"" height = ""200"" style = ""float:right""></p><p><img src=images/blank.png width =""800"" height = ""200""></p>","","","","","","","","","","","",""
"","1180","sequential-stimulus-presentation","225","512349","0.0-44.0-1.0","SS1613170069241","trial","","40","800","1980","images/stimuli/spore_stims/simple_11_B_c.gif","images/stimuli/spore_stims/simple_13_B_b.gif","","","","","12","simple_dissimilar","images/stimuli/spore_stims/simple_13_B_b.gif","middle","","","","",""
"","null","html-keyboard-response","226","513518","0.0-44.0-0.1","SS1613170069241","","","null","","","","","<p><img src= images/blank.png width =""200"" height = ""200"" style = ""float:right""></p><p><img src=images/blank.png width =""800"" height = ""200""></p>","","","","","","","","","","","",""
"","718","sequential-stimulus-presentation","227","515058","0.0-44.0-1.1","SS1613170069241","trial","","40","800","1518","images/stimuli/spore_stims/simple_11_B_c.gif","images/stimuli/spore_stims/simple_13_B_b.gif","","","","","12","simple_dissimilar","images/stimuli/spore_stims/simple_13_B_b.gif","middle","","","","",""
"","null","html-keyboard-response","228","516259","0.0-44.0-0.2","SS1613170069241","","","null","","","","","<p><img src= images/blank.png width =""200"" height = ""200"" style = ""float:right""></p><p><img src=images/blank.png width =""800"" height = ""200""></p>","","","","","","","","","","","",""
"","667","sequential-stimulus-presentation","229","517747","0.0-44.0-1.2","SS1613170069241","trial","","40","800","1467","images/stimuli/spore_stims/simple_11_B_c.gif","images/stimuli/spore_stims/simple_13_B_b.gif","","","","","12","simple_dissimilar","images/stimuli/spore_stims/simple_13_B_b.gif","middle","","","","",""
"","null","html-keyboard-response","230","518738","0.0-44.0-0.3","SS1613170069241","","","null","","","","","<p><img src= images/blank.png width =""200"" height = ""200"" style = ""float:right""></p><p><img src=images/blank.png width =""800"" height = ""200""></p>","","","","","","","","","","","",""
"","1322","sequential-stimulus-presentation","231","520881","0.0-44.0-1.3","SS1613170069241","trial","","40","800","2122","images/stimuli/spore_stims/simple_11_B_c.gif","images/stimuli/spore_stims/simple_13_B_b.gif","","","","","12","simple_dissimilar","images/stimuli/spore_stims/simple_11_B_c.gif","left","","","","",""
"","null","html-keyboard-response","232","521699","0.0-44.0-0.4","SS1613170069241","","","null","","","","","<p><img src= images/blank.png width =""200"" height = ""200"" style = ""float:right""></p><p><img src=images/blank.png width =""800"" height = ""200""></p>","","","","","","","","","","","",""
"","734","sequential-stimulus-presentation","233","523253","0.0-44.0-1.4","SS1613170069241","trial","","40","800","1534","images/stimuli/spore_stims/simple_11_B_c.gif","images/stimuli/spore_stims/simple_13_B_b.gif","","","","","12","simple_dissimilar","images/stimuli/spore_stims/simple_13_B_b.gif","middle","","","","",""
"","null","html-keyboard-response","234","524548","0.0-44.0-0.5","SS1613170069241","","","null","","","","","<p><img src= images/blank.png width =""200"" height = ""200"" style = ""float:right""></p><p><img src=images/blank.png width =""800"" height = ""200""></p>","","","","","","","","","","","",""
"","424","sequential-stimulus-presentation","235","525793","0.0-44.0-1.5","SS1613170069241","trial","","40","800","1224","images/stimuli/spore_stims/simple_11_B_c.gif","images/stimuli/spore_stims/simple_13_B_b.gif","","","","","12","simple_dissimilar","images/stimuli/spore_stims/simple_13_B_b.gif","middle","","","","",""
"","null","html-keyboard-response","236","526688","0.0-44.0-0.6","SS1613170069241","","","null","","","","","<p><img src= images/blank.png width =""200"" height = ""200"" style = ""float:right""></p><p><img src=images/blank.png width =""800"" height = ""200""></p>","","","","","","","","","","","",""
"","593","sequential-stimulus-presentation","237","528102","0.0-44.0-1.6","SS1613170069241","trial","","40","800","1393","images/stimuli/spore_stims/simple_11_B_c.gif","images/stimuli/spore_stims/simple_13_B_b.gif","","","","","12","simple_dissimilar","images/stimuli/spore_stims/simple_13_B_b.gif","middle","","","","",""
"","null","html-keyboard-response","238","529188","0.0-44.0-0.7","SS1613170069241","","","null","","","","","<p><img src= images/blank.png width =""200"" height = ""200"" style = ""float:right""></p><p><img src=images/blank.png width =""800"" height = ""200""></p>","","","","","","","","","","","",""
"","436","sequential-stimulus-presentation","239","530444","0.0-44.0-1.7","SS1613170069241","trial","","40","800","1236","images/stimuli/spore_stims/simple_11_B_c.gif","images/stimuli/spore_stims/simple_13_B_b.gif","","","","","12","simple_dissimilar","images/stimuli/spore_stims/simple_13_B_b.gif","middle","","","","",""
"","7038","html-keyboard-response","240","537492","0.0-45.0","SS1613170069241","pref_question","","51","","","","","<video width ='960' height = '540' style='padding-top:8%' autoplay muted><source src='images/stimuli/wall_pref.mp4' type='video/mp4'></video>","3","right","66%","12","","","","","","","",""
"","3481","sequential-stimulus-presentation","241","541799","0.0-46.0","SS1613170069241","pref_reveal","","40","800","4281","null","null","","","","","12","","","","novel","","","",""
"","null","html-keyboard-response","242","542639","0.0-47.0-0.0","SS1613170069241","","","null","","","","","<p><img src= images/blank.png width =""200"" height = ""200"" style = ""float:right""></p><p><img src=images/blank.png width =""800"" height = ""200""></p>","","","","","","","","","","","",""
"","1491","sequential-stimulus-presentation","243","544949","0.0-47.0-1.0","SS1613170069241","trial","","40","800","2291","images/stimuli/spore_stims/complex_06_B_b.gif","images/stimuli/spore_stims/complex_15_A_a.gif","","","","","13","complex_dissimilar","images/stimuli/spore_stims/complex_15_A_a.gif","right","","","","",""
"","null","html-keyboard-response","244","545879","0.0-47.0-0.1","SS1613170069241","","","null","","","","","<p><img src= images/blank.png width =""200"" height = ""200"" style = ""float:right""></p><p><img src=images/blank.png width =""800"" height = ""200""></p>","","","","","","","","","","","",""
"","1009","sequential-stimulus-presentation","245","547707","0.0-47.0-1.1","SS1613170069241","trial","","40","800","1809","images/stimuli/spore_stims/complex_06_B_b.gif","images/stimuli/spore_stims/complex_15_A_a.gif","","","","","13","complex_dissimilar","images/stimuli/spore_stims/complex_15_A_a.gif","right","","","","",""
"","null","html-keyboard-response","246","548598","0.0-47.0-0.2","SS1613170069241","","","null","","","","","<p><img src= images/blank.png width =""200"" height = ""200"" style = ""float:right""></p><p><img src=images/blank.png width =""800"" height = ""200""></p>","","","","","","","","","","","",""
"","946","sequential-stimulus-presentation","247","550366","0.0-47.0-1.2","SS1613170069241","trial","","40","800","1746","images/stimuli/spore_stims/complex_06_B_b.gif","images/stimuli/spore_stims/complex_15_A_a.gif","","","","","13","complex_dissimilar","images/stimuli/spore_stims/complex_15_A_a.gif","right","","","","",""
"","null","html-keyboard-response","248","551258","0.0-47.0-0.3","SS1613170069241","","","null","","","","","<p><img src= images/blank.png width =""200"" height = ""200"" style = ""float:right""></p><p><img src=images/blank.png width =""800"" height = ""200""></p>","","","","","","","","","","","",""
"","1039","sequential-stimulus-presentation","249","553118","0.0-47.0-1.3","SS1613170069241","trial","","40","800","1839","images/stimuli/spore_stims/complex_06_B_b.gif","images/stimuli/spore_stims/complex_15_A_a.gif","","","","","13","complex_dissimilar","images/stimuli/spore_stims/complex_15_A_a.gif","right","","","","",""
"","null","html-keyboard-response","250","554274","0.0-47.0-0.4","SS1613170069241","","","null","","","","","<p><img src= images/blank.png width =""200"" height = ""200"" style = ""float:right""></p><p><img src=images/blank.png width =""800"" height = ""200""></p>","","","","","","","","","","","",""
"","764","sequential-stimulus-presentation","251","555868","0.0-47.0-1.4","SS1613170069241","trial","","40","800","1564","images/stimuli/spore_stims/complex_06_B_b.gif","images/stimuli/spore_stims/complex_15_A_a.gif","","","","","13","complex_dissimilar","images/stimuli/spore_stims/complex_15_A_a.gif","right","","","","",""
"","null","html-keyboard-response","252","556748","0.0-47.0-0.5","SS1613170069241","","","null","","","","","<p><img src= images/blank.png width =""200"" height = ""200"" style = ""float:right""></p><p><img src=images/blank.png width =""800"" height = ""200""></p>","","","","","","","","","","","",""
"","762","sequential-stimulus-presentation","253","558330","0.0-47.0-1.5","SS1613170069241","trial","","40","800","1562","images/stimuli/spore_stims/complex_06_B_b.gif","images/stimuli/spore_stims/complex_15_A_a.gif","","","","","13","complex_dissimilar","images/stimuli/spore_stims/complex_15_A_a.gif","right","","","","",""
"","null","html-keyboard-response","254","559588","0.0-47.0-0.6","SS1613170069241","","","null","","","","","<p><img src= images/blank.png width =""200"" height = ""200"" style = ""float:right""></p><p><img src=images/blank.png width =""800"" height = ""200""></p>","","","","","","","","","","","",""
"","1494","sequential-stimulus-presentation","255","561903","0.0-47.0-1.6","SS1613170069241","trial","","40","800","2294","images/stimuli/spore_stims/complex_06_B_b.gif","images/stimuli/spore_stims/complex_15_A_a.gif","","","","","13","complex_dissimilar","images/stimuli/spore_stims/complex_06_B_b.gif","left","","","","",""
"","null","html-keyboard-response","256","563188","0.0-47.0-0.7","SS1613170069241","","","null","","","","","<p><img src= images/blank.png width =""200"" height = ""200"" style = ""float:right""></p><p><img src=images/blank.png width =""800"" height = ""200""></p>","","","","","","","","","","","",""
"","360","sequential-stimulus-presentation","257","564359","0.0-47.0-1.7","SS1613170069241","trial","","40","800","1160","images/stimuli/spore_stims/complex_06_B_b.gif","images/stimuli/spore_stims/complex_15_A_a.gif","","","","","13","complex_dissimilar","images/stimuli/spore_stims/complex_15_A_a.gif","right","","","","",""
"","1636","html-keyboard-response","258","566004","0.0-48.0","SS1613170069241","pref_question","","50","","","","","<video width ='960' height = '540' style='padding-top:8%' autoplay muted><source src='images/stimuli/wall_pref.mp4' type='video/mp4'></video>","2","middle","45%","13","","","","","","","",""
"","1497","sequential-stimulus-presentation","259","568316","0.0-49.0","SS1613170069241","pref_reveal","","40","800","2297","null","null","","","","","13","","","","novel","","","",""
"","null","html-keyboard-response","260","569218","0.0-50.0-0.0","SS1613170069241","","","null","","","","","<p><img src= images/blank.png width =""200"" height = ""200"" style = ""float:right""></p><p><img src=images/blank.png width =""800"" height = ""200""></p>","","","","","","","","","","","",""
"","1255","sequential-stimulus-presentation","261","571295","0.0-50.0-1.0","SS1613170069241","trial","","40","800","2055","images/stimuli/spore_stims/simple_02_B_a.gif","images/stimuli/spore_stims/simple_02_A_a.gif","","","","","14","simple_similar","images/stimuli/spore_stims/simple_02_A_a.gif","left","","","","",""
"","null","html-keyboard-response","262","572558","0.0-50.0-0.1","SS1613170069241","","","null","","","","","<p><img src= images/blank.png width =""200"" height = ""200"" style = ""float:right""></p><p><img src=images/blank.png width =""800"" height = ""200""></p>","","","","","","","","","","","",""
"","1056","sequential-stimulus-presentation","263","574434","0.0-50.0-1.1","SS1613170069241","trial","","40","800","1856","images/stimuli/spore_stims/simple_02_B_a.gif","images/stimuli/spore_stims/simple_02_A_a.gif","","","","","14","simple_similar","images/stimuli/spore_stims/simple_02_A_a.gif","left","","","","",""
"","null","html-keyboard-response","264","575579","0.0-50.0-0.2","SS1613170069241","","","null","","","","","<p><img src= images/blank.png width =""200"" height = ""200"" style = ""float:right""></p><p><img src=images/blank.png width =""800"" height = ""200""></p>","","","","","","","","","","","",""
"","784","sequential-stimulus-presentation","265","577182","0.0-50.0-1.2","SS1613170069241","trial","","40","800","1584","images/stimuli/spore_stims/simple_02_B_a.gif","images/stimuli/spore_stims/simple_02_A_a.gif","","","","","14","simple_similar","images/stimuli/spore_stims/simple_02_A_a.gif","left","","","","",""
"","null","html-keyboard-response","266","578158","0.0-50.0-0.3","SS1613170069241","","","null","","","","","<p><img src= images/blank.png width =""200"" height = ""200"" style = ""float:right""></p><p><img src=images/blank.png width =""800"" height = ""200""></p>","","","","","","","","","","","",""
"","764","sequential-stimulus-presentation","267","579745","0.0-50.0-1.3","SS1613170069241","trial","","40","800","1564","images/stimuli/spore_stims/simple_02_B_a.gif","images/stimuli/spore_stims/simple_02_A_a.gif","","","","","14","simple_similar","images/stimuli/spore_stims/simple_02_A_a.gif","left","","","","",""
"","null","html-keyboard-response","268","580578","0.0-50.0-0.4","SS1613170069241","","","null","","","","","<p><img src= images/blank.png width =""200"" height = ""200"" style = ""float:right""></p><p><img src=images/blank.png width =""800"" height = ""200""></p>","","","","","","","","","","","",""
"","479","sequential-stimulus-presentation","269","581878","0.0-50.0-1.4","SS1613170069241","trial","","40","800","1279","images/stimuli/spore_stims/simple_02_B_a.gif","images/stimuli/spore_stims/simple_02_A_a.gif","","","","","14","simple_similar","images/stimuli/spore_stims/simple_02_A_a.gif","left","","","","",""
"","null","html-keyboard-response","270","583158","0.0-50.0-0.5","SS1613170069241","","","null","","","","","<p><img src= images/blank.png width =""200"" height = ""200"" style = ""float:right""></p><p><img src=images/blank.png width =""800"" height = ""200""></p>","","","","","","","","","","","",""
"","424","sequential-stimulus-presentation","271","584403","0.0-50.0-1.5","SS1613170069241","trial","","40","800","1224","images/stimuli/spore_stims/simple_02_B_a.gif","images/stimuli/spore_stims/simple_02_A_a.gif","","","","","14","simple_similar","images/stimuli/spore_stims/simple_02_A_a.gif","left","","","","",""
"","null","html-keyboard-response","272","585559","0.0-50.0-0.6","SS1613170069241","","","null","","","","","<p><img src= images/blank.png width =""200"" height = ""200"" style = ""float:right""></p><p><img src=images/blank.png width =""800"" height = ""200""></p>","","","","","","","","","","","",""
"","476","sequential-stimulus-presentation","273","586854","0.0-50.0-1.6","SS1613170069241","trial","","40","800","1276","images/stimuli/spore_stims/simple_02_B_a.gif","images/stimuli/spore_stims/simple_02_A_a.gif","","","","","14","simple_similar","images/stimuli/spore_stims/simple_02_A_a.gif","left","","","","",""
"","null","html-keyboard-response","274","587978","0.0-50.0-0.7","SS1613170069241","","","null","","","","","<p><img src= images/blank.png width =""200"" height = ""200"" style = ""float:right""></p><p><img src=images/blank.png width =""800"" height = ""200""></p>","","","","","","","","","","","",""
"","945","sequential-stimulus-presentation","275","589743","0.0-50.0-1.7","SS1613170069241","trial","","40","800","1745","images/stimuli/spore_stims/simple_02_B_a.gif","images/stimuli/spore_stims/simple_02_A_a.gif","","","","","14","simple_similar","images/stimuli/spore_stims/simple_02_B_a.gif","right","","","","",""
"","1732","html-keyboard-response","276","591487","0.0-51.0","SS1613170069241","pref_question","","50","","","","","<video width ='960' height = '540' style='padding-top:8%' autoplay muted><source src='images/stimuli/wall_pref.mp4' type='video/mp4'></video>","2","middle","45%","14","","","","","","","",""
"","1612","sequential-stimulus-presentation","277","593922","0.0-52.0","SS1613170069241","pref_reveal","","40","800","2412","null","null","","","","","14","","","","novel","","","",""
"","null","html-keyboard-response","278","595028","0.0-53.0-0.0","SS1613170069241","","","null","","","","","<p><img src= images/blank.png width =""200"" height = ""200"" style = ""float:right""></p><p><img src=images/blank.png width =""800"" height = ""200""></p>","","","","","","","","","","","",""
"","1355","sequential-stimulus-presentation","279","597204","0.0-53.0-1.0","SS1613170069241","trial","","40","800","2155","images/stimuli/spore_stims/complex_19_A_a.gif","images/stimuli/spore_stims/complex_17_B_a.gif","","","","","15","complex_dissimilar","images/stimuli/spore_stims/complex_17_B_a.gif","left","","","","",""
"","null","html-keyboard-response","280","598508","0.0-53.0-0.1","SS1613170069241","","","null","","","","","<p><img src= images/blank.png width =""200"" height = ""200"" style = ""float:right""></p><p><img src=images/blank.png width =""800"" height = ""200""></p>","","","","","","","","","","","",""
"","834","sequential-stimulus-presentation","281","600153","0.0-53.0-1.1","SS1613170069241","trial","","40","800","1634","images/stimuli/spore_stims/complex_19_A_a.gif","images/stimuli/spore_stims/complex_17_B_a.gif","","","","","15","complex_dissimilar","images/stimuli/spore_stims/complex_17_B_a.gif","left","","","","",""
"","null","html-keyboard-response","282","601378","0.0-53.0-0.2","SS1613170069241","","","null","","","","","<p><img src= images/blank.png width =""200"" height = ""200"" style = ""float:right""></p><p><img src=images/blank.png width =""800"" height = ""200""></p>","","","","","","","","","","","",""
"","1049","sequential-stimulus-presentation","283","603247","0.0-53.0-1.2","SS1613170069241","trial","","40","800","1849","images/stimuli/spore_stims/complex_19_A_a.gif","images/stimuli/spore_stims/complex_17_B_a.gif","","","","","15","complex_dissimilar","images/stimuli/spore_stims/complex_17_B_a.gif","left","","","","",""
"","null","html-keyboard-response","284","604119","0.0-53.0-0.3","SS1613170069241","","","null","","","","","<p><img src= images/blank.png width =""200"" height = ""200"" style = ""float:right""></p><p><img src=images/blank.png width =""800"" height = ""200""></p>","","","","","","","","","","","",""
"","852","sequential-stimulus-presentation","285","605791","0.0-53.0-1.3","SS1613170069241","trial","","40","800","1652","images/stimuli/spore_stims/complex_19_A_a.gif","images/stimuli/spore_stims/complex_17_B_a.gif","","","","","15","complex_dissimilar","images/stimuli/spore_stims/complex_17_B_a.gif","left","","","","",""
"","null","html-keyboard-response","286","606618","0.0-53.0-0.4","SS1613170069241","","","null","","","","","<p><img src= images/blank.png width =""200"" height = ""200"" style = ""float:right""></p><p><img src=images/blank.png width =""800"" height = ""200""></p>","","","","","","","","","","","",""
"","856","sequential-stimulus-presentation","287","608295","0.0-53.0-1.4","SS1613170069241","trial","","40","800","1656","images/stimuli/spore_stims/complex_19_A_a.gif","images/stimuli/spore_stims/complex_17_B_a.gif","","","","","15","complex_dissimilar","images/stimuli/spore_stims/complex_19_A_a.gif","right","","","","",""
"","null","html-keyboard-response","288","609458","0.0-53.0-0.5","SS1613170069241","","","null","","","","","<p><img src= images/blank.png width =""200"" height = ""200"" style = ""float:right""></p><p><img src=images/blank.png width =""800"" height = ""200""></p>","","","","","","","","","","","",""
"","787","sequential-stimulus-presentation","289","611066","0.0-53.0-1.5","SS1613170069241","trial","","40","800","1587","images/stimuli/spore_stims/complex_19_A_a.gif","images/stimuli/spore_stims/complex_17_B_a.gif","","","","","15","complex_dissimilar","images/stimuli/spore_stims/complex_17_B_a.gif","left","","","","",""
"","null","html-keyboard-response","290","612118","0.0-53.0-0.6","SS1613170069241","","","null","","","","","<p><img src= images/blank.png width =""200"" height = ""200"" style = ""float:right""></p><p><img src=images/blank.png width =""800"" height = ""200""></p>","","","","","","","","","","","",""
"","486","sequential-stimulus-presentation","291","613426","0.0-53.0-1.6","SS1613170069241","trial","","40","800","1286","images/stimuli/spore_stims/complex_19_A_a.gif","images/stimuli/spore_stims/complex_17_B_a.gif","","","","","15","complex_dissimilar","images/stimuli/spore_stims/complex_17_B_a.gif","left","","","","",""
"","null","html-keyboard-response","292","614639","0.0-53.0-0.7","SS1613170069241","","","null","","","","","<p><img src= images/blank.png width =""200"" height = ""200"" style = ""float:right""></p><p><img src=images/blank.png width =""800"" height = ""200""></p>","","","","","","","","","","","",""
"","457","sequential-stimulus-presentation","293","615915","0.0-53.0-1.7","SS1613170069241","trial","","40","800","1257","images/stimuli/spore_stims/complex_19_A_a.gif","images/stimuli/spore_stims/complex_17_B_a.gif","","","","","15","complex_dissimilar","images/stimuli/spore_stims/complex_17_B_a.gif","left","","","","",""
"","1412","html-keyboard-response","294","617339","0.0-54.0","SS1613170069241","pref_question","","50","","","","","<video width ='960' height = '540' style='padding-top:8%' autoplay muted><source src='images/stimuli/wall_pref.mp4' type='video/mp4'></video>","2","middle","45%","15","","","","","","","",""
"","1431","sequential-stimulus-presentation","295","619590","0.0-55.0","SS1613170069241","pref_reveal","","40","800","2231","null","null","","","","","15","","","","novel","","","",""
"","null","html-keyboard-response","296","620668","0.0-56.0-0.0","SS1613170069241","","","null","","","","","<p><img src= images/blank.png width =""200"" height = ""200"" style = ""float:right""></p><p><img src=images/blank.png width =""800"" height = ""200""></p>","","","","","","","","","","","",""
"","3477","sequential-stimulus-presentation","297","624966","0.0-56.0-1.0","SS1613170069241","trial","","40","800","4277","images/stimuli/spore_stims/simple_17_A_d.gif","images/stimuli/spore_stims/simple_17_B_d.gif","","","","","16","simple_similar","images/stimuli/spore_stims/simple_17_B_d.gif","middle","","","","",""
"","null","html-keyboard-response","298","625918","0.0-56.0-0.1","SS1613170069241","","","null","","","","","<p><img src= images/blank.png width =""200"" height = ""200"" style = ""float:right""></p><p><img src=images/blank.png width =""800"" height = ""200""></p>","","","","","","","","","","","",""
"","1572","sequential-stimulus-presentation","299","628321","0.0-56.0-1.1","SS1613170069241","trial","","40","800","2372","images/stimuli/spore_stims/simple_17_A_d.gif","images/stimuli/spore_stims/simple_17_B_d.gif","","","","","16","simple_similar","images/stimuli/spore_stims/simple_17_B_d.gif","middle","","","","",""
"","null","html-keyboard-response","300","629628","0.0-56.0-0.2","SS1613170069241","","","null","","","","","<p><img src= images/blank.png width =""200"" height = ""200"" style = ""float:right""></p><p><img src=images/blank.png width =""800"" height = ""200""></p>","","","","","","","","","","","",""
"","1071","sequential-stimulus-presentation","301","631520","0.0-56.0-1.2","SS1613170069241","trial","","40","800","1871","images/stimuli/spore_stims/simple_17_A_d.gif","images/stimuli/spore_stims/simple_17_B_d.gif","","","","","16","simple_similar","images/stimuli/spore_stims/simple_17_B_d.gif","middle","","","","",""
"","null","html-keyboard-response","302","632728","0.0-56.0-0.3","SS1613170069241","","","null","","","","","<p><img src= images/blank.png width =""200"" height = ""200"" style = ""float:right""></p><p><img src=images/blank.png width =""800"" height = ""200""></p>","","","","","","","","","","","",""
"","648","sequential-stimulus-presentation","303","634206","0.0-56.0-1.3","SS1613170069241","trial","","40","800","1448","images/stimuli/spore_stims/simple_17_A_d.gif","images/stimuli/spore_stims/simple_17_B_d.gif","","","","","16","simple_similar","images/stimuli/spore_stims/simple_17_B_d.gif","middle","","","","",""
"","null","html-keyboard-response","304","635468","0.0-56.0-0.4","SS1613170069241","","","null","","","","","<p><img src= images/blank.png width =""200"" height = ""200"" style = ""float:right""></p><p><img src=images/blank.png width =""800"" height = ""200""></p>","","","","","","","","","","","",""
"","576","sequential-stimulus-presentation","305","636864","0.0-56.0-1.4","SS1613170069241","trial","","40","800","1376","images/stimuli/spore_stims/simple_17_A_d.gif","images/stimuli/spore_stims/simple_17_B_d.gif","","","","","16","simple_similar","images/stimuli/spore_stims/simple_17_B_d.gif","middle","","","","",""
"","null","html-keyboard-response","306","638138","0.0-56.0-0.5","SS1613170069241","","","null","","","","","<p><img src= images/blank.png width =""200"" height = ""200"" style = ""float:right""></p><p><img src=images/blank.png width =""800"" height = ""200""></p>","","","","","","","","","","","",""
"","430","sequential-stimulus-presentation","307","639388","0.0-56.0-1.5","SS1613170069241","trial","","40","800","1230","images/stimuli/spore_stims/simple_17_A_d.gif","images/stimuli/spore_stims/simple_17_B_d.gif","","","","","16","simple_similar","images/stimuli/spore_stims/simple_17_B_d.gif","middle","","","","",""
"","null","html-keyboard-response","308","640218","0.0-56.0-0.6","SS1613170069241","","","null","","","","","<p><img src= images/blank.png width =""200"" height = ""200"" style = ""float:right""></p><p><img src=images/blank.png width =""800"" height = ""200""></p>","","","","","","","","","","","",""
"","1087","sequential-stimulus-presentation","309","642126","0.0-56.0-1.6","SS1613170069241","trial","","40","800","1887","images/stimuli/spore_stims/simple_17_A_d.gif","images/stimuli/spore_stims/simple_17_B_d.gif","","","","","16","simple_similar","images/stimuli/spore_stims/simple_17_A_d.gif","left","","","","",""
"","null","html-keyboard-response","310","643108","0.0-56.0-0.7","SS1613170069241","","","null","","","","","<p><img src= images/blank.png width =""200"" height = ""200"" style = ""float:right""></p><p><img src=images/blank.png width =""800"" height = ""200""></p>","","","","","","","","","","","",""
"","952","sequential-stimulus-presentation","311","644876","0.0-56.0-1.7","SS1613170069241","trial","","40","800","1752","images/stimuli/spore_stims/simple_17_A_d.gif","images/stimuli/spore_stims/simple_17_B_d.gif","","","","","16","simple_similar","images/stimuli/spore_stims/simple_17_B_d.gif","middle","","","","",""
"","1353","html-keyboard-response","312","646244","0.0-57.0","SS1613170069241","pref_question","","51","","","","","<video width ='960' height = '540' style='padding-top:8%' autoplay muted><source src='images/stimuli/wall_pref.mp4' type='video/mp4'></video>","3","right","66%","16","","","","","","","",""
"","1225","sequential-stimulus-presentation","313","648294","0.0-58.0","SS1613170069241","pref_reveal","","40","800","2025","null","null","","","","","16","","","","novel","","","",""
"","null","html-keyboard-response","314","649588","0.0-59.0-0.0","SS1613170069241","","","null","","","","","<p><img src= images/blank.png width =""200"" height = ""200"" style = ""float:right""></p><p><img src=images/blank.png width =""800"" height = ""200""></p>","","","","","","","","","","","",""
"","517","sequential-stimulus-presentation","315","650925","0.0-59.0-1.0","SS1613170069241","trial","","40","800","1317","images/stimuli/spore_stims/simple_03_B_a.gif","images/stimuli/spore_stims/simple_05_B_d.gif","","","","","17","simple_dissimilar","images/stimuli/spore_stims/simple_05_B_d.gif","right","","","","",""
"","null","html-keyboard-response","316","651948","0.0-59.0-0.1","SS1613170069241","","","null","","","","","<p><img src= images/blank.png width =""200"" height = ""200"" style = ""float:right""></p><p><img src=images/blank.png width =""800"" height = ""200""></p>","","","","","","","","","","","",""
"","606","sequential-stimulus-presentation","317","653365","0.0-59.0-1.1","SS1613170069241","trial","","40","800","1406","images/stimuli/spore_stims/simple_03_B_a.gif","images/stimuli/spore_stims/simple_05_B_d.gif","","","","","17","simple_dissimilar","images/stimuli/spore_stims/simple_05_B_d.gif","right","","","","",""
"","null","html-keyboard-response","318","654319","0.0-59.0-0.2","SS1613170069241","","","null","","","","","<p><img src= images/blank.png width =""200"" height = ""200"" style = ""float:right""></p><p><img src=images/blank.png width =""800"" height = ""200""></p>","","","","","","","","","","","",""
"","881","sequential-stimulus-presentation","319","656031","0.0-59.0-1.2","SS1613170069241","trial","","40","800","1681","images/stimuli/spore_stims/simple_03_B_a.gif","images/stimuli/spore_stims/simple_05_B_d.gif","","","","","17","simple_dissimilar","images/stimuli/spore_stims/simple_05_B_d.gif","right","","","","",""
"","null","html-keyboard-response","320","657008","0.0-59.0-0.3","SS1613170069241","","","null","","","","","<p><img src= images/blank.png width =""200"" height = ""200"" style = ""float:right""></p><p><img src=images/blank.png width =""800"" height = ""200""></p>","","","","","","","","","","","",""
"","1350","sequential-stimulus-presentation","321","659178","0.0-59.0-1.3","SS1613170069241","trial","","40","800","2150","images/stimuli/spore_stims/simple_03_B_a.gif","images/stimuli/spore_stims/simple_05_B_d.gif","","","","","17","simple_dissimilar","images/stimuli/spore_stims/simple_05_B_d.gif","right","","","","",""
"","null","html-keyboard-response","322","660108","0.0-59.0-0.4","SS1613170069241","","","null","","","","","<p><img src= images/blank.png width =""200"" height = ""200"" style = ""float:right""></p><p><img src=images/blank.png width =""800"" height = ""200""></p>","","","","","","","","","","","",""
"","1483","sequential-stimulus-presentation","323","662411","0.0-59.0-1.4","SS1613170069241","trial","","40","800","2283","images/stimuli/spore_stims/simple_03_B_a.gif","images/stimuli/spore_stims/simple_05_B_d.gif","","","","","17","simple_dissimilar","images/stimuli/spore_stims/simple_03_B_a.gif","middle","","","","",""
"","null","html-keyboard-response","324","663388","0.0-59.0-0.5","SS1613170069241","","","null","","","","","<p><img src= images/blank.png width =""200"" height = ""200"" style = ""float:right""></p><p><img src=images/blank.png width =""800"" height = ""200""></p>","","","","","","","","","","","",""
"","990","sequential-stimulus-presentation","325","665199","0.0-59.0-1.5","SS1613170069241","trial","","40","800","1790","images/stimuli/spore_stims/simple_03_B_a.gif","images/stimuli/spore_stims/simple_05_B_d.gif","","","","","17","simple_dissimilar","images/stimuli/spore_stims/simple_05_B_d.gif","right","","","","",""
"","null","html-keyboard-response","326","666439","0.0-59.0-0.6","SS1613170069241","","","null","","","","","<p><img src= images/blank.png width =""200"" height = ""200"" style = ""float:right""></p><p><img src=images/blank.png width =""800"" height = ""200""></p>","","","","","","","","","","","",""
"","573","sequential-stimulus-presentation","327","667831","0.0-59.0-1.6","SS1613170069241","trial","","40","800","1373","images/stimuli/spore_stims/simple_03_B_a.gif","images/stimuli/spore_stims/simple_05_B_d.gif","","","","","17","simple_dissimilar","images/stimuli/spore_stims/simple_05_B_d.gif","right","","","","",""
