"view_history","rt","trial_type","trial_index","time_elapsed","internal_node_id","subject","stimulus_type","trial_stimulus","key_press","minimum_viewing_duration","trial_looking_time","block_deviant","block_background","stimulus","wall_pref","location","location_percent","block_number","block_type","stimulus_displayed","position_displayed","stim_type_selected"
"[{""page_index"":0,""viewing_time"":11539.10499997437}]","11540.640000021085","instructions","0","11544","0.0-0.0","SS1613079911926","","","","","","","","","","","","","","","",""
"[{""page_index"":0,""viewing_time"":6769.719999982044},{""page_index"":1,""viewing_time"":23104.78000016883}]","29874.96000016108","instructions","1","43423","0.0-1.0","SS1613079911926","instructions","","","","","","","","","","","","","","",""
"","4135.679999832064","sequential-stimulus-presentation","2","48368","0.0-2.0","SS1613079911926","","","40","800","4935.679999832064","null","null","","","","","","","","",""
"","1440.6550000421703","sequential-stimulus-presentation","3","50614","0.0-3.0","SS1613079911926","","","40","800","2240.6550000421703","null","null","","","","","","","","",""
"[{""page_index"":0,""viewing_time"":2398.964999942109}]","2399.334999965504","instructions","4","53015","0.0-4.0","SS1613079911926","instructions","","","","","","","","","","","","","","",""
"","7724.815000081435","html-keyboard-response","5","60744","0.0-5.0","SS1613079911926","instructions","","50","","","","","<video width ='960' height = '540' autoplay muted><source src='images/stimuli/wall_pref.mp4' type='video/mp4'></video>","2","middle","45%","","","","",""
"","1305.1899999845773","sequential-stimulus-presentation","6","62863","0.0-6.0","SS1613079911926","pref_reveal","","40","800","2105.1899999845773","null","null","","","","","","","","",""
"[{""page_index"":0,""viewing_time"":3733.8650000747293},{""page_index"":1,""viewing_time"":3748.399999924004},{""page_index"":2,""viewing_time"":1121.9399999827147},{""page_index"":3,""viewing_time"":918.0550000164658}]","9522.635000059381","instructions","7","72388","0.0-7.0","SS1613079911926","instructions","","","","","","","","","","","","","","",""
"","null","html-keyboard-response","8","73222","0.0-8.0-0.0","SS1613079911926","","","null","","","","","<p><img src= images/blank.png width =""200"" height = ""200"" style = ""float:right""></p><p><img src=images/blank.png width =""800"" height = ""200""></p>","","","","","","","",""
"","1465.7999998889863","sequential-stimulus-presentation","9","75495","0.0-8.0-1.0","SS1613079911926","trial","","40","800","2265.7999998889863","images/stimuli/spore_stims/complex_20_B_d.gif","images/stimuli/spore_stims/complex_20_A_d.gif","","","","","0","complex_similar","images/stimuli/spore_stims/complex_20_A_d.gif","middle",""
"","null","html-keyboard-response","10","76460","0.0-8.0-0.1","SS1613079911926","","","null","","","","","<p><img src= images/blank.png width =""200"" height = ""200"" style = ""float:right""></p><p><img src=images/blank.png width =""800"" height = ""200""></p>","","","","","","","",""
"","1697.6250000298023","sequential-stimulus-presentation","11","78970","0.0-8.0-1.1","SS1613079911926","trial","","40","800","2497.6250000298023","images/stimuli/spore_stims/complex_20_B_d.gif","images/stimuli/spore_stims/complex_20_A_d.gif","","","","","0","complex_similar","images/stimuli/spore_stims/complex_20_A_d.gif","middle",""
"","null","html-keyboard-response","12","80189","0.0-8.0-0.2","SS1613079911926","","","null","","","","","<p><img src= images/blank.png width =""200"" height = ""200"" style = ""float:right""></p><p><img src=images/blank.png width =""800"" height = ""200""></p>","","","","","","","",""
"","1234.8100000526756","sequential-stimulus-presentation","13","82232","0.0-8.0-1.2","SS1613079911926","trial","","40","800","2034.8100000526756","images/stimuli/spore_stims/complex_20_B_d.gif","images/stimuli/spore_stims/complex_20_A_d.gif","","","","","0","complex_similar","images/stimuli/spore_stims/complex_20_A_d.gif","middle",""
"","null","html-keyboard-response","14","83429","0.0-8.0-0.3","SS1613079911926","","","null","","","","","<p><img src= images/blank.png width =""200"" height = ""200"" style = ""float:right""></p><p><img src=images/blank.png width =""800"" height = ""200""></p>","","","","","","","",""
"","1216.3300001993775","sequential-stimulus-presentation","15","85451","0.0-8.0-1.3","SS1613079911926","trial","","40","800","2016.3300001993775","images/stimuli/spore_stims/complex_20_B_d.gif","images/stimuli/spore_stims/complex_20_A_d.gif","","","","","0","complex_similar","images/stimuli/spore_stims/complex_20_A_d.gif","middle",""
"","null","html-keyboard-response","16","86358","0.0-8.0-0.4","SS1613079911926","","","null","","","","","<p><img src= images/blank.png width =""200"" height = ""200"" style = ""float:right""></p><p><img src=images/blank.png width =""800"" height = ""200""></p>","","","","","","","",""
"","1264.4149998668581","sequential-stimulus-presentation","17","88428","0.0-8.0-1.4","SS1613079911926","trial","","40","800","2064.414999866858","images/stimuli/spore_stims/complex_20_B_d.gif","images/stimuli/spore_stims/complex_20_A_d.gif","","","","","0","complex_similar","images/stimuli/spore_stims/complex_20_A_d.gif","middle",""
"","null","html-keyboard-response","18","89640","0.0-8.0-0.5","SS1613079911926","","","null","","","","","<p><img src= images/blank.png width =""200"" height = ""200"" style = ""float:right""></p><p><img src=images/blank.png width =""800"" height = ""200""></p>","","","","","","","",""
"","233.5800000000745","sequential-stimulus-presentation","19","90680","0.0-8.0-1.5","SS1613079911926","trial","","40","800","1033.5800000000745","images/stimuli/spore_stims/complex_20_B_d.gif","images/stimuli/spore_stims/complex_20_A_d.gif","","","","","0","complex_similar","images/stimuli/spore_stims/complex_20_B_d.gif","right",""
"","null","html-keyboard-response","20","91624","0.0-8.0-0.6","SS1613079911926","","","null","","","","","<p><img src= images/blank.png width =""200"" height = ""200"" style = ""float:right""></p><p><img src=images/blank.png width =""800"" height = ""200""></p>","","","","","","","",""
"","2576.314999954775","sequential-stimulus-presentation","21","95006","0.0-8.0-1.6","SS1613079911926","trial","","40","800","3376.314999954775","images/stimuli/spore_stims/complex_20_B_d.gif","images/stimuli/spore_stims/complex_20_A_d.gif","","","","","0","complex_similar","images/stimuli/spore_stims/complex_20_A_d.gif","middle",""
"","null","html-keyboard-response","22","95813","0.0-8.0-0.7","SS1613079911926","","","null","","","","","<p><img src= images/blank.png width =""200"" height = ""200"" style = ""float:right""></p><p><img src=images/blank.png width =""800"" height = ""200""></p>","","","","","","","",""
"","2060.174999991432","sequential-stimulus-presentation","23","98684","0.0-8.0-1.7","SS1613079911926","trial","","40","800","2860.174999991432","images/stimuli/spore_stims/complex_20_B_d.gif","images/stimuli/spore_stims/complex_20_A_d.gif","","","","","0","complex_similar","images/stimuli/spore_stims/complex_20_A_d.gif","middle",""
"","1608.6649999488145","html-keyboard-response","24","100296","0.0-9.0","SS1613079911926","pref_question","","51","","","","","<video width ='960' height = '540' style='padding-top:8%' autoplay muted><source src='images/stimuli/wall_pref.mp4' type='video/mp4'></video>","3","right","66%","0","","","",""
"","1440.7450000289828","sequential-stimulus-presentation","25","102544","0.0-10.0","SS1613079911926","pref_reveal","","40","800","2240.7450000289828","null","null","","","","","0","","","","deviant"
"","null","html-keyboard-response","26","103587","0.0-11.0-0.0","SS1613079911926","","","null","","","","","<p><img src= images/blank.png width =""200"" height = ""200"" style = ""float:right""></p><p><img src=images/blank.png width =""800"" height = ""200""></p>","","","","","","","",""
"","736.5699999500066","sequential-stimulus-presentation","27","105129","0.0-11.0-1.0","SS1613079911926","trial","","40","800","1536.5699999500066","images/stimuli/spore_stims/simple_17_A_d.gif","images/stimuli/spore_stims/simple_17_B_d.gif","","","","","1","simple_similar","images/stimuli/spore_stims/simple_17_B_d.gif","middle",""
"","null","html-keyboard-response","28","106364","0.0-11.0-0.1","SS1613079911926","","","null","","","","","<p><img src= images/blank.png width =""200"" height = ""200"" style = ""float:right""></p><p><img src=images/blank.png width =""800"" height = ""200""></p>","","","","","","","",""
"","1008.4450000431389","sequential-stimulus-presentation","29","108178","0.0-11.0-1.1","SS1613079911926","trial","","40","800","1808.4450000431389","images/stimuli/spore_stims/simple_17_A_d.gif","images/stimuli/spore_stims/simple_17_B_d.gif","","","","","1","simple_similar","images/stimuli/spore_stims/simple_17_B_d.gif","middle",""
"","null","html-keyboard-response","30","109234","0.0-11.0-0.2","SS1613079911926","","","null","","","","","<p><img src= images/blank.png width =""200"" height = ""200"" style = ""float:right""></p><p><img src=images/blank.png width =""800"" height = ""200""></p>","","","","","","","",""
"","694.5250001735985","sequential-stimulus-presentation","31","110752","0.0-11.0-1.2","SS1613079911926","trial","","40","800","1494.5250001735985","images/stimuli/spore_stims/simple_17_A_d.gif","images/stimuli/spore_stims/simple_17_B_d.gif","","","","","1","simple_similar","images/stimuli/spore_stims/simple_17_B_d.gif","middle",""
"","null","html-keyboard-response","32","111584","0.0-11.0-0.3","SS1613079911926","","","null","","","","","<p><img src= images/blank.png width =""200"" height = ""200"" style = ""float:right""></p><p><img src=images/blank.png width =""800"" height = ""200""></p>","","","","","","","",""
"","987.070000031963","sequential-stimulus-presentation","33","113377","0.0-11.0-1.3","SS1613079911926","trial","","40","800","1787.070000031963","images/stimuli/spore_stims/simple_17_A_d.gif","images/stimuli/spore_stims/simple_17_B_d.gif","","","","","1","simple_similar","images/stimuli/spore_stims/simple_17_A_d.gif","right",""
"","null","html-keyboard-response","34","114556","0.0-11.0-0.4","SS1613079911926","","","null","","","","","<p><img src= images/blank.png width =""200"" height = ""200"" style = ""float:right""></p><p><img src=images/blank.png width =""800"" height = ""200""></p>","","","","","","","",""
"","699.8749999329448","sequential-stimulus-presentation","35","116066","0.0-11.0-1.4","SS1613079911926","trial","","40","800","1499.8749999329448","images/stimuli/spore_stims/simple_17_A_d.gif","images/stimuli/spore_stims/simple_17_B_d.gif","","","","","1","simple_similar","images/stimuli/spore_stims/simple_17_B_d.gif","middle",""
"","null","html-keyboard-response","36","116891","0.0-11.0-0.5","SS1613079911926","","","null","","","","","<p><img src= images/blank.png width =""200"" height = ""200"" style = ""float:right""></p><p><img src=images/blank.png width =""800"" height = ""200""></p>","","","","","","","",""
"","752.6650000363588","sequential-stimulus-presentation","37","118450","0.0-11.0-1.5","SS1613079911926","trial","","40","800","1552.6650000363588","images/stimuli/spore_stims/simple_17_A_d.gif","images/stimuli/spore_stims/simple_17_B_d.gif","","","","","1","simple_similar","images/stimuli/spore_stims/simple_17_B_d.gif","middle",""
"","null","html-keyboard-response","38","119630","0.0-11.0-0.6","SS1613079911926","","","null","","","","","<p><img src= images/blank.png width =""200"" height = ""200"" style = ""float:right""></p><p><img src=images/blank.png width =""800"" height = ""200""></p>","","","","","","","",""
"","567.6499998662621","sequential-stimulus-presentation","39","121004","0.0-11.0-1.6","SS1613079911926","trial","","40","800","1367.649999866262","images/stimuli/spore_stims/simple_17_A_d.gif","images/stimuli/spore_stims/simple_17_B_d.gif","","","","","1","simple_similar","images/stimuli/spore_stims/simple_17_B_d.gif","middle",""
"","null","html-keyboard-response","40","122019","0.0-11.0-0.7","SS1613079911926","","","null","","","","","<p><img src= images/blank.png width =""200"" height = ""200"" style = ""float:right""></p><p><img src=images/blank.png width =""800"" height = ""200""></p>","","","","","","","",""
"","1661.420000018552","sequential-stimulus-presentation","41","124490","0.0-11.0-1.7","SS1613079911926","trial","","40","800","2461.420000018552","images/stimuli/spore_stims/simple_17_A_d.gif","images/stimuli/spore_stims/simple_17_B_d.gif","","","","","1","simple_similar","images/stimuli/spore_stims/simple_17_B_d.gif","middle",""
"","3725.444999989122","html-keyboard-response","42","128220","0.0-12.0","SS1613079911926","pref_question","","49","","","","","<video width ='960' height = '540' style='padding-top:8%' autoplay muted><source src='images/stimuli/wall_pref.mp4' type='video/mp4'></video>","1","left","25%","1","","","",""
"","1452.745000133291","sequential-stimulus-presentation","43","130482","0.0-13.0","SS1613079911926","pref_reveal","","40","800","2252.745000133291","null","null","","","","","1","","","","novel"
"","null","html-keyboard-response","44","131405","0.0-14.0-0.0","SS1613079911926","","","null","","","","","<p><img src= images/blank.png width =""200"" height = ""200"" style = ""float:right""></p><p><img src=images/blank.png width =""800"" height = ""200""></p>","","","","","","","",""
"","1425.5450000055134","sequential-stimulus-presentation","45","133637","0.0-14.0-1.0","SS1613079911926","trial","","40","800","2225.5450000055134","images/stimuli/spore_stims/complex_19_B_d.gif","images/stimuli/spore_stims/complex_01_B_a.gif","","","","","2","complex_dissimilar","images/stimuli/spore_stims/complex_01_B_a.gif","left",""
"","null","html-keyboard-response","46","134833","0.0-14.0-0.1","SS1613079911926","","","null","","","","","<p><img src= images/blank.png width =""200"" height = ""200"" style = ""float:right""></p><p><img src=images/blank.png width =""800"" height = ""200""></p>","","","","","","","",""
"","554.7749998513609","sequential-stimulus-presentation","47","136195","0.0-14.0-1.1","SS1613079911926","trial","","40","800","1354.774999851361","images/stimuli/spore_stims/complex_19_B_d.gif","images/stimuli/spore_stims/complex_01_B_a.gif","","","","","2","complex_dissimilar","images/stimuli/spore_stims/complex_01_B_a.gif","left",""
"","null","html-keyboard-response","48","137186","0.0-14.0-0.2","SS1613079911926","","","null","","","","","<p><img src= images/blank.png width =""200"" height = ""200"" style = ""float:right""></p><p><img src=images/blank.png width =""800"" height = ""200""></p>","","","","","","","",""
"","958.2299999892712","sequential-stimulus-presentation","49","138955","0.0-14.0-1.2","SS1613079911926","trial","","40","800","1758.2299999892712","images/stimuli/spore_stims/complex_19_B_d.gif","images/stimuli/spore_stims/complex_01_B_a.gif","","","","","2","complex_dissimilar","images/stimuli/spore_stims/complex_01_B_a.gif","left",""
"","null","html-keyboard-response","50","139927","0.0-14.0-0.3","SS1613079911926","","","null","","","","","<p><img src= images/blank.png width =""200"" height = ""200"" style = ""float:right""></p><p><img src=images/blank.png width =""800"" height = ""200""></p>","","","","","","","",""
"","1134.974999818951","sequential-stimulus-presentation","51","141868","0.0-14.0-1.3","SS1613079911926","trial","","40","800","1934.974999818951","images/stimuli/spore_stims/complex_19_B_d.gif","images/stimuli/spore_stims/complex_01_B_a.gif","","","","","2","complex_dissimilar","images/stimuli/spore_stims/complex_01_B_a.gif","left",""
"","null","html-keyboard-response","52","142768","0.0-14.0-0.4","SS1613079911926","","","null","","","","","<p><img src= images/blank.png width =""200"" height = ""200"" style = ""float:right""></p><p><img src=images/blank.png width =""800"" height = ""200""></p>","","","","","","","",""
"","1330.5850001052022","sequential-stimulus-presentation","53","144909","0.0-14.0-1.4","SS1613079911926","trial","","40","800","2130.585000105202","images/stimuli/spore_stims/complex_19_B_d.gif","images/stimuli/spore_stims/complex_01_B_a.gif","","","","","2","complex_dissimilar","images/stimuli/spore_stims/complex_01_B_a.gif","left",""
"","null","html-keyboard-response","54","146157","0.0-14.0-0.5","SS1613079911926","","","null","","","","","<p><img src= images/blank.png width =""200"" height = ""200"" style = ""float:right""></p><p><img src=images/blank.png width =""800"" height = ""200""></p>","","","","","","","",""
"","636.5150001365691","sequential-stimulus-presentation","55","147603","0.0-14.0-1.5","SS1613079911926","trial","","40","800","1436.5150001365691","images/stimuli/spore_stims/complex_19_B_d.gif","images/stimuli/spore_stims/complex_01_B_a.gif","","","","","2","complex_dissimilar","images/stimuli/spore_stims/complex_19_B_d.gif","right",""
"","null","html-keyboard-response","56","148628","0.0-14.0-0.6","SS1613079911926","","","null","","","","","<p><img src= images/blank.png width =""200"" height = ""200"" style = ""float:right""></p><p><img src=images/blank.png width =""800"" height = ""200""></p>","","","","","","","",""
"","1030.049999943003","sequential-stimulus-presentation","57","150467","0.0-14.0-1.6","SS1613079911926","trial","","40","800","1830.049999943003","images/stimuli/spore_stims/complex_19_B_d.gif","images/stimuli/spore_stims/complex_01_B_a.gif","","","","","2","complex_dissimilar","images/stimuli/spore_stims/complex_01_B_a.gif","left",""
"","null","html-keyboard-response","58","151302","0.0-14.0-0.7","SS1613079911926","","","null","","","","","<p><img src= images/blank.png width =""200"" height = ""200"" style = ""float:right""></p><p><img src=images/blank.png width =""800"" height = ""200""></p>","","","","","","","",""
"","645.8349998574704","sequential-stimulus-presentation","59","152755","0.0-14.0-1.7","SS1613079911926","trial","","40","800","1445.8349998574704","images/stimuli/spore_stims/complex_19_B_d.gif","images/stimuli/spore_stims/complex_01_B_a.gif","","","","","2","complex_dissimilar","images/stimuli/spore_stims/complex_01_B_a.gif","left",""
"","1667.7449999842793","html-keyboard-response","60","154427","0.0-15.0","SS1613079911926","pref_question","","50","","","","","<video width ='960' height = '540' style='padding-top:8%' autoplay muted><source src='images/stimuli/wall_pref.mp4' type='video/mp4'></video>","2","middle","45%","2","","","",""
"","1298.8350000232458","sequential-stimulus-presentation","61","156533","0.0-16.0","SS1613079911926","pref_reveal","","40","800","2098.835000023246","null","null","","","","","2","","","","novel"
"","null","html-keyboard-response","62","157599","0.0-17.0-0.0","SS1613079911926","","","null","","","","","<p><img src= images/blank.png width =""200"" height = ""200"" style = ""float:right""></p><p><img src=images/blank.png width =""800"" height = ""200""></p>","","","","","","","",""
"","9841.255000093952","sequential-stimulus-presentation","63","168284","0.0-17.0-1.0","SS1613079911926","trial","","40","800","10641.255000093952","images/stimuli/spore_stims/simple_11_A_b.gif","images/stimuli/spore_stims/simple_05_B_d.gif","","","","","3","simple_dissimilar","images/stimuli/spore_stims/simple_05_B_d.gif","right",""
"","null","html-keyboard-response","64","169307","0.0-17.0-0.1","SS1613079911926","","","null","","","","","<p><img src= images/blank.png width =""200"" height = ""200"" style = ""float:right""></p><p><img src=images/blank.png width =""800"" height = ""200""></p>","","","","","","","",""
"","910.084999864921","sequential-stimulus-presentation","65","171036","0.0-17.0-1.1","SS1613079911926","trial","","40","800","1710.084999864921","images/stimuli/spore_stims/simple_11_A_b.gif","images/stimuli/spore_stims/simple_05_B_d.gif","","","","","3","simple_dissimilar","images/stimuli/spore_stims/simple_05_B_d.gif","right",""
"","null","html-keyboard-response","66","172250","0.0-17.0-0.2","SS1613079911926","","","null","","","","","<p><img src= images/blank.png width =""200"" height = ""200"" style = ""float:right""></p><p><img src=images/blank.png width =""800"" height = ""200""></p>","","","","","","","",""
"","825.7949999533594","sequential-stimulus-presentation","67","173884","0.0-17.0-1.2","SS1613079911926","trial","","40","800","1625.7949999533594","images/stimuli/spore_stims/simple_11_A_b.gif","images/stimuli/spore_stims/simple_05_B_d.gif","","","","","3","simple_dissimilar","images/stimuli/spore_stims/simple_05_B_d.gif","right",""
"","null","html-keyboard-response","68","176158","0.0-17.0-0.3","SS1613079911926","","","null","","","","","<p><img src= images/blank.png width =""200"" height = ""200"" style = ""float:right""></p><p><img src=images/blank.png width =""800"" height = ""200""></p>","","","","","","","",""
"","4097.7149999234825","sequential-stimulus-presentation","69","181517","0.0-17.0-1.3","SS1613079911926","trial","","40","800","4897.7149999234825","images/stimuli/spore_stims/simple_11_A_b.gif","images/stimuli/spore_stims/simple_05_B_d.gif","","","","","3","simple_dissimilar","images/stimuli/spore_stims/simple_05_B_d.gif","right",""
"","null","html-keyboard-response","70","182519","0.0-17.0-0.4","SS1613079911926","","","null","","","","","<p><img src= images/blank.png width =""200"" height = ""200"" style = ""float:right""></p><p><img src=images/blank.png width =""800"" height = ""200""></p>","","","","","","","",""
"","909.5300000626594","sequential-stimulus-presentation","71","184237","0.0-17.0-1.4","SS1613079911926","trial","","40","800","1709.5300000626594","images/stimuli/spore_stims/simple_11_A_b.gif","images/stimuli/spore_stims/simple_05_B_d.gif","","","","","3","simple_dissimilar","images/stimuli/spore_stims/simple_11_A_b.gif","left",""
"","null","html-keyboard-response","72","186296","0.0-17.0-0.5","SS1613079911926","","","null","","","","","<p><img src= images/blank.png width =""200"" height = ""200"" style = ""float:right""></p><p><img src=images/blank.png width =""800"" height = ""200""></p>","","","","","","","",""
"","1354.8749999608845","sequential-stimulus-presentation","73","188469","0.0-17.0-1.5","SS1613079911926","trial","","40","800","2154.8749999608845","images/stimuli/spore_stims/simple_11_A_b.gif","images/stimuli/spore_stims/simple_05_B_d.gif","","","","","3","simple_dissimilar","images/stimuli/spore_stims/simple_05_B_d.gif","right",""
"","null","html-keyboard-response","74","189643","0.0-17.0-0.6","SS1613079911926","","","null","","","","","<p><img src= images/blank.png width =""200"" height = ""200"" style = ""float:right""></p><p><img src=images/blank.png width =""800"" height = ""200""></p>","","","","","","","",""
"","2217.299999902025","sequential-stimulus-presentation","75","192671","0.0-17.0-1.6","SS1613079911926","trial","","40","800","3017.299999902025","images/stimuli/spore_stims/simple_11_A_b.gif","images/stimuli/spore_stims/simple_05_B_d.gif","","","","","3","simple_dissimilar","images/stimuli/spore_stims/simple_05_B_d.gif","right",""
"","null","html-keyboard-response","76","193813","0.0-17.0-0.7","SS1613079911926","","","null","","","","","<p><img src= images/blank.png width =""200"" height = ""200"" style = ""float:right""></p><p><img src=images/blank.png width =""800"" height = ""200""></p>","","","","","","","",""
"","1475.5150000564754","sequential-stimulus-presentation","77","196102","0.0-17.0-1.7","SS1613079911926","trial","","40","800","2275.5150000564754","images/stimuli/spore_stims/simple_11_A_b.gif","images/stimuli/spore_stims/simple_05_B_d.gif","","","","","3","simple_dissimilar","images/stimuli/spore_stims/simple_05_B_d.gif","right",""
"","1611.3350000232458","html-keyboard-response","78","197717","0.0-18.0","SS1613079911926","pref_question","","51","","","","","<video width ='960' height = '540' style='padding-top:8%' autoplay muted><source src='images/stimuli/wall_pref.mp4' type='video/mp4'></video>","3","right","66%","3","","","",""
"","1536.5850001107901","sequential-stimulus-presentation","79","200061","0.0-19.0","SS1613079911926","pref_reveal","","40","800","2336.58500011079","null","null","","","","","3","","","","background"
"","null","html-keyboard-response","80","201235","0.0-20.0-0.0","SS1613079911926","","","null","","","","","<p><img src= images/blank.png width =""200"" height = ""200"" style = ""float:right""></p><p><img src=images/blank.png width =""800"" height = ""200""></p>","","","","","","","",""
"","489.8000000976026","sequential-stimulus-presentation","81","202534","0.0-20.0-1.0","SS1613079911926","trial","","40","800","1289.8000000976026","images/stimuli/spore_stims/complex_12_A_c.gif","images/stimuli/spore_stims/complex_12_B_c.gif","","","","","4","complex_similar","images/stimuli/spore_stims/complex_12_B_c.gif","middle",""
"","null","html-keyboard-response","82","203684","0.0-20.0-0.1","SS1613079911926","","","null","","","","","<p><img src= images/blank.png width =""200"" height = ""200"" style = ""float:right""></p><p><img src=images/blank.png width =""800"" height = ""200""></p>","","","","","","","",""
"","453.55500001460314","sequential-stimulus-presentation","83","204947","0.0-20.0-1.1","SS1613079911926","trial","","40","800","1253.5550000146031","images/stimuli/spore_stims/complex_12_A_c.gif","images/stimuli/spore_stims/complex_12_B_c.gif","","","","","4","complex_similar","images/stimuli/spore_stims/complex_12_B_c.gif","middle",""
"","null","html-keyboard-response","84","206135","0.0-20.0-0.2","SS1613079911926","","","null","","","","","<p><img src= images/blank.png width =""200"" height = ""200"" style = ""float:right""></p><p><img src=images/blank.png width =""800"" height = ""200""></p>","","","","","","","",""
"","828.7750000599772","sequential-stimulus-presentation","85","207791","0.0-20.0-1.2","SS1613079911926","trial","","40","800","1628.7750000599772","images/stimuli/spore_stims/complex_12_A_c.gif","images/stimuli/spore_stims/complex_12_B_c.gif","","","","","4","complex_similar","images/stimuli/spore_stims/complex_12_B_c.gif","middle",""
"","null","html-keyboard-response","86","209091","0.0-20.0-0.3","SS1613079911926","","","null","","","","","<p><img src= images/blank.png width =""200"" height = ""200"" style = ""float:right""></p><p><img src=images/blank.png width =""800"" height = ""200""></p>","","","","","","","",""
"","521.9300000462681","sequential-stimulus-presentation","87","210424","0.0-20.0-1.3","SS1613079911926","trial","","40","800","1321.930000046268","images/stimuli/spore_stims/complex_12_A_c.gif","images/stimuli/spore_stims/complex_12_B_c.gif","","","","","4","complex_similar","images/stimuli/spore_stims/complex_12_B_c.gif","middle",""
"","null","html-keyboard-response","88","211373","0.0-20.0-0.4","SS1613079911926","","","null","","","","","<p><img src= images/blank.png width =""200"" height = ""200"" style = ""float:right""></p><p><img src=images/blank.png width =""800"" height = ""200""></p>","","","","","","","",""
"","594.0600000321865","sequential-stimulus-presentation","89","212774","0.0-20.0-1.4","SS1613079911926","trial","","40","800","1394.0600000321865","images/stimuli/spore_stims/complex_12_A_c.gif","images/stimuli/spore_stims/complex_12_B_c.gif","","","","","4","complex_similar","images/stimuli/spore_stims/complex_12_B_c.gif","middle",""
"","null","html-keyboard-response","90","213996","0.0-20.0-0.5","SS1613079911926","","","null","","","","","<p><img src= images/blank.png width =""200"" height = ""200"" style = ""float:right""></p><p><img src=images/blank.png width =""800"" height = ""200""></p>","","","","","","","",""
"","480.940000154078","sequential-stimulus-presentation","91","215288","0.0-20.0-1.5","SS1613079911926","trial","","40","800","1280.940000154078","images/stimuli/spore_stims/complex_12_A_c.gif","images/stimuli/spore_stims/complex_12_B_c.gif","","","","","4","complex_similar","images/stimuli/spore_stims/complex_12_A_c.gif","left",""
"","null","html-keyboard-response","92","216125","0.0-20.0-0.6","SS1613079911926","","","null","","","","","<p><img src= images/blank.png width =""200"" height = ""200"" style = ""float:right""></p><p><img src=images/blank.png width =""800"" height = ""200""></p>","","","","","","","",""
"","364.850000012666","sequential-stimulus-presentation","93","217302","0.0-20.0-1.6","SS1613079911926","trial","","40","800","1164.850000012666","images/stimuli/spore_stims/complex_12_A_c.gif","images/stimuli/spore_stims/complex_12_B_c.gif","","","","","4","complex_similar","images/stimuli/spore_stims/complex_12_B_c.gif","middle",""
"","null","html-keyboard-response","94","218225","0.0-20.0-0.7","SS1613079911926","","","null","","","","","<p><img src= images/blank.png width =""200"" height = ""200"" style = ""float:right""></p><p><img src=images/blank.png width =""800"" height = ""200""></p>","","","","","","","",""
"","684.8249998874962","sequential-stimulus-presentation","95","219718","0.0-20.0-1.7","SS1613079911926","trial","","40","800","1484.8249998874962","images/stimuli/spore_stims/complex_12_A_c.gif","images/stimuli/spore_stims/complex_12_B_c.gif","","","","","4","complex_similar","images/stimuli/spore_stims/complex_12_B_c.gif","middle",""
"","2459.4499999657273","html-keyboard-response","96","222182","0.0-21.0","SS1613079911926","pref_question","","50","","","","","<video width ='960' height = '540' style='padding-top:8%' autoplay muted><source src='images/stimuli/wall_pref.mp4' type='video/mp4'></video>","2","middle","45%","4","","","",""
"","841.2250000983477","sequential-stimulus-presentation","97","223833","0.0-22.0","SS1613079911926","pref_reveal","","40","800","1641.2250000983477","null","null","","","","","4","","","","background"
"","null","html-keyboard-response","98","224672","0.0-23.0-0.0","SS1613079911926","","","null","","","","","<p><img src= images/blank.png width =""200"" height = ""200"" style = ""float:right""></p><p><img src=images/blank.png width =""800"" height = ""200""></p>","","","","","","","",""
"","7.195000071078539","sequential-stimulus-presentation","99","225513","0.0-23.0-1.0","SS1613079911926","trial","","40","800","807.1950000710785","images/stimuli/spore_stims/simple_16_A_b.gif","images/stimuli/spore_stims/simple_14_A_c.gif","","","","","5","simple_dissimilar","images/stimuli/spore_stims/simple_14_A_c.gif","middle",""
"","null","html-keyboard-response","100","226653","0.0-23.0-0.1","SS1613079911926","","","null","","","","","<p><img src= images/blank.png width =""200"" height = ""200"" style = ""float:right""></p><p><img src=images/blank.png width =""800"" height = ""200""></p>","","","","","","","",""
"","458.4900001063943","sequential-stimulus-presentation","101","227920","0.0-23.0-1.1","SS1613079911926","trial","","40","800","1258.4900001063943","images/stimuli/spore_stims/simple_16_A_b.gif","images/stimuli/spore_stims/simple_14_A_c.gif","","","","","5","simple_dissimilar","images/stimuli/spore_stims/simple_14_A_c.gif","middle",""
"","null","html-keyboard-response","102","228749","0.0-23.0-0.2","SS1613079911926","","","null","","","","","<p><img src= images/blank.png width =""200"" height = ""200"" style = ""float:right""></p><p><img src=images/blank.png width =""800"" height = ""200""></p>","","","","","","","",""
"","1379.2200000025332","sequential-stimulus-presentation","103","230936","0.0-23.0-1.2","SS1613079911926","trial","","40","800","2179.220000002533","images/stimuli/spore_stims/simple_16_A_b.gif","images/stimuli/spore_stims/simple_14_A_c.gif","","","","","5","simple_dissimilar","images/stimuli/spore_stims/simple_14_A_c.gif","middle",""
"","null","html-keyboard-response","104","231910","0.0-23.0-0.3","SS1613079911926","","","null","","","","","<p><img src= images/blank.png width =""200"" height = ""200"" style = ""float:right""></p><p><img src=images/blank.png width =""800"" height = ""200""></p>","","","","","","","",""
"","938.2800001185387","sequential-stimulus-presentation","105","233656","0.0-23.0-1.3","SS1613079911926","trial","","40","800","1738.2800001185387","images/stimuli/spore_stims/simple_16_A_b.gif","images/stimuli/spore_stims/simple_14_A_c.gif","","","","","5","simple_dissimilar","images/stimuli/spore_stims/simple_16_A_b.gif","right",""
"","null","html-keyboard-response","106","234622","0.0-23.0-0.4","SS1613079911926","","","null","","","","","<p><img src= images/blank.png width =""200"" height = ""200"" style = ""float:right""></p><p><img src=images/blank.png width =""800"" height = ""200""></p>","","","","","","","",""
"","1195.805000141263","sequential-stimulus-presentation","107","236626","0.0-23.0-1.4","SS1613079911926","trial","","40","800","1995.805000141263","images/stimuli/spore_stims/simple_16_A_b.gif","images/stimuli/spore_stims/simple_14_A_c.gif","","","","","5","simple_dissimilar","images/stimuli/spore_stims/simple_14_A_c.gif","middle",""
"","null","html-keyboard-response","108","237769","0.0-23.0-0.5","SS1613079911926","","","null","","","","","<p><img src= images/blank.png width =""200"" height = ""200"" style = ""float:right""></p><p><img src=images/blank.png width =""800"" height = ""200""></p>","","","","","","","",""
"","388.5349999181926","sequential-stimulus-presentation","109","238969","0.0-23.0-1.5","SS1613079911926","trial","","40","800","1188.5349999181926","images/stimuli/spore_stims/simple_16_A_b.gif","images/stimuli/spore_stims/simple_14_A_c.gif","","","","","5","simple_dissimilar","images/stimuli/spore_stims/simple_14_A_c.gif","middle",""
"","null","html-keyboard-response","110","239982","0.0-23.0-0.6","SS1613079911926","","","null","","","","","<p><img src= images/blank.png width =""200"" height = ""200"" style = ""float:right""></p><p><img src=images/blank.png width =""800"" height = ""200""></p>","","","","","","","",""
"","520.4300000332296","sequential-stimulus-presentation","111","241312","0.0-23.0-1.6","SS1613079911926","trial","","40","800","1320.4300000332296","images/stimuli/spore_stims/simple_16_A_b.gif","images/stimuli/spore_stims/simple_14_A_c.gif","","","","","5","simple_dissimilar","images/stimuli/spore_stims/simple_14_A_c.gif","middle",""
"","null","html-keyboard-response","112","242420","0.0-23.0-0.7","SS1613079911926","","","null","","","","","<p><img src= images/blank.png width =""200"" height = ""200"" style = ""float:right""></p><p><img src=images/blank.png width =""800"" height = ""200""></p>","","","","","","","",""
"","473.1350000947714","sequential-stimulus-presentation","113","243713","0.0-23.0-1.7","SS1613079911926","trial","","40","800","1273.1350000947714","images/stimuli/spore_stims/simple_16_A_b.gif","images/stimuli/spore_stims/simple_14_A_c.gif","","","","","5","simple_dissimilar","images/stimuli/spore_stims/simple_14_A_c.gif","middle",""
"","1779.0149999782443","html-keyboard-response","114","245503","0.0-24.0","SS1613079911926","pref_question","","49","","","","","<video width ='960' height = '540' style='padding-top:8%' autoplay muted><source src='images/stimuli/wall_pref.mp4' type='video/mp4'></video>","1","left","25%","5","","","",""
"","1627.464999910444","sequential-stimulus-presentation","115","247939","0.0-25.0","SS1613079911926","pref_reveal","","40","800","2427.464999910444","null","null","","","","","5","","","","novel"
"","null","html-keyboard-response","116","248753","0.0-26.0-0.0","SS1613079911926","","","null","","","","","<p><img src= images/blank.png width =""200"" height = ""200"" style = ""float:right""></p><p><img src=images/blank.png width =""800"" height = ""200""></p>","","","","","","","",""
"","276.9549998920411","sequential-stimulus-presentation","117","249843","0.0-26.0-1.0","SS1613079911926","trial","","40","800","1076.954999892041","images/stimuli/spore_stims/complex_09_A_c.gif","images/stimuli/spore_stims/complex_18_B_b.gif","","","","","6","complex_dissimilar","images/stimuli/spore_stims/complex_18_B_b.gif","left",""
"","null","html-keyboard-response","118","250818","0.0-26.0-0.1","SS1613079911926","","","null","","","","","<p><img src= images/blank.png width =""200"" height = ""200"" style = ""float:right""></p><p><img src=images/blank.png width =""800"" height = ""200""></p>","","","","","","","",""
"","342.24500018171966","sequential-stimulus-presentation","119","251969","0.0-26.0-1.1","SS1613079911926","trial","","40","800","1142.2450001817197","images/stimuli/spore_stims/complex_09_A_c.gif","images/stimuli/spore_stims/complex_18_B_b.gif","","","","","6","complex_dissimilar","images/stimuli/spore_stims/complex_18_B_b.gif","left",""
"","null","html-keyboard-response","120","253159","0.0-26.0-0.2","SS1613079911926","","","null","","","","","<p><img src= images/blank.png width =""200"" height = ""200"" style = ""float:right""></p><p><img src=images/blank.png width =""800"" height = ""200""></p>","","","","","","","",""
"","625.2050001639873","sequential-stimulus-presentation","121","254593","0.0-26.0-1.2","SS1613079911926","trial","","40","800","1425.2050001639873","images/stimuli/spore_stims/complex_09_A_c.gif","images/stimuli/spore_stims/complex_18_B_b.gif","","","","","6","complex_dissimilar","images/stimuli/spore_stims/complex_18_B_b.gif","left",""
"","null","html-keyboard-response","122","255508","0.0-26.0-0.3","SS1613079911926","","","null","","","","","<p><img src= images/blank.png width =""200"" height = ""200"" style = ""float:right""></p><p><img src=images/blank.png width =""800"" height = ""200""></p>","","","","","","","",""
"","293.41000015847385","sequential-stimulus-presentation","123","256610","0.0-26.0-1.3","SS1613079911926","trial","","40","800","1093.4100001584738","images/stimuli/spore_stims/complex_09_A_c.gif","images/stimuli/spore_stims/complex_18_B_b.gif","","","","","6","complex_dissimilar","images/stimuli/spore_stims/complex_18_B_b.gif","left",""
"","null","html-keyboard-response","124","257686","0.0-26.0-0.4","SS1613079911926","","","null","","","","","<p><img src= images/blank.png width =""200"" height = ""200"" style = ""float:right""></p><p><img src=images/blank.png width =""800"" height = ""200""></p>","","","","","","","",""
"","287.1449999511242","sequential-stimulus-presentation","125","258786","0.0-26.0-1.4","SS1613079911926","trial","","40","800","1087.1449999511242","images/stimuli/spore_stims/complex_09_A_c.gif","images/stimuli/spore_stims/complex_18_B_b.gif","","","","","6","complex_dissimilar","images/stimuli/spore_stims/complex_18_B_b.gif","left",""
"","null","html-keyboard-response","126","259863","0.0-26.0-0.5","SS1613079911926","","","null","","","","","<p><img src= images/blank.png width =""200"" height = ""200"" style = ""float:right""></p><p><img src=images/blank.png width =""800"" height = ""200""></p>","","","","","","","",""
"","331.4650000538677","sequential-stimulus-presentation","127","261003","0.0-26.0-1.5","SS1613079911926","trial","","40","800","1131.4650000538677","images/stimuli/spore_stims/complex_09_A_c.gif","images/stimuli/spore_stims/complex_18_B_b.gif","","","","","6","complex_dissimilar","images/stimuli/spore_stims/complex_18_B_b.gif","left",""
"","null","html-keyboard-response","128","262305","0.0-26.0-0.6","SS1613079911926","","","null","","","","","<p><img src= images/blank.png width =""200"" height = ""200"" style = ""float:right""></p><p><img src=images/blank.png width =""800"" height = ""200""></p>","","","","","","","",""
"","780.8149999473244","sequential-stimulus-presentation","129","263893","0.0-26.0-1.6","SS1613079911926","trial","","40","800","1580.8149999473244","images/stimuli/spore_stims/complex_09_A_c.gif","images/stimuli/spore_stims/complex_18_B_b.gif","","","","","6","complex_dissimilar","images/stimuli/spore_stims/complex_09_A_c.gif","right",""
"","null","html-keyboard-response","130","265013","0.0-26.0-0.7","SS1613079911926","","","null","","","","","<p><img src= images/blank.png width =""200"" height = ""200"" style = ""float:right""></p><p><img src=images/blank.png width =""800"" height = ""200""></p>","","","","","","","",""
"","710.8199999202043","sequential-stimulus-presentation","131","266537","0.0-26.0-1.7","SS1613079911926","trial","","40","800","1510.8199999202043","images/stimuli/spore_stims/complex_09_A_c.gif","images/stimuli/spore_stims/complex_18_B_b.gif","","","","","6","complex_dissimilar","images/stimuli/spore_stims/complex_18_B_b.gif","left",""
"","949.4549999944866","html-keyboard-response","132","267492","0.0-27.0","SS1613079911926","pref_question","","50","","","","","<video width ='960' height = '540' style='padding-top:8%' autoplay muted><source src='images/stimuli/wall_pref.mp4' type='video/mp4'></video>","2","middle","45%","6","","","",""
"","381.2299999408424","sequential-stimulus-presentation","133","268681","0.0-28.0","SS1613079911926","pref_reveal","","40","800","1181.2299999408424","null","null","","","","","6","","","","novel"
"","null","html-keyboard-response","134","269553","0.0-29.0-0.0","SS1613079911926","","","null","","","","","<p><img src= images/blank.png width =""200"" height = ""200"" style = ""float:right""></p><p><img src=images/blank.png width =""800"" height = ""200""></p>","","","","","","","",""
"","401.25499991700053","sequential-stimulus-presentation","135","270763","0.0-29.0-1.0","SS1613079911926","trial","","40","800","1201.2549999170005","images/stimuli/spore_stims/simple_12_A_c.gif","images/stimuli/spore_stims/simple_02_A_b.gif","","","","","7","simple_dissimilar","images/stimuli/spore_stims/simple_02_A_b.gif","middle",""
"","null","html-keyboard-response","136","271571","0.0-29.0-0.1","SS1613079911926","","","null","","","","","<p><img src= images/blank.png width =""200"" height = ""200"" style = ""float:right""></p><p><img src=images/blank.png width =""800"" height = ""200""></p>","","","","","","","",""
"","872.765000211075","sequential-stimulus-presentation","137","273253","0.0-29.0-1.1","SS1613079911926","trial","","40","800","1672.765000211075","images/stimuli/spore_stims/simple_12_A_c.gif","images/stimuli/spore_stims/simple_02_A_b.gif","","","","","7","simple_dissimilar","images/stimuli/spore_stims/simple_02_A_b.gif","middle",""
"","null","html-keyboard-response","138","274457","0.0-29.0-0.2","SS1613079911926","","","null","","","","","<p><img src= images/blank.png width =""200"" height = ""200"" style = ""float:right""></p><p><img src=images/blank.png width =""800"" height = ""200""></p>","","","","","","","",""
"","870.9050000179559","sequential-stimulus-presentation","139","276137","0.0-29.0-1.2","SS1613079911926","trial","","40","800","1670.905000017956","images/stimuli/spore_stims/simple_12_A_c.gif","images/stimuli/spore_stims/simple_02_A_b.gif","","","","","7","simple_dissimilar","images/stimuli/spore_stims/simple_02_A_b.gif","middle",""
"","null","html-keyboard-response","140","277165","0.0-29.0-0.3","SS1613079911926","","","null","","","","","<p><img src= images/blank.png width =""200"" height = ""200"" style = ""float:right""></p><p><img src=images/blank.png width =""800"" height = ""200""></p>","","","","","","","",""
"","705.9750000480562","sequential-stimulus-presentation","141","278687","0.0-29.0-1.3","SS1613079911926","trial","","40","800","1505.9750000480562","images/stimuli/spore_stims/simple_12_A_c.gif","images/stimuli/spore_stims/simple_02_A_b.gif","","","","","7","simple_dissimilar","images/stimuli/spore_stims/simple_02_A_b.gif","middle",""
"","null","html-keyboard-response","142","279726","0.0-29.0-0.4","SS1613079911926","","","null","","","","","<p><img src= images/blank.png width =""200"" height = ""200"" style = ""float:right""></p><p><img src=images/blank.png width =""800"" height = ""200""></p>","","","","","","","",""
"","57.20499996095896","sequential-stimulus-presentation","143","280595","0.0-29.0-1.4","SS1613079911926","trial","","40","800","857.204999960959","images/stimuli/spore_stims/simple_12_A_c.gif","images/stimuli/spore_stims/simple_02_A_b.gif","","","","","7","simple_dissimilar","images/stimuli/spore_stims/simple_12_A_c.gif","right",""
"","null","html-keyboard-response","144","281789","0.0-29.0-0.5","SS1613079911926","","","null","","","","","<p><img src= images/blank.png width =""200"" height = ""200"" style = ""float:right""></p><p><img src=images/blank.png width =""800"" height = ""200""></p>","","","","","","","",""
"","473.66000013425946","sequential-stimulus-presentation","145","283071","0.0-29.0-1.5","SS1613079911926","trial","","40","800","1273.6600001342595","images/stimuli/spore_stims/simple_12_A_c.gif","images/stimuli/spore_stims/simple_02_A_b.gif","","","","","7","simple_dissimilar","images/stimuli/spore_stims/simple_02_A_b.gif","middle",""
"","null","html-keyboard-response","146","284127","0.0-29.0-0.6","SS1613079911926","","","null","","","","","<p><img src= images/blank.png width =""200"" height = ""200"" style = ""float:right""></p><p><img src=images/blank.png width =""800"" height = ""200""></p>","","","","","","","",""
"","488.45999990589917","sequential-stimulus-presentation","147","285426","0.0-29.0-1.6","SS1613079911926","trial","","40","800","1288.4599999058992","images/stimuli/spore_stims/simple_12_A_c.gif","images/stimuli/spore_stims/simple_02_A_b.gif","","","","","7","simple_dissimilar","images/stimuli/spore_stims/simple_02_A_b.gif","middle",""
"","null","html-keyboard-response","148","286466","0.0-29.0-0.7","SS1613079911926","","","null","","","","","<p><img src= images/blank.png width =""200"" height = ""200"" style = ""float:right""></p><p><img src=images/blank.png width =""800"" height = ""200""></p>","","","","","","","",""
"","445.73500007390976","sequential-stimulus-presentation","149","287722","0.0-29.0-1.7","SS1613079911926","trial","","40","800","1245.7350000739098","images/stimuli/spore_stims/simple_12_A_c.gif","images/stimuli/spore_stims/simple_02_A_b.gif","","","","","7","simple_dissimilar","images/stimuli/spore_stims/simple_02_A_b.gif","middle",""
"","1046.644999878481","html-keyboard-response","150","288774","0.0-30.0","SS1613079911926","pref_question","","51","","","","","<video width ='960' height = '540' style='padding-top:8%' autoplay muted><source src='images/stimuli/wall_pref.mp4' type='video/mp4'></video>","3","right","66%","7","","","",""
"","842.9450001567602","sequential-stimulus-presentation","151","290426","0.0-31.0","SS1613079911926","pref_reveal","","40","800","1642.9450001567602","null","null","","","","","7","","","","deviant"
"","null","html-keyboard-response","152","291287","0.0-32.0-0.0","SS1613079911926","","","null","","","","","<p><img src= images/blank.png width =""200"" height = ""200"" style = ""float:right""></p><p><img src=images/blank.png width =""800"" height = ""200""></p>","","","","","","","",""
"","417.3550000414252","sequential-stimulus-presentation","153","292514","0.0-32.0-1.0","SS1613079911926","trial","","40","800","1217.3550000414252","images/stimuli/spore_stims/simple_20_A_d.gif","images/stimuli/spore_stims/simple_07_B_d.gif","","","","","8","simple_dissimilar","images/stimuli/spore_stims/simple_07_B_d.gif","left",""
"","null","html-keyboard-response","154","293796","0.0-32.0-0.1","SS1613079911926","","","null","","","","","<p><img src= images/blank.png width =""200"" height = ""200"" style = ""float:right""></p><p><img src=images/blank.png width =""800"" height = ""200""></p>","","","","","","","",""
"","484.3949999194592","sequential-stimulus-presentation","155","295093","0.0-32.0-1.1","SS1613079911926","trial","","40","800","1284.3949999194592","images/stimuli/spore_stims/simple_20_A_d.gif","images/stimuli/spore_stims/simple_07_B_d.gif","","","","","8","simple_dissimilar","images/stimuli/spore_stims/simple_07_B_d.gif","left",""
"","null","html-keyboard-response","156","296105","0.0-32.0-0.2","SS1613079911926","","","null","","","","","<p><img src= images/blank.png width =""200"" height = ""200"" style = ""float:right""></p><p><img src=images/blank.png width =""800"" height = ""200""></p>","","","","","","","",""
"","726.6150000505149","sequential-stimulus-presentation","157","297642","0.0-32.0-1.2","SS1613079911926","trial","","40","800","1526.615000050515","images/stimuli/spore_stims/simple_20_A_d.gif","images/stimuli/spore_stims/simple_07_B_d.gif","","","","","8","simple_dissimilar","images/stimuli/spore_stims/simple_07_B_d.gif","left",""
"","null","html-keyboard-response","158","298537","0.0-32.0-0.3","SS1613079911926","","","null","","","","","<p><img src= images/blank.png width =""200"" height = ""200"" style = ""float:right""></p><p><img src=images/blank.png width =""800"" height = ""200""></p>","","","","","","","",""
"","433.41000005602837","sequential-stimulus-presentation","159","299779","0.0-32.0-1.3","SS1613079911926","trial","","40","800","1233.4100000560284","images/stimuli/spore_stims/simple_20_A_d.gif","images/stimuli/spore_stims/simple_07_B_d.gif","","","","","8","simple_dissimilar","images/stimuli/spore_stims/simple_07_B_d.gif","left",""
"","null","html-keyboard-response","160","300892","0.0-32.0-0.4","SS1613079911926","","","null","","","","","<p><img src= images/blank.png width =""200"" height = ""200"" style = ""float:right""></p><p><img src=images/blank.png width =""800"" height = ""200""></p>","","","","","","","",""
"","213.33499997854233","sequential-stimulus-presentation","161","301916","0.0-32.0-1.4","SS1613079911926","trial","","40","800","1013.3349999785423","images/stimuli/spore_stims/simple_20_A_d.gif","images/stimuli/spore_stims/simple_07_B_d.gif","","","","","8","simple_dissimilar","images/stimuli/spore_stims/simple_07_B_d.gif","left",""
"","null","html-keyboard-response","162","303204","0.0-32.0-0.5","SS1613079911926","","","null","","","","","<p><img src= images/blank.png width =""200"" height = ""200"" style = ""float:right""></p><p><img src=images/blank.png width =""800"" height = ""200""></p>","","","","","","","",""
"","181.32500001229346","sequential-stimulus-presentation","163","304197","0.0-32.0-1.5","SS1613079911926","trial","","40","800","981.3250000122935","images/stimuli/spore_stims/simple_20_A_d.gif","images/stimuli/spore_stims/simple_07_B_d.gif","","","","","8","simple_dissimilar","images/stimuli/spore_stims/simple_07_B_d.gif","left",""
