"view_history","rt","trial_type","trial_index","time_elapsed","internal_node_id","subject","stimulus_type","trial_stimulus","key_press","minimum_viewing_duration","trial_looking_time","block_deviant","block_background","stimulus","wall_pref","location","location_percent","block_number","block_type","stimulus_displayed","position_displayed","stim_type_selected","responses","question_order","stimulus_left","stimulus_right"
"[{""page_index"":0,""viewing_time"":1179.0649999747984}]","1179.5949999941513","instructions","0","1181","0.0-0.0","SS1613140195992","","","","","","","","","","","","","","","","","","","",""
"[{""page_index"":0,""viewing_time"":7021.399999968708},{""page_index"":1,""viewing_time"":3970.5400000093505}]","10992.384999990463","instructions","1","14176","0.0-1.0","SS1613140195992","instructions","","","","","","","","","","","","","","","","","","",""
"","5825.765000015963","sequential-stimulus-presentation","2","20805","0.0-2.0","SS1613140195992","","","40","800","6625.765000015963","null","null","","","","","","","","","","","","",""
"","1654.90000002319","sequential-stimulus-presentation","3","23269","0.0-3.0","SS1613140195992","","","40","800","2454.90000002319","null","null","","","","","","","","","","","","",""
"[{""page_index"":0,""viewing_time"":1455.629999982193}]","1455.9899999876507","instructions","4","24726","0.0-4.0","SS1613140195992","instructions","","","","","","","","","","","","","","","","","","",""
"","5570.45499997912","html-keyboard-response","5","30298","0.0-5.0","SS1613140195992","instructions","","50","","","","","<video width ='960' height = '540' autoplay muted><source src='images/stimuli/wall_pref.mp4' type='video/mp4'></video>","2","middle","45%","","","","","","","","",""
"","2003.2099999953061","sequential-stimulus-presentation","6","33106","0.0-6.0","SS1613140195992","pref_reveal","","40","800","2803.209999995306","null","null","","","","","","","","","","","","",""
"[{""page_index"":0,""viewing_time"":4959.809999971185},{""page_index"":1,""viewing_time"":1188.2900000200607},{""page_index"":2,""viewing_time"":3730.314999993425},{""page_index"":3,""viewing_time"":1235.225000011269}]","11113.994999963325","instructions","7","44220","0.0-7.0","SS1613140195992","instructions","","","","","","","","","","","","","","","","","","",""
"","null","html-keyboard-response","8","45082","0.0-8.0-0.0","SS1613140195992","","","null","","","","","<p><img src= images/blank.png width =""200"" height = ""200"" style = ""float:right""></p><p><img src=images/blank.png width =""800"" height = ""200""></p>","","","","","","","","","","","",""
"","2675.035000022035","sequential-stimulus-presentation","9","48560","0.0-8.0-1.0","SS1613140195992","trial","","40","800","3475.035000022035","images/stimuli/spore_stims/simple_08_B_d.gif","images/stimuli/spore_stims/simple_03_B_b.gif","","","","","0","simple_dissimilar","images/stimuli/spore_stims/simple_03_B_b.gif","middle","","","","",""
"","null","html-keyboard-response","10","49419","0.0-8.0-0.1","SS1613140195992","","","null","","","","","<p><img src= images/blank.png width =""200"" height = ""200"" style = ""float:right""></p><p><img src=images/blank.png width =""800"" height = ""200""></p>","","","","","","","","","","","",""
"","1354.3599999975413","sequential-stimulus-presentation","11","51577","0.0-8.0-1.1","SS1613140195992","trial","","40","800","2154.3599999975413","images/stimuli/spore_stims/simple_08_B_d.gif","images/stimuli/spore_stims/simple_03_B_b.gif","","","","","0","simple_dissimilar","images/stimuli/spore_stims/simple_03_B_b.gif","middle","","","","",""
"","null","html-keyboard-response","12","52585","0.0-8.0-0.2","SS1613140195992","","","null","","","","","<p><img src= images/blank.png width =""200"" height = ""200"" style = ""float:right""></p><p><img src=images/blank.png width =""800"" height = ""200""></p>","","","","","","","","","","","",""
"","1632.2700000018813","sequential-stimulus-presentation","13","55027","0.0-8.0-1.2","SS1613140195992","trial","","40","800","2432.2700000018813","images/stimuli/spore_stims/simple_08_B_d.gif","images/stimuli/spore_stims/simple_03_B_b.gif","","","","","0","simple_dissimilar","images/stimuli/spore_stims/simple_08_B_d.gif","right","","","","",""
"","null","html-keyboard-response","14","55896","0.0-8.0-0.3","SS1613140195992","","","null","","","","","<p><img src= images/blank.png width =""200"" height = ""200"" style = ""float:right""></p><p><img src=images/blank.png width =""800"" height = ""200""></p>","","","","","","","","","","","",""
"","1070.6000000354834","sequential-stimulus-presentation","15","57781","0.0-8.0-1.3","SS1613140195992","trial","","40","800","1870.6000000354834","images/stimuli/spore_stims/simple_08_B_d.gif","images/stimuli/spore_stims/simple_03_B_b.gif","","","","","0","simple_dissimilar","images/stimuli/spore_stims/simple_03_B_b.gif","middle","","","","",""
"","null","html-keyboard-response","16","58855","0.0-8.0-0.4","SS1613140195992","","","null","","","","","<p><img src= images/blank.png width =""200"" height = ""200"" style = ""float:right""></p><p><img src=images/blank.png width =""800"" height = ""200""></p>","","","","","","","","","","","",""
"","401.12500003306195","sequential-stimulus-presentation","17","60060","0.0-8.0-1.4","SS1613140195992","trial","","40","800","1201.125000033062","images/stimuli/spore_stims/simple_08_B_d.gif","images/stimuli/spore_stims/simple_03_B_b.gif","","","","","0","simple_dissimilar","images/stimuli/spore_stims/simple_03_B_b.gif","middle","","","","",""
"","null","html-keyboard-response","18","61002","0.0-8.0-0.5","SS1613140195992","","","null","","","","","<p><img src= images/blank.png width =""200"" height = ""200"" style = ""float:right""></p><p><img src=images/blank.png width =""800"" height = ""200""></p>","","","","","","","","","","","",""
"","718.4700000216253","sequential-stimulus-presentation","19","62524","0.0-8.0-1.5","SS1613140195992","trial","","40","800","1518.4700000216253","images/stimuli/spore_stims/simple_08_B_d.gif","images/stimuli/spore_stims/simple_03_B_b.gif","","","","","0","simple_dissimilar","images/stimuli/spore_stims/simple_03_B_b.gif","middle","","","","",""
"","null","html-keyboard-response","20","63442","0.0-8.0-0.6","SS1613140195992","","","null","","","","","<p><img src= images/blank.png width =""200"" height = ""200"" style = ""float:right""></p><p><img src=images/blank.png width =""800"" height = ""200""></p>","","","","","","","","","","","",""
"","1675.0950000132434","sequential-stimulus-presentation","21","65921","0.0-8.0-1.6","SS1613140195992","trial","","40","800","2475.0950000132434","images/stimuli/spore_stims/simple_08_B_d.gif","images/stimuli/spore_stims/simple_03_B_b.gif","","","","","0","simple_dissimilar","images/stimuli/spore_stims/simple_03_B_b.gif","middle","","","","",""
"","null","html-keyboard-response","22","67115","0.0-8.0-0.7","SS1613140195992","","","null","","","","","<p><img src= images/blank.png width =""200"" height = ""200"" style = ""float:right""></p><p><img src=images/blank.png width =""800"" height = ""200""></p>","","","","","","","","","","","",""
"","423.5050000133924","sequential-stimulus-presentation","23","68342","0.0-8.0-1.7","SS1613140195992","trial","","40","800","1223.5050000133924","images/stimuli/spore_stims/simple_08_B_d.gif","images/stimuli/spore_stims/simple_03_B_b.gif","","","","","0","simple_dissimilar","images/stimuli/spore_stims/simple_03_B_b.gif","middle","","","","",""
"","1524.0950000006706","html-keyboard-response","24","69867","0.0-9.0","SS1613140195992","pref_question","","50","","","","","<video width ='960' height = '540' style='padding-top:8%' autoplay muted><source src='images/stimuli/wall_pref.mp4' type='video/mp4'></video>","2","middle","45%","0","","","","","","","",""
"","1719.9350000009872","sequential-stimulus-presentation","25","72391","0.0-10.0","SS1613140195992","pref_reveal","","40","800","2519.935000000987","null","null","","","","","0","","","","background","","","",""
"","null","html-keyboard-response","26","73546","0.0-11.0-0.0","SS1613140195992","","","null","","","","","<p><img src= images/blank.png width =""200"" height = ""200"" style = ""float:right""></p><p><img src=images/blank.png width =""800"" height = ""200""></p>","","","","","","","","","","","",""
"","2005.9150000452064","sequential-stimulus-presentation","27","76367","0.0-11.0-1.0","SS1613140195992","trial","","40","800","2805.9150000452064","images/stimuli/spore_stims/simple_07_B_c.gif","images/stimuli/spore_stims/simple_16_A_c.gif","","","","","1","simple_dissimilar","images/stimuli/spore_stims/simple_16_A_c.gif","right","","","","",""
"","null","html-keyboard-response","28","77585","0.0-11.0-0.1","SS1613140195992","","","null","","","","","<p><img src= images/blank.png width =""200"" height = ""200"" style = ""float:right""></p><p><img src=images/blank.png width =""800"" height = ""200""></p>","","","","","","","","","","","",""
"","421.8949999776669","sequential-stimulus-presentation","29","78810","0.0-11.0-1.1","SS1613140195992","trial","","40","800","1221.8949999776669","images/stimuli/spore_stims/simple_07_B_c.gif","images/stimuli/spore_stims/simple_16_A_c.gif","","","","","1","simple_dissimilar","images/stimuli/spore_stims/simple_16_A_c.gif","right","","","","",""
"","null","html-keyboard-response","30","79634","0.0-11.0-0.2","SS1613140195992","","","null","","","","","<p><img src= images/blank.png width =""200"" height = ""200"" style = ""float:right""></p><p><img src=images/blank.png width =""800"" height = ""200""></p>","","","","","","","","","","","",""
"","593.810000049416","sequential-stimulus-presentation","31","81031","0.0-11.0-1.2","SS1613140195992","trial","","40","800","1393.810000049416","images/stimuli/spore_stims/simple_07_B_c.gif","images/stimuli/spore_stims/simple_16_A_c.gif","","","","","1","simple_dissimilar","images/stimuli/spore_stims/simple_16_A_c.gif","right","","","","",""
"","null","html-keyboard-response","32","82120","0.0-11.0-0.3","SS1613140195992","","","null","","","","","<p><img src= images/blank.png width =""200"" height = ""200"" style = ""float:right""></p><p><img src=images/blank.png width =""800"" height = ""200""></p>","","","","","","","","","","","",""
"","3760.2049999986775","sequential-stimulus-presentation","33","86685","0.0-11.0-1.3","SS1613140195992","trial","","40","800","4560.2049999986775","images/stimuli/spore_stims/simple_07_B_c.gif","images/stimuli/spore_stims/simple_16_A_c.gif","","","","","1","simple_dissimilar","images/stimuli/spore_stims/simple_07_B_c.gif","middle","","","","",""
"","null","html-keyboard-response","34","87769","0.0-11.0-0.4","SS1613140195992","","","null","","","","","<p><img src= images/blank.png width =""200"" height = ""200"" style = ""float:right""></p><p><img src=images/blank.png width =""800"" height = ""200""></p>","","","","","","","","","","","",""
"","1359.0800000238232","sequential-stimulus-presentation","35","89931","0.0-11.0-1.4","SS1613140195992","trial","","40","800","2159.0800000238232","images/stimuli/spore_stims/simple_07_B_c.gif","images/stimuli/spore_stims/simple_16_A_c.gif","","","","","1","simple_dissimilar","images/stimuli/spore_stims/simple_16_A_c.gif","right","","","","",""
"","null","html-keyboard-response","36","91203","0.0-11.0-0.5","SS1613140195992","","","null","","","","","<p><img src= images/blank.png width =""200"" height = ""200"" style = ""float:right""></p><p><img src=images/blank.png width =""800"" height = ""200""></p>","","","","","","","","","","","",""
"","479.47999997995794","sequential-stimulus-presentation","37","92486","0.0-11.0-1.5","SS1613140195992","trial","","40","800","1279.479999979958","images/stimuli/spore_stims/simple_07_B_c.gif","images/stimuli/spore_stims/simple_16_A_c.gif","","","","","1","simple_dissimilar","images/stimuli/spore_stims/simple_16_A_c.gif","right","","","","",""
"","null","html-keyboard-response","38","93596","0.0-11.0-0.6","SS1613140195992","","","null","","","","","<p><img src= images/blank.png width =""200"" height = ""200"" style = ""float:right""></p><p><img src=images/blank.png width =""800"" height = ""200""></p>","","","","","","","","","","","",""
"","1511.6200000047684","sequential-stimulus-presentation","39","95920","0.0-11.0-1.6","SS1613140195992","trial","","40","800","2311.6200000047684","images/stimuli/spore_stims/simple_07_B_c.gif","images/stimuli/spore_stims/simple_16_A_c.gif","","","","","1","simple_dissimilar","images/stimuli/spore_stims/simple_16_A_c.gif","right","","","","",""
"","null","html-keyboard-response","40","96730","0.0-11.0-0.7","SS1613140195992","","","null","","","","","<p><img src= images/blank.png width =""200"" height = ""200"" style = ""float:right""></p><p><img src=images/blank.png width =""800"" height = ""200""></p>","","","","","","","","","","","",""
"","1600.5799999693409","sequential-stimulus-presentation","41","99135","0.0-11.0-1.7","SS1613140195992","trial","","40","800","2400.579999969341","images/stimuli/spore_stims/simple_07_B_c.gif","images/stimuli/spore_stims/simple_16_A_c.gif","","","","","1","simple_dissimilar","images/stimuli/spore_stims/simple_16_A_c.gif","right","","","","",""
"","1153.1850000028498","html-keyboard-response","42","100291","0.0-12.0","SS1613140195992","pref_question","","49","","","","","<video width ='960' height = '540' style='padding-top:8%' autoplay muted><source src='images/stimuli/wall_pref.mp4' type='video/mp4'></video>","1","left","25%","1","","","","","","","",""
"","2221.045000012964","sequential-stimulus-presentation","43","103317","0.0-13.0","SS1613140195992","pref_reveal","","40","800","3021.045000012964","null","null","","","","","1","","","","novel","","","",""
"","null","html-keyboard-response","44","104364","0.0-14.0-0.0","SS1613140195992","","","null","","","","","<p><img src= images/blank.png width =""200"" height = ""200"" style = ""float:right""></p><p><img src=images/blank.png width =""800"" height = ""200""></p>","","","","","","","","","","","",""
"","1293.4150000219233","sequential-stimulus-presentation","45","106475","0.0-14.0-1.0","SS1613140195992","trial","","40","800","2093.4150000219233","images/stimuli/spore_stims/simple_18_A_a.gif","images/stimuli/spore_stims/simple_01_A_d.gif","","","","","2","simple_dissimilar","images/stimuli/spore_stims/simple_01_A_d.gif","right","","","","",""
"","null","html-keyboard-response","46","107711","0.0-14.0-0.1","SS1613140195992","","","null","","","","","<p><img src= images/blank.png width =""200"" height = ""200"" style = ""float:right""></p><p><img src=images/blank.png width =""800"" height = ""200""></p>","","","","","","","","","","","",""
"","1400.6050000316463","sequential-stimulus-presentation","47","109924","0.0-14.0-1.1","SS1613140195992","trial","","40","800","2200.6050000316463","images/stimuli/spore_stims/simple_18_A_a.gif","images/stimuli/spore_stims/simple_01_A_d.gif","","","","","2","simple_dissimilar","images/stimuli/spore_stims/simple_01_A_d.gif","right","","","","",""
"","null","html-keyboard-response","48","111175","0.0-14.0-0.2","SS1613140195992","","","null","","","","","<p><img src= images/blank.png width =""200"" height = ""200"" style = ""float:right""></p><p><img src=images/blank.png width =""800"" height = ""200""></p>","","","","","","","","","","","",""
"","410.2149999816902","sequential-stimulus-presentation","49","112389","0.0-14.0-1.2","SS1613140195992","trial","","40","800","1210.2149999816902","images/stimuli/spore_stims/simple_18_A_a.gif","images/stimuli/spore_stims/simple_01_A_d.gif","","","","","2","simple_dissimilar","images/stimuli/spore_stims/simple_01_A_d.gif","right","","","","",""
"","null","html-keyboard-response","50","113219","0.0-14.0-0.3","SS1613140195992","","","null","","","","","<p><img src= images/blank.png width =""200"" height = ""200"" style = ""float:right""></p><p><img src=images/blank.png width =""800"" height = ""200""></p>","","","","","","","","","","","",""
"","2578.459999989718","sequential-stimulus-presentation","51","116601","0.0-14.0-1.3","SS1613140195992","trial","","40","800","3378.459999989718","images/stimuli/spore_stims/simple_18_A_a.gif","images/stimuli/spore_stims/simple_01_A_d.gif","","","","","2","simple_dissimilar","images/stimuli/spore_stims/simple_18_A_a.gif","middle","","","","",""
"","null","html-keyboard-response","52","117638","0.0-14.0-0.4","SS1613140195992","","","null","","","","","<p><img src= images/blank.png width =""200"" height = ""200"" style = ""float:right""></p><p><img src=images/blank.png width =""800"" height = ""200""></p>","","","","","","","","","","","",""
"","3793.564999999944","sequential-stimulus-presentation","53","122235","0.0-14.0-1.4","SS1613140195992","trial","","40","800","4593.564999999944","images/stimuli/spore_stims/simple_18_A_a.gif","images/stimuli/spore_stims/simple_01_A_d.gif","","","","","2","simple_dissimilar","images/stimuli/spore_stims/simple_01_A_d.gif","right","","","","",""
"","null","html-keyboard-response","54","123412","0.0-14.0-0.5","SS1613140195992","","","null","","","","","<p><img src= images/blank.png width =""200"" height = ""200"" style = ""float:right""></p><p><img src=images/blank.png width =""800"" height = ""200""></p>","","","","","","","","","","","",""
"","3242.949999985285","sequential-stimulus-presentation","55","127464","0.0-14.0-1.5","SS1613140195992","trial","","40","800","4042.949999985285","images/stimuli/spore_stims/simple_18_A_a.gif","images/stimuli/spore_stims/simple_01_A_d.gif","","","","","2","simple_dissimilar","images/stimuli/spore_stims/simple_01_A_d.gif","right","","","","",""
"","null","html-keyboard-response","56","128335","0.0-14.0-0.6","SS1613140195992","","","null","","","","","<p><img src= images/blank.png width =""200"" height = ""200"" style = ""float:right""></p><p><img src=images/blank.png width =""800"" height = ""200""></p>","","","","","","","","","","","",""
"","12226.3100000564","sequential-stimulus-presentation","57","141365","0.0-14.0-1.6","SS1613140195992","trial","","40","800","13026.3100000564","images/stimuli/spore_stims/simple_18_A_a.gif","images/stimuli/spore_stims/simple_01_A_d.gif","","","","","2","simple_dissimilar","images/stimuli/spore_stims/simple_01_A_d.gif","right","","","","",""
"","null","html-keyboard-response","58","142542","0.0-14.0-0.7","SS1613140195992","","","null","","","","","<p><img src= images/blank.png width =""200"" height = ""200"" style = ""float:right""></p><p><img src=images/blank.png width =""800"" height = ""200""></p>","","","","","","","","","","","",""
"","2074.8250000178814","sequential-stimulus-presentation","59","145420","0.0-14.0-1.7","SS1613140195992","trial","","40","800","2874.8250000178814","images/stimuli/spore_stims/simple_18_A_a.gif","images/stimuli/spore_stims/simple_01_A_d.gif","","","","","2","simple_dissimilar","images/stimuli/spore_stims/simple_01_A_d.gif","right","","","","",""
"","1240.9100000513718","html-keyboard-response","60","146663","0.0-15.0","SS1613140195992","pref_question","","49","","","","","<video width ='960' height = '540' style='padding-top:8%' autoplay muted><source src='images/stimuli/wall_pref.mp4' type='video/mp4'></video>","1","left","25%","2","","","","","","","",""
"","3643.6500000418164","sequential-stimulus-presentation","61","151111","0.0-16.0","SS1613140195992","pref_reveal","","40","800","4443.650000041816","null","null","","","","","2","","","","novel","","","",""
"","null","html-keyboard-response","62","152217","0.0-17.0-0.0","SS1613140195992","","","null","","","","","<p><img src= images/blank.png width =""200"" height = ""200"" style = ""float:right""></p><p><img src=images/blank.png width =""800"" height = ""200""></p>","","","","","","","","","","","",""
"","1094.19999999227","sequential-stimulus-presentation","63","154125","0.0-17.0-1.0","SS1613140195992","trial","","40","800","1894.19999999227","images/stimuli/spore_stims/simple_14_A_d.gif","images/stimuli/spore_stims/simple_14_B_d.gif","","","","","3","simple_similar","images/stimuli/spore_stims/simple_14_B_d.gif","right","","","","",""
"","null","html-keyboard-response","64","155084","0.0-17.0-0.1","SS1613140195992","","","null","","","","","<p><img src= images/blank.png width =""200"" height = ""200"" style = ""float:right""></p><p><img src=images/blank.png width =""800"" height = ""200""></p>","","","","","","","","","","","",""
"","1105.4799999692477","sequential-stimulus-presentation","65","157003","0.0-17.0-1.1","SS1613140195992","trial","","40","800","1905.4799999692477","images/stimuli/spore_stims/simple_14_A_d.gif","images/stimuli/spore_stims/simple_14_B_d.gif","","","","","3","simple_similar","images/stimuli/spore_stims/simple_14_B_d.gif","right","","","","",""
"","null","html-keyboard-response","66","157894","0.0-17.0-0.2","SS1613140195992","","","null","","","","","<p><img src= images/blank.png width =""200"" height = ""200"" style = ""float:right""></p><p><img src=images/blank.png width =""800"" height = ""200""></p>","","","","","","","","","","","",""
"","1379.4700000435114","sequential-stimulus-presentation","67","160078","0.0-17.0-1.2","SS1613140195992","trial","","40","800","2179.4700000435114","images/stimuli/spore_stims/simple_14_A_d.gif","images/stimuli/spore_stims/simple_14_B_d.gif","","","","","3","simple_similar","images/stimuli/spore_stims/simple_14_A_d.gif","middle","","","","",""
"","null","html-keyboard-response","68","161362","0.0-17.0-0.3","SS1613140195992","","","null","","","","","<p><img src= images/blank.png width =""200"" height = ""200"" style = ""float:right""></p><p><img src=images/blank.png width =""800"" height = ""200""></p>","","","","","","","","","","","",""
"","6856.130000029225","sequential-stimulus-presentation","69","169035","0.0-17.0-1.3","SS1613140195992","trial","","40","800","7656.130000029225","images/stimuli/spore_stims/simple_14_A_d.gif","images/stimuli/spore_stims/simple_14_B_d.gif","","","","","3","simple_similar","images/stimuli/spore_stims/simple_14_B_d.gif","right","","","","",""
"","null","html-keyboard-response","70","169914","0.0-17.0-0.4","SS1613140195992","","","null","","","","","<p><img src= images/blank.png width =""200"" height = ""200"" style = ""float:right""></p><p><img src=images/blank.png width =""800"" height = ""200""></p>","","","","","","","","","","","",""
"","1264.8649999755435","sequential-stimulus-presentation","71","171982","0.0-17.0-1.4","SS1613140195992","trial","","40","800","2064.8649999755435","images/stimuli/spore_stims/simple_14_A_d.gif","images/stimuli/spore_stims/simple_14_B_d.gif","","","","","3","simple_similar","images/stimuli/spore_stims/simple_14_B_d.gif","right","","","","",""
"","null","html-keyboard-response","72","173217","0.0-17.0-0.5","SS1613140195992","","","null","","","","","<p><img src= images/blank.png width =""200"" height = ""200"" style = ""float:right""></p><p><img src=images/blank.png width =""800"" height = ""200""></p>","","","","","","","","","","","",""
"","1700.0499999849126","sequential-stimulus-presentation","73","175732","0.0-17.0-1.5","SS1613140195992","trial","","40","800","2500.0499999849126","images/stimuli/spore_stims/simple_14_A_d.gif","images/stimuli/spore_stims/simple_14_B_d.gif","","","","","3","simple_similar","images/stimuli/spore_stims/simple_14_B_d.gif","right","","","","",""
"","null","html-keyboard-response","74","176942","0.0-17.0-0.6","SS1613140195992","","","null","","","","","<p><img src= images/blank.png width =""200"" height = ""200"" style = ""float:right""></p><p><img src=images/blank.png width =""800"" height = ""200""></p>","","","","","","","","","","","",""
"","1943.0500000016764","sequential-stimulus-presentation","75","179689","0.0-17.0-1.6","SS1613140195992","trial","","40","800","2743.0500000016764","images/stimuli/spore_stims/simple_14_A_d.gif","images/stimuli/spore_stims/simple_14_B_d.gif","","","","","3","simple_similar","images/stimuli/spore_stims/simple_14_B_d.gif","right","","","","",""
"","null","html-keyboard-response","76","180820","0.0-17.0-0.7","SS1613140195992","","","null","","","","","<p><img src= images/blank.png width =""200"" height = ""200"" style = ""float:right""></p><p><img src=images/blank.png width =""800"" height = ""200""></p>","","","","","","","","","","","",""
"","1749.4700000388548","sequential-stimulus-presentation","77","183382","0.0-17.0-1.7","SS1613140195992","trial","","40","800","2549.470000038855","images/stimuli/spore_stims/simple_14_A_d.gif","images/stimuli/spore_stims/simple_14_B_d.gif","","","","","3","simple_similar","images/stimuli/spore_stims/simple_14_B_d.gif","right","","","","",""
"","1476.0050000040792","html-keyboard-response","78","184861","0.0-18.0","SS1613140195992","pref_question","","50","","","","","<video width ='960' height = '540' style='padding-top:8%' autoplay muted><source src='images/stimuli/wall_pref.mp4' type='video/mp4'></video>","2","middle","45%","3","","","","","","","",""
"","3298.815000045579","sequential-stimulus-presentation","79","188963","0.0-19.0","SS1613140195992","pref_reveal","","40","800","4098.815000045579","null","null","","","","","3","","","","deviant","","","",""
"","null","html-keyboard-response","80","189837","0.0-20.0-0.0","SS1613140195992","","","null","","","","","<p><img src= images/blank.png width =""200"" height = ""200"" style = ""float:right""></p><p><img src=images/blank.png width =""800"" height = ""200""></p>","","","","","","","","","","","",""
"","1360.1500000222586","sequential-stimulus-presentation","81","192001","0.0-20.0-1.0","SS1613140195992","trial","","40","800","2160.1500000222586","images/stimuli/spore_stims/simple_19_B_c.gif","images/stimuli/spore_stims/simple_13_B_b.gif","","","","","4","simple_dissimilar","images/stimuli/spore_stims/simple_13_B_b.gif","middle","","","","",""
"","null","html-keyboard-response","82","192983","0.0-20.0-0.1","SS1613140195992","","","null","","","","","<p><img src= images/blank.png width =""200"" height = ""200"" style = ""float:right""></p><p><img src=images/blank.png width =""800"" height = ""200""></p>","","","","","","","","","","","",""
"","2366.730000008829","sequential-stimulus-presentation","83","196154","0.0-20.0-1.1","SS1613140195992","trial","","40","800","3166.730000008829","images/stimuli/spore_stims/simple_19_B_c.gif","images/stimuli/spore_stims/simple_13_B_b.gif","","","","","4","simple_dissimilar","images/stimuli/spore_stims/simple_13_B_b.gif","middle","","","","",""
"","null","html-keyboard-response","84","197287","0.0-20.0-0.2","SS1613140195992","","","null","","","","","<p><img src= images/blank.png width =""200"" height = ""200"" style = ""float:right""></p><p><img src=images/blank.png width =""800"" height = ""200""></p>","","","","","","","","","","","",""
"","1470.09999997681","sequential-stimulus-presentation","85","199560","0.0-20.0-1.2","SS1613140195992","trial","","40","800","2270.09999997681","images/stimuli/spore_stims/simple_19_B_c.gif","images/stimuli/spore_stims/simple_13_B_b.gif","","","","","4","simple_dissimilar","images/stimuli/spore_stims/simple_13_B_b.gif","middle","","","","",""
"","null","html-keyboard-response","86","200589","0.0-20.0-0.3","SS1613140195992","","","null","","","","","<p><img src= images/blank.png width =""200"" height = ""200"" style = ""float:right""></p><p><img src=images/blank.png width =""800"" height = ""200""></p>","","","","","","","","","","","",""
"","1994.4599999580532","sequential-stimulus-presentation","87","203389","0.0-20.0-1.3","SS1613140195992","trial","","40","800","2794.4599999580532","images/stimuli/spore_stims/simple_19_B_c.gif","images/stimuli/spore_stims/simple_13_B_b.gif","","","","","4","simple_dissimilar","images/stimuli/spore_stims/simple_13_B_b.gif","middle","","","","",""
"","null","html-keyboard-response","88","204357","0.0-20.0-0.4","SS1613140195992","","","null","","","","","<p><img src= images/blank.png width =""200"" height = ""200"" style = ""float:right""></p><p><img src=images/blank.png width =""800"" height = ""200""></p>","","","","","","","","","","","",""
"","924.8300000326708","sequential-stimulus-presentation","89","206085","0.0-20.0-1.4","SS1613140195992","trial","","40","800","1724.8300000326708","images/stimuli/spore_stims/simple_19_B_c.gif","images/stimuli/spore_stims/simple_13_B_b.gif","","","","","4","simple_dissimilar","images/stimuli/spore_stims/simple_13_B_b.gif","middle","","","","",""
"","null","html-keyboard-response","90","207352","0.0-20.0-0.5","SS1613140195992","","","null","","","","","<p><img src= images/blank.png width =""200"" height = ""200"" style = ""float:right""></p><p><img src=images/blank.png width =""800"" height = ""200""></p>","","","","","","","","","","","",""
"","2095.0249999877997","sequential-stimulus-presentation","91","210263","0.0-20.0-1.5","SS1613140195992","trial","","40","800","2895.0249999877997","images/stimuli/spore_stims/simple_19_B_c.gif","images/stimuli/spore_stims/simple_13_B_b.gif","","","","","4","simple_dissimilar","images/stimuli/spore_stims/simple_19_B_c.gif","left","","","","",""
"","null","html-keyboard-response","92","211114","0.0-20.0-0.6","SS1613140195992","","","null","","","","","<p><img src= images/blank.png width =""200"" height = ""200"" style = ""float:right""></p><p><img src=images/blank.png width =""800"" height = ""200""></p>","","","","","","","","","","","",""
"","981.3950000097975","sequential-stimulus-presentation","93","212900","0.0-20.0-1.6","SS1613140195992","trial","","40","800","1781.3950000097975","images/stimuli/spore_stims/simple_19_B_c.gif","images/stimuli/spore_stims/simple_13_B_b.gif","","","","","4","simple_dissimilar","images/stimuli/spore_stims/simple_13_B_b.gif","middle","","","","",""
"","null","html-keyboard-response","94","214155","0.0-20.0-0.7","SS1613140195992","","","null","","","","","<p><img src= images/blank.png width =""200"" height = ""200"" style = ""float:right""></p><p><img src=images/blank.png width =""800"" height = ""200""></p>","","","","","","","","","","","",""
"","1703.9700000314042","sequential-stimulus-presentation","95","216662","0.0-20.0-1.7","SS1613140195992","trial","","40","800","2503.970000031404","images/stimuli/spore_stims/simple_19_B_c.gif","images/stimuli/spore_stims/simple_13_B_b.gif","","","","","4","simple_dissimilar","images/stimuli/spore_stims/simple_13_B_b.gif","middle","","","","",""
"","1174.875000026077","html-keyboard-response","96","217840","0.0-21.0","SS1613140195992","pref_question","","49","","","","","<video width ='960' height = '540' style='padding-top:8%' autoplay muted><source src='images/stimuli/wall_pref.mp4' type='video/mp4'></video>","1","left","25%","4","","","","","","","",""
"","2750.5499999970198","sequential-stimulus-presentation","97","221397","0.0-22.0","SS1613140195992","pref_reveal","","40","800","3550.5499999970198","null","null","","","","","4","","","","deviant","","","",""
"","null","html-keyboard-response","98","222438","0.0-23.0-0.0","SS1613140195992","","","null","","","","","<p><img src= images/blank.png width =""200"" height = ""200"" style = ""float:right""></p><p><img src=images/blank.png width =""800"" height = ""200""></p>","","","","","","","","","","","",""
"","335.0649999920279","sequential-stimulus-presentation","99","223592","0.0-23.0-1.0","SS1613140195992","trial","","40","800","1135.0649999920279","images/stimuli/spore_stims/complex_18_A_a.gif","images/stimuli/spore_stims/complex_18_B_a.gif","","","","","5","complex_similar","images/stimuli/spore_stims/complex_18_B_a.gif","right","","","","",""
"","null","html-keyboard-response","100","224709","0.0-23.0-0.1","SS1613140195992","","","null","","","","","<p><img src= images/blank.png width =""200"" height = ""200"" style = ""float:right""></p><p><img src=images/blank.png width =""800"" height = ""200""></p>","","","","","","","","","","","",""
"","426.04500002926216","sequential-stimulus-presentation","101","225939","0.0-23.0-1.1","SS1613140195992","trial","","40","800","1226.0450000292622","images/stimuli/spore_stims/complex_18_A_a.gif","images/stimuli/spore_stims/complex_18_B_a.gif","","","","","5","complex_similar","images/stimuli/spore_stims/complex_18_B_a.gif","right","","","","",""
"","null","html-keyboard-response","102","226960","0.0-23.0-0.2","SS1613140195992","","","null","","","","","<p><img src= images/blank.png width =""200"" height = ""200"" style = ""float:right""></p><p><img src=images/blank.png width =""800"" height = ""200""></p>","","","","","","","","","","","",""
"","3397.309999971185","sequential-stimulus-presentation","103","231161","0.0-23.0-1.2","SS1613140195992","trial","","40","800","4197.309999971185","images/stimuli/spore_stims/complex_18_A_a.gif","images/stimuli/spore_stims/complex_18_B_a.gif","","","","","5","complex_similar","images/stimuli/spore_stims/complex_18_A_a.gif","middle","","","","",""
"","null","html-keyboard-response","104","232338","0.0-23.0-0.3","SS1613140195992","","","null","","","","","<p><img src= images/blank.png width =""200"" height = ""200"" style = ""float:right""></p><p><img src=images/blank.png width =""800"" height = ""200""></p>","","","","","","","","","","","",""
"","1647.30499999132","sequential-stimulus-presentation","105","234789","0.0-23.0-1.3","SS1613140195992","trial","","40","800","2447.30499999132","images/stimuli/spore_stims/complex_18_A_a.gif","images/stimuli/spore_stims/complex_18_B_a.gif","","","","","5","complex_similar","images/stimuli/spore_stims/complex_18_B_a.gif","right","","","","",""
"","null","html-keyboard-response","106","235670","0.0-23.0-0.4","SS1613140195992","","","null","","","","","<p><img src= images/blank.png width =""200"" height = ""200"" style = ""float:right""></p><p><img src=images/blank.png width =""800"" height = ""200""></p>","","","","","","","","","","","",""
"","468.349999981001","sequential-stimulus-presentation","107","236943","0.0-23.0-1.4","SS1613140195992","trial","","40","800","1268.349999981001","images/stimuli/spore_stims/complex_18_A_a.gif","images/stimuli/spore_stims/complex_18_B_a.gif","","","","","5","complex_similar","images/stimuli/spore_stims/complex_18_B_a.gif","right","","","","",""
"","null","html-keyboard-response","108","237999","0.0-23.0-0.5","SS1613140195992","","","null","","","","","<p><img src= images/blank.png width =""200"" height = ""200"" style = ""float:right""></p><p><img src=images/blank.png width =""800"" height = ""200""></p>","","","","","","","","","","","",""
"","34806.01000000024","sequential-stimulus-presentation","109","273623","0.0-23.0-1.5","SS1613140195992","trial","","40","800","35606.01000000024","images/stimuli/spore_stims/complex_18_A_a.gif","images/stimuli/spore_stims/complex_18_B_a.gif","","","","","5","complex_similar","images/stimuli/spore_stims/complex_18_B_a.gif","right","","","","",""
"","null","html-keyboard-response","110","274780","0.0-23.0-0.6","SS1613140195992","","","null","","","","","<p><img src= images/blank.png width =""200"" height = ""200"" style = ""float:right""></p><p><img src=images/blank.png width =""800"" height = ""200""></p>","","","","","","","","","","","",""
"","1119.0649999771267","sequential-stimulus-presentation","111","276714","0.0-23.0-1.6","SS1613140195992","trial","","40","800","1919.0649999771267","images/stimuli/spore_stims/complex_18_A_a.gif","images/stimuli/spore_stims/complex_18_B_a.gif","","","","","5","complex_similar","images/stimuli/spore_stims/complex_18_B_a.gif","right","","","","",""
"","null","html-keyboard-response","112","277947","0.0-23.0-0.7","SS1613140195992","","","null","","","","","<p><img src= images/blank.png width =""200"" height = ""200"" style = ""float:right""></p><p><img src=images/blank.png width =""800"" height = ""200""></p>","","","","","","","","","","","",""
"","1488.5700000450015","sequential-stimulus-presentation","113","280240","0.0-23.0-1.7","SS1613140195992","trial","","40","800","2288.5700000450015","images/stimuli/spore_stims/complex_18_A_a.gif","images/stimuli/spore_stims/complex_18_B_a.gif","","","","","5","complex_similar","images/stimuli/spore_stims/complex_18_B_a.gif","right","","","","",""
"","5161.215000029188","html-keyboard-response","114","285404","0.0-24.0","SS1613140195992","pref_question","","49","","","","","<video width ='960' height = '540' style='padding-top:8%' autoplay muted><source src='images/stimuli/wall_pref.mp4' type='video/mp4'></video>","1","left","25%","5","","","","","","","",""
"","2857.079999987036","sequential-stimulus-presentation","115","289078","0.0-25.0","SS1613140195992","pref_reveal","","40","800","3657.079999987036","null","null","","","","","5","","","","novel","","","",""
"","null","html-keyboard-response","116","289916","0.0-26.0-0.0","SS1613140195992","","","null","","","","","<p><img src= images/blank.png width =""200"" height = ""200"" style = ""float:right""></p><p><img src=images/blank.png width =""800"" height = ""200""></p>","","","","","","","","","","","",""
"","1528.8999999756925","sequential-stimulus-presentation","117","292250","0.0-26.0-1.0","SS1613140195992","trial","","40","800","2328.8999999756925","images/stimuli/spore_stims/complex_01_A_b.gif","images/stimuli/spore_stims/complex_19_B_d.gif","","","","","6","complex_dissimilar","images/stimuli/spore_stims/complex_19_B_d.gif","right","","","","",""
"","null","html-keyboard-response","118","293144","0.0-26.0-0.1","SS1613140195992","","","null","","","","","<p><img src= images/blank.png width =""200"" height = ""200"" style = ""float:right""></p><p><img src=images/blank.png width =""800"" height = ""200""></p>","","","","","","","","","","","",""
"","328.2900000340305","sequential-stimulus-presentation","119","294276","0.0-26.0-1.1","SS1613140195992","trial","","40","800","1128.2900000340305","images/stimuli/spore_stims/complex_01_A_b.gif","images/stimuli/spore_stims/complex_19_B_d.gif","","","","","6","complex_dissimilar","images/stimuli/spore_stims/complex_19_B_d.gif","right","","","","",""
"","null","html-keyboard-response","120","295121","0.0-26.0-0.2","SS1613140195992","","","null","","","","","<p><img src= images/blank.png width =""200"" height = ""200"" style = ""float:right""></p><p><img src=images/blank.png width =""800"" height = ""200""></p>","","","","","","","","","","","",""
"","444.2050000070594","sequential-stimulus-presentation","121","296370","0.0-26.0-1.2","SS1613140195992","trial","","40","800","1244.2050000070594","images/stimuli/spore_stims/complex_01_A_b.gif","images/stimuli/spore_stims/complex_19_B_d.gif","","","","","6","complex_dissimilar","images/stimuli/spore_stims/complex_19_B_d.gif","right","","","","",""
"","null","html-keyboard-response","122","297209","0.0-26.0-0.3","SS1613140195992","","","null","","","","","<p><img src= images/blank.png width =""200"" height = ""200"" style = ""float:right""></p><p><img src=images/blank.png width =""800"" height = ""200""></p>","","","","","","","","","","","",""
"","429.5799999963492","sequential-stimulus-presentation","123","298443","0.0-26.0-1.3","SS1613140195992","trial","","40","800","1229.5799999963492","images/stimuli/spore_stims/complex_01_A_b.gif","images/stimuli/spore_stims/complex_19_B_d.gif","","","","","6","complex_dissimilar","images/stimuli/spore_stims/complex_19_B_d.gif","right","","","","",""
"","null","html-keyboard-response","124","299729","0.0-26.0-0.4","SS1613140195992","","","null","","","","","<p><img src= images/blank.png width =""200"" height = ""200"" style = ""float:right""></p><p><img src=images/blank.png width =""800"" height = ""200""></p>","","","","","","","","","","","",""
"","1047.8949999669567","sequential-stimulus-presentation","125","301583","0.0-26.0-1.4","SS1613140195992","trial","","40","800","1847.8949999669567","images/stimuli/spore_stims/complex_01_A_b.gif","images/stimuli/spore_stims/complex_19_B_d.gif","","","","","6","complex_dissimilar","images/stimuli/spore_stims/complex_19_B_d.gif","right","","","","",""
"","null","html-keyboard-response","126","302525","0.0-26.0-0.5","SS1613140195992","","","null","","","","","<p><img src= images/blank.png width =""200"" height = ""200"" style = ""float:right""></p><p><img src=images/blank.png width =""800"" height = ""200""></p>","","","","","","","","","","","",""
"","1391.6250000474975","sequential-stimulus-presentation","127","304721","0.0-26.0-1.5","SS1613140195992","trial","","40","800","2191.6250000474975","images/stimuli/spore_stims/complex_01_A_b.gif","images/stimuli/spore_stims/complex_19_B_d.gif","","","","","6","complex_dissimilar","images/stimuli/spore_stims/complex_01_A_b.gif","middle","","","","",""
"","null","html-keyboard-response","128","305830","0.0-26.0-0.6","SS1613140195992","","","null","","","","","<p><img src= images/blank.png width =""200"" height = ""200"" style = ""float:right""></p><p><img src=images/blank.png width =""800"" height = ""200""></p>","","","","","","","","","","","",""
"","3529.720000049565","sequential-stimulus-presentation","129","310169","0.0-26.0-1.6","SS1613140195992","trial","","40","800","4329.720000049565","images/stimuli/spore_stims/complex_01_A_b.gif","images/stimuli/spore_stims/complex_19_B_d.gif","","","","","6","complex_dissimilar","images/stimuli/spore_stims/complex_19_B_d.gif","right","","","","",""
"","null","html-keyboard-response","130","311129","0.0-26.0-0.7","SS1613140195992","","","null","","","","","<p><img src= images/blank.png width =""200"" height = ""200"" style = ""float:right""></p><p><img src=images/blank.png width =""800"" height = ""200""></p>","","","","","","","","","","","",""
"","716.275000013411","sequential-stimulus-presentation","131","312650","0.0-26.0-1.7","SS1613140195992","trial","","40","800","1516.275000013411","images/stimuli/spore_stims/complex_01_A_b.gif","images/stimuli/spore_stims/complex_19_B_d.gif","","","","","6","complex_dissimilar","images/stimuli/spore_stims/complex_19_B_d.gif","right","","","","",""
"","1231.6199999768287","html-keyboard-response","132","313884","0.0-27.0","SS1613140195992","pref_question","","49","","","","","<video width ='960' height = '540' style='padding-top:8%' autoplay muted><source src='images/stimuli/wall_pref.mp4' type='video/mp4'></video>","1","left","25%","6","","","","","","","",""
"","1494.940000004135","sequential-stimulus-presentation","133","316185","0.0-28.0","SS1613140195992","pref_reveal","","40","800","2294.940000004135","null","null","","","","","6","","","","novel","","","",""
"","null","html-keyboard-response","134","317431","0.0-29.0-0.0","SS1613140195992","","","null","","","","","<p><img src= images/blank.png width =""200"" height = ""200"" style = ""float:right""></p><p><img src=images/blank.png width =""800"" height = ""200""></p>","","","","","","","","","","","",""
"","11191.250000032596","sequential-stimulus-presentation","135","329440","0.0-29.0-1.0","SS1613140195992","trial","","40","800","11991.250000032596","images/stimuli/spore_stims/simple_15_B_b.gif","images/stimuli/spore_stims/simple_15_A_b.gif","","","","","7","simple_similar","images/stimuli/spore_stims/simple_15_A_b.gif","left","","","","",""
"","null","html-keyboard-response","136","330466","0.0-29.0-0.1","SS1613140195992","","","null","","","","","<p><img src= images/blank.png width =""200"" height = ""200"" style = ""float:right""></p><p><img src=images/blank.png width =""800"" height = ""200""></p>","","","","","","","","","","","",""
"","816.6350000537932","sequential-stimulus-presentation","137","332086","0.0-29.0-1.1","SS1613140195992","trial","","40","800","1616.6350000537932","images/stimuli/spore_stims/simple_15_B_b.gif","images/stimuli/spore_stims/simple_15_A_b.gif","","","","","7","simple_similar","images/stimuli/spore_stims/simple_15_A_b.gif","left","","","","",""
"","null","html-keyboard-response","138","333281","0.0-29.0-0.2","SS1613140195992","","","null","","","","","<p><img src= images/blank.png width =""200"" height = ""200"" style = ""float:right""></p><p><img src=images/blank.png width =""800"" height = ""200""></p>","","","","","","","","","","","",""
"","1254.3799999984913","sequential-stimulus-presentation","139","335354","0.0-29.0-1.2","SS1613140195992","trial","","40","800","2054.3799999984913","images/stimuli/spore_stims/simple_15_B_b.gif","images/stimuli/spore_stims/simple_15_A_b.gif","","","","","7","simple_similar","images/stimuli/spore_stims/simple_15_A_b.gif","left","","","","",""
"","null","html-keyboard-response","140","336307","0.0-29.0-0.3","SS1613140195992","","","null","","","","","<p><img src= images/blank.png width =""200"" height = ""200"" style = ""float:right""></p><p><img src=images/blank.png width =""800"" height = ""200""></p>","","","","","","","","","","","",""
"","2548.69000002509","sequential-stimulus-presentation","141","339667","0.0-29.0-1.3","SS1613140195992","trial","","40","800","3348.69000002509","images/stimuli/spore_stims/simple_15_B_b.gif","images/stimuli/spore_stims/simple_15_A_b.gif","","","","","7","simple_similar","images/stimuli/spore_stims/simple_15_A_b.gif","left","","","","",""
"","null","html-keyboard-response","142","340797","0.0-29.0-0.4","SS1613140195992","","","null","","","","","<p><img src= images/blank.png width =""200"" height = ""200"" style = ""float:right""></p><p><img src=images/blank.png width =""800"" height = ""200""></p>","","","","","","","","","","","",""
"","669.2200000397861","sequential-stimulus-presentation","143","342286","0.0-29.0-1.4","SS1613140195992","trial","","40","800","1469.220000039786","images/stimuli/spore_stims/simple_15_B_b.gif","images/stimuli/spore_stims/simple_15_A_b.gif","","","","","7","simple_similar","images/stimuli/spore_stims/simple_15_A_b.gif","left","","","","",""
"","null","html-keyboard-response","144","343572","0.0-29.0-0.5","SS1613140195992","","","null","","","","","<p><img src= images/blank.png width =""200"" height = ""200"" style = ""float:right""></p><p><img src=images/blank.png width =""800"" height = ""200""></p>","","","","","","","","","","","",""
"","595.9949999814853","sequential-stimulus-presentation","145","344976","0.0-29.0-1.5","SS1613140195992","trial","","40","800","1395.9949999814853","images/stimuli/spore_stims/simple_15_B_b.gif","images/stimuli/spore_stims/simple_15_A_b.gif","","","","","7","simple_similar","images/stimuli/spore_stims/simple_15_A_b.gif","left","","","","",""
"","null","html-keyboard-response","146","346222","0.0-29.0-0.6","SS1613140195992","","","null","","","","","<p><img src= images/blank.png width =""200"" height = ""200"" style = ""float:right""></p><p><img src=images/blank.png width =""800"" height = ""200""></p>","","","","","","","","","","","",""
"","901.1900000041351","sequential-stimulus-presentation","147","347943","0.0-29.0-1.6","SS1613140195992","trial","","40","800","1701.190000004135","images/stimuli/spore_stims/simple_15_B_b.gif","images/stimuli/spore_stims/simple_15_A_b.gif","","","","","7","simple_similar","images/stimuli/spore_stims/simple_15_B_b.gif","right","","","","",""
"","null","html-keyboard-response","148","349084","0.0-29.0-0.7","SS1613140195992","","","null","","","","","<p><img src= images/blank.png width =""200"" height = ""200"" style = ""float:right""></p><p><img src=images/blank.png width =""800"" height = ""200""></p>","","","","","","","","","","","",""
"","1580.6199999642558","sequential-stimulus-presentation","149","351474","0.0-29.0-1.7","SS1613140195992","trial","","40","800","2380.619999964256","images/stimuli/spore_stims/simple_15_B_b.gif","images/stimuli/spore_stims/simple_15_A_b.gif","","","","","7","simple_similar","images/stimuli/spore_stims/simple_15_A_b.gif","left","","","","",""
"","1363.500000035856","html-keyboard-response","150","352840","0.0-30.0","SS1613140195992","pref_question","","49","","","","","<video width ='960' height = '540' style='padding-top:8%' autoplay muted><source src='images/stimuli/wall_pref.mp4' type='video/mp4'></video>","1","left","25%","7","","","","","","","",""
"","959.5799999660812","sequential-stimulus-presentation","151","354608","0.0-31.0","SS1613140195992","pref_reveal","","40","800","1759.5799999660812","null","null","","","","","7","","","","background","","","",""
"","null","html-keyboard-response","152","355860","0.0-32.0-0.0","SS1613140195992","","","null","","","","","<p><img src= images/blank.png width =""200"" height = ""200"" style = ""float:right""></p><p><img src=images/blank.png width =""800"" height = ""200""></p>","","","","","","","","","","","",""
"","374.63500001467764","sequential-stimulus-presentation","153","357040","0.0-32.0-1.0","SS1613140195992","trial","","40","800","1174.6350000146776","images/stimuli/spore_stims/simple_17_A_c.gif","images/stimuli/spore_stims/simple_10_A_d.gif","","","","","8","simple_dissimilar","images/stimuli/spore_stims/simple_10_A_d.gif","middle","","","","",""
"","null","html-keyboard-response","154","358243","0.0-32.0-0.1","SS1613140195992","","","null","","","","","<p><img src= images/blank.png width =""200"" height = ""200"" style = ""float:right""></p><p><img src=images/blank.png width =""800"" height = ""200""></p>","","","","","","","","","","","",""
"","356.6749999881722","sequential-stimulus-presentation","155","359407","0.0-32.0-1.1","SS1613140195992","trial","","40","800","1156.6749999881722","images/stimuli/spore_stims/simple_17_A_c.gif","images/stimuli/spore_stims/simple_10_A_d.gif","","","","","8","simple_dissimilar","images/stimuli/spore_stims/simple_10_A_d.gif","middle","","","","",""
"","null","html-keyboard-response","156","360404","0.0-32.0-0.2","SS1613140195992","","","null","","","","","<p><img src= images/blank.png width =""200"" height = ""200"" style = ""float:right""></p><p><img src=images/blank.png width =""800"" height = ""200""></p>","","","","","","","","","","","",""
"","700.4099999903701","sequential-stimulus-presentation","157","361909","0.0-32.0-1.2","SS1613140195992","trial","","40","800","1500.4099999903701","images/stimuli/spore_stims/simple_17_A_c.gif","images/stimuli/spore_stims/simple_10_A_d.gif","","","","","8","simple_dissimilar","images/stimuli/spore_stims/simple_10_A_d.gif","middle","","","","",""
"","null","html-keyboard-response","158","362777","0.0-32.0-0.3","SS1613140195992","","","null","","","","","<p><img src= images/blank.png width =""200"" height = ""200"" style = ""float:right""></p><p><img src=images/blank.png width =""800"" height = ""200""></p>","","","","","","","","","","","",""
"","840.6299999915063","sequential-stimulus-presentation","159","364422","0.0-32.0-1.3","SS1613140195992","trial","","40","800","1640.6299999915063","images/stimuli/spore_stims/simple_17_A_c.gif","images/stimuli/spore_stims/simple_10_A_d.gif","","","","","8","simple_dissimilar","images/stimuli/spore_stims/simple_10_A_d.gif","middle","","","","",""
"","null","html-keyboard-response","160","365490","0.0-32.0-0.4","SS1613140195992","","","null","","","","","<p><img src= images/blank.png width =""200"" height = ""200"" style = ""float:right""></p><p><img src=images/blank.png width =""800"" height = ""200""></p>","","","","","","","","","","","",""
"","2918.115000007674","sequential-stimulus-presentation","161","369212","0.0-32.0-1.4","SS1613140195992","trial","","40","800","3718.115000007674","images/stimuli/spore_stims/simple_17_A_c.gif","images/stimuli/spore_stims/simple_10_A_d.gif","","","","","8","simple_dissimilar","images/stimuli/spore_stims/simple_10_A_d.gif","middle","","","","",""
"","null","html-keyboard-response","162","370338","0.0-32.0-0.5","SS1613140195992","","","null","","","","","<p><img src= images/blank.png width =""200"" height = ""200"" style = ""float:right""></p><p><img src=images/blank.png width =""800"" height = ""200""></p>","","","","","","","","","","","",""
"","3887.8350000013597","sequential-stimulus-presentation","163","375030","0.0-32.0-1.5","SS1613140195992","trial","","40","800","4687.83500000136","images/stimuli/spore_stims/simple_17_A_c.gif","images/stimuli/spore_stims/simple_10_A_d.gif","","","","","8","simple_dissimilar","images/stimuli/spore_stims/simple_10_A_d.gif","middle","","","","",""
"","null","html-keyboard-response","164","376167","0.0-32.0-0.6","SS1613140195992","","","null","","","","","<p><img src= images/blank.png width =""200"" height = ""200"" style = ""float:right""></p><p><img src=images/blank.png width =""800"" height = ""200""></p>","","","","","","","","","","","",""
"","576.1100000236183","sequential-stimulus-presentation","165","377547","0.0-32.0-1.6","SS1613140195992","trial","","40","800","1376.1100000236183","images/stimuli/spore_stims/simple_17_A_c.gif","images/stimuli/spore_stims/simple_10_A_d.gif","","","","","8","simple_dissimilar","images/stimuli/spore_stims/simple_10_A_d.gif","middle","","","","",""
"","null","html-keyboard-response","166","378588","0.0-32.0-0.7","SS1613140195992","","","null","","","","","<p><img src= images/blank.png width =""200"" height = ""200"" style = ""float:right""></p><p><img src=images/blank.png width =""800"" height = ""200""></p>","","","","","","","","","","","",""
"","1544.80000003241","sequential-stimulus-presentation","167","380944","0.0-32.0-1.7","SS1613140195992","trial","","40","800","2344.80000003241","images/stimuli/spore_stims/simple_17_A_c.gif","images/stimuli/spore_stims/simple_10_A_d.gif","","","","","8","simple_dissimilar","images/stimuli/spore_stims/simple_17_A_c.gif","right","","","","",""
"","1465.0200000032783","html-keyboard-response","168","382412","0.0-33.0","SS1613140195992","pref_question","","50","","","","","<video width ='960' height = '540' style='padding-top:8%' autoplay muted><source src='images/stimuli/wall_pref.mp4' type='video/mp4'></video>","2","middle","45%","8","","","","","","","",""
"","1841.7900000349618","sequential-stimulus-presentation","169","385059","0.0-34.0","SS1613140195992","pref_reveal","","40","800","2641.790000034962","null","null","","","","","8","","","","background","","","",""
"","null","html-keyboard-response","170","386274","0.0-35.0-0.0","SS1613140195992","","","null","","","","","<p><img src= images/blank.png width =""200"" height = ""200"" style = ""float:right""></p><p><img src=images/blank.png width =""800"" height = ""200""></p>","","","","","","","","","","","",""
"","1708.124999946449","sequential-stimulus-presentation","171","388798","0.0-35.0-1.0","SS1613140195992","trial","","40","800","2508.124999946449","images/stimuli/spore_stims/complex_16_B_d.gif","images/stimuli/spore_stims/complex_10_A_a.gif","","","","","9","complex_dissimilar","images/stimuli/spore_stims/complex_10_A_a.gif","left","","","","",""
"","null","html-keyboard-response","172","389969","0.0-35.0-0.1","SS1613140195992","","","null","","","","","<p><img src= images/blank.png width =""200"" height = ""200"" style = ""float:right""></p><p><img src=images/blank.png width =""800"" height = ""200""></p>","","","","","","","","","","","",""
"","685.95999997342","sequential-stimulus-presentation","173","391465","0.0-35.0-1.1","SS1613140195992","trial","","40","800","1485.95999997342","images/stimuli/spore_stims/complex_16_B_d.gif","images/stimuli/spore_stims/complex_10_A_a.gif","","","","","9","complex_dissimilar","images/stimuli/spore_stims/complex_10_A_a.gif","left","","","","",""
"","null","html-keyboard-response","174","392301","0.0-35.0-0.2","SS1613140195992","","","null","","","","","<p><img src= images/blank.png width =""200"" height = ""200"" style = ""float:right""></p><p><img src=images/blank.png width =""800"" height = ""200""></p>","","","","","","","","","","","",""
"","1542.7550000022165","sequential-stimulus-presentation","175","394648","0.0-35.0-1.2","SS1613140195992","trial","","40","800","2342.7550000022165","images/stimuli/spore_stims/complex_16_B_d.gif","images/stimuli/spore_stims/complex_10_A_a.gif","","","","","9","complex_dissimilar","images/stimuli/spore_stims/complex_10_A_a.gif","left","","","","",""
"","null","html-keyboard-response","176","395777","0.0-35.0-0.3","SS1613140195992","","","null","","","","","<p><img src= images/blank.png width =""200"" height = ""200"" style = ""float:right""></p><p><img src=images/blank.png width =""800"" height = ""200""></p>","","","","","","","","","","","",""
"","3423.2300000148825","sequential-stimulus-presentation","177","400019","0.0-35.0-1.3","SS1613140195992","trial","","40","800","4223.2300000148825","images/stimuli/spore_stims/complex_16_B_d.gif","images/stimuli/spore_stims/complex_10_A_a.gif","","","","","9","complex_dissimilar","images/stimuli/spore_stims/complex_10_A_a.gif","left","","","","",""
"","null","html-keyboard-response","178","401294","0.0-35.0-0.4","SS1613140195992","","","null","","","","","<p><img src= images/blank.png width =""200"" height = ""200"" style = ""float:right""></p><p><img src=images/blank.png width =""800"" height = ""200""></p>","","","","","","","","","","","",""
"","602.7549999998882","sequential-stimulus-presentation","179","402715","0.0-35.0-1.4","SS1613140195992","trial","","40","800","1402.7549999998882","images/stimuli/spore_stims/complex_16_B_d.gif","images/stimuli/spore_stims/complex_10_A_a.gif","","","","","9","complex_dissimilar","images/stimuli/spore_stims/complex_10_A_a.gif","left","","","","",""
"","null","html-keyboard-response","180","403546","0.0-35.0-0.5","SS1613140195992","","","null","","","","","<p><img src= images/blank.png width =""200"" height = ""200"" style = ""float:right""></p><p><img src=images/blank.png width =""800"" height = ""200""></p>","","","","","","","","","","","",""
"","581.4749999553896","sequential-stimulus-presentation","181","404943","0.0-35.0-1.5","SS1613140195992","trial","","40","800","1381.4749999553896","images/stimuli/spore_stims/complex_16_B_d.gif","images/stimuli/spore_stims/complex_10_A_a.gif","","","","","9","complex_dissimilar","images/stimuli/spore_stims/complex_10_A_a.gif","left","","","","",""
"","null","html-keyboard-response","182","405748","0.0-35.0-0.6","SS1613140195992","","","null","","","","","<p><img src= images/blank.png width =""200"" height = ""200"" style = ""float:right""></p><p><img src=images/blank.png width =""800"" height = ""200""></p>","","","","","","","","","","","",""
"","593.204999982845","sequential-stimulus-presentation","183","407151","0.0-35.0-1.6","SS1613140195992","trial","","40","800","1393.204999982845","images/stimuli/spore_stims/complex_16_B_d.gif","images/stimuli/spore_stims/complex_10_A_a.gif","","","","","9","complex_dissimilar","images/stimuli/spore_stims/complex_10_A_a.gif","left","","","","",""
"","null","html-keyboard-response","184","408051","0.0-35.0-0.7","SS1613140195992","","","null","","","","","<p><img src= images/blank.png width =""200"" height = ""200"" style = ""float:right""></p><p><img src=images/blank.png width =""800"" height = ""200""></p>","","","","","","","","","","","",""
"","758.8749999995343","sequential-stimulus-presentation","185","409615","0.0-35.0-1.7","SS1613140195992","trial","","40","800","1558.8749999995343","images/stimuli/spore_stims/complex_16_B_d.gif","images/stimuli/spore_stims/complex_10_A_a.gif","","","","","9","complex_dissimilar","images/stimuli/spore_stims/complex_16_B_d.gif","middle","","","","",""
"","1360.1550000021234","html-keyboard-response","186","410982","0.0-36.0","SS1613140195992","pref_question","","49","","","","","<video width ='960' height = '540' style='padding-top:8%' autoplay muted><source src='images/stimuli/wall_pref.mp4' type='video/mp4'></video>","1","left","25%","9","","","","","","","",""
"","1664.165000023786","sequential-stimulus-presentation","187","413450","0.0-37.0","SS1613140195992","pref_reveal","","40","800","2464.165000023786","null","null","","","","","9","","","","background","","","",""
"","null","html-keyboard-response","188","414610","0.0-38.0-0.0","SS1613140195992","","","null","","","","","<p><img src= images/blank.png width =""200"" height = ""200"" style = ""float:right""></p><p><img src=images/blank.png width =""800"" height = ""200""></p>","","","","","","","","","","","",""
"","1829.1750000207685","sequential-stimulus-presentation","189","417255","0.0-38.0-1.0","SS1613140195992","trial","","40","800","2629.1750000207685","images/stimuli/spore_stims/complex_06_B_a.gif","images/stimuli/spore_stims/complex_02_B_c.gif","","","","","10","complex_dissimilar","images/stimuli/spore_stims/complex_02_B_c.gif","right","","","","",""
"","null","html-keyboard-response","190","418247","0.0-38.0-0.1","SS1613140195992","","","null","","","","","<p><img src= images/blank.png width =""200"" height = ""200"" style = ""float:right""></p><p><img src=images/blank.png width =""800"" height = ""200""></p>","","","","","","","","","","","",""
"","1546.2500000139698","sequential-stimulus-presentation","191","420598","0.0-38.0-1.1","SS1613140195992","trial","","40","800","2346.25000001397","images/stimuli/spore_stims/complex_06_B_a.gif","images/stimuli/spore_stims/complex_02_B_c.gif","","","","","10","complex_dissimilar","images/stimuli/spore_stims/complex_02_B_c.gif","right","","","","",""
"","null","html-keyboard-response","192","421679","0.0-38.0-0.2","SS1613140195992","","","null","","","","","<p><img src= images/blank.png width =""200"" height = ""200"" style = ""float:right""></p><p><img src=images/blank.png width =""800"" height = ""200""></p>","","","","","","","","","","","",""
"","2092.1650000382215","sequential-stimulus-presentation","193","424577","0.0-38.0-1.2","SS1613140195992","trial","","40","800","2892.1650000382215","images/stimuli/spore_stims/complex_06_B_a.gif","images/stimuli/spore_stims/complex_02_B_c.gif","","","","","10","complex_dissimilar","images/stimuli/spore_stims/complex_02_B_c.gif","right","","","","",""
"","null","html-keyboard-response","194","425771","0.0-38.0-0.3","SS1613140195992","","","null","","","","","<p><img src= images/blank.png width =""200"" height = ""200"" style = ""float:right""></p><p><img src=images/blank.png width =""800"" height = ""200""></p>","","","","","","","","","","","",""
"","1533.77499995986","sequential-stimulus-presentation","195","428109","0.0-38.0-1.3","SS1613140195992","trial","","40","800","2333.77499995986","images/stimuli/spore_stims/complex_06_B_a.gif","images/stimuli/spore_stims/complex_02_B_c.gif","","","","","10","complex_dissimilar","images/stimuli/spore_stims/complex_02_B_c.gif","right","","","","",""
"","null","html-keyboard-response","196","429011","0.0-38.0-0.4","SS1613140195992","","","null","","","","","<p><img src= images/blank.png width =""200"" height = ""200"" style = ""float:right""></p><p><img src=images/blank.png width =""800"" height = ""200""></p>","","","","","","","","","","","",""
"","17772.23000000231","sequential-stimulus-presentation","197","447587","0.0-38.0-1.4","SS1613140195992","trial","","40","800","18572.23000000231","images/stimuli/spore_stims/complex_06_B_a.gif","images/stimuli/spore_stims/complex_02_B_c.gif","","","","","10","complex_dissimilar","images/stimuli/spore_stims/complex_06_B_a.gif","middle","","","","",""
"","null","html-keyboard-response","198","448635","0.0-38.0-0.5","SS1613140195992","","","null","","","","","<p><img src= images/blank.png width =""200"" height = ""200"" style = ""float:right""></p><p><img src=images/blank.png width =""800"" height = ""200""></p>","","","","","","","","","","","",""
"","1580.3999999770895","sequential-stimulus-presentation","199","451020","0.0-38.0-1.5","SS1613140195992","trial","","40","800","2380.3999999770895","images/stimuli/spore_stims/complex_06_B_a.gif","images/stimuli/spore_stims/complex_02_B_c.gif","","","","","10","complex_dissimilar","images/stimuli/spore_stims/complex_02_B_c.gif","right","","","","",""
"","null","html-keyboard-response","200","452156","0.0-38.0-0.6","SS1613140195992","","","null","","","","","<p><img src= images/blank.png width =""200"" height = ""200"" style = ""float:right""></p><p><img src=images/blank.png width =""800"" height = ""200""></p>","","","","","","","","","","","",""
"","2398.9549999823794","sequential-stimulus-presentation","201","455365","0.0-38.0-1.6","SS1613140195992","trial","","40","800","3198.9549999823794","images/stimuli/spore_stims/complex_06_B_a.gif","images/stimuli/spore_stims/complex_02_B_c.gif","","","","","10","complex_dissimilar","images/stimuli/spore_stims/complex_02_B_c.gif","right","","","","",""
"","null","html-keyboard-response","202","456396","0.0-38.0-0.7","SS1613140195992","","","null","","","","","<p><img src= images/blank.png width =""200"" height = ""200"" style = ""float:right""></p><p><img src=images/blank.png width =""800"" height = ""200""></p>","","","","","","","","","","","",""
"","2539.0100000076927","sequential-stimulus-presentation","203","459749","0.0-38.0-1.7","SS1613140195992","trial","","40","800","3339.0100000076927","images/stimuli/spore_stims/complex_06_B_a.gif","images/stimuli/spore_stims/complex_02_B_c.gif","","","","","10","complex_dissimilar","images/stimuli/spore_stims/complex_02_B_c.gif","right","","","","",""
"","1286.0649999929592","html-keyboard-response","204","461038","0.0-39.0","SS1613140195992","pref_question","","50","","","","","<video width ='960' height = '540' style='padding-top:8%' autoplay muted><source src='images/stimuli/wall_pref.mp4' type='video/mp4'></video>","2","middle","45%","10","","","","","","","",""
"","4942.579999973532","sequential-stimulus-presentation","205","466786","0.0-40.0","SS1613140195992","pref_reveal","","40","800","5742.579999973532","null","null","","","","","10","","","","deviant","","","",""
"","null","html-keyboard-response","206","467803","0.0-41.0-0.0","SS1613140195992","","","null","","","","","<p><img src= images/blank.png width =""200"" height = ""200"" style = ""float:right""></p><p><img src=images/blank.png width =""800"" height = ""200""></p>","","","","","","","","","","","",""
"","2502.0650000078604","sequential-stimulus-presentation","207","471110","0.0-41.0-1.0","SS1613140195992","trial","","40","800","3302.0650000078604","images/stimuli/spore_stims/complex_13_A_a.gif","images/stimuli/spore_stims/complex_13_B_a.gif","","","","","11","complex_similar","images/stimuli/spore_stims/complex_13_B_a.gif","middle","","","","",""
"","null","html-keyboard-response","208","472295","0.0-41.0-0.1","SS1613140195992","","","null","","","","","<p><img src= images/blank.png width =""200"" height = ""200"" style = ""float:right""></p><p><img src=images/blank.png width =""800"" height = ""200""></p>","","","","","","","","","","","",""
"","2107.814999995753","sequential-stimulus-presentation","209","475208","0.0-41.0-1.1","SS1613140195992","trial","","40","800","2907.814999995753","images/stimuli/spore_stims/complex_13_A_a.gif","images/stimuli/spore_stims/complex_13_B_a.gif","","","","","11","complex_similar","images/stimuli/spore_stims/complex_13_B_a.gif","middle","","","","",""
"","null","html-keyboard-response","210","476234","0.0-41.0-0.2","SS1613140195992","","","null","","","","","<p><img src= images/blank.png width =""200"" height = ""200"" style = ""float:right""></p><p><img src=images/blank.png width =""800"" height = ""200""></p>","","","","","","","","","","","",""
"","1576.4999999664724","sequential-stimulus-presentation","211","478615","0.0-41.0-1.2","SS1613140195992","trial","","40","800","2376.4999999664724","images/stimuli/spore_stims/complex_13_A_a.gif","images/stimuli/spore_stims/complex_13_B_a.gif","","","","","11","complex_similar","images/stimuli/spore_stims/complex_13_B_a.gif","middle","","","","",""
"","null","html-keyboard-response","212","479854","0.0-41.0-0.3","SS1613140195992","","","null","","","","","<p><img src= images/blank.png width =""200"" height = ""200"" style = ""float:right""></p><p><img src=images/blank.png width =""800"" height = ""200""></p>","","","","","","","","","","","",""
"","3906.879999965895","sequential-stimulus-presentation","213","484567","0.0-41.0-1.3","SS1613140195992","trial","","40","800","4706.879999965895","images/stimuli/spore_stims/complex_13_A_a.gif","images/stimuli/spore_stims/complex_13_B_a.gif","","","","","11","complex_similar","images/stimuli/spore_stims/complex_13_B_a.gif","middle","","","","",""
"","null","html-keyboard-response","214","485709","0.0-41.0-0.4","SS1613140195992","","","null","","","","","<p><img src= images/blank.png width =""200"" height = ""200"" style = ""float:right""></p><p><img src=images/blank.png width =""800"" height = ""200""></p>","","","","","","","","","","","",""
"","1100.8250000304542","sequential-stimulus-presentation","215","487615","0.0-41.0-1.4","SS1613140195992","trial","","40","800","1900.8250000304542","images/stimuli/spore_stims/complex_13_A_a.gif","images/stimuli/spore_stims/complex_13_B_a.gif","","","","","11","complex_similar","images/stimuli/spore_stims/complex_13_B_a.gif","middle","","","","",""
"","null","html-keyboard-response","216","488525","0.0-41.0-0.5","SS1613140195992","","","null","","","","","<p><img src= images/blank.png width =""200"" height = ""200"" style = ""float:right""></p><p><img src=images/blank.png width =""800"" height = ""200""></p>","","","","","","","","","","","",""
"","7676.404999976512","sequential-stimulus-presentation","217","497006","0.0-41.0-1.5","SS1613140195992","trial","","40","800","8476.404999976512","images/stimuli/spore_stims/complex_13_A_a.gif","images/stimuli/spore_stims/complex_13_B_a.gif","","","","","11","complex_similar","images/stimuli/spore_stims/complex_13_B_a.gif","middle","","","","",""
"","null","html-keyboard-response","218","498160","0.0-41.0-0.6","SS1613140195992","","","null","","","","","<p><img src= images/blank.png width =""200"" height = ""200"" style = ""float:right""></p><p><img src=images/blank.png width =""800"" height = ""200""></p>","","","","","","","","","","","",""
"","21843.05000002496","sequential-stimulus-presentation","219","520808","0.0-41.0-1.6","SS1613140195992","trial","","40","800","22643.05000002496","images/stimuli/spore_stims/complex_13_A_a.gif","images/stimuli/spore_stims/complex_13_B_a.gif","","","","","11","complex_similar","images/stimuli/spore_stims/complex_13_B_a.gif","middle","","","","",""
"","null","html-keyboard-response","220","521735","0.0-41.0-0.7","SS1613140195992","","","null","","","","","<p><img src= images/blank.png width =""200"" height = ""200"" style = ""float:right""></p><p><img src=images/blank.png width =""800"" height = ""200""></p>","","","","","","","","","","","",""
"","668.1850000168197","sequential-stimulus-presentation","221","523208","0.0-41.0-1.7","SS1613140195992","trial","","40","800","1468.1850000168197","images/stimuli/spore_stims/complex_13_A_a.gif","images/stimuli/spore_stims/complex_13_B_a.gif","","","","","11","complex_similar","images/stimuli/spore_stims/complex_13_A_a.gif","left","","","","",""
"","1394.1650000051595","html-keyboard-response","222","524606","0.0-42.0","SS1613140195992","pref_question","","50","","","","","<video width ='960' height = '540' style='padding-top:8%' autoplay muted><source src='images/stimuli/wall_pref.mp4' type='video/mp4'></video>","2","middle","45%","11","","","","","","","",""
"","2549.9800000106916","sequential-stimulus-presentation","223","527966","0.0-43.0","SS1613140195992","pref_reveal","","40","800","3349.9800000106916","null","null","","","","","11","","","","background","","","",""
"","null","html-keyboard-response","224","528899","0.0-44.0-0.0","SS1613140195992","","","null","","","","","<p><img src= images/blank.png width =""200"" height = ""200"" style = ""float:right""></p><p><img src=images/blank.png width =""800"" height = ""200""></p>","","","","","","","","","","","",""
"","917.8199999732897","sequential-stimulus-presentation","225","530622","0.0-44.0-1.0","SS1613140195992","trial","","40","800","1717.8199999732897","images/stimuli/spore_stims/complex_20_A_d.gif","images/stimuli/spore_stims/complex_20_B_d.gif","","","","","12","complex_similar","images/stimuli/spore_stims/complex_20_B_d.gif","right","","","","",""
"","null","html-keyboard-response","226","531884","0.0-44.0-0.1","SS1613140195992","","","null","","","","","<p><img src= images/blank.png width =""200"" height = ""200"" style = ""float:right""></p><p><img src=images/blank.png width =""800"" height = ""200""></p>","","","","","","","","","","","",""
"","1138.4299999917857","sequential-stimulus-presentation","227","533836","0.0-44.0-1.1","SS1613140195992","trial","","40","800","1938.4299999917857","images/stimuli/spore_stims/complex_20_A_d.gif","images/stimuli/spore_stims/complex_20_B_d.gif","","","","","12","complex_similar","images/stimuli/spore_stims/complex_20_B_d.gif","right","","","","",""
"","null","html-keyboard-response","228","534965","0.0-44.0-0.2","SS1613140195992","","","null","","","","","<p><img src= images/blank.png width =""200"" height = ""200"" style = ""float:right""></p><p><img src=images/blank.png width =""800"" height = ""200""></p>","","","","","","","","","","","",""
"","2828.139999997802","sequential-stimulus-presentation","229","538611","0.0-44.0-1.2","SS1613140195992","trial","","40","800","3628.139999997802","images/stimuli/spore_stims/complex_20_A_d.gif","images/stimuli/spore_stims/complex_20_B_d.gif","","","","","12","complex_similar","images/stimuli/spore_stims/complex_20_B_d.gif","right","","","","",""
"","null","html-keyboard-response","230","539821","0.0-44.0-0.3","SS1613140195992","","","null","","","","","<p><img src= images/blank.png width =""200"" height = ""200"" style = ""float:right""></p><p><img src=images/blank.png width =""800"" height = ""200""></p>","","","","","","","","","","","",""
"","1650.1200000056997","sequential-stimulus-presentation","231","542279","0.0-44.0-1.3","SS1613140195992","trial","","40","800","2450.1200000056997","images/stimuli/spore_stims/complex_20_A_d.gif","images/stimuli/spore_stims/complex_20_B_d.gif","","","","","12","complex_similar","images/stimuli/spore_stims/complex_20_B_d.gif","right","","","","",""
"","null","html-keyboard-response","232","543568","0.0-44.0-0.4","SS1613140195992","","","null","","","","","<p><img src= images/blank.png width =""200"" height = ""200"" style = ""float:right""></p><p><img src=images/blank.png width =""800"" height = ""200""></p>","","","","","","","","","","","",""
"","1111.109999998007","sequential-stimulus-presentation","233","545484","0.0-44.0-1.4","SS1613140195992","trial","","40","800","1911.109999998007","images/stimuli/spore_stims/complex_20_A_d.gif","images/stimuli/spore_stims/complex_20_B_d.gif","","","","","12","complex_similar","images/stimuli/spore_stims/complex_20_B_d.gif","right","","","","",""
"","null","html-keyboard-response","234","546648","0.0-44.0-0.5","SS1613140195992","","","null","","","","","<p><img src= images/blank.png width =""200"" height = ""200"" style = ""float:right""></p><p><img src=images/blank.png width =""800"" height = ""200""></p>","","","","","","","","","","","",""
"","2245.11999997776","sequential-stimulus-presentation","235","549699","0.0-44.0-1.5","SS1613140195992","trial","","40","800","3045.11999997776","images/stimuli/spore_stims/complex_20_A_d.gif","images/stimuli/spore_stims/complex_20_B_d.gif","","","","","12","complex_similar","images/stimuli/spore_stims/complex_20_B_d.gif","right","","","","",""
"","null","html-keyboard-response","236","550854","0.0-44.0-0.6","SS1613140195992","","","null","","","","","<p><img src= images/blank.png width =""200"" height = ""200"" style = ""float:right""></p><p><img src=images/blank.png width =""800"" height = ""200""></p>","","","","","","","","","","","",""
"","1640.1800000458024","sequential-stimulus-presentation","237","553316","0.0-44.0-1.6","SS1613140195992","trial","","40","800","2440.1800000458024","images/stimuli/spore_stims/complex_20_A_d.gif","images/stimuli/spore_stims/complex_20_B_d.gif","","","","","12","complex_similar","images/stimuli/spore_stims/complex_20_B_d.gif","right","","","","",""
"","null","html-keyboard-response","238","554255","0.0-44.0-0.7","SS1613140195992","","","null","","","","","<p><img src= images/blank.png width =""200"" height = ""200"" style = ""float:right""></p><p><img src=images/blank.png width =""800"" height = ""200""></p>","","","","","","","","","","","",""
"","2701.0949999676086","sequential-stimulus-presentation","239","557773","0.0-44.0-1.7","SS1613140195992","trial","","40","800","3501.0949999676086","images/stimuli/spore_stims/complex_20_A_d.gif","images/stimuli/spore_stims/complex_20_B_d.gif","","","","","12","complex_similar","images/stimuli/spore_stims/complex_20_A_d.gif","left","","","","",""
"","1507.244999986142","html-keyboard-response","240","559284","0.0-45.0","SS1613140195992","pref_question","","49","","","","","<video width ='960' height = '540' style='padding-top:8%' autoplay muted><source src='images/stimuli/wall_pref.mp4' type='video/mp4'></video>","1","left","25%","12","","","","","","","",""
"","2647.820000012871","sequential-stimulus-presentation","241","562739","0.0-46.0","SS1613140195992","pref_reveal","","40","800","3447.820000012871","null","null","","","","","12","","","","deviant","","","",""
"","null","html-keyboard-response","242","563718","0.0-47.0-0.0","SS1613140195992","","","null","","","","","<p><img src= images/blank.png width =""200"" height = ""200"" style = ""float:right""></p><p><img src=images/blank.png width =""800"" height = ""200""></p>","","","","","","","","","","","",""
"","716.7800000170246","sequential-stimulus-presentation","243","565241","0.0-47.0-1.0","SS1613140195992","trial","","40","800","1516.7800000170246","images/stimuli/spore_stims/complex_11_B_c.gif","images/stimuli/spore_stims/complex_11_A_c.gif","","","","","13","complex_similar","images/stimuli/spore_stims/complex_11_A_c.gif","middle","","","","",""
"","null","html-keyboard-response","244","566445","0.0-47.0-0.1","SS1613140195992","","","null","","","","","<p><img src= images/blank.png width =""200"" height = ""200"" style = ""float:right""></p><p><img src=images/blank.png width =""800"" height = ""200""></p>","","","","","","","","","","","",""
"","1365.1799999643117","sequential-stimulus-presentation","245","568615","0.0-47.0-1.1","SS1613140195992","trial","","40","800","2165.1799999643117","images/stimuli/spore_stims/complex_11_B_c.gif","images/stimuli/spore_stims/complex_11_A_c.gif","","","","","13","complex_similar","images/stimuli/spore_stims/complex_11_A_c.gif","middle","","","","",""
"","null","html-keyboard-response","246","569877","0.0-47.0-0.2","SS1613140195992","","","null","","","","","<p><img src= images/blank.png width =""200"" height = ""200"" style = ""float:right""></p><p><img src=images/blank.png width =""800"" height = ""200""></p>","","","","","","","","","","","",""
"","837.7650000038557","sequential-stimulus-presentation","247","571520","0.0-47.0-1.2","SS1613140195992","trial","","40","800","1637.7650000038557","images/stimuli/spore_stims/complex_11_B_c.gif","images/stimuli/spore_stims/complex_11_A_c.gif","","","","","13","complex_similar","images/stimuli/spore_stims/complex_11_A_c.gif","middle","","","","",""
"","null","html-keyboard-response","248","572696","0.0-47.0-0.3","SS1613140195992","","","null","","","","","<p><img src= images/blank.png width =""200"" height = ""200"" style = ""float:right""></p><p><img src=images/blank.png width =""800"" height = ""200""></p>","","","","","","","","","","","",""
"","1308.2150000263937","sequential-stimulus-presentation","249","574809","0.0-47.0-1.3","SS1613140195992","trial","","40","800","2108.2150000263937","images/stimuli/spore_stims/complex_11_B_c.gif","images/stimuli/spore_stims/complex_11_A_c.gif","","","","","13","complex_similar","images/stimuli/spore_stims/complex_11_A_c.gif","middle","","","","",""
"","null","html-keyboard-response","250","575898","0.0-47.0-0.4","SS1613140195992","","","null","","","","","<p><img src= images/blank.png width =""200"" height = ""200"" style = ""float:right""></p><p><img src=images/blank.png width =""800"" height = ""200""></p>","","","","","","","","","","","",""
"","7469.239999947604","sequential-stimulus-presentation","251","584173","0.0-47.0-1.4","SS1613140195992","trial","","40","800","8269.239999947604","images/stimuli/spore_stims/complex_11_B_c.gif","images/stimuli/spore_stims/complex_11_A_c.gif","","","","","13","complex_similar","images/stimuli/spore_stims/complex_11_A_c.gif","middle","","","","",""
"","null","html-keyboard-response","252","585204","0.0-47.0-0.5","SS1613140195992","","","null","","","","","<p><img src= images/blank.png width =""200"" height = ""200"" style = ""float:right""></p><p><img src=images/blank.png width =""800"" height = ""200""></p>","","","","","","","","","","","",""
"","1588.225000014063","sequential-stimulus-presentation","253","587597","0.0-47.0-1.5","SS1613140195992","trial","","40","800","2388.225000014063","images/stimuli/spore_stims/complex_11_B_c.gif","images/stimuli/spore_stims/complex_11_A_c.gif","","","","","13","complex_similar","images/stimuli/spore_stims/complex_11_A_c.gif","middle","","","","",""
"","null","html-keyboard-response","254","588736","0.0-47.0-0.6","SS1613140195992","","","null","","","","","<p><img src= images/blank.png width =""200"" height = ""200"" style = ""float:right""></p><p><img src=images/blank.png width =""800"" height = ""200""></p>","","","","","","","","","","","",""
"","2431.8199999979697","sequential-stimulus-presentation","255","591973","0.0-47.0-1.6","SS1613140195992","trial","","40","800","3231.8199999979697","images/stimuli/spore_stims/complex_11_B_c.gif","images/stimuli/spore_stims/complex_11_A_c.gif","","","","","13","complex_similar","images/stimuli/spore_stims/complex_11_A_c.gif","middle","","","","",""
"","null","html-keyboard-response","256","593095","0.0-47.0-0.7","SS1613140195992","","","null","","","","","<p><img src= images/blank.png width =""200"" height = ""200"" style = ""float:right""></p><p><img src=images/blank.png width =""800"" height = ""200""></p>","","","","","","","","","","","",""
"","1552.6399999507703","sequential-stimulus-presentation","257","595457","0.0-47.0-1.7","SS1613140195992","trial","","40","800","2352.6399999507703","images/stimuli/spore_stims/complex_11_B_c.gif","images/stimuli/spore_stims/complex_11_A_c.gif","","","","","13","complex_similar","images/stimuli/spore_stims/complex_11_B_c.gif","left","","","","",""
"","1613.4099999908358","html-keyboard-response","258","597074","0.0-48.0","SS1613140195992","pref_question","","49","","","","","<video width ='960' height = '540' style='padding-top:8%' autoplay muted><source src='images/stimuli/wall_pref.mp4' type='video/mp4'></video>","1","left","25%","13","","","","","","","",""
"","2210.0249999784864","sequential-stimulus-presentation","259","600090","0.0-49.0","SS1613140195992","pref_reveal","","40","800","3010.0249999784864","null","null","","","","","13","","","","deviant","","","",""
"","null","html-keyboard-response","260","600920","0.0-50.0-0.0","SS1613140195992","","","null","","","","","<p><img src= images/blank.png width =""200"" height = ""200"" style = ""float:right""></p><p><img src=images/blank.png width =""800"" height = ""200""></p>","","","","","","","","","","","",""
"","1486.8600000045262","sequential-stimulus-presentation","261","603214","0.0-50.0-1.0","SS1613140195992","trial","","40","800","2286.8600000045262","images/stimuli/spore_stims/complex_12_B_d.gif","images/stimuli/spore_stims/complex_19_A_c.gif","","","","","14","complex_dissimilar","images/stimuli/spore_stims/complex_19_A_c.gif","right","","","","",""
"","null","html-keyboard-response","262","604366","0.0-50.0-0.1","SS1613140195992","","","null","","","","","<p><img src= images/blank.png width =""200"" height = ""200"" style = ""float:right""></p><p><img src=images/blank.png width =""800"" height = ""200""></p>","","","","","","","","","","","",""
"","662.3249999829568","sequential-stimulus-presentation","263","605849","0.0-50.0-1.1","SS1613140195992","trial","","40","800","1462.3249999829568","images/stimuli/spore_stims/complex_12_B_d.gif","images/stimuli/spore_stims/complex_19_A_c.gif","","","","","14","complex_dissimilar","images/stimuli/spore_stims/complex_19_A_c.gif","right","","","","",""
"","null","html-keyboard-response","264","607056","0.0-50.0-0.2","SS1613140195992","","","null","","","","","<p><img src= images/blank.png width =""200"" height = ""200"" style = ""float:right""></p><p><img src=images/blank.png width =""800"" height = ""200""></p>","","","","","","","","","","","",""
"","806.319999974221","sequential-stimulus-presentation","265","608677","0.0-50.0-1.2","SS1613140195992","trial","","40","800","1606.319999974221","images/stimuli/spore_stims/complex_12_B_d.gif","images/stimuli/spore_stims/complex_19_A_c.gif","","","","","14","complex_dissimilar","images/stimuli/spore_stims/complex_19_A_c.gif","right","","","","",""
"","null","html-keyboard-response","266","609846","0.0-50.0-0.3","SS1613140195992","","","null","","","","","<p><img src= images/blank.png width =""200"" height = ""200"" style = ""float:right""></p><p><img src=images/blank.png width =""800"" height = ""200""></p>","","","","","","","","","","","",""
"","942.9100000415929","sequential-stimulus-presentation","267","611606","0.0-50.0-1.3","SS1613140195992","trial","","40","800","1742.9100000415929","images/stimuli/spore_stims/complex_12_B_d.gif","images/stimuli/spore_stims/complex_19_A_c.gif","","","","","14","complex_dissimilar","images/stimuli/spore_stims/complex_19_A_c.gif","right","","","","",""
"","null","html-keyboard-response","268","612632","0.0-50.0-0.4","SS1613140195992","","","null","","","","","<p><img src= images/blank.png width =""200"" height = ""200"" style = ""float:right""></p><p><img src=images/blank.png width =""800"" height = ""200""></p>","","","","","","","","","","","",""
"","4422.484999988228","sequential-stimulus-presentation","269","617860","0.0-50.0-1.4","SS1613140195992","trial","","40","800","5222.484999988228","images/stimuli/spore_stims/complex_12_B_d.gif","images/stimuli/spore_stims/complex_19_A_c.gif","","","","","14","complex_dissimilar","images/stimuli/spore_stims/complex_12_B_d.gif","left","","","","",""
"","null","html-keyboard-response","270","618913","0.0-50.0-0.5","SS1613140195992","","","null","","","","","<p><img src= images/blank.png width =""200"" height = ""200"" style = ""float:right""></p><p><img src=images/blank.png width =""800"" height = ""200""></p>","","","","","","","","","","","",""
"","696.6900000115857","sequential-stimulus-presentation","271","620431","0.0-50.0-1.5","SS1613140195992","trial","","40","800","1496.6900000115857","images/stimuli/spore_stims/complex_12_B_d.gif","images/stimuli/spore_stims/complex_19_A_c.gif","","","","","14","complex_dissimilar","images/stimuli/spore_stims/complex_19_A_c.gif","right","","","","",""
"","null","html-keyboard-response","272","621313","0.0-50.0-0.6","SS1613140195992","","","null","","","","","<p><img src= images/blank.png width =""200"" height = ""200"" style = ""float:right""></p><p><img src=images/blank.png width =""800"" height = ""200""></p>","","","","","","","","","","","",""
"","920.9399999817833","sequential-stimulus-presentation","273","623039","0.0-50.0-1.6","SS1613140195992","trial","","40","800","1720.9399999817833","images/stimuli/spore_stims/complex_12_B_d.gif","images/stimuli/spore_stims/complex_19_A_c.gif","","","","","14","complex_dissimilar","images/stimuli/spore_stims/complex_19_A_c.gif","right","","","","",""
"","null","html-keyboard-response","274","623913","0.0-50.0-0.7","SS1613140195992","","","null","","","","","<p><img src= images/blank.png width =""200"" height = ""200"" style = ""float:right""></p><p><img src=images/blank.png width =""800"" height = ""200""></p>","","","","","","","","","","","",""
"","913.6700000381097","sequential-stimulus-presentation","275","625638","0.0-50.0-1.7","SS1613140195992","trial","","40","800","1713.6700000381097","images/stimuli/spore_stims/complex_12_B_d.gif","images/stimuli/spore_stims/complex_19_A_c.gif","","","","","14","complex_dissimilar","images/stimuli/spore_stims/complex_19_A_c.gif","right","","","","",""
"","1314.3549999804236","html-keyboard-response","276","626956","0.0-51.0","SS1613140195992","pref_question","","49","","","","","<video width ='960' height = '540' style='padding-top:8%' autoplay muted><source src='images/stimuli/wall_pref.mp4' type='video/mp4'></video>","1","left","25%","14","","","","","","","",""
"","1172.2650000010617","sequential-stimulus-presentation","277","628937","0.0-52.0","SS1613140195992","pref_reveal","","40","800","1972.2650000010617","null","null","","","","","14","","","","deviant","","","",""
"","null","html-keyboard-response","278","630142","0.0-53.0-0.0","SS1613140195992","","","null","","","","","<p><img src= images/blank.png width =""200"" height = ""200"" style = ""float:right""></p><p><img src=images/blank.png width =""800"" height = ""200""></p>","","","","","","","","","","","",""
"","1964.8299999535084","sequential-stimulus-presentation","279","632924","0.0-53.0-1.0","SS1613140195992","trial","","40","800","2764.8299999535084","images/stimuli/spore_stims/simple_04_B_a.gif","images/stimuli/spore_stims/simple_04_A_a.gif","","","","","15","simple_similar","images/stimuli/spore_stims/simple_04_A_a.gif","right","","","","",""
"","null","html-keyboard-response","280","634043","0.0-53.0-0.1","SS1613140195992","","","null","","","","","<p><img src= images/blank.png width =""200"" height = ""200"" style = ""float:right""></p><p><img src=images/blank.png width =""800"" height = ""200""></p>","","","","","","","","","","","",""
"","788.1399999605492","sequential-stimulus-presentation","281","635636","0.0-53.0-1.1","SS1613140195992","trial","","40","800","1588.1399999605492","images/stimuli/spore_stims/simple_04_B_a.gif","images/stimuli/spore_stims/simple_04_A_a.gif","","","","","15","simple_similar","images/stimuli/spore_stims/simple_04_A_a.gif","right","","","","",""
"","null","html-keyboard-response","282","636830","0.0-53.0-0.2","SS1613140195992","","","null","","","","","<p><img src= images/blank.png width =""200"" height = ""200"" style = ""float:right""></p><p><img src=images/blank.png width =""800"" height = ""200""></p>","","","","","","","","","","","",""
"","623.9050000440329","sequential-stimulus-presentation","283","638260","0.0-53.0-1.2","SS1613140195992","trial","","40","800","1423.905000044033","images/stimuli/spore_stims/simple_04_B_a.gif","images/stimuli/spore_stims/simple_04_A_a.gif","","","","","15","simple_similar","images/stimuli/spore_stims/simple_04_A_a.gif","right","","","","",""
"","null","html-keyboard-response","284","639105","0.0-53.0-0.3","SS1613140195992","","","null","","","","","<p><img src= images/blank.png width =""200"" height = ""200"" style = ""float:right""></p><p><img src=images/blank.png width =""800"" height = ""200""></p>","","","","","","","","","","","",""
"","946.8900000210851","sequential-stimulus-presentation","285","640863","0.0-53.0-1.3","SS1613140195992","trial","","40","800","1746.8900000210851","images/stimuli/spore_stims/simple_04_B_a.gif","images/stimuli/spore_stims/simple_04_A_a.gif","","","","","15","simple_similar","images/stimuli/spore_stims/simple_04_A_a.gif","right","","","","",""
"","null","html-keyboard-response","286","641796","0.0-53.0-0.4","SS1613140195992","","","null","","","","","<p><img src= images/blank.png width =""200"" height = ""200"" style = ""float:right""></p><p><img src=images/blank.png width =""800"" height = ""200""></p>","","","","","","","","","","","",""
"","532.7249999972992","sequential-stimulus-presentation","287","643144","0.0-53.0-1.4","SS1613140195992","trial","","40","800","1332.7249999972992","images/stimuli/spore_stims/simple_04_B_a.gif","images/stimuli/spore_stims/simple_04_A_a.gif","","","","","15","simple_similar","images/stimuli/spore_stims/simple_04_A_a.gif","right","","","","",""
"","null","html-keyboard-response","288","643958","0.0-53.0-0.5","SS1613140195992","","","null","","","","","<p><img src= images/blank.png width =""200"" height = ""200"" style = ""float:right""></p><p><img src=images/blank.png width =""800"" height = ""200""></p>","","","","","","","","","","","",""
"","1756.824999989476","sequential-stimulus-presentation","289","646521","0.0-53.0-1.5","SS1613140195992","trial","","40","800","2556.824999989476","images/stimuli/spore_stims/simple_04_B_a.gif","images/stimuli/spore_stims/simple_04_A_a.gif","","","","","15","simple_similar","images/stimuli/spore_stims/simple_04_A_a.gif","right","","","","",""
"","null","html-keyboard-response","290","647652","0.0-53.0-0.6","SS1613140195992","","","null","","","","","<p><img src= images/blank.png width =""200"" height = ""200"" style = ""float:right""></p><p><img src=images/blank.png width =""800"" height = ""200""></p>","","","","","","","","","","","",""
"","569.9950000271201","sequential-stimulus-presentation","291","649027","0.0-53.0-1.6","SS1613140195992","trial","","40","800","1369.99500002712","images/stimuli/spore_stims/simple_04_B_a.gif","images/stimuli/spore_stims/simple_04_A_a.gif","","","","","15","simple_similar","images/stimuli/spore_stims/simple_04_A_a.gif","right","","","","",""
"","null","html-keyboard-response","292","650295","0.0-53.0-0.7","SS1613140195992","","","null","","","","","<p><img src= images/blank.png width =""200"" height = ""200"" style = ""float:right""></p><p><img src=images/blank.png width =""800"" height = ""200""></p>","","","","","","","","","","","",""
"","1524.3400000035763","sequential-stimulus-presentation","293","652637","0.0-53.0-1.7","SS1613140195992","trial","","40","800","2324.3400000035763","images/stimuli/spore_stims/simple_04_B_a.gif","images/stimuli/spore_stims/simple_04_A_a.gif","","","","","15","simple_similar","images/stimuli/spore_stims/simple_04_B_a.gif","left","","","","",""
"","1688.9899999951012","html-keyboard-response","294","654331","0.0-54.0","SS1613140195992","pref_question","","50","","","","","<video width ='960' height = '540' style='padding-top:8%' autoplay muted><source src='images/stimuli/wall_pref.mp4' type='video/mp4'></video>","2","middle","45%","15","","","","","","","",""
"","949.5849999948405","sequential-stimulus-presentation","295","656087","0.0-55.0","SS1613140195992","pref_reveal","","40","800","1749.5849999948405","null","null","","","","","15","","","","novel","","","",""
"","null","html-keyboard-response","296","657311","0.0-56.0-0.0","SS1613140195992","","","null","","","","","<p><img src= images/blank.png width =""200"" height = ""200"" style = ""float:right""></p><p><img src=images/blank.png width =""800"" height = ""200""></p>","","","","","","","","","","","",""
"","668.7400000519119","sequential-stimulus-presentation","297","658785","0.0-56.0-1.0","SS1613140195992","trial","","40","800","1468.740000051912","images/stimuli/spore_stims/complex_09_A_b.gif","images/stimuli/spore_stims/complex_05_B_a.gif","","","","","16","complex_dissimilar","images/stimuli/spore_stims/complex_05_B_a.gif","right","","","","",""
"","null","html-keyboard-response","298","660072","0.0-56.0-0.1","SS1613140195992","","","null","","","","","<p><img src= images/blank.png width =""200"" height = ""200"" style = ""float:right""></p><p><img src=images/blank.png width =""800"" height = ""200""></p>","","","","","","","","","","","",""
"","852.5000000372529","sequential-stimulus-presentation","299","661731","0.0-56.0-1.1","SS1613140195992","trial","","40","800","1652.500000037253","images/stimuli/spore_stims/complex_09_A_b.gif","images/stimuli/spore_stims/complex_05_B_a.gif","","","","","16","complex_dissimilar","images/stimuli/spore_stims/complex_05_B_a.gif","right","","","","",""
"","null","html-keyboard-response","300","662866","0.0-56.0-0.2","SS1613140195992","","","null","","","","","<p><img src= images/blank.png width =""200"" height = ""200"" style = ""float:right""></p><p><img src=images/blank.png width =""800"" height = ""200""></p>","","","","","","","","","","","",""
"","253.97499999962747","sequential-stimulus-presentation","301","663926","0.0-56.0-1.2","SS1613140195992","trial","","40","800","1053.9749999996275","images/stimuli/spore_stims/complex_09_A_b.gif","images/stimuli/spore_stims/complex_05_B_a.gif","","","","","16","complex_dissimilar","images/stimuli/spore_stims/complex_05_B_a.gif","right","","","","",""
"","null","html-keyboard-response","302","665211","0.0-56.0-0.3","SS1613140195992","","","null","","","","","<p><img src= images/blank.png width =""200"" height = ""200"" style = ""float:right""></p><p><img src=images/blank.png width =""800"" height = ""200""></p>","","","","","","","","","","","",""
"","697.7749999496154","sequential-stimulus-presentation","303","666723","0.0-56.0-1.3","SS1613140195992","trial","","40","800","1497.7749999496154","images/stimuli/spore_stims/complex_09_A_b.gif","images/stimuli/spore_stims/complex_05_B_a.gif","","","","","16","complex_dissimilar","images/stimuli/spore_stims/complex_05_B_a.gif","right","","","","",""
"","null","html-keyboard-response","304","667978","0.0-56.0-0.4","SS1613140195992","","","null","","","","","<p><img src= images/blank.png width =""200"" height = ""200"" style = ""float:right""></p><p><img src=images/blank.png width =""800"" height = ""200""></p>","","","","","","","","","","","",""
"","1629.2649999959394","sequential-stimulus-presentation","305","670413","0.0-56.0-1.4","SS1613140195992","trial","","40","800","2429.2649999959394","images/stimuli/spore_stims/complex_09_A_b.gif","images/stimuli/spore_stims/complex_05_B_a.gif","","","","","16","complex_dissimilar","images/stimuli/spore_stims/complex_09_A_b.gif","middle","","","","",""
"","null","html-keyboard-response","306","671389","0.0-56.0-0.5","SS1613140195992","","","null","","","","","<p><img src= images/blank.png width =""200"" height = ""200"" style = ""float:right""></p><p><img src=images/blank.png width =""800"" height = ""200""></p>","","","","","","","","","","","",""
"","249.80999995023012","sequential-stimulus-presentation","307","672445","0.0-56.0-1.5","SS1613140195992","trial","","40","800","1049.8099999502301","images/stimuli/spore_stims/complex_09_A_b.gif","images/stimuli/spore_stims/complex_05_B_a.gif","","","","","16","complex_dissimilar","images/stimuli/spore_stims/complex_05_B_a.gif","right","","","","",""
"","null","html-keyboard-response","308","673434","0.0-56.0-0.6","SS1613140195992","","","null","","","","","<p><img src= images/blank.png width =""200"" height = ""200"" style = ""float:right""></p><p><img src=images/blank.png width =""800"" height = ""200""></p>","","","","","","","","","","","",""
"","2080.785000056494","sequential-stimulus-presentation","309","676333","0.0-56.0-1.6","SS1613140195992","trial","","40","800","2880.785000056494","images/stimuli/spore_stims/complex_09_A_b.gif","images/stimuli/spore_stims/complex_05_B_a.gif","","","","","16","complex_dissimilar","images/stimuli/spore_stims/complex_05_B_a.gif","right","","","","",""
"","null","html-keyboard-response","310","677206","0.0-56.0-0.7","SS1613140195992","","","null","","","","","<p><img src= images/blank.png width =""200"" height = ""200"" style = ""float:right""></p><p><img src=images/blank.png width =""800"" height = ""200""></p>","","","","","","","","","","","",""
"","11479.605000000447","sequential-stimulus-presentation","311","689491","0.0-56.0-1.7","SS1613140195992","trial","","40","800","12279.605000000447","images/stimuli/spore_stims/complex_09_A_b.gif","images/stimuli/spore_stims/complex_05_B_a.gif","","","","","16","complex_dissimilar","images/stimuli/spore_stims/complex_05_B_a.gif","right","","","","",""
