"view_history","rt","trial_type","trial_index","time_elapsed","internal_node_id","subject","stimulus_type","trial_stimulus","key_press","minimum_viewing_duration","trial_looking_time","block_deviant","block_background","stimulus","wall_pref","location","location_percent","block_number","block_type","stimulus_displayed","position_displayed","stim_type_selected","responses","question_order","stimulus_left","stimulus_right"
"[{""page_index"":0,""viewing_time"":2078.1649999989895}]","2078.4249999996973","instructions","0","2079","0.0-0.0","SS1613080992401","","","","","","","","","","","","","","","","","","","",""
"[{""page_index"":0,""viewing_time"":13983.3299999882},{""page_index"":1,""viewing_time"":7021.040000006906}]","21004.779999988386","instructions","1","25086","0.0-1.0","SS1613080992401","instructions","","","","","","","","","","","","","","","","","","",""
"","9786.139999996522","sequential-stimulus-presentation","2","35679","0.0-2.0","SS1613080992401","","","40","800","10586.139999996522","null","null","","","","","","","","","","","","",""
"","6260.745000006864","sequential-stimulus-presentation","3","42745","0.0-3.0","SS1613080992401","","","40","800","7060.745000006864","null","null","","","","","","","","","","","","",""
"[{""page_index"":0,""viewing_time"":4366.039999993518}]","4366.3200000009965","instructions","4","47113","0.0-4.0","SS1613080992401","instructions","","","","","","","","","","","","","","","","","","",""
"","12338.54500000598","html-keyboard-response","5","59454","0.0-5.0","SS1613080992401","instructions","","49","","","","","<video width ='960' height = '540' autoplay muted><source src='images/stimuli/wall_pref.mp4' type='video/mp4'></video>","1","left","25%","","","","","","","","",""
"","5320.300000006682","sequential-stimulus-presentation","6","65581","0.0-6.0","SS1613080992401","pref_reveal","","40","800","6120.300000006682","null","null","","","","","","","","","","","","",""
"[{""page_index"":0,""viewing_time"":23734.754999997676},{""page_index"":1,""viewing_time"":4772.799999991548},{""page_index"":2,""viewing_time"":1477.1850000106497},{""page_index"":3,""viewing_time"":1641.445000001113}]","31626.485000000685","instructions","7","97209","0.0-7.0","SS1613080992401","instructions","","","","","","","","","","","","","","","","","","",""
"","null","html-keyboard-response","8","98510","0.0-8.0-0.0","SS1613080992401","","","null","","","","","<p><img src= images/blank.png width =""200"" height = ""200"" style = ""float:right""></p><p><img src=images/blank.png width =""800"" height = ""200""></p>","","","","","","","","","","","",""
"","4599.654999998165","sequential-stimulus-presentation","9","103917","0.0-8.0-1.0","SS1613080992401","trial","","40","800","5399.654999998165","images/stimuli/spore_stims/simple_17_B_b.gif","images/stimuli/spore_stims/simple_17_A_b.gif","","","","","0","simple_similar","images/stimuli/spore_stims/simple_17_A_b.gif","right","","","","",""
"","null","html-keyboard-response","10","105009","0.0-8.0-0.1","SS1613080992401","","","null","","","","","<p><img src= images/blank.png width =""200"" height = ""200"" style = ""float:right""></p><p><img src=images/blank.png width =""800"" height = ""200""></p>","","","","","","","","","","","",""
"","2498.294999997597","sequential-stimulus-presentation","11","108311","0.0-8.0-1.1","SS1613080992401","trial","","40","800","3298.294999997597","images/stimuli/spore_stims/simple_17_B_b.gif","images/stimuli/spore_stims/simple_17_A_b.gif","","","","","0","simple_similar","images/stimuli/spore_stims/simple_17_A_b.gif","right","","","","",""
"","null","html-keyboard-response","12","109493","0.0-8.0-0.2","SS1613080992401","","","null","","","","","<p><img src= images/blank.png width =""200"" height = ""200"" style = ""float:right""></p><p><img src=images/blank.png width =""800"" height = ""200""></p>","","","","","","","","","","","",""
"","4402.014999999665","sequential-stimulus-presentation","13","114713","0.0-8.0-1.2","SS1613080992401","trial","","40","800","5202.014999999665","images/stimuli/spore_stims/simple_17_B_b.gif","images/stimuli/spore_stims/simple_17_A_b.gif","","","","","0","simple_similar","images/stimuli/spore_stims/simple_17_A_b.gif","right","","","","",""
"","null","html-keyboard-response","14","115683","0.0-8.0-0.3","SS1613080992401","","","null","","","","","<p><img src= images/blank.png width =""200"" height = ""200"" style = ""float:right""></p><p><img src=images/blank.png width =""800"" height = ""200""></p>","","","","","","","","","","","",""
"","1876.845000006142","sequential-stimulus-presentation","15","118367","0.0-8.0-1.3","SS1613080992401","trial","","40","800","2676.845000006142","images/stimuli/spore_stims/simple_17_B_b.gif","images/stimuli/spore_stims/simple_17_A_b.gif","","","","","0","simple_similar","images/stimuli/spore_stims/simple_17_A_b.gif","right","","","","",""
"","null","html-keyboard-response","16","119221","0.0-8.0-0.4","SS1613080992401","","","null","","","","","<p><img src= images/blank.png width =""200"" height = ""200"" style = ""float:right""></p><p><img src=images/blank.png width =""800"" height = ""200""></p>","","","","","","","","","","","",""
"","6376.090000005206","sequential-stimulus-presentation","17","126402","0.0-8.0-1.4","SS1613080992401","trial","","40","800","7176.090000005206","images/stimuli/spore_stims/simple_17_B_b.gif","images/stimuli/spore_stims/simple_17_A_b.gif","","","","","0","simple_similar","images/stimuli/spore_stims/simple_17_B_b.gif","middle","","","","",""
"","null","html-keyboard-response","18","127643","0.0-8.0-0.5","SS1613080992401","","","null","","","","","<p><img src= images/blank.png width =""200"" height = ""200"" style = ""float:right""></p><p><img src=images/blank.png width =""800"" height = ""200""></p>","","","","","","","","","","","",""
"","3928.760000009788","sequential-stimulus-presentation","19","132378","0.0-8.0-1.5","SS1613080992401","trial","","40","800","4728.760000009788","images/stimuli/spore_stims/simple_17_B_b.gif","images/stimuli/spore_stims/simple_17_A_b.gif","","","","","0","simple_similar","images/stimuli/spore_stims/simple_17_A_b.gif","right","","","","",""
"","null","html-keyboard-response","20","133586","0.0-8.0-0.6","SS1613080992401","","","null","","","","","<p><img src= images/blank.png width =""200"" height = ""200"" style = ""float:right""></p><p><img src=images/blank.png width =""800"" height = ""200""></p>","","","","","","","","","","","",""
"","4033.1849999929545","sequential-stimulus-presentation","21","138427","0.0-8.0-1.6","SS1613080992401","trial","","40","800","4833.1849999929545","images/stimuli/spore_stims/simple_17_B_b.gif","images/stimuli/spore_stims/simple_17_A_b.gif","","","","","0","simple_similar","images/stimuli/spore_stims/simple_17_A_b.gif","right","","","","",""
"","null","html-keyboard-response","22","139682","0.0-8.0-0.7","SS1613080992401","","","null","","","","","<p><img src= images/blank.png width =""200"" height = ""200"" style = ""float:right""></p><p><img src=images/blank.png width =""800"" height = ""200""></p>","","","","","","","","","","","",""
"","3142.9649999918183","sequential-stimulus-presentation","23","143632","0.0-8.0-1.7","SS1613080992401","trial","","40","800","3942.9649999918183","images/stimuli/spore_stims/simple_17_B_b.gif","images/stimuli/spore_stims/simple_17_A_b.gif","","","","","0","simple_similar","images/stimuli/spore_stims/simple_17_A_b.gif","right","","","","",""
"","1694.2249999992782","html-keyboard-response","24","145331","0.0-9.0","SS1613080992401","pref_question","","49","","","","","<video width ='960' height = '540' style='padding-top:8%' autoplay muted><source src='images/stimuli/wall_pref.mp4' type='video/mp4'></video>","1","left","25%","0","","","","","","","",""
"","6588.055000000168","sequential-stimulus-presentation","25","152722","0.0-10.0","SS1613080992401","pref_reveal","","40","800","7388.055000000168","null","null","","","","","0","","","","novel","","","",""
"","null","html-keyboard-response","26","153556","0.0-11.0-0.0","SS1613080992401","","","null","","","","","<p><img src= images/blank.png width =""200"" height = ""200"" style = ""float:right""></p><p><img src=images/blank.png width =""800"" height = ""200""></p>","","","","","","","","","","","",""
"","4206.4400000090245","sequential-stimulus-presentation","27","158567","0.0-11.0-1.0","SS1613080992401","trial","","40","800","5006.4400000090245","images/stimuli/spore_stims/complex_17_B_c.gif","images/stimuli/spore_stims/complex_17_A_c.gif","","","","","1","complex_similar","images/stimuli/spore_stims/complex_17_A_c.gif","left","","","","",""
"","null","html-keyboard-response","28","159755","0.0-11.0-0.1","SS1613080992401","","","null","","","","","<p><img src= images/blank.png width =""200"" height = ""200"" style = ""float:right""></p><p><img src=images/blank.png width =""800"" height = ""200""></p>","","","","","","","","","","","",""
"","5106.780000001891","sequential-stimulus-presentation","29","165667","0.0-11.0-1.1","SS1613080992401","trial","","40","800","5906.780000001891","images/stimuli/spore_stims/complex_17_B_c.gif","images/stimuli/spore_stims/complex_17_A_c.gif","","","","","1","complex_similar","images/stimuli/spore_stims/complex_17_A_c.gif","left","","","","",""
"","null","html-keyboard-response","30","166819","0.0-11.0-0.2","SS1613080992401","","","null","","","","","<p><img src= images/blank.png width =""200"" height = ""200"" style = ""float:right""></p><p><img src=images/blank.png width =""800"" height = ""200""></p>","","","","","","","","","","","",""
"","5968.669999987469","sequential-stimulus-presentation","31","173592","0.0-11.0-1.2","SS1613080992401","trial","","40","800","6768.669999987469","images/stimuli/spore_stims/complex_17_B_c.gif","images/stimuli/spore_stims/complex_17_A_c.gif","","","","","1","complex_similar","images/stimuli/spore_stims/complex_17_A_c.gif","left","","","","",""
"","null","html-keyboard-response","32","174751","0.0-11.0-0.3","SS1613080992401","","","null","","","","","<p><img src= images/blank.png width =""200"" height = ""200"" style = ""float:right""></p><p><img src=images/blank.png width =""800"" height = ""200""></p>","","","","","","","","","","","",""
"","5812.9749999934575","sequential-stimulus-presentation","33","181371","0.0-11.0-1.3","SS1613080992401","trial","","40","800","6612.9749999934575","images/stimuli/spore_stims/complex_17_B_c.gif","images/stimuli/spore_stims/complex_17_A_c.gif","","","","","1","complex_similar","images/stimuli/spore_stims/complex_17_A_c.gif","left","","","","",""
"","null","html-keyboard-response","34","182620","0.0-11.0-0.4","SS1613080992401","","","null","","","","","<p><img src= images/blank.png width =""200"" height = ""200"" style = ""float:right""></p><p><img src=images/blank.png width =""800"" height = ""200""></p>","","","","","","","","","","","",""
"","2700.605000005453","sequential-stimulus-presentation","35","186127","0.0-11.0-1.4","SS1613080992401","trial","","40","800","3500.605000005453","images/stimuli/spore_stims/complex_17_B_c.gif","images/stimuli/spore_stims/complex_17_A_c.gif","","","","","1","complex_similar","images/stimuli/spore_stims/complex_17_A_c.gif","left","","","","",""
"","null","html-keyboard-response","36","187381","0.0-11.0-0.5","SS1613080992401","","","null","","","","","<p><img src= images/blank.png width =""200"" height = ""200"" style = ""float:right""></p><p><img src=images/blank.png width =""800"" height = ""200""></p>","","","","","","","","","","","",""
"","2479.3849999987287","sequential-stimulus-presentation","37","190667","0.0-11.0-1.5","SS1613080992401","trial","","40","800","3279.3849999987287","images/stimuli/spore_stims/complex_17_B_c.gif","images/stimuli/spore_stims/complex_17_A_c.gif","","","","","1","complex_similar","images/stimuli/spore_stims/complex_17_A_c.gif","left","","","","",""
"","null","html-keyboard-response","38","191602","0.0-11.0-0.6","SS1613080992401","","","null","","","","","<p><img src= images/blank.png width =""200"" height = ""200"" style = ""float:right""></p><p><img src=images/blank.png width =""800"" height = ""200""></p>","","","","","","","","","","","",""
"","4038.1600000109756","sequential-stimulus-presentation","39","196447","0.0-11.0-1.6","SS1613080992401","trial","","40","800","4838.160000010976","images/stimuli/spore_stims/complex_17_B_c.gif","images/stimuli/spore_stims/complex_17_A_c.gif","","","","","1","complex_similar","images/stimuli/spore_stims/complex_17_B_c.gif","right","","","","",""
"","null","html-keyboard-response","40","197724","0.0-11.0-0.7","SS1613080992401","","","null","","","","","<p><img src= images/blank.png width =""200"" height = ""200"" style = ""float:right""></p><p><img src=images/blank.png width =""800"" height = ""200""></p>","","","","","","","","","","","",""
"","1103.690000003553","sequential-stimulus-presentation","41","199634","0.0-11.0-1.7","SS1613080992401","trial","","40","800","1903.690000003553","images/stimuli/spore_stims/complex_17_B_c.gif","images/stimuli/spore_stims/complex_17_A_c.gif","","","","","1","complex_similar","images/stimuli/spore_stims/complex_17_A_c.gif","left","","","","",""
"","2163.7550000014016","html-keyboard-response","42","201803","0.0-12.0","SS1613080992401","pref_question","","50","","","","","<video width ='960' height = '540' style='padding-top:8%' autoplay muted><source src='images/stimuli/wall_pref.mp4' type='video/mp4'></video>","2","middle","45%","1","","","","","","","",""
"","4915.464999998221","sequential-stimulus-presentation","43","207525","0.0-13.0","SS1613080992401","pref_reveal","","40","800","5715.464999998221","null","null","","","","","1","","","","novel","","","",""
"","null","html-keyboard-response","44","208580","0.0-14.0-0.0","SS1613080992401","","","null","","","","","<p><img src= images/blank.png width =""200"" height = ""200"" style = ""float:right""></p><p><img src=images/blank.png width =""800"" height = ""200""></p>","","","","","","","","","","","",""
"","3883.78499999817","sequential-stimulus-presentation","45","213270","0.0-14.0-1.0","SS1613080992401","trial","","40","800","4683.78499999817","images/stimuli/spore_stims/complex_16_B_c.gif","images/stimuli/spore_stims/complex_18_B_a.gif","","","","","2","complex_dissimilar","images/stimuli/spore_stims/complex_18_B_a.gif","left","","","","",""
"","null","html-keyboard-response","46","214355","0.0-14.0-0.1","SS1613080992401","","","null","","","","","<p><img src= images/blank.png width =""200"" height = ""200"" style = ""float:right""></p><p><img src=images/blank.png width =""800"" height = ""200""></p>","","","","","","","","","","","",""
"","4272.125000003143","sequential-stimulus-presentation","47","219433","0.0-14.0-1.1","SS1613080992401","trial","","40","800","5072.125000003143","images/stimuli/spore_stims/complex_16_B_c.gif","images/stimuli/spore_stims/complex_18_B_a.gif","","","","","2","complex_dissimilar","images/stimuli/spore_stims/complex_18_B_a.gif","left","","","","",""
"","null","html-keyboard-response","48","220474","0.0-14.0-0.2","SS1613080992401","","","null","","","","","<p><img src= images/blank.png width =""200"" height = ""200"" style = ""float:right""></p><p><img src=images/blank.png width =""800"" height = ""200""></p>","","","","","","","","","","","",""
"","3311.090000002878","sequential-stimulus-presentation","49","224592","0.0-14.0-1.2","SS1613080992401","trial","","40","800","4111.090000002878","images/stimuli/spore_stims/complex_16_B_c.gif","images/stimuli/spore_stims/complex_18_B_a.gif","","","","","2","complex_dissimilar","images/stimuli/spore_stims/complex_18_B_a.gif","left","","","","",""
"","null","html-keyboard-response","50","225712","0.0-14.0-0.3","SS1613080992401","","","null","","","","","<p><img src= images/blank.png width =""200"" height = ""200"" style = ""float:right""></p><p><img src=images/blank.png width =""800"" height = ""200""></p>","","","","","","","","","","","",""
"","3608.334999997169","sequential-stimulus-presentation","51","230138","0.0-14.0-1.3","SS1613080992401","trial","","40","800","4408.334999997169","images/stimuli/spore_stims/complex_16_B_c.gif","images/stimuli/spore_stims/complex_18_B_a.gif","","","","","2","complex_dissimilar","images/stimuli/spore_stims/complex_16_B_c.gif","right","","","","",""
"","null","html-keyboard-response","52","231285","0.0-14.0-0.4","SS1613080992401","","","null","","","","","<p><img src= images/blank.png width =""200"" height = ""200"" style = ""float:right""></p><p><img src=images/blank.png width =""800"" height = ""200""></p>","","","","","","","","","","","",""
"","4574.670000001788","sequential-stimulus-presentation","53","236666","0.0-14.0-1.4","SS1613080992401","trial","","40","800","5374.670000001788","images/stimuli/spore_stims/complex_16_B_c.gif","images/stimuli/spore_stims/complex_18_B_a.gif","","","","","2","complex_dissimilar","images/stimuli/spore_stims/complex_18_B_a.gif","left","","","","",""
"","null","html-keyboard-response","54","237516","0.0-14.0-0.5","SS1613080992401","","","null","","","","","<p><img src= images/blank.png width =""200"" height = ""200"" style = ""float:right""></p><p><img src=images/blank.png width =""800"" height = ""200""></p>","","","","","","","","","","","",""
"","5440.0449999957345","sequential-stimulus-presentation","55","243763","0.0-14.0-1.5","SS1613080992401","trial","","40","800","6240.0449999957345","images/stimuli/spore_stims/complex_16_B_c.gif","images/stimuli/spore_stims/complex_18_B_a.gif","","","","","2","complex_dissimilar","images/stimuli/spore_stims/complex_18_B_a.gif","left","","","","",""
"","null","html-keyboard-response","56","244934","0.0-14.0-0.6","SS1613080992401","","","null","","","","","<p><img src= images/blank.png width =""200"" height = ""200"" style = ""float:right""></p><p><img src=images/blank.png width =""800"" height = ""200""></p>","","","","","","","","","","","",""
"","3529.034999999567","sequential-stimulus-presentation","57","249269","0.0-14.0-1.6","SS1613080992401","trial","","40","800","4329.034999999567","images/stimuli/spore_stims/complex_16_B_c.gif","images/stimuli/spore_stims/complex_18_B_a.gif","","","","","2","complex_dissimilar","images/stimuli/spore_stims/complex_18_B_a.gif","left","","","","",""
"","null","html-keyboard-response","58","250187","0.0-14.0-0.7","SS1613080992401","","","null","","","","","<p><img src= images/blank.png width =""200"" height = ""200"" style = ""float:right""></p><p><img src=images/blank.png width =""800"" height = ""200""></p>","","","","","","","","","","","",""
"","3226.150000002235","sequential-stimulus-presentation","59","254222","0.0-14.0-1.7","SS1613080992401","trial","","40","800","4026.150000002235","images/stimuli/spore_stims/complex_16_B_c.gif","images/stimuli/spore_stims/complex_18_B_a.gif","","","","","2","complex_dissimilar","images/stimuli/spore_stims/complex_18_B_a.gif","left","","","","",""
"","2948.2799999968847","html-keyboard-response","60","257176","0.0-15.0","SS1613080992401","pref_question","","51","","","","","<video width ='960' height = '540' style='padding-top:8%' autoplay muted><source src='images/stimuli/wall_pref.mp4' type='video/mp4'></video>","3","right","66%","2","","","","","","","",""
"","3736.704999988433","sequential-stimulus-presentation","61","261716","0.0-16.0","SS1613080992401","pref_reveal","","40","800","4536.704999988433","null","null","","","","","2","","","","deviant","","","",""
"","null","html-keyboard-response","62","262882","0.0-17.0-0.0","SS1613080992401","","","null","","","","","<p><img src= images/blank.png width =""200"" height = ""200"" style = ""float:right""></p><p><img src=images/blank.png width =""800"" height = ""200""></p>","","","","","","","","","","","",""
"","3496.014999996987","sequential-stimulus-presentation","63","267185","0.0-17.0-1.0","SS1613080992401","trial","","40","800","4296.014999996987","images/stimuli/spore_stims/simple_03_A_c.gif","images/stimuli/spore_stims/simple_18_B_b.gif","","","","","3","simple_dissimilar","images/stimuli/spore_stims/simple_18_B_b.gif","left","","","","",""
"","null","html-keyboard-response","64","268374","0.0-17.0-0.1","SS1613080992401","","","null","","","","","<p><img src= images/blank.png width =""200"" height = ""200"" style = ""float:right""></p><p><img src=images/blank.png width =""800"" height = ""200""></p>","","","","","","","","","","","",""
"","1265.4599999950733","sequential-stimulus-presentation","65","270450","0.0-17.0-1.1","SS1613080992401","trial","","40","800","2065.4599999950733","images/stimuli/spore_stims/simple_03_A_c.gif","images/stimuli/spore_stims/simple_18_B_b.gif","","","","","3","simple_dissimilar","images/stimuli/spore_stims/simple_18_B_b.gif","left","","","","",""
"","null","html-keyboard-response","66","271467","0.0-17.0-0.2","SS1613080992401","","","null","","","","","<p><img src= images/blank.png width =""200"" height = ""200"" style = ""float:right""></p><p><img src=images/blank.png width =""800"" height = ""200""></p>","","","","","","","","","","","",""
"","2485.1699999999255","sequential-stimulus-presentation","67","274760","0.0-17.0-1.2","SS1613080992401","trial","","40","800","3285.1699999999255","images/stimuli/spore_stims/simple_03_A_c.gif","images/stimuli/spore_stims/simple_18_B_b.gif","","","","","3","simple_dissimilar","images/stimuli/spore_stims/simple_18_B_b.gif","left","","","","",""
"","null","html-keyboard-response","68","275840","0.0-17.0-0.3","SS1613080992401","","","null","","","","","<p><img src= images/blank.png width =""200"" height = ""200"" style = ""float:right""></p><p><img src=images/blank.png width =""800"" height = ""200""></p>","","","","","","","","","","","",""
"","3892.5799999997253","sequential-stimulus-presentation","69","280544","0.0-17.0-1.3","SS1613080992401","trial","","40","800","4692.579999999725","images/stimuli/spore_stims/simple_03_A_c.gif","images/stimuli/spore_stims/simple_18_B_b.gif","","","","","3","simple_dissimilar","images/stimuli/spore_stims/simple_18_B_b.gif","left","","","","",""
"","null","html-keyboard-response","70","281616","0.0-17.0-0.4","SS1613080992401","","","null","","","","","<p><img src= images/blank.png width =""200"" height = ""200"" style = ""float:right""></p><p><img src=images/blank.png width =""800"" height = ""200""></p>","","","","","","","","","","","",""
"","1178.090000001248","sequential-stimulus-presentation","71","283604","0.0-17.0-1.4","SS1613080992401","trial","","40","800","1978.090000001248","images/stimuli/spore_stims/simple_03_A_c.gif","images/stimuli/spore_stims/simple_18_B_b.gif","","","","","3","simple_dissimilar","images/stimuli/spore_stims/simple_18_B_b.gif","left","","","","",""
"","null","html-keyboard-response","72","284500","0.0-17.0-0.5","SS1613080992401","","","null","","","","","<p><img src= images/blank.png width =""200"" height = ""200"" style = ""float:right""></p><p><img src=images/blank.png width =""800"" height = ""200""></p>","","","","","","","","","","","",""
"","5426.590000002761","sequential-stimulus-presentation","73","290733","0.0-17.0-1.5","SS1613080992401","trial","","40","800","6226.590000002761","images/stimuli/spore_stims/simple_03_A_c.gif","images/stimuli/spore_stims/simple_18_B_b.gif","","","","","3","simple_dissimilar","images/stimuli/spore_stims/simple_03_A_c.gif","right","","","","",""
"","null","html-keyboard-response","74","291755","0.0-17.0-0.6","SS1613080992401","","","null","","","","","<p><img src= images/blank.png width =""200"" height = ""200"" style = ""float:right""></p><p><img src=images/blank.png width =""800"" height = ""200""></p>","","","","","","","","","","","",""
"","2991.6050000028918","sequential-stimulus-presentation","75","295552","0.0-17.0-1.6","SS1613080992401","trial","","40","800","3791.6050000028918","images/stimuli/spore_stims/simple_03_A_c.gif","images/stimuli/spore_stims/simple_18_B_b.gif","","","","","3","simple_dissimilar","images/stimuli/spore_stims/simple_18_B_b.gif","left","","","","",""
"","null","html-keyboard-response","76","296371","0.0-17.0-0.7","SS1613080992401","","","null","","","","","<p><img src= images/blank.png width =""200"" height = ""200"" style = ""float:right""></p><p><img src=images/blank.png width =""800"" height = ""200""></p>","","","","","","","","","","","",""
"","2177.754999996978","sequential-stimulus-presentation","77","299357","0.0-17.0-1.7","SS1613080992401","trial","","40","800","2977.754999996978","images/stimuli/spore_stims/simple_03_A_c.gif","images/stimuli/spore_stims/simple_18_B_b.gif","","","","","3","simple_dissimilar","images/stimuli/spore_stims/simple_18_B_b.gif","left","","","","",""
"","1933.9449999970384","html-keyboard-response","78","301297","0.0-18.0","SS1613080992401","pref_question","","50","","","","","<video width ='960' height = '540' style='padding-top:8%' autoplay muted><source src='images/stimuli/wall_pref.mp4' type='video/mp4'></video>","2","middle","45%","3","","","","","","","",""
"","3401.720000008936","sequential-stimulus-presentation","79","305502","0.0-19.0","SS1613080992401","pref_reveal","","40","800","4201.720000008936","null","null","","","","","3","","","","novel","","","",""
"","null","html-keyboard-response","80","306341","0.0-20.0-0.0","SS1613080992401","","","null","","","","","<p><img src= images/blank.png width =""200"" height = ""200"" style = ""float:right""></p><p><img src=images/blank.png width =""800"" height = ""200""></p>","","","","","","","","","","","",""
"","3420.749999990221","sequential-stimulus-presentation","81","310569","0.0-20.0-1.0","SS1613080992401","trial","","40","800","4220.749999990221","images/stimuli/spore_stims/complex_03_A_a.gif","images/stimuli/spore_stims/complex_19_B_a.gif","","","","","4","complex_dissimilar","images/stimuli/spore_stims/complex_19_B_a.gif","right","","","","",""
"","null","html-keyboard-response","82","311594","0.0-20.0-0.1","SS1613080992401","","","null","","","","","<p><img src= images/blank.png width =""200"" height = ""200"" style = ""float:right""></p><p><img src=images/blank.png width =""800"" height = ""200""></p>","","","","","","","","","","","",""
"","1461.7250000010245","sequential-stimulus-presentation","83","313862","0.0-20.0-1.1","SS1613080992401","trial","","40","800","2261.7250000010245","images/stimuli/spore_stims/complex_03_A_a.gif","images/stimuli/spore_stims/complex_19_B_a.gif","","","","","4","complex_dissimilar","images/stimuli/spore_stims/complex_19_B_a.gif","right","","","","",""
"","null","html-keyboard-response","84","314862","0.0-20.0-0.2","SS1613080992401","","","null","","","","","<p><img src= images/blank.png width =""200"" height = ""200"" style = ""float:right""></p><p><img src=images/blank.png width =""800"" height = ""200""></p>","","","","","","","","","","","",""
"","6853.719999999157","sequential-stimulus-presentation","85","322522","0.0-20.0-1.2","SS1613080992401","trial","","40","800","7653.719999999157","images/stimuli/spore_stims/complex_03_A_a.gif","images/stimuli/spore_stims/complex_19_B_a.gif","","","","","4","complex_dissimilar","images/stimuli/spore_stims/complex_19_B_a.gif","right","","","","",""
"","null","html-keyboard-response","86","323584","0.0-20.0-0.3","SS1613080992401","","","null","","","","","<p><img src= images/blank.png width =""200"" height = ""200"" style = ""float:right""></p><p><img src=images/blank.png width =""800"" height = ""200""></p>","","","","","","","","","","","",""
"","3828.044999987469","sequential-stimulus-presentation","87","328219","0.0-20.0-1.3","SS1613080992401","trial","","40","800","4628.044999987469","images/stimuli/spore_stims/complex_03_A_a.gif","images/stimuli/spore_stims/complex_19_B_a.gif","","","","","4","complex_dissimilar","images/stimuli/spore_stims/complex_19_B_a.gif","right","","","","",""
"","null","html-keyboard-response","88","329471","0.0-20.0-0.4","SS1613080992401","","","null","","","","","<p><img src= images/blank.png width =""200"" height = ""200"" style = ""float:right""></p><p><img src=images/blank.png width =""800"" height = ""200""></p>","","","","","","","","","","","",""
"","2864.144999999553","sequential-stimulus-presentation","89","333142","0.0-20.0-1.4","SS1613080992401","trial","","40","800","3664.144999999553","images/stimuli/spore_stims/complex_03_A_a.gif","images/stimuli/spore_stims/complex_19_B_a.gif","","","","","4","complex_dissimilar","images/stimuli/spore_stims/complex_19_B_a.gif","right","","","","",""
"","null","html-keyboard-response","90","334037","0.0-20.0-0.5","SS1613080992401","","","null","","","","","<p><img src= images/blank.png width =""200"" height = ""200"" style = ""float:right""></p><p><img src=images/blank.png width =""800"" height = ""200""></p>","","","","","","","","","","","",""
"","3725.4700000048615","sequential-stimulus-presentation","91","338569","0.0-20.0-1.5","SS1613080992401","trial","","40","800","4525.4700000048615","images/stimuli/spore_stims/complex_03_A_a.gif","images/stimuli/spore_stims/complex_19_B_a.gif","","","","","4","complex_dissimilar","images/stimuli/spore_stims/complex_03_A_a.gif","left","","","","",""
"","null","html-keyboard-response","92","339412","0.0-20.0-0.6","SS1613080992401","","","null","","","","","<p><img src= images/blank.png width =""200"" height = ""200"" style = ""float:right""></p><p><img src=images/blank.png width =""800"" height = ""200""></p>","","","","","","","","","","","",""
"","1868.0999999924097","sequential-stimulus-presentation","93","342090","0.0-20.0-1.6","SS1613080992401","trial","","40","800","2668.0999999924097","images/stimuli/spore_stims/complex_03_A_a.gif","images/stimuli/spore_stims/complex_19_B_a.gif","","","","","4","complex_dissimilar","images/stimuli/spore_stims/complex_19_B_a.gif","right","","","","",""
"","null","html-keyboard-response","94","343056","0.0-20.0-0.7","SS1613080992401","","","null","","","","","<p><img src= images/blank.png width =""200"" height = ""200"" style = ""float:right""></p><p><img src=images/blank.png width =""800"" height = ""200""></p>","","","","","","","","","","","",""
"","4958.740000001853","sequential-stimulus-presentation","95","348823","0.0-20.0-1.7","SS1613080992401","trial","","40","800","5758.740000001853","images/stimuli/spore_stims/complex_03_A_a.gif","images/stimuli/spore_stims/complex_19_B_a.gif","","","","","4","complex_dissimilar","images/stimuli/spore_stims/complex_19_B_a.gif","right","","","","",""
"","1484.0649999969173","html-keyboard-response","96","350314","0.0-21.0","SS1613080992401","pref_question","","50","","","","","<video width ='960' height = '540' style='padding-top:8%' autoplay muted><source src='images/stimuli/wall_pref.mp4' type='video/mp4'></video>","2","middle","45%","4","","","","","","","",""
"","4532.720000002882","sequential-stimulus-presentation","97","355654","0.0-22.0","SS1613080992401","pref_reveal","","40","800","5332.720000002882","null","null","","","","","4","","","","novel","","","",""
"","null","html-keyboard-response","98","356640","0.0-23.0-0.0","SS1613080992401","","","null","","","","","<p><img src= images/blank.png width =""200"" height = ""200"" style = ""float:right""></p><p><img src=images/blank.png width =""800"" height = ""200""></p>","","","","","","","","","","","",""
"","2088.579999996","sequential-stimulus-presentation","99","359538","0.0-23.0-1.0","SS1613080992401","trial","","40","800","2888.579999996","images/stimuli/spore_stims/simple_10_B_b.gif","images/stimuli/spore_stims/simple_10_A_b.gif","","","","","5","simple_similar","images/stimuli/spore_stims/simple_10_A_b.gif","right","","","","",""
"","null","html-keyboard-response","100","360672","0.0-23.0-0.1","SS1613080992401","","","null","","","","","<p><img src= images/blank.png width =""200"" height = ""200"" style = ""float:right""></p><p><img src=images/blank.png width =""800"" height = ""200""></p>","","","","","","","","","","","",""
"","2128.6499999987427","sequential-stimulus-presentation","101","363611","0.0-23.0-1.1","SS1613080992401","trial","","40","800","2928.6499999987427","images/stimuli/spore_stims/simple_10_B_b.gif","images/stimuli/spore_stims/simple_10_A_b.gif","","","","","5","simple_similar","images/stimuli/spore_stims/simple_10_A_b.gif","right","","","","",""
"","null","html-keyboard-response","102","364856","0.0-23.0-0.2","SS1613080992401","","","null","","","","","<p><img src= images/blank.png width =""200"" height = ""200"" style = ""float:right""></p><p><img src=images/blank.png width =""800"" height = ""200""></p>","","","","","","","","","","","",""
"","3453.879999986384","sequential-stimulus-presentation","103","369118","0.0-23.0-1.2","SS1613080992401","trial","","40","800","4253.879999986384","images/stimuli/spore_stims/simple_10_B_b.gif","images/stimuli/spore_stims/simple_10_A_b.gif","","","","","5","simple_similar","images/stimuli/spore_stims/simple_10_A_b.gif","right","","","","",""
"","null","html-keyboard-response","104","370223","0.0-23.0-0.3","SS1613080992401","","","null","","","","","<p><img src= images/blank.png width =""200"" height = ""200"" style = ""float:right""></p><p><img src=images/blank.png width =""800"" height = ""200""></p>","","","","","","","","","","","",""
"","1963.369999997667","sequential-stimulus-presentation","105","372996","0.0-23.0-1.3","SS1613080992401","trial","","40","800","2763.369999997667","images/stimuli/spore_stims/simple_10_B_b.gif","images/stimuli/spore_stims/simple_10_A_b.gif","","","","","5","simple_similar","images/stimuli/spore_stims/simple_10_A_b.gif","right","","","","",""
"","null","html-keyboard-response","106","373980","0.0-23.0-0.4","SS1613080992401","","","null","","","","","<p><img src= images/blank.png width =""200"" height = ""200"" style = ""float:right""></p><p><img src=images/blank.png width =""800"" height = ""200""></p>","","","","","","","","","","","",""
"","3522.4749999906635","sequential-stimulus-presentation","107","378312","0.0-23.0-1.4","SS1613080992401","trial","","40","800","4322.4749999906635","images/stimuli/spore_stims/simple_10_B_b.gif","images/stimuli/spore_stims/simple_10_A_b.gif","","","","","5","simple_similar","images/stimuli/spore_stims/simple_10_B_b.gif","left","","","","",""
"","null","html-keyboard-response","108","379296","0.0-23.0-0.5","SS1613080992401","","","null","","","","","<p><img src= images/blank.png width =""200"" height = ""200"" style = ""float:right""></p><p><img src=images/blank.png width =""800"" height = ""200""></p>","","","","","","","","","","","",""
"","2587.0799999975134","sequential-stimulus-presentation","109","382694","0.0-23.0-1.5","SS1613080992401","trial","","40","800","3387.0799999975134","images/stimuli/spore_stims/simple_10_B_b.gif","images/stimuli/spore_stims/simple_10_A_b.gif","","","","","5","simple_similar","images/stimuli/spore_stims/simple_10_A_b.gif","right","","","","",""
"","null","html-keyboard-response","110","383701","0.0-23.0-0.6","SS1613080992401","","","null","","","","","<p><img src= images/blank.png width =""200"" height = ""200"" style = ""float:right""></p><p><img src=images/blank.png width =""800"" height = ""200""></p>","","","","","","","","","","","",""
"","1480.055000007269","sequential-stimulus-presentation","111","385998","0.0-23.0-1.6","SS1613080992401","trial","","40","800","2280.055000007269","images/stimuli/spore_stims/simple_10_B_b.gif","images/stimuli/spore_stims/simple_10_A_b.gif","","","","","5","simple_similar","images/stimuli/spore_stims/simple_10_A_b.gif","right","","","","",""
"","null","html-keyboard-response","112","387054","0.0-23.0-0.7","SS1613080992401","","","null","","","","","<p><img src= images/blank.png width =""200"" height = ""200"" style = ""float:right""></p><p><img src=images/blank.png width =""800"" height = ""200""></p>","","","","","","","","","","","",""
"","1934.2449999967357","sequential-stimulus-presentation","113","389793","0.0-23.0-1.7","SS1613080992401","trial","","40","800","2734.2449999967357","images/stimuli/spore_stims/simple_10_B_b.gif","images/stimuli/spore_stims/simple_10_A_b.gif","","","","","5","simple_similar","images/stimuli/spore_stims/simple_10_A_b.gif","right","","","","",""
"","2272.935000000871","html-keyboard-response","114","392073","0.0-24.0","SS1613080992401","pref_question","","49","","","","","<video width ='960' height = '540' style='padding-top:8%' autoplay muted><source src='images/stimuli/wall_pref.mp4' type='video/mp4'></video>","1","left","25%","5","","","","","","","",""
"","4604.514999999083","sequential-stimulus-presentation","115","397485","0.0-25.0","SS1613080992401","pref_reveal","","40","800","5404.514999999083","null","null","","","","","5","","","","deviant","","","",""
"","null","html-keyboard-response","116","398695","0.0-26.0-0.0","SS1613080992401","","","null","","","","","<p><img src= images/blank.png width =""200"" height = ""200"" style = ""float:right""></p><p><img src=images/blank.png width =""800"" height = ""200""></p>","","","","","","","","","","","",""
"","5834.570000006352","sequential-stimulus-presentation","117","405337","0.0-26.0-1.0","SS1613080992401","trial","","40","800","6634.570000006352","images/stimuli/spore_stims/complex_18_A_a.gif","images/stimuli/spore_stims/complex_14_B_b.gif","","","","","6","complex_dissimilar","images/stimuli/spore_stims/complex_14_B_b.gif","middle","","","","",""
"","null","html-keyboard-response","118","406379","0.0-26.0-0.1","SS1613080992401","","","null","","","","","<p><img src= images/blank.png width =""200"" height = ""200"" style = ""float:right""></p><p><img src=images/blank.png width =""800"" height = ""200""></p>","","","","","","","","","","","",""
"","3296.7200000130106","sequential-stimulus-presentation","119","410485","0.0-26.0-1.1","SS1613080992401","trial","","40","800","4096.720000013011","images/stimuli/spore_stims/complex_18_A_a.gif","images/stimuli/spore_stims/complex_14_B_b.gif","","","","","6","complex_dissimilar","images/stimuli/spore_stims/complex_14_B_b.gif","middle","","","","",""
"","null","html-keyboard-response","120","411604","0.0-26.0-0.2","SS1613080992401","","","null","","","","","<p><img src= images/blank.png width =""200"" height = ""200"" style = ""float:right""></p><p><img src=images/blank.png width =""800"" height = ""200""></p>","","","","","","","","","","","",""
"","2607.129999989411","sequential-stimulus-presentation","121","415019","0.0-26.0-1.2","SS1613080992401","trial","","40","800","3407.129999989411","images/stimuli/spore_stims/complex_18_A_a.gif","images/stimuli/spore_stims/complex_14_B_b.gif","","","","","6","complex_dissimilar","images/stimuli/spore_stims/complex_18_A_a.gif","right","","","","",""
"","null","html-keyboard-response","122","415978","0.0-26.0-0.3","SS1613080992401","","","null","","","","","<p><img src= images/blank.png width =""200"" height = ""200"" style = ""float:right""></p><p><img src=images/blank.png width =""800"" height = ""200""></p>","","","","","","","","","","","",""
"","1683.1049999891547","sequential-stimulus-presentation","123","418470","0.0-26.0-1.3","SS1613080992401","trial","","40","800","2483.1049999891547","images/stimuli/spore_stims/complex_18_A_a.gif","images/stimuli/spore_stims/complex_14_B_b.gif","","","","","6","complex_dissimilar","images/stimuli/spore_stims/complex_14_B_b.gif","middle","","","","",""
"","null","html-keyboard-response","124","419457","0.0-26.0-0.4","SS1613080992401","","","null","","","","","<p><img src= images/blank.png width =""200"" height = ""200"" style = ""float:right""></p><p><img src=images/blank.png width =""800"" height = ""200""></p>","","","","","","","","","","","",""
"","2388.474999999744","sequential-stimulus-presentation","125","422657","0.0-26.0-1.4","SS1613080992401","trial","","40","800","3188.474999999744","images/stimuli/spore_stims/complex_18_A_a.gif","images/stimuli/spore_stims/complex_14_B_b.gif","","","","","6","complex_dissimilar","images/stimuli/spore_stims/complex_14_B_b.gif","middle","","","","",""
"","null","html-keyboard-response","126","423908","0.0-26.0-0.5","SS1613080992401","","","null","","","","","<p><img src= images/blank.png width =""200"" height = ""200"" style = ""float:right""></p><p><img src=images/blank.png width =""800"" height = ""200""></p>","","","","","","","","","","","",""
"","2747.0999999932246","sequential-stimulus-presentation","127","427462","0.0-26.0-1.5","SS1613080992401","trial","","40","800","3547.0999999932246","images/stimuli/spore_stims/complex_18_A_a.gif","images/stimuli/spore_stims/complex_14_B_b.gif","","","","","6","complex_dissimilar","images/stimuli/spore_stims/complex_14_B_b.gif","middle","","","","",""
"","null","html-keyboard-response","128","428626","0.0-26.0-0.6","SS1613080992401","","","null","","","","","<p><img src= images/blank.png width =""200"" height = ""200"" style = ""float:right""></p><p><img src=images/blank.png width =""800"" height = ""200""></p>","","","","","","","","","","","",""
"","5513.774999999441","sequential-stimulus-presentation","129","434948","0.0-26.0-1.6","SS1613080992401","trial","","40","800","6313.774999999441","images/stimuli/spore_stims/complex_18_A_a.gif","images/stimuli/spore_stims/complex_14_B_b.gif","","","","","6","complex_dissimilar","images/stimuli/spore_stims/complex_14_B_b.gif","middle","","","","",""
"","null","html-keyboard-response","130","436095","0.0-26.0-0.7","SS1613080992401","","","null","","","","","<p><img src= images/blank.png width =""200"" height = ""200"" style = ""float:right""></p><p><img src=images/blank.png width =""800"" height = ""200""></p>","","","","","","","","","","","",""
"","3610.6500000023516","sequential-stimulus-presentation","131","440515","0.0-26.0-1.7","SS1613080992401","trial","","40","800","4410.650000002352","images/stimuli/spore_stims/complex_18_A_a.gif","images/stimuli/spore_stims/complex_14_B_b.gif","","","","","6","complex_dissimilar","images/stimuli/spore_stims/complex_14_B_b.gif","middle","","","","",""
"","2051.3299999875017","html-keyboard-response","132","442574","0.0-27.0","SS1613080992401","pref_question","","49","","","","","<video width ='960' height = '540' style='padding-top:8%' autoplay muted><source src='images/stimuli/wall_pref.mp4' type='video/mp4'></video>","1","left","25%","6","","","","","","","",""
"","3885.9450000018114","sequential-stimulus-presentation","133","447265","0.0-28.0","SS1613080992401","pref_reveal","","40","800","4685.945000001811","null","null","","","","","6","","","","novel","","","",""
"","null","html-keyboard-response","134","448432","0.0-29.0-0.0","SS1613080992401","","","null","","","","","<p><img src= images/blank.png width =""200"" height = ""200"" style = ""float:right""></p><p><img src=images/blank.png width =""800"" height = ""200""></p>","","","","","","","","","","","",""
"","3957.5449999974808","sequential-stimulus-presentation","135","453200","0.0-29.0-1.0","SS1613080992401","trial","","40","800","4757.544999997481","images/stimuli/spore_stims/simple_19_A_a.gif","images/stimuli/spore_stims/simple_19_B_a.gif","","","","","7","simple_similar","images/stimuli/spore_stims/simple_19_B_a.gif","left","","","","",""
"","null","html-keyboard-response","136","454406","0.0-29.0-0.1","SS1613080992401","","","null","","","","","<p><img src= images/blank.png width =""200"" height = ""200"" style = ""float:right""></p><p><img src=images/blank.png width =""800"" height = ""200""></p>","","","","","","","","","","","",""
"","3669.549999991432","sequential-stimulus-presentation","137","458884","0.0-29.0-1.1","SS1613080992401","trial","","40","800","4469.549999991432","images/stimuli/spore_stims/simple_19_A_a.gif","images/stimuli/spore_stims/simple_19_B_a.gif","","","","","7","simple_similar","images/stimuli/spore_stims/simple_19_B_a.gif","left","","","","",""
"","null","html-keyboard-response","138","459811","0.0-29.0-0.2","SS1613080992401","","","null","","","","","<p><img src= images/blank.png width =""200"" height = ""200"" style = ""float:right""></p><p><img src=images/blank.png width =""800"" height = ""200""></p>","","","","","","","","","","","",""
"","2488.7200000084704","sequential-stimulus-presentation","139","463112","0.0-29.0-1.2","SS1613080992401","trial","","40","800","3288.7200000084704","images/stimuli/spore_stims/simple_19_A_a.gif","images/stimuli/spore_stims/simple_19_B_a.gif","","","","","7","simple_similar","images/stimuli/spore_stims/simple_19_B_a.gif","left","","","","",""
"","null","html-keyboard-response","140","464041","0.0-29.0-0.3","SS1613080992401","","","null","","","","","<p><img src= images/blank.png width =""200"" height = ""200"" style = ""float:right""></p><p><img src=images/blank.png width =""800"" height = ""200""></p>","","","","","","","","","","","",""
"","4067.445000007865","sequential-stimulus-presentation","141","468916","0.0-29.0-1.3","SS1613080992401","trial","","40","800","4867.445000007865","images/stimuli/spore_stims/simple_19_A_a.gif","images/stimuli/spore_stims/simple_19_B_a.gif","","","","","7","simple_similar","images/stimuli/spore_stims/simple_19_B_a.gif","left","","","","",""
"","null","html-keyboard-response","142","469814","0.0-29.0-0.4","SS1613080992401","","","null","","","","","<p><img src= images/blank.png width =""200"" height = ""200"" style = ""float:right""></p><p><img src=images/blank.png width =""800"" height = ""200""></p>","","","","","","","","","","","",""
"","6642.540000000736","sequential-stimulus-presentation","143","477265","0.0-29.0-1.4","SS1613080992401","trial","","40","800","7442.540000000736","images/stimuli/spore_stims/simple_19_A_a.gif","images/stimuli/spore_stims/simple_19_B_a.gif","","","","","7","simple_similar","images/stimuli/spore_stims/simple_19_A_a.gif","right","","","","",""
"","null","html-keyboard-response","144","478363","0.0-29.0-0.5","SS1613080992401","","","null","","","","","<p><img src= images/blank.png width =""200"" height = ""200"" style = ""float:right""></p><p><img src=images/blank.png width =""800"" height = ""200""></p>","","","","","","","","","","","",""
"","3134.2850000073668","sequential-stimulus-presentation","145","482308","0.0-29.0-1.5","SS1613080992401","trial","","40","800","3934.2850000073668","images/stimuli/spore_stims/simple_19_A_a.gif","images/stimuli/spore_stims/simple_19_B_a.gif","","","","","7","simple_similar","images/stimuli/spore_stims/simple_19_B_a.gif","left","","","","",""
"","null","html-keyboard-response","146","483341","0.0-29.0-0.6","SS1613080992401","","","null","","","","","<p><img src= images/blank.png width =""200"" height = ""200"" style = ""float:right""></p><p><img src=images/blank.png width =""800"" height = ""200""></p>","","","","","","","","","","","",""
"","2441.33500001044","sequential-stimulus-presentation","147","486591","0.0-29.0-1.6","SS1613080992401","trial","","40","800","3241.33500001044","images/stimuli/spore_stims/simple_19_A_a.gif","images/stimuli/spore_stims/simple_19_B_a.gif","","","","","7","simple_similar","images/stimuli/spore_stims/simple_19_B_a.gif","left","","","","",""
"","null","html-keyboard-response","148","487623","0.0-29.0-0.7","SS1613080992401","","","null","","","","","<p><img src= images/blank.png width =""200"" height = ""200"" style = ""float:right""></p><p><img src=images/blank.png width =""800"" height = ""200""></p>","","","","","","","","","","","",""
"","2640.3799999970943","sequential-stimulus-presentation","149","491088","0.0-29.0-1.7","SS1613080992401","trial","","40","800","3440.3799999970943","images/stimuli/spore_stims/simple_19_A_a.gif","images/stimuli/spore_stims/simple_19_B_a.gif","","","","","7","simple_similar","images/stimuli/spore_stims/simple_19_B_a.gif","left","","","","",""
"","1380.4949999903329","html-keyboard-response","150","492474","0.0-30.0","SS1613080992401","pref_question","","50","","","","","<video width ='960' height = '540' style='padding-top:8%' autoplay muted><source src='images/stimuli/wall_pref.mp4' type='video/mp4'></video>","2","middle","45%","7","","","","","","","",""
"","3980.825000006007","sequential-stimulus-presentation","151","497264","0.0-31.0","SS1613080992401","pref_reveal","","40","800","4780.825000006007","null","null","","","","","7","","","","novel","","","",""
"","null","html-keyboard-response","152","498218","0.0-32.0-0.0","SS1613080992401","","","null","","","","","<p><img src= images/blank.png width =""200"" height = ""200"" style = ""float:right""></p><p><img src=images/blank.png width =""800"" height = ""200""></p>","","","","","","","","","","","",""
"","2943.1449999974575","sequential-stimulus-presentation","153","501971","0.0-32.0-1.0","SS1613080992401","trial","","40","800","3743.1449999974575","images/stimuli/spore_stims/complex_10_B_b.gif","images/stimuli/spore_stims/complex_04_A_c.gif","","","","","8","complex_dissimilar","images/stimuli/spore_stims/complex_04_A_c.gif","right","","","","",""
"","null","html-keyboard-response","154","503147","0.0-32.0-0.1","SS1613080992401","","","null","","","","","<p><img src= images/blank.png width =""200"" height = ""200"" style = ""float:right""></p><p><img src=images/blank.png width =""800"" height = ""200""></p>","","","","","","","","","","","",""
"","677.2149999887915","sequential-stimulus-presentation","155","504631","0.0-32.0-1.1","SS1613080992401","trial","","40","800","1477.2149999887915","images/stimuli/spore_stims/complex_10_B_b.gif","images/stimuli/spore_stims/complex_04_A_c.gif","","","","","8","complex_dissimilar","images/stimuli/spore_stims/complex_04_A_c.gif","right","","","","",""
"","null","html-keyboard-response","156","505593","0.0-32.0-0.2","SS1613080992401","","","null","","","","","<p><img src= images/blank.png width =""200"" height = ""200"" style = ""float:right""></p><p><img src=images/blank.png width =""800"" height = ""200""></p>","","","","","","","","","","","",""
"","809.8150000005262","sequential-stimulus-presentation","157","507211","0.0-32.0-1.2","SS1613080992401","trial","","40","800","1609.8150000005262","images/stimuli/spore_stims/complex_10_B_b.gif","images/stimuli/spore_stims/complex_04_A_c.gif","","","","","8","complex_dissimilar","images/stimuli/spore_stims/complex_04_A_c.gif","right","","","","",""
"","null","html-keyboard-response","158","508060","0.0-32.0-0.3","SS1613080992401","","","null","","","","","<p><img src= images/blank.png width =""200"" height = ""200"" style = ""float:right""></p><p><img src=images/blank.png width =""800"" height = ""200""></p>","","","","","","","","","","","",""
"","937.6300000003539","sequential-stimulus-presentation","159","509807","0.0-32.0-1.3","SS1613080992401","trial","","40","800","1737.630000000354","images/stimuli/spore_stims/complex_10_B_b.gif","images/stimuli/spore_stims/complex_04_A_c.gif","","","","","8","complex_dissimilar","images/stimuli/spore_stims/complex_04_A_c.gif","right","","","","",""
"","null","html-keyboard-response","160","510667","0.0-32.0-0.4","SS1613080992401","","","null","","","","","<p><img src= images/blank.png width =""200"" height = ""200"" style = ""float:right""></p><p><img src=images/blank.png width =""800"" height = ""200""></p>","","","","","","","","","","","",""
"","1208.4800000011455","sequential-stimulus-presentation","161","512683","0.0-32.0-1.4","SS1613080992401","trial","","40","800","2008.4800000011455","images/stimuli/spore_stims/complex_10_B_b.gif","images/stimuli/spore_stims/complex_04_A_c.gif","","","","","8","complex_dissimilar","images/stimuli/spore_stims/complex_04_A_c.gif","right","","","","",""
"","null","html-keyboard-response","162","513644","0.0-32.0-0.5","SS1613080992401","","","null","","","","","<p><img src= images/blank.png width =""200"" height = ""200"" style = ""float:right""></p><p><img src=images/blank.png width =""800"" height = ""200""></p>","","","","","","","","","","","",""
"","3150.664999993751","sequential-stimulus-presentation","163","517605","0.0-32.0-1.5","SS1613080992401","trial","","40","800","3950.664999993751","images/stimuli/spore_stims/complex_10_B_b.gif","images/stimuli/spore_stims/complex_04_A_c.gif","","","","","8","complex_dissimilar","images/stimuli/spore_stims/complex_04_A_c.gif","right","","","","",""
"","null","html-keyboard-response","164","518610","0.0-32.0-0.6","SS1613080992401","","","null","","","","","<p><img src= images/blank.png width =""200"" height = ""200"" style = ""float:right""></p><p><img src=images/blank.png width =""800"" height = ""200""></p>","","","","","","","","","","","",""
"","1125.384999992093","sequential-stimulus-presentation","165","520558","0.0-32.0-1.6","SS1613080992401","trial","","40","800","1925.384999992093","images/stimuli/spore_stims/complex_10_B_b.gif","images/stimuli/spore_stims/complex_04_A_c.gif","","","","","8","complex_dissimilar","images/stimuli/spore_stims/complex_04_A_c.gif","right","","","","",""
"","null","html-keyboard-response","166","521720","0.0-32.0-0.7","SS1613080992401","","","null","","","","","<p><img src= images/blank.png width =""200"" height = ""200"" style = ""float:right""></p><p><img src=images/blank.png width =""800"" height = ""200""></p>","","","","","","","","","","","",""
"","2157.2250000026543","sequential-stimulus-presentation","167","524687","0.0-32.0-1.7","SS1613080992401","trial","","40","800","2957.2250000026543","images/stimuli/spore_stims/complex_10_B_b.gif","images/stimuli/spore_stims/complex_04_A_c.gif","","","","","8","complex_dissimilar","images/stimuli/spore_stims/complex_10_B_b.gif","left","","","","",""
"","3455.8649999962654","html-keyboard-response","168","528151","0.0-33.0","SS1613080992401","pref_question","","50","","","","","<video width ='960' height = '540' style='padding-top:8%' autoplay muted><source src='images/stimuli/wall_pref.mp4' type='video/mp4'></video>","2","middle","45%","8","","","","","","","",""
"","3594.4149999995716","sequential-stimulus-presentation","169","532559","0.0-34.0","SS1613080992401","pref_reveal","","40","800","4394.414999999572","null","null","","","","","8","","","","novel","","","",""
"","null","html-keyboard-response","170","533514","0.0-35.0-0.0","SS1613080992401","","","null","","","","","<p><img src= images/blank.png width =""200"" height = ""200"" style = ""float:right""></p><p><img src=images/blank.png width =""800"" height = ""200""></p>","","","","","","","","","","","",""
"","3474.2850000038743","sequential-stimulus-presentation","171","537799","0.0-35.0-1.0","SS1613080992401","trial","","40","800","4274.285000003874","images/stimuli/spore_stims/complex_12_A_a.gif","images/stimuli/spore_stims/complex_12_B_a.gif","","","","","9","complex_similar","images/stimuli/spore_stims/complex_12_B_a.gif","left","","","","",""
"","null","html-keyboard-response","172","539032","0.0-35.0-0.1","SS1613080992401","","","null","","","","","<p><img src= images/blank.png width =""200"" height = ""200"" style = ""float:right""></p><p><img src=images/blank.png width =""800"" height = ""200""></p>","","","","","","","","","","","",""
"","1211.3499999977648","sequential-stimulus-presentation","173","541050","0.0-35.0-1.1","SS1613080992401","trial","","40","800","2011.3499999977648","images/stimuli/spore_stims/complex_12_A_a.gif","images/stimuli/spore_stims/complex_12_B_a.gif","","","","","9","complex_similar","images/stimuli/spore_stims/complex_12_B_a.gif","left","","","","",""
"","null","html-keyboard-response","174","542058","0.0-35.0-0.2","SS1613080992401","","","null","","","","","<p><img src= images/blank.png width =""200"" height = ""200"" style = ""float:right""></p><p><img src=images/blank.png width =""800"" height = ""200""></p>","","","","","","","","","","","",""
"","2135.0949999905424","sequential-stimulus-presentation","175","545002","0.0-35.0-1.2","SS1613080992401","trial","","40","800","2935.0949999905424","images/stimuli/spore_stims/complex_12_A_a.gif","images/stimuli/spore_stims/complex_12_B_a.gif","","","","","9","complex_similar","images/stimuli/spore_stims/complex_12_B_a.gif","left","","","","",""
"","null","html-keyboard-response","176","545996","0.0-35.0-0.3","SS1613080992401","","","null","","","","","<p><img src= images/blank.png width =""200"" height = ""200"" style = ""float:right""></p><p><img src=images/blank.png width =""800"" height = ""200""></p>","","","","","","","","","","","",""
"","1373.1599999882746","sequential-stimulus-presentation","177","548180","0.0-35.0-1.3","SS1613080992401","trial","","40","800","2173.1599999882746","images/stimuli/spore_stims/complex_12_A_a.gif","images/stimuli/spore_stims/complex_12_B_a.gif","","","","","9","complex_similar","images/stimuli/spore_stims/complex_12_B_a.gif","left","","","","",""
"","null","html-keyboard-response","178","549262","0.0-35.0-0.4","SS1613080992401","","","null","","","","","<p><img src= images/blank.png width =""200"" height = ""200"" style = ""float:right""></p><p><img src=images/blank.png width =""800"" height = ""200""></p>","","","","","","","","","","","",""
"","1813.7150000111433","sequential-stimulus-presentation","179","551884","0.0-35.0-1.4","SS1613080992401","trial","","40","800","2613.7150000111433","images/stimuli/spore_stims/complex_12_A_a.gif","images/stimuli/spore_stims/complex_12_B_a.gif","","","","","9","complex_similar","images/stimuli/spore_stims/complex_12_B_a.gif","left","","","","",""
"","null","html-keyboard-response","180","553155","0.0-35.0-0.5","SS1613080992401","","","null","","","","","<p><img src= images/blank.png width =""200"" height = ""200"" style = ""float:right""></p><p><img src=images/blank.png width =""800"" height = ""200""></p>","","","","","","","","","","","",""
"","2199.979999990319","sequential-stimulus-presentation","181","556165","0.0-35.0-1.5","SS1613080992401","trial","","40","800","2999.979999990319","images/stimuli/spore_stims/complex_12_A_a.gif","images/stimuli/spore_stims/complex_12_B_a.gif","","","","","9","complex_similar","images/stimuli/spore_stims/complex_12_B_a.gif","left","","","","",""
"","null","html-keyboard-response","182","557373","0.0-35.0-0.6","SS1613080992401","","","null","","","","","<p><img src= images/blank.png width =""200"" height = ""200"" style = ""float:right""></p><p><img src=images/blank.png width =""800"" height = ""200""></p>","","","","","","","","","","","",""
"","1804.359999994631","sequential-stimulus-presentation","183","559987","0.0-35.0-1.6","SS1613080992401","trial","","40","800","2604.359999994631","images/stimuli/spore_stims/complex_12_A_a.gif","images/stimuli/spore_stims/complex_12_B_a.gif","","","","","9","complex_similar","images/stimuli/spore_stims/complex_12_B_a.gif","left","","","","",""
"","null","html-keyboard-response","184","560902","0.0-35.0-0.7","SS1613080992401","","","null","","","","","<p><img src= images/blank.png width =""200"" height = ""200"" style = ""float:right""></p><p><img src=images/blank.png width =""800"" height = ""200""></p>","","","","","","","","","","","",""
"","2130.8399999979883","sequential-stimulus-presentation","185","563844","0.0-35.0-1.7","SS1613080992401","trial","","40","800","2930.8399999979883","images/stimuli/spore_stims/complex_12_A_a.gif","images/stimuli/spore_stims/complex_12_B_a.gif","","","","","9","complex_similar","images/stimuli/spore_stims/complex_12_A_a.gif","middle","","","","",""
"","1322.969999993802","html-keyboard-response","186","565180","0.0-36.0","SS1613080992401","pref_question","","51","","","","","<video width ='960' height = '540' style='padding-top:8%' autoplay muted><source src='images/stimuli/wall_pref.mp4' type='video/mp4'></video>","3","right","66%","9","","","","","","","",""
"","4731.390000000829","sequential-stimulus-presentation","187","570717","0.0-37.0","SS1613080992401","pref_reveal","","40","800","5531.390000000829","null","null","","","","","9","","","","novel","","","",""
"","null","html-keyboard-response","188","571531","0.0-38.0-0.0","SS1613080992401","","","null","","","","","<p><img src= images/blank.png width =""200"" height = ""200"" style = ""float:right""></p><p><img src=images/blank.png width =""800"" height = ""200""></p>","","","","","","","","","","","",""
"","4102.7500000054715","sequential-stimulus-presentation","189","576446","0.0-38.0-1.0","SS1613080992401","trial","","40","800","4902.7500000054715","images/stimuli/spore_stims/simple_16_B_d.gif","images/stimuli/spore_stims/simple_16_A_d.gif","","","","","10","simple_similar","images/stimuli/spore_stims/simple_16_A_d.gif","right","","","","",""
"","null","html-keyboard-response","190","577642","0.0-38.0-0.1","SS1613080992401","","","null","","","","","<p><img src= images/blank.png width =""200"" height = ""200"" style = ""float:right""></p><p><img src=images/blank.png width =""800"" height = ""200""></p>","","","","","","","","","","","",""
"","4058.5399999981746","sequential-stimulus-presentation","191","582511","0.0-38.0-1.1","SS1613080992401","trial","","40","800","4858.539999998175","images/stimuli/spore_stims/simple_16_B_d.gif","images/stimuli/spore_stims/simple_16_A_d.gif","","","","","10","simple_similar","images/stimuli/spore_stims/simple_16_A_d.gif","right","","","","",""
"","null","html-keyboard-response","192","583538","0.0-38.0-0.2","SS1613080992401","","","null","","","","","<p><img src= images/blank.png width =""200"" height = ""200"" style = ""float:right""></p><p><img src=images/blank.png width =""800"" height = ""200""></p>","","","","","","","","","","","",""
"","3989.1050000005635","sequential-stimulus-presentation","193","588339","0.0-38.0-1.2","SS1613080992401","trial","","40","800","4789.105000000563","images/stimuli/spore_stims/simple_16_B_d.gif","images/stimuli/spore_stims/simple_16_A_d.gif","","","","","10","simple_similar","images/stimuli/spore_stims/simple_16_A_d.gif","right","","","","",""
"","null","html-keyboard-response","194","589642","0.0-38.0-0.3","SS1613080992401","","","null","","","","","<p><img src= images/blank.png width =""200"" height = ""200"" style = ""float:right""></p><p><img src=images/blank.png width =""800"" height = ""200""></p>","","","","","","","","","","","",""
"","2211.875000008149","sequential-stimulus-presentation","195","592665","0.0-38.0-1.3","SS1613080992401","trial","","40","800","3011.875000008149","images/stimuli/spore_stims/simple_16_B_d.gif","images/stimuli/spore_stims/simple_16_A_d.gif","","","","","10","simple_similar","images/stimuli/spore_stims/simple_16_A_d.gif","right","","","","",""
"","null","html-keyboard-response","196","593649","0.0-38.0-0.4","SS1613080992401","","","null","","","","","<p><img src= images/blank.png width =""200"" height = ""200"" style = ""float:right""></p><p><img src=images/blank.png width =""800"" height = ""200""></p>","","","","","","","","","","","",""
"","1909.2000000091502","sequential-stimulus-presentation","197","596368","0.0-38.0-1.4","SS1613080992401","trial","","40","800","2709.2000000091502","images/stimuli/spore_stims/simple_16_B_d.gif","images/stimuli/spore_stims/simple_16_A_d.gif","","","","","10","simple_similar","images/stimuli/spore_stims/simple_16_A_d.gif","right","","","","",""
"","null","html-keyboard-response","198","597517","0.0-38.0-0.5","SS1613080992401","","","null","","","","","<p><img src= images/blank.png width =""200"" height = ""200"" style = ""float:right""></p><p><img src=images/blank.png width =""800"" height = ""200""></p>","","","","","","","","","","","",""
"","2136.3949999940814","sequential-stimulus-presentation","199","600464","0.0-38.0-1.5","SS1613080992401","trial","","40","800","2936.3949999940814","images/stimuli/spore_stims/simple_16_B_d.gif","images/stimuli/spore_stims/simple_16_A_d.gif","","","","","10","simple_similar","images/stimuli/spore_stims/simple_16_A_d.gif","right","","","","",""
"","null","html-keyboard-response","200","601474","0.0-38.0-0.6","SS1613080992401","","","null","","","","","<p><img src= images/blank.png width =""200"" height = ""200"" style = ""float:right""></p><p><img src=images/blank.png width =""800"" height = ""200""></p>","","","","","","","","","","","",""
"","4200.990000012098","sequential-stimulus-presentation","201","606485","0.0-38.0-1.6","SS1613080992401","trial","","40","800","5000.990000012098","images/stimuli/spore_stims/simple_16_B_d.gif","images/stimuli/spore_stims/simple_16_A_d.gif","","","","","10","simple_similar","images/stimuli/spore_stims/simple_16_B_d.gif","left","","","","",""
"","null","html-keyboard-response","202","607453","0.0-38.0-0.7","SS1613080992401","","","null","","","","","<p><img src= images/blank.png width =""200"" height = ""200"" style = ""float:right""></p><p><img src=images/blank.png width =""800"" height = ""200""></p>","","","","","","","","","","","",""
"","3885.869999998249","sequential-stimulus-presentation","203","612150","0.0-38.0-1.7","SS1613080992401","trial","","40","800","4685.869999998249","images/stimuli/spore_stims/simple_16_B_d.gif","images/stimuli/spore_stims/simple_16_A_d.gif","","","","","10","simple_similar","images/stimuli/spore_stims/simple_16_A_d.gif","right","","","","",""
"","2144.2499999975553","html-keyboard-response","204","614303","0.0-39.0","SS1613080992401","pref_question","","50","","","","","<video width ='960' height = '540' style='padding-top:8%' autoplay muted><source src='images/stimuli/wall_pref.mp4' type='video/mp4'></video>","2","middle","45%","10","","","","","","","",""
"","4844.555000003311","sequential-stimulus-presentation","205","619958","0.0-40.0","SS1613080992401","pref_reveal","","40","800","5644.555000003311","null","null","","","","","10","","","","novel","","","",""
"","null","html-keyboard-response","206","621186","0.0-41.0-0.0","SS1613080992401","","","null","","","","","<p><img src= images/blank.png width =""200"" height = ""200"" style = ""float:right""></p><p><img src=images/blank.png width =""800"" height = ""200""></p>","","","","","","","","","","","",""
"","2705.100000006496","sequential-stimulus-presentation","207","624702","0.0-41.0-1.0","SS1613080992401","trial","","40","800","3505.100000006496","images/stimuli/spore_stims/simple_20_B_d.gif","images/stimuli/spore_stims/simple_13_A_d.gif","","","","","11","simple_dissimilar","images/stimuli/spore_stims/simple_13_A_d.gif","left","","","","",""
"","null","html-keyboard-response","208","625865","0.0-41.0-0.1","SS1613080992401","","","null","","","","","<p><img src= images/blank.png width =""200"" height = ""200"" style = ""float:right""></p><p><img src=images/blank.png width =""800"" height = ""200""></p>","","","","","","","","","","","",""
"","14946.34500000393","sequential-stimulus-presentation","209","641622","0.0-41.0-1.1","SS1613080992401","trial","","40","800","15746.34500000393","images/stimuli/spore_stims/simple_20_B_d.gif","images/stimuli/spore_stims/simple_13_A_d.gif","","","","","11","simple_dissimilar","images/stimuli/spore_stims/simple_13_A_d.gif","left","","","","",""
"","null","html-keyboard-response","210","642814","0.0-41.0-0.2","SS1613080992401","","","null","","","","","<p><img src= images/blank.png width =""200"" height = ""200"" style = ""float:right""></p><p><img src=images/blank.png width =""800"" height = ""200""></p>","","","","","","","","","","","",""
"","3876.7100000113714","sequential-stimulus-presentation","211","647504","0.0-41.0-1.2","SS1613080992401","trial","","40","800","4676.710000011371","images/stimuli/spore_stims/simple_20_B_d.gif","images/stimuli/spore_stims/simple_13_A_d.gif","","","","","11","simple_dissimilar","images/stimuli/spore_stims/simple_20_B_d.gif","right","","","","",""
"","null","html-keyboard-response","212","648539","0.0-41.0-0.3","SS1613080992401","","","null","","","","","<p><img src= images/blank.png width =""200"" height = ""200"" style = ""float:right""></p><p><img src=images/blank.png width =""800"" height = ""200""></p>","","","","","","","","","","","",""
"","9345.140000004903","sequential-stimulus-presentation","213","658691","0.0-41.0-1.3","SS1613080992401","trial","","40","800","10145.140000004903","images/stimuli/spore_stims/simple_20_B_d.gif","images/stimuli/spore_stims/simple_13_A_d.gif","","","","","11","simple_dissimilar","images/stimuli/spore_stims/simple_13_A_d.gif","left","","","","",""
"","null","html-keyboard-response","214","659956","0.0-41.0-0.4","SS1613080992401","","","null","","","","","<p><img src= images/blank.png width =""200"" height = ""200"" style = ""float:right""></p><p><img src=images/blank.png width =""800"" height = ""200""></p>","","","","","","","","","","","",""
"","1440.919999993639","sequential-stimulus-presentation","215","662210","0.0-41.0-1.4","SS1613080992401","trial","","40","800","2240.919999993639","images/stimuli/spore_stims/simple_20_B_d.gif","images/stimuli/spore_stims/simple_13_A_d.gif","","","","","11","simple_dissimilar","images/stimuli/spore_stims/simple_13_A_d.gif","left","","","","",""
"","null","html-keyboard-response","216","663083","0.0-41.0-0.5","SS1613080992401","","","null","","","","","<p><img src= images/blank.png width =""200"" height = ""200"" style = ""float:right""></p><p><img src=images/blank.png width =""800"" height = ""200""></p>","","","","","","","","","","","",""
"","2331.879999997909","sequential-stimulus-presentation","217","666220","0.0-41.0-1.5","SS1613080992401","trial","","40","800","3131.879999997909","images/stimuli/spore_stims/simple_20_B_d.gif","images/stimuli/spore_stims/simple_13_A_d.gif","","","","","11","simple_dissimilar","images/stimuli/spore_stims/simple_13_A_d.gif","left","","","","",""
"","null","html-keyboard-response","218","667411","0.0-41.0-0.6","SS1613080992401","","","null","","","","","<p><img src= images/blank.png width =""200"" height = ""200"" style = ""float:right""></p><p><img src=images/blank.png width =""800"" height = ""200""></p>","","","","","","","","","","","",""
"","3389.855000001262","sequential-stimulus-presentation","219","671611","0.0-41.0-1.6","SS1613080992401","trial","","40","800","4189.855000001262","images/stimuli/spore_stims/simple_20_B_d.gif","images/stimuli/spore_stims/simple_13_A_d.gif","","","","","11","simple_dissimilar","images/stimuli/spore_stims/simple_13_A_d.gif","left","","","","",""
"","null","html-keyboard-response","220","672654","0.0-41.0-0.7","SS1613080992401","","","null","","","","","<p><img src= images/blank.png width =""200"" height = ""200"" style = ""float:right""></p><p><img src=images/blank.png width =""800"" height = ""200""></p>","","","","","","","","","","","",""
"","4764.690000010887","sequential-stimulus-presentation","221","678233","0.0-41.0-1.7","SS1613080992401","trial","","40","800","5564.690000010887","images/stimuli/spore_stims/simple_20_B_d.gif","images/stimuli/spore_stims/simple_13_A_d.gif","","","","","11","simple_dissimilar","images/stimuli/spore_stims/simple_13_A_d.gif","left","","","","",""
"","2899.8799999972107","html-keyboard-response","222","681138","0.0-42.0","SS1613080992401","pref_question","","51","","","","","<video width ='960' height = '540' style='padding-top:8%' autoplay muted><source src='images/stimuli/wall_pref.mp4' type='video/mp4'></video>","3","right","66%","11","","","","","","","",""
"","4426.229999997304","sequential-stimulus-presentation","223","686372","0.0-43.0","SS1613080992401","pref_reveal","","40","800","5226.229999997304","null","null","","","","","11","","","","deviant","","","",""
"","null","html-keyboard-response","224","687332","0.0-44.0-0.0","SS1613080992401","","","null","","","","","<p><img src= images/blank.png width =""200"" height = ""200"" style = ""float:right""></p><p><img src=images/blank.png width =""800"" height = ""200""></p>","","","","","","","","","","","",""
"","2710.3950000018813","sequential-stimulus-presentation","225","690853","0.0-44.0-1.0","SS1613080992401","trial","","40","800","3510.3950000018813","images/stimuli/spore_stims/complex_06_B_b.gif","images/stimuli/spore_stims/complex_11_A_b.gif","","","","","12","complex_dissimilar","images/stimuli/spore_stims/complex_11_A_b.gif","left","","","","",""
"","null","html-keyboard-response","226","691709","0.0-44.0-0.1","SS1613080992401","","","null","","","","","<p><img src= images/blank.png width =""200"" height = ""200"" style = ""float:right""></p><p><img src=images/blank.png width =""800"" height = ""200""></p>","","","","","","","","","","","",""
"","2204.605000006268","sequential-stimulus-presentation","227","694726","0.0-44.0-1.1","SS1613080992401","trial","","40","800","3004.605000006268","images/stimuli/spore_stims/complex_06_B_b.gif","images/stimuli/spore_stims/complex_11_A_b.gif","","","","","12","complex_dissimilar","images/stimuli/spore_stims/complex_11_A_b.gif","left","","","","",""
"","null","html-keyboard-response","228","695952","0.0-44.0-0.2","SS1613080992401","","","null","","","","","<p><img src= images/blank.png width =""200"" height = ""200"" style = ""float:right""></p><p><img src=images/blank.png width =""800"" height = ""200""></p>","","","","","","","","","","","",""
"","1743.7449999997625","sequential-stimulus-presentation","229","698507","0.0-44.0-1.2","SS1613080992401","trial","","40","800","2543.7449999997625","images/stimuli/spore_stims/complex_06_B_b.gif","images/stimuli/spore_stims/complex_11_A_b.gif","","","","","12","complex_dissimilar","images/stimuli/spore_stims/complex_11_A_b.gif","left","","","","",""
"","null","html-keyboard-response","230","699349","0.0-44.0-0.3","SS1613080992401","","","null","","","","","<p><img src= images/blank.png width =""200"" height = ""200"" style = ""float:right""></p><p><img src=images/blank.png width =""800"" height = ""200""></p>","","","","","","","","","","","",""
"","1671.520000003511","sequential-stimulus-presentation","231","701831","0.0-44.0-1.3","SS1613080992401","trial","","40","800","2471.520000003511","images/stimuli/spore_stims/complex_06_B_b.gif","images/stimuli/spore_stims/complex_11_A_b.gif","","","","","12","complex_dissimilar","images/stimuli/spore_stims/complex_11_A_b.gif","left","","","","",""
"","null","html-keyboard-response","232","702731","0.0-44.0-0.4","SS1613080992401","","","null","","","","","<p><img src= images/blank.png width =""200"" height = ""200"" style = ""float:right""></p><p><img src=images/blank.png width =""800"" height = ""200""></p>","","","","","","","","","","","",""
"","1327.3600000102306","sequential-stimulus-presentation","233","704869","0.0-44.0-1.4","SS1613080992401","trial","","40","800","2127.3600000102306","images/stimuli/spore_stims/complex_06_B_b.gif","images/stimuli/spore_stims/complex_11_A_b.gif","","","","","12","complex_dissimilar","images/stimuli/spore_stims/complex_11_A_b.gif","left","","","","",""
"","null","html-keyboard-response","234","705974","0.0-44.0-0.5","SS1613080992401","","","null","","","","","<p><img src= images/blank.png width =""200"" height = ""200"" style = ""float:right""></p><p><img src=images/blank.png width =""800"" height = ""200""></p>","","","","","","","","","","","",""
"","2135.2650000044378","sequential-stimulus-presentation","235","708920","0.0-44.0-1.5","SS1613080992401","trial","","40","800","2935.2650000044378","images/stimuli/spore_stims/complex_06_B_b.gif","images/stimuli/spore_stims/complex_11_A_b.gif","","","","","12","complex_dissimilar","images/stimuli/spore_stims/complex_06_B_b.gif","right","","","","",""
"","null","html-keyboard-response","236","710215","0.0-44.0-0.6","SS1613080992401","","","null","","","","","<p><img src= images/blank.png width =""200"" height = ""200"" style = ""float:right""></p><p><img src=images/blank.png width =""800"" height = ""200""></p>","","","","","","","","","","","",""
"","3724.6649999869987","sequential-stimulus-presentation","237","714754","0.0-44.0-1.6","SS1613080992401","trial","","40","800","4524.664999986999","images/stimuli/spore_stims/complex_06_B_b.gif","images/stimuli/spore_stims/complex_11_A_b.gif","","","","","12","complex_dissimilar","images/stimuli/spore_stims/complex_11_A_b.gif","left","","","","",""
"","null","html-keyboard-response","238","715773","0.0-44.0-0.7","SS1613080992401","","","null","","","","","<p><img src= images/blank.png width =""200"" height = ""200"" style = ""float:right""></p><p><img src=images/blank.png width =""800"" height = ""200""></p>","","","","","","","","","","","",""
"","3101.5749999933178","sequential-stimulus-presentation","239","719687","0.0-44.0-1.7","SS1613080992401","trial","","40","800","3901.5749999933178","images/stimuli/spore_stims/complex_06_B_b.gif","images/stimuli/spore_stims/complex_11_A_b.gif","","","","","12","complex_dissimilar","images/stimuli/spore_stims/complex_11_A_b.gif","left","","","","",""
"","1980.9400000085589","html-keyboard-response","240","721677","0.0-45.0","SS1613080992401","pref_question","","50","","","","","<video width ='960' height = '540' style='padding-top:8%' autoplay muted><source src='images/stimuli/wall_pref.mp4' type='video/mp4'></video>","2","middle","45%","12","","","","","","","",""
"","5426.854999997886","sequential-stimulus-presentation","241","727916","0.0-46.0","SS1613080992401","pref_reveal","","40","800","6226.854999997886","null","null","","","","","12","","","","novel","","","",""
"","null","html-keyboard-response","242","728889","0.0-47.0-0.0","SS1613080992401","","","null","","","","","<p><img src= images/blank.png width =""200"" height = ""200"" style = ""float:right""></p><p><img src=images/blank.png width =""800"" height = ""200""></p>","","","","","","","","","","","",""
"","3508.689999987837","sequential-stimulus-presentation","243","733208","0.0-47.0-1.0","SS1613080992401","trial","","40","800","4308.689999987837","images/stimuli/spore_stims/simple_05_B_b.gif","images/stimuli/spore_stims/simple_06_A_d.gif","","","","","13","simple_dissimilar","images/stimuli/spore_stims/simple_06_A_d.gif","left","","","","",""
"","null","html-keyboard-response","244","734334","0.0-47.0-0.1","SS1613080992401","","","null","","","","","<p><img src= images/blank.png width =""200"" height = ""200"" style = ""float:right""></p><p><img src=images/blank.png width =""800"" height = ""200""></p>","","","","","","","","","","","",""
"","3017.104999991716","sequential-stimulus-presentation","245","738162","0.0-47.0-1.1","SS1613080992401","trial","","40","800","3817.104999991716","images/stimuli/spore_stims/simple_05_B_b.gif","images/stimuli/spore_stims/simple_06_A_d.gif","","","","","13","simple_dissimilar","images/stimuli/spore_stims/simple_06_A_d.gif","left","","","","",""
"","null","html-keyboard-response","246","739468","0.0-47.0-0.2","SS1613080992401","","","null","","","","","<p><img src= images/blank.png width =""200"" height = ""200"" style = ""float:right""></p><p><img src=images/blank.png width =""800"" height = ""200""></p>","","","","","","","","","","","",""
"","2188.704999993206","sequential-stimulus-presentation","247","742467","0.0-47.0-1.2","SS1613080992401","trial","","40","800","2988.704999993206","images/stimuli/spore_stims/simple_05_B_b.gif","images/stimuli/spore_stims/simple_06_A_d.gif","","","","","13","simple_dissimilar","images/stimuli/spore_stims/simple_06_A_d.gif","left","","","","",""
"","null","html-keyboard-response","248","743326","0.0-47.0-0.3","SS1613080992401","","","null","","","","","<p><img src= images/blank.png width =""200"" height = ""200"" style = ""float:right""></p><p><img src=images/blank.png width =""800"" height = ""200""></p>","","","","","","","","","","","",""
"","2230.025000011665","sequential-stimulus-presentation","249","746368","0.0-47.0-1.3","SS1613080992401","trial","","40","800","3030.025000011665","images/stimuli/spore_stims/simple_05_B_b.gif","images/stimuli/spore_stims/simple_06_A_d.gif","","","","","13","simple_dissimilar","images/stimuli/spore_stims/simple_06_A_d.gif","left","","","","",""
"","null","html-keyboard-response","250","747433","0.0-47.0-0.4","SS1613080992401","","","null","","","","","<p><img src= images/blank.png width =""200"" height = ""200"" style = ""float:right""></p><p><img src=images/blank.png width =""800"" height = ""200""></p>","","","","","","","","","","","",""
"","1007.0149999955902","sequential-stimulus-presentation","251","749247","0.0-47.0-1.4","SS1613080992401","trial","","40","800","1807.0149999955902","images/stimuli/spore_stims/simple_05_B_b.gif","images/stimuli/spore_stims/simple_06_A_d.gif","","","","","13","simple_dissimilar","images/stimuli/spore_stims/simple_06_A_d.gif","left","","","","",""
"","null","html-keyboard-response","252","750307","0.0-47.0-0.5","SS1613080992401","","","null","","","","","<p><img src= images/blank.png width =""200"" height = ""200"" style = ""float:right""></p><p><img src=images/blank.png width =""800"" height = ""200""></p>","","","","","","","","","","","",""
"","953.4799999964889","sequential-stimulus-presentation","253","752071","0.0-47.0-1.5","SS1613080992401","trial","","40","800","1753.479999996489","images/stimuli/spore_stims/simple_05_B_b.gif","images/stimuli/spore_stims/simple_06_A_d.gif","","","","","13","simple_dissimilar","images/stimuli/spore_stims/simple_06_A_d.gif","left","","","","",""
"","null","html-keyboard-response","254","753272","0.0-47.0-0.6","SS1613080992401","","","null","","","","","<p><img src= images/blank.png width =""200"" height = ""200"" style = ""float:right""></p><p><img src=images/blank.png width =""800"" height = ""200""></p>","","","","","","","","","","","",""
"","2287.400000001071","sequential-stimulus-presentation","255","756380","0.0-47.0-1.6","SS1613080992401","trial","","40","800","3087.400000001071","images/stimuli/spore_stims/simple_05_B_b.gif","images/stimuli/spore_stims/simple_06_A_d.gif","","","","","13","simple_dissimilar","images/stimuli/spore_stims/simple_05_B_b.gif","middle","","","","",""
"","null","html-keyboard-response","256","757501","0.0-47.0-0.7","SS1613080992401","","","null","","","","","<p><img src= images/blank.png width =""200"" height = ""200"" style = ""float:right""></p><p><img src=images/blank.png width =""800"" height = ""200""></p>","","","","","","","","","","","",""
"","967.5500000012107","sequential-stimulus-presentation","257","759280","0.0-47.0-1.7","SS1613080992401","trial","","40","800","1767.5500000012107","images/stimuli/spore_stims/simple_05_B_b.gif","images/stimuli/spore_stims/simple_06_A_d.gif","","","","","13","simple_dissimilar","images/stimuli/spore_stims/simple_06_A_d.gif","left","","","","",""
"","1963.7000000075204","html-keyboard-response","258","761254","0.0-48.0","SS1613080992401","pref_question","","50","","","","","<video width ='960' height = '540' style='padding-top:8%' autoplay muted><source src='images/stimuli/wall_pref.mp4' type='video/mp4'></video>","2","middle","45%","13","","","","","","","",""
"","3205.839999995078","sequential-stimulus-presentation","259","765276","0.0-49.0","SS1613080992401","pref_reveal","","40","800","4005.839999995078","null","null","","","","","13","","","","deviant","","","",""
"","null","html-keyboard-response","260","766525","0.0-50.0-0.0","SS1613080992401","","","null","","","","","<p><img src= images/blank.png width =""200"" height = ""200"" style = ""float:right""></p><p><img src=images/blank.png width =""800"" height = ""200""></p>","","","","","","","","","","","",""
"","3495.0250000110827","sequential-stimulus-presentation","261","770833","0.0-50.0-1.0","SS1613080992401","trial","","40","800","4295.025000011083","images/stimuli/spore_stims/complex_15_A_a.gif","images/stimuli/spore_stims/complex_15_B_a.gif","","","","","14","complex_similar","images/stimuli/spore_stims/complex_15_B_a.gif","right","","","","",""
"","null","html-keyboard-response","262","772024","0.0-50.0-0.1","SS1613080992401","","","null","","","","","<p><img src= images/blank.png width =""200"" height = ""200"" style = ""float:right""></p><p><img src=images/blank.png width =""800"" height = ""200""></p>","","","","","","","","","","","",""
"","1775.679999991553","sequential-stimulus-presentation","263","774611","0.0-50.0-1.1","SS1613080992401","trial","","40","800","2575.679999991553","images/stimuli/spore_stims/complex_15_A_a.gif","images/stimuli/spore_stims/complex_15_B_a.gif","","","","","14","complex_similar","images/stimuli/spore_stims/complex_15_B_a.gif","right","","","","",""
"","null","html-keyboard-response","264","775723","0.0-50.0-0.2","SS1613080992401","","","null","","","","","<p><img src= images/blank.png width =""200"" height = ""200"" style = ""float:right""></p><p><img src=images/blank.png width =""800"" height = ""200""></p>","","","","","","","","","","","",""
"","3664.9000000033993","sequential-stimulus-presentation","265","780201","0.0-50.0-1.2","SS1613080992401","trial","","40","800","4464.900000003399","images/stimuli/spore_stims/complex_15_A_a.gif","images/stimuli/spore_stims/complex_15_B_a.gif","","","","","14","complex_similar","images/stimuli/spore_stims/complex_15_B_a.gif","right","","","","",""
"","null","html-keyboard-response","266","781319","0.0-50.0-0.3","SS1613080992401","","","null","","","","","<p><img src= images/blank.png width =""200"" height = ""200"" style = ""float:right""></p><p><img src=images/blank.png width =""800"" height = ""200""></p>","","","","","","","","","","","",""
"","7351.230000000214","sequential-stimulus-presentation","267","789482","0.0-50.0-1.3","SS1613080992401","trial","","40","800","8151.230000000214","images/stimuli/spore_stims/complex_15_A_a.gif","images/stimuli/spore_stims/complex_15_B_a.gif","","","","","14","complex_similar","images/stimuli/spore_stims/complex_15_B_a.gif","right","","","","",""
"","null","html-keyboard-response","268","790477","0.0-50.0-0.4","SS1613080992401","","","null","","","","","<p><img src= images/blank.png width =""200"" height = ""200"" style = ""float:right""></p><p><img src=images/blank.png width =""800"" height = ""200""></p>","","","","","","","","","","","",""
"","4560.699999987264","sequential-stimulus-presentation","269","795849","0.0-50.0-1.4","SS1613080992401","trial","","40","800","5360.699999987264","images/stimuli/spore_stims/complex_15_A_a.gif","images/stimuli/spore_stims/complex_15_B_a.gif","","","","","14","complex_similar","images/stimuli/spore_stims/complex_15_B_a.gif","right","","","","",""
"","null","html-keyboard-response","270","797100","0.0-50.0-0.5","SS1613080992401","","","null","","","","","<p><img src= images/blank.png width =""200"" height = ""200"" style = ""float:right""></p><p><img src=images/blank.png width =""800"" height = ""200""></p>","","","","","","","","","","","",""
"","2846.3449999981094","sequential-stimulus-presentation","271","800753","0.0-50.0-1.5","SS1613080992401","trial","","40","800","3646.3449999981094","images/stimuli/spore_stims/complex_15_A_a.gif","images/stimuli/spore_stims/complex_15_B_a.gif","","","","","14","complex_similar","images/stimuli/spore_stims/complex_15_B_a.gif","right","","","","",""
"","null","html-keyboard-response","272","802013","0.0-50.0-0.6","SS1613080992401","","","null","","","","","<p><img src= images/blank.png width =""200"" height = ""200"" style = ""float:right""></p><p><img src=images/blank.png width =""800"" height = ""200""></p>","","","","","","","","","","","",""
"","5926.809999989928","sequential-stimulus-presentation","273","808751","0.0-50.0-1.6","SS1613080992401","trial","","40","800","6726.809999989928","images/stimuli/spore_stims/complex_15_A_a.gif","images/stimuli/spore_stims/complex_15_B_a.gif","","","","","14","complex_similar","images/stimuli/spore_stims/complex_15_A_a.gif","middle","","","","",""
"","null","html-keyboard-response","274","809726","0.0-50.0-0.7","SS1613080992401","","","null","","","","","<p><img src= images/blank.png width =""200"" height = ""200"" style = ""float:right""></p><p><img src=images/blank.png width =""800"" height = ""200""></p>","","","","","","","","","","","",""
"","1791.624999998021","sequential-stimulus-presentation","275","812334","0.0-50.0-1.7","SS1613080992401","trial","","40","800","2591.624999998021","images/stimuli/spore_stims/complex_15_A_a.gif","images/stimuli/spore_stims/complex_15_B_a.gif","","","","","14","complex_similar","images/stimuli/spore_stims/complex_15_B_a.gif","right","","","","",""
"","1432.7550000016345","html-keyboard-response","276","813778","0.0-51.0","SS1613080992401","pref_question","","49","","","","","<video width ='960' height = '540' style='padding-top:8%' autoplay muted><source src='images/stimuli/wall_pref.mp4' type='video/mp4'></video>","1","left","25%","14","","","","","","","",""
"","6270.685000010417","sequential-stimulus-presentation","277","820860","0.0-52.0","SS1613080992401","pref_reveal","","40","800","7070.685000010417","null","null","","","","","14","","","","novel","","","",""
"","null","html-keyboard-response","278","821753","0.0-53.0-0.0","SS1613080992401","","","null","","","","","<p><img src= images/blank.png width =""200"" height = ""200"" style = ""float:right""></p><p><img src=images/blank.png width =""800"" height = ""200""></p>","","","","","","","","","","","",""
"","4083.4150000009686","sequential-stimulus-presentation","279","826650","0.0-53.0-1.0","SS1613080992401","trial","","40","800","4883.415000000969","images/stimuli/spore_stims/simple_02_B_d.gif","images/stimuli/spore_stims/simple_02_A_d.gif","","","","","15","simple_similar","images/stimuli/spore_stims/simple_02_A_d.gif","right","","","","",""
"","null","html-keyboard-response","280","827502","0.0-53.0-0.1","SS1613080992401","","","null","","","","","<p><img src= images/blank.png width =""200"" height = ""200"" style = ""float:right""></p><p><img src=images/blank.png width =""800"" height = ""200""></p>","","","","","","","","","","","",""
"","3064.4350000075065","sequential-stimulus-presentation","281","831379","0.0-53.0-1.1","SS1613080992401","trial","","40","800","3864.4350000075065","images/stimuli/spore_stims/simple_02_B_d.gif","images/stimuli/spore_stims/simple_02_A_d.gif","","","","","15","simple_similar","images/stimuli/spore_stims/simple_02_A_d.gif","right","","","","",""
"","null","html-keyboard-response","282","832411","0.0-53.0-0.2","SS1613080992401","","","null","","","","","<p><img src= images/blank.png width =""200"" height = ""200"" style = ""float:right""></p><p><img src=images/blank.png width =""800"" height = ""200""></p>","","","","","","","","","","","",""
"","3178.585000001476","sequential-stimulus-presentation","283","836402","0.0-53.0-1.2","SS1613080992401","trial","","40","800","3978.585000001476","images/stimuli/spore_stims/simple_02_B_d.gif","images/stimuli/spore_stims/simple_02_A_d.gif","","","","","15","simple_similar","images/stimuli/spore_stims/simple_02_A_d.gif","right","","","","",""
"","null","html-keyboard-response","284","837646","0.0-53.0-0.3","SS1613080992401","","","null","","","","","<p><img src= images/blank.png width =""200"" height = ""200"" style = ""float:right""></p><p><img src=images/blank.png width =""800"" height = ""200""></p>","","","","","","","","","","","",""
"","8126.810000001569","sequential-stimulus-presentation","285","846584","0.0-53.0-1.3","SS1613080992401","trial","","40","800","8926.81000000157","images/stimuli/spore_stims/simple_02_B_d.gif","images/stimuli/spore_stims/simple_02_A_d.gif","","","","","15","simple_similar","images/stimuli/spore_stims/simple_02_A_d.gif","right","","","","",""
"","null","html-keyboard-response","286","847823","0.0-53.0-0.4","SS1613080992401","","","null","","","","","<p><img src= images/blank.png width =""200"" height = ""200"" style = ""float:right""></p><p><img src=images/blank.png width =""800"" height = ""200""></p>","","","","","","","","","","","",""
"","4263.054999988526","sequential-stimulus-presentation","287","852898","0.0-53.0-1.4","SS1613080992401","trial","","40","800","5063.054999988526","images/stimuli/spore_stims/simple_02_B_d.gif","images/stimuli/spore_stims/simple_02_A_d.gif","","","","","15","simple_similar","images/stimuli/spore_stims/simple_02_A_d.gif","right","","","","",""
"","null","html-keyboard-response","288","853880","0.0-53.0-0.5","SS1613080992401","","","null","","","","","<p><img src= images/blank.png width =""200"" height = ""200"" style = ""float:right""></p><p><img src=images/blank.png width =""800"" height = ""200""></p>","","","","","","","","","","","",""
"","5728.885000004084","sequential-stimulus-presentation","289","860421","0.0-53.0-1.5","SS1613080992401","trial","","40","800","6528.885000004084","images/stimuli/spore_stims/simple_02_B_d.gif","images/stimuli/spore_stims/simple_02_A_d.gif","","","","","15","simple_similar","images/stimuli/spore_stims/simple_02_A_d.gif","right","","","","",""
"","null","html-keyboard-response","290","861708","0.0-53.0-0.6","SS1613080992401","","","null","","","","","<p><img src= images/blank.png width =""200"" height = ""200"" style = ""float:right""></p><p><img src=images/blank.png width =""800"" height = ""200""></p>","","","","","","","","","","","",""
"","5285.309999992023","sequential-stimulus-presentation","291","867805","0.0-53.0-1.6","SS1613080992401","trial","","40","800","6085.309999992023","images/stimuli/spore_stims/simple_02_B_d.gif","images/stimuli/spore_stims/simple_02_A_d.gif","","","","","15","simple_similar","images/stimuli/spore_stims/simple_02_B_d.gif","left","","","","",""
"","null","html-keyboard-response","292","869087","0.0-53.0-0.7","SS1613080992401","","","null","","","","","<p><img src= images/blank.png width =""200"" height = ""200"" style = ""float:right""></p><p><img src=images/blank.png width =""800"" height = ""200""></p>","","","","","","","","","","","",""
"","6853.174999996554","sequential-stimulus-presentation","293","876751","0.0-53.0-1.7","SS1613080992401","trial","","40","800","7653.174999996554","images/stimuli/spore_stims/simple_02_B_d.gif","images/stimuli/spore_stims/simple_02_A_d.gif","","","","","15","simple_similar","images/stimuli/spore_stims/simple_02_A_d.gif","right","","","","",""
"","1516.860000003362","html-keyboard-response","294","878279","0.0-54.0","SS1613080992401","pref_question","","49","","","","","<video width ='960' height = '540' style='padding-top:8%' autoplay muted><source src='images/stimuli/wall_pref.mp4' type='video/mp4'></video>","1","left","25%","15","","","","","","","",""
"","2331.5550000115763","sequential-stimulus-presentation","295","881424","0.0-55.0","SS1613080992401","pref_reveal","","40","800","3131.5550000115763","null","null","","","","","15","","","","deviant","","","",""
"","null","html-keyboard-response","296","882283","0.0-56.0-0.0","SS1613080992401","","","null","","","","","<p><img src= images/blank.png width =""200"" height = ""200"" style = ""float:right""></p><p><img src=images/blank.png width =""800"" height = ""200""></p>","","","","","","","","","","","",""
"","1922.5399999995716","sequential-stimulus-presentation","297","885019","0.0-56.0-1.0","SS1613080992401","trial","","40","800","2722.5399999995716","images/stimuli/spore_stims/complex_20_A_d.gif","images/stimuli/spore_stims/complex_20_B_d.gif","","","","","16","complex_similar","images/stimuli/spore_stims/complex_20_B_d.gif","middle","","","","",""
"","null","html-keyboard-response","298","885849","0.0-56.0-0.1","SS1613080992401","","","null","","","","","<p><img src= images/blank.png width =""200"" height = ""200"" style = ""float:right""></p><p><img src=images/blank.png width =""800"" height = ""200""></p>","","","","","","","","","","","",""
"","2342.720000000554","sequential-stimulus-presentation","299","888999","0.0-56.0-1.1","SS1613080992401","trial","","40","800","3142.720000000554","images/stimuli/spore_stims/complex_20_A_d.gif","images/stimuli/spore_stims/complex_20_B_d.gif","","","","","16","complex_similar","images/stimuli/spore_stims/complex_20_B_d.gif","middle","","","","",""
"","null","html-keyboard-response","300","890182","0.0-56.0-0.2","SS1613080992401","","","null","","","","","<p><img src= images/blank.png width =""200"" height = ""200"" style = ""float:right""></p><p><img src=images/blank.png width =""800"" height = ""200""></p>","","","","","","","","","","","",""
"","1148.9950000104727","sequential-stimulus-presentation","301","892165","0.0-56.0-1.2","SS1613080992401","trial","","40","800","1948.9950000104727","images/stimuli/spore_stims/complex_20_A_d.gif","images/stimuli/spore_stims/complex_20_B_d.gif","","","","","16","complex_similar","images/stimuli/spore_stims/complex_20_A_d.gif","right","","","","",""
"","null","html-keyboard-response","302","893352","0.0-56.0-0.3","SS1613080992401","","","null","","","","","<p><img src= images/blank.png width =""200"" height = ""200"" style = ""float:right""></p><p><img src=images/blank.png width =""800"" height = ""200""></p>","","","","","","","","","","","",""
"","775.3549999906681","sequential-stimulus-presentation","303","894940","0.0-56.0-1.3","SS1613080992401","trial","","40","800","1575.3549999906681","images/stimuli/spore_stims/complex_20_A_d.gif","images/stimuli/spore_stims/complex_20_B_d.gif","","","","","16","complex_similar","images/stimuli/spore_stims/complex_20_B_d.gif","middle","","","","",""
"","null","html-keyboard-response","304","895925","0.0-56.0-0.4","SS1613080992401","","","null","","","","","<p><img src= images/blank.png width =""200"" height = ""200"" style = ""float:right""></p><p><img src=images/blank.png width =""800"" height = ""200""></p>","","","","","","","","","","","",""
"","784.6199999912642","sequential-stimulus-presentation","305","897525","0.0-56.0-1.4","SS1613080992401","trial","","40","800","1584.6199999912642","images/stimuli/spore_stims/complex_20_A_d.gif","images/stimuli/spore_stims/complex_20_B_d.gif","","","","","16","complex_similar","images/stimuli/spore_stims/complex_20_B_d.gif","middle","","","","",""
"","null","html-keyboard-response","306","898566","0.0-56.0-0.5","SS1613080992401","","","null","","","","","<p><img src= images/blank.png width =""200"" height = ""200"" style = ""float:right""></p><p><img src=images/blank.png width =""800"" height = ""200""></p>","","","","","","","","","","","",""
"","406.3049999967916","sequential-stimulus-presentation","307","899783","0.0-56.0-1.5","SS1613080992401","trial","","40","800","1206.3049999967916","images/stimuli/spore_stims/complex_20_A_d.gif","images/stimuli/spore_stims/complex_20_B_d.gif","","","","","16","complex_similar","images/stimuli/spore_stims/complex_20_B_d.gif","middle","","","","",""
"","null","html-keyboard-response","308","900889","0.0-56.0-0.6","SS1613080992401","","","null","","","","","<p><img src= images/blank.png width =""200"" height = ""200"" style = ""float:right""></p><p><img src=images/blank.png width =""800"" height = ""200""></p>","","","","","","","","","","","",""
"","693.6149999964982","sequential-stimulus-presentation","309","902389","0.0-56.0-1.6","SS1613080992401","trial","","40","800","1493.6149999964982","images/stimuli/spore_stims/complex_20_A_d.gif","images/stimuli/spore_stims/complex_20_B_d.gif","","","","","16","complex_similar","images/stimuli/spore_stims/complex_20_B_d.gif","middle","","","","",""
"","null","html-keyboard-response","310","903434","0.0-56.0-0.7","SS1613080992401","","","null","","","","","<p><img src= images/blank.png width =""200"" height = ""200"" style = ""float:right""></p><p><img src=images/blank.png width =""800"" height = ""200""></p>","","","","","","","","","","","",""
"","1034.1849999967963","sequential-stimulus-presentation","311","905279","0.0-56.0-1.7","SS1613080992401","trial","","40","800","1834.1849999967963","images/stimuli/spore_stims/complex_20_A_d.gif","images/stimuli/spore_stims/complex_20_B_d.gif","","","","","16","complex_similar","images/stimuli/spore_stims/complex_20_B_d.gif","middle","","","","",""
"","1923.1999999901745","html-keyboard-response","312","907211","0.0-57.0","SS1613080992401","pref_question","","51","","","","","<video width ='960' height = '540' style='padding-top:8%' autoplay muted><source src='images/stimuli/wall_pref.mp4' type='video/mp4'></video>","3","right","66%","16","","","","","","","",""
