"view_history","rt","trial_type","trial_index","time_elapsed","internal_node_id","subject","stimulus_type","trial_stimulus","key_press","minimum_viewing_duration","trial_looking_time","block_deviant","block_background","stimulus","wall_pref","location","location_percent","block_number","block_type","stimulus_displayed","position_displayed","stim_type_selected","responses","question_order","stimulus_left","stimulus_right"
"[{""page_index"":0,""viewing_time"":41457.929999916814}]","41458.80499994382","instructions","0","41460","0.0-0.0","SS1613100636000","","","","","","","","","","","","","","","","","","","",""
"[{""page_index"":0,""viewing_time"":36857.214999967255},{""page_index"":1,""viewing_time"":8833.94500007853}]","45691.394999972545","instructions","1","89206","0.0-1.0","SS1613100636000","instructions","","","","","","","","","","","","","","","","","","",""
"","11156.80999995675","sequential-stimulus-presentation","2","101169","0.0-2.0","SS1613100636000","","","40","800","11956.80999995675","null","null","","","","","","","","","","","","",""
"","1901.949999970384","sequential-stimulus-presentation","3","103878","0.0-3.0","SS1613100636000","","","40","800","2701.949999970384","null","null","","","","","","","","","","","","",""
"[{""page_index"":0,""viewing_time"":6235.46500003431}]","6235.789999947883","instructions","4","110115","0.0-4.0","SS1613100636000","instructions","","","","","","","","","","","","","","","","","","",""
"","6527.419999940321","html-keyboard-response","5","116646","0.0-5.0","SS1613100636000","instructions","","49","","","","","<video width ='960' height = '540' autoplay muted><source src='images/stimuli/wall_pref.mp4' type='video/mp4'></video>","1","left","25%","","","","","","","","",""
"","2138.7899999972433","sequential-stimulus-presentation","6","119589","0.0-6.0","SS1613100636000","pref_reveal","","40","800","2938.7899999972433","null","null","","","","","","","","","","","","",""
"[{""page_index"":0,""viewing_time"":20527.880000066943},{""page_index"":1,""viewing_time"":9726.625000010245},{""page_index"":2,""viewing_time"":1400.1599999610335},{""page_index"":3,""viewing_time"":1343.7400000402704}]","32998.67000000086","instructions","7","152588","0.0-7.0","SS1613100636000","instructions","","","","","","","","","","","","","","","","","","",""
"","null","html-keyboard-response","8","153449","0.0-8.0-0.0","SS1613100636000","","","null","","","","","<p><img src= images/blank.png width =""200"" height = ""200"" style = ""float:right""></p><p><img src=images/blank.png width =""800"" height = ""200""></p>","","","","","","","","","","","",""
"","880.2450000075623","sequential-stimulus-presentation","9","155134","0.0-8.0-1.0","SS1613100636000","trial","","40","800","1680.2450000075623","images/stimuli/spore_stims/simple_19_B_c.gif","images/stimuli/spore_stims/simple_19_A_c.gif","","","","","0","simple_similar","images/stimuli/spore_stims/simple_19_A_c.gif","right","","","","",""
"","null","html-keyboard-response","10","156035","0.0-8.0-0.1","SS1613100636000","","","null","","","","","<p><img src= images/blank.png width =""200"" height = ""200"" style = ""float:right""></p><p><img src=images/blank.png width =""800"" height = ""200""></p>","","","","","","","","","","","",""
"","549.2000000085682","sequential-stimulus-presentation","11","157389","0.0-8.0-1.1","SS1613100636000","trial","","40","800","1349.2000000085682","images/stimuli/spore_stims/simple_19_B_c.gif","images/stimuli/spore_stims/simple_19_A_c.gif","","","","","0","simple_similar","images/stimuli/spore_stims/simple_19_A_c.gif","right","","","","",""
"","null","html-keyboard-response","12","158302","0.0-8.0-0.2","SS1613100636000","","","null","","","","","<p><img src= images/blank.png width =""200"" height = ""200"" style = ""float:right""></p><p><img src=images/blank.png width =""800"" height = ""200""></p>","","","","","","","","","","","",""
"","386.314999894239","sequential-stimulus-presentation","13","159492","0.0-8.0-1.2","SS1613100636000","trial","","40","800","1186.314999894239","images/stimuli/spore_stims/simple_19_B_c.gif","images/stimuli/spore_stims/simple_19_A_c.gif","","","","","0","simple_similar","images/stimuli/spore_stims/simple_19_A_c.gif","right","","","","",""
"","null","html-keyboard-response","14","160392","0.0-8.0-0.3","SS1613100636000","","","null","","","","","<p><img src= images/blank.png width =""200"" height = ""200"" style = ""float:right""></p><p><img src=images/blank.png width =""800"" height = ""200""></p>","","","","","","","","","","","",""
"","1005.4950000485405","sequential-stimulus-presentation","15","162205","0.0-8.0-1.3","SS1613100636000","trial","","40","800","1805.4950000485405","images/stimuli/spore_stims/simple_19_B_c.gif","images/stimuli/spore_stims/simple_19_A_c.gif","","","","","0","simple_similar","images/stimuli/spore_stims/simple_19_A_c.gif","right","","","","",""
"","null","html-keyboard-response","16","163225","0.0-8.0-0.4","SS1613100636000","","","null","","","","","<p><img src= images/blank.png width =""200"" height = ""200"" style = ""float:right""></p><p><img src=images/blank.png width =""800"" height = ""200""></p>","","","","","","","","","","","",""
"","1124.820000026375","sequential-stimulus-presentation","17","165157","0.0-8.0-1.4","SS1613100636000","trial","","40","800","1924.820000026375","images/stimuli/spore_stims/simple_19_B_c.gif","images/stimuli/spore_stims/simple_19_A_c.gif","","","","","0","simple_similar","images/stimuli/spore_stims/simple_19_B_c.gif","left","","","","",""
"","null","html-keyboard-response","18","165963","0.0-8.0-0.5","SS1613100636000","","","null","","","","","<p><img src= images/blank.png width =""200"" height = ""200"" style = ""float:right""></p><p><img src=images/blank.png width =""800"" height = ""200""></p>","","","","","","","","","","","",""
"","1140.015000011772","sequential-stimulus-presentation","19","167908","0.0-8.0-1.5","SS1613100636000","trial","","40","800","1940.015000011772","images/stimuli/spore_stims/simple_19_B_c.gif","images/stimuli/spore_stims/simple_19_A_c.gif","","","","","0","simple_similar","images/stimuli/spore_stims/simple_19_A_c.gif","right","","","","",""
"","null","html-keyboard-response","20","169212","0.0-8.0-0.6","SS1613100636000","","","null","","","","","<p><img src= images/blank.png width =""200"" height = ""200"" style = ""float:right""></p><p><img src=images/blank.png width =""800"" height = ""200""></p>","","","","","","","","","","","",""
"","655.5550000630319","sequential-stimulus-presentation","21","170676","0.0-8.0-1.6","SS1613100636000","trial","","40","800","1455.555000063032","images/stimuli/spore_stims/simple_19_B_c.gif","images/stimuli/spore_stims/simple_19_A_c.gif","","","","","0","simple_similar","images/stimuli/spore_stims/simple_19_A_c.gif","right","","","","",""
"","null","html-keyboard-response","22","171764","0.0-8.0-0.7","SS1613100636000","","","null","","","","","<p><img src= images/blank.png width =""200"" height = ""200"" style = ""float:right""></p><p><img src=images/blank.png width =""800"" height = ""200""></p>","","","","","","","","","","","",""
"","449.1649999981746","sequential-stimulus-presentation","23","173020","0.0-8.0-1.7","SS1613100636000","trial","","40","800","1249.1649999981746","images/stimuli/spore_stims/simple_19_B_c.gif","images/stimuli/spore_stims/simple_19_A_c.gif","","","","","0","simple_similar","images/stimuli/spore_stims/simple_19_A_c.gif","right","","","","",""
"","2732.5049999635667","html-keyboard-response","24","175755","0.0-9.0","SS1613100636000","pref_question","","50","","","","","<video width ='960' height = '540' style='padding-top:8%' autoplay muted><source src='images/stimuli/wall_pref.mp4' type='video/mp4'></video>","2","middle","45%","0","","","","","","","",""
"","1898.0450000381097","sequential-stimulus-presentation","25","178459","0.0-10.0","SS1613100636000","pref_reveal","","40","800","2698.0450000381097","null","null","","","","","0","","","","novel","","","",""
"","null","html-keyboard-response","26","179396","0.0-11.0-0.0","SS1613100636000","","","null","","","","","<p><img src= images/blank.png width =""200"" height = ""200"" style = ""float:right""></p><p><img src=images/blank.png width =""800"" height = ""200""></p>","","","","","","","","","","","",""
"","1644.1450000274926","sequential-stimulus-presentation","27","181845","0.0-11.0-1.0","SS1613100636000","trial","","40","800","2444.1450000274926","images/stimuli/spore_stims/complex_04_A_d.gif","images/stimuli/spore_stims/complex_04_B_d.gif","","","","","1","complex_similar","images/stimuli/spore_stims/complex_04_B_d.gif","middle","","","","",""
"","null","html-keyboard-response","28","182774","0.0-11.0-0.1","SS1613100636000","","","null","","","","","<p><img src= images/blank.png width =""200"" height = ""200"" style = ""float:right""></p><p><img src=images/blank.png width =""800"" height = ""200""></p>","","","","","","","","","","","",""
"","1368.9399999566376","sequential-stimulus-presentation","29","184948","0.0-11.0-1.1","SS1613100636000","trial","","40","800","2168.9399999566376","images/stimuli/spore_stims/complex_04_A_d.gif","images/stimuli/spore_stims/complex_04_B_d.gif","","","","","1","complex_similar","images/stimuli/spore_stims/complex_04_B_d.gif","middle","","","","",""
"","null","html-keyboard-response","30","185771","0.0-11.0-0.2","SS1613100636000","","","null","","","","","<p><img src= images/blank.png width =""200"" height = ""200"" style = ""float:right""></p><p><img src=images/blank.png width =""800"" height = ""200""></p>","","","","","","","","","","","",""
"","1929.344999953173","sequential-stimulus-presentation","31","188507","0.0-11.0-1.2","SS1613100636000","trial","","40","800","2729.344999953173","images/stimuli/spore_stims/complex_04_A_d.gif","images/stimuli/spore_stims/complex_04_B_d.gif","","","","","1","complex_similar","images/stimuli/spore_stims/complex_04_B_d.gif","middle","","","","",""
"","null","html-keyboard-response","32","189317","0.0-11.0-0.3","SS1613100636000","","","null","","","","","<p><img src= images/blank.png width =""200"" height = ""200"" style = ""float:right""></p><p><img src=images/blank.png width =""800"" height = ""200""></p>","","","","","","","","","","","",""
"","1462.7300000283867","sequential-stimulus-presentation","33","191587","0.0-11.0-1.3","SS1613100636000","trial","","40","800","2262.7300000283867","images/stimuli/spore_stims/complex_04_A_d.gif","images/stimuli/spore_stims/complex_04_B_d.gif","","","","","1","complex_similar","images/stimuli/spore_stims/complex_04_A_d.gif","left","","","","",""
"","null","html-keyboard-response","34","192740","0.0-11.0-0.4","SS1613100636000","","","null","","","","","<p><img src= images/blank.png width =""200"" height = ""200"" style = ""float:right""></p><p><img src=images/blank.png width =""800"" height = ""200""></p>","","","","","","","","","","","",""
"","1574.2799999425188","sequential-stimulus-presentation","35","195119","0.0-11.0-1.4","SS1613100636000","trial","","40","800","2374.2799999425188","images/stimuli/spore_stims/complex_04_A_d.gif","images/stimuli/spore_stims/complex_04_B_d.gif","","","","","1","complex_similar","images/stimuli/spore_stims/complex_04_B_d.gif","middle","","","","",""
"","null","html-keyboard-response","36","196179","0.0-11.0-0.5","SS1613100636000","","","null","","","","","<p><img src= images/blank.png width =""200"" height = ""200"" style = ""float:right""></p><p><img src=images/blank.png width =""800"" height = ""200""></p>","","","","","","","","","","","",""
"","1340.8100000815466","sequential-stimulus-presentation","37","198324","0.0-11.0-1.5","SS1613100636000","trial","","40","800","2140.8100000815466","images/stimuli/spore_stims/complex_04_A_d.gif","images/stimuli/spore_stims/complex_04_B_d.gif","","","","","1","complex_similar","images/stimuli/spore_stims/complex_04_B_d.gif","middle","","","","",""
"","null","html-keyboard-response","38","199415","0.0-11.0-0.6","SS1613100636000","","","null","","","","","<p><img src= images/blank.png width =""200"" height = ""200"" style = ""float:right""></p><p><img src=images/blank.png width =""800"" height = ""200""></p>","","","","","","","","","","","",""
"","3890.2250000974163","sequential-stimulus-presentation","39","204109","0.0-11.0-1.6","SS1613100636000","trial","","40","800","4690.225000097416","images/stimuli/spore_stims/complex_04_A_d.gif","images/stimuli/spore_stims/complex_04_B_d.gif","","","","","1","complex_similar","images/stimuli/spore_stims/complex_04_B_d.gif","middle","","","","",""
"","null","html-keyboard-response","40","205288","0.0-11.0-0.7","SS1613100636000","","","null","","","","","<p><img src= images/blank.png width =""200"" height = ""200"" style = ""float:right""></p><p><img src=images/blank.png width =""800"" height = ""200""></p>","","","","","","","","","","","",""
"","397.8199999546632","sequential-stimulus-presentation","41","206491","0.0-11.0-1.7","SS1613100636000","trial","","40","800","1197.8199999546632","images/stimuli/spore_stims/complex_04_A_d.gif","images/stimuli/spore_stims/complex_04_B_d.gif","","","","","1","complex_similar","images/stimuli/spore_stims/complex_04_B_d.gif","middle","","","","",""
"","2052.4650000734255","html-keyboard-response","42","208547","0.0-12.0","SS1613100636000","pref_question","","51","","","","","<video width ='960' height = '540' style='padding-top:8%' autoplay muted><source src='images/stimuli/wall_pref.mp4' type='video/mp4'></video>","3","right","66%","1","","","","","","","",""
"","3639.075000071898","sequential-stimulus-presentation","43","212995","0.0-13.0","SS1613100636000","pref_reveal","","40","800","4439.075000071898","null","null","","","","","1","","","","novel","","","",""
"","null","html-keyboard-response","44","214163","0.0-14.0-0.0","SS1613100636000","","","null","","","","","<p><img src= images/blank.png width =""200"" height = ""200"" style = ""float:right""></p><p><img src=images/blank.png width =""800"" height = ""200""></p>","","","","","","","","","","","",""
"","1767.794999992475","sequential-stimulus-presentation","45","216739","0.0-14.0-1.0","SS1613100636000","trial","","40","800","2567.794999992475","images/stimuli/spore_stims/complex_18_B_d.gif","images/stimuli/spore_stims/complex_18_A_d.gif","","","","","2","complex_similar","images/stimuli/spore_stims/complex_18_A_d.gif","left","","","","",""
"","null","html-keyboard-response","46","218003","0.0-14.0-0.1","SS1613100636000","","","null","","","","","<p><img src= images/blank.png width =""200"" height = ""200"" style = ""float:right""></p><p><img src=images/blank.png width =""800"" height = ""200""></p>","","","","","","","","","","","",""
"","1334.885000018403","sequential-stimulus-presentation","47","220147","0.0-14.0-1.1","SS1613100636000","trial","","40","800","2134.885000018403","images/stimuli/spore_stims/complex_18_B_d.gif","images/stimuli/spore_stims/complex_18_A_d.gif","","","","","2","complex_similar","images/stimuli/spore_stims/complex_18_A_d.gif","left","","","","",""
"","null","html-keyboard-response","48","221383","0.0-14.0-0.2","SS1613100636000","","","null","","","","","<p><img src= images/blank.png width =""200"" height = ""200"" style = ""float:right""></p><p><img src=images/blank.png width =""800"" height = ""200""></p>","","","","","","","","","","","",""
"","1250.0599999912083","sequential-stimulus-presentation","49","223442","0.0-14.0-1.2","SS1613100636000","trial","","40","800","2050.0599999912083","images/stimuli/spore_stims/complex_18_B_d.gif","images/stimuli/spore_stims/complex_18_A_d.gif","","","","","2","complex_similar","images/stimuli/spore_stims/complex_18_A_d.gif","left","","","","",""
"","null","html-keyboard-response","50","224480","0.0-14.0-0.3","SS1613100636000","","","null","","","","","<p><img src= images/blank.png width =""200"" height = ""200"" style = ""float:right""></p><p><img src=images/blank.png width =""800"" height = ""200""></p>","","","","","","","","","","","",""
"","1015.0199999334291","sequential-stimulus-presentation","51","226299","0.0-14.0-1.3","SS1613100636000","trial","","40","800","1815.019999933429","images/stimuli/spore_stims/complex_18_B_d.gif","images/stimuli/spore_stims/complex_18_A_d.gif","","","","","2","complex_similar","images/stimuli/spore_stims/complex_18_A_d.gif","left","","","","",""
"","null","html-keyboard-response","52","227589","0.0-14.0-0.4","SS1613100636000","","","null","","","","","<p><img src= images/blank.png width =""200"" height = ""200"" style = ""float:right""></p><p><img src=images/blank.png width =""800"" height = ""200""></p>","","","","","","","","","","","",""
"","1209.4700000016019","sequential-stimulus-presentation","53","229603","0.0-14.0-1.4","SS1613100636000","trial","","40","800","2009.4700000016019","images/stimuli/spore_stims/complex_18_B_d.gif","images/stimuli/spore_stims/complex_18_A_d.gif","","","","","2","complex_similar","images/stimuli/spore_stims/complex_18_B_d.gif","middle","","","","",""
"","null","html-keyboard-response","54","230817","0.0-14.0-0.5","SS1613100636000","","","null","","","","","<p><img src= images/blank.png width =""200"" height = ""200"" style = ""float:right""></p><p><img src=images/blank.png width =""800"" height = ""200""></p>","","","","","","","","","","","",""
"","842.8350000176579","sequential-stimulus-presentation","55","232466","0.0-14.0-1.5","SS1613100636000","trial","","40","800","1642.8350000176579","images/stimuli/spore_stims/complex_18_B_d.gif","images/stimuli/spore_stims/complex_18_A_d.gif","","","","","2","complex_similar","images/stimuli/spore_stims/complex_18_A_d.gif","left","","","","",""
"","null","html-keyboard-response","56","233544","0.0-14.0-0.6","SS1613100636000","","","null","","","","","<p><img src= images/blank.png width =""200"" height = ""200"" style = ""float:right""></p><p><img src=images/blank.png width =""800"" height = ""200""></p>","","","","","","","","","","","",""
"","470.6650000298396","sequential-stimulus-presentation","57","234818","0.0-14.0-1.6","SS1613100636000","trial","","40","800","1270.6650000298396","images/stimuli/spore_stims/complex_18_B_d.gif","images/stimuli/spore_stims/complex_18_A_d.gif","","","","","2","complex_similar","images/stimuli/spore_stims/complex_18_A_d.gif","left","","","","",""
"","null","html-keyboard-response","58","236008","0.0-14.0-0.7","SS1613100636000","","","null","","","","","<p><img src= images/blank.png width =""200"" height = ""200"" style = ""float:right""></p><p><img src=images/blank.png width =""800"" height = ""200""></p>","","","","","","","","","","","",""
"","696.1100000189617","sequential-stimulus-presentation","59","237510","0.0-14.0-1.7","SS1613100636000","trial","","40","800","1496.1100000189617","images/stimuli/spore_stims/complex_18_B_d.gif","images/stimuli/spore_stims/complex_18_A_d.gif","","","","","2","complex_similar","images/stimuli/spore_stims/complex_18_A_d.gif","left","","","","",""
"","3065.1450000004843","html-keyboard-response","60","240578","0.0-15.0","SS1613100636000","pref_question","","51","","","","","<video width ='960' height = '540' style='padding-top:8%' autoplay muted><source src='images/stimuli/wall_pref.mp4' type='video/mp4'></video>","3","right","66%","2","","","","","","","",""
"","4162.795000011101","sequential-stimulus-presentation","61","245546","0.0-16.0","SS1613100636000","pref_reveal","","40","800","4962.795000011101","null","null","","","","","2","","","","novel","","","",""
"","null","html-keyboard-response","62","246641","0.0-17.0-0.0","SS1613100636000","","","null","","","","","<p><img src= images/blank.png width =""200"" height = ""200"" style = ""float:right""></p><p><img src=images/blank.png width =""800"" height = ""200""></p>","","","","","","","","","","","",""
"","1464.1200000187382","sequential-stimulus-presentation","63","248914","0.0-17.0-1.0","SS1613100636000","trial","","40","800","2264.120000018738","images/stimuli/spore_stims/simple_15_A_c.gif","images/stimuli/spore_stims/simple_15_B_c.gif","","","","","3","simple_similar","images/stimuli/spore_stims/simple_15_B_c.gif","middle","","","","",""
"","null","html-keyboard-response","64","250018","0.0-17.0-0.1","SS1613100636000","","","null","","","","","<p><img src= images/blank.png width =""200"" height = ""200"" style = ""float:right""></p><p><img src=images/blank.png width =""800"" height = ""200""></p>","","","","","","","","","","","",""
"","430.12000003363937","sequential-stimulus-presentation","65","251252","0.0-17.0-1.1","SS1613100636000","trial","","40","800","1230.1200000336394","images/stimuli/spore_stims/simple_15_A_c.gif","images/stimuli/spore_stims/simple_15_B_c.gif","","","","","3","simple_similar","images/stimuli/spore_stims/simple_15_B_c.gif","middle","","","","",""
"","null","html-keyboard-response","66","252133","0.0-17.0-0.2","SS1613100636000","","","null","","","","","<p><img src= images/blank.png width =""200"" height = ""200"" style = ""float:right""></p><p><img src=images/blank.png width =""800"" height = ""200""></p>","","","","","","","","","","","",""
"","377.1799999522045","sequential-stimulus-presentation","67","253317","0.0-17.0-1.2","SS1613100636000","trial","","40","800","1177.1799999522045","images/stimuli/spore_stims/simple_15_A_c.gif","images/stimuli/spore_stims/simple_15_B_c.gif","","","","","3","simple_similar","images/stimuli/spore_stims/simple_15_B_c.gif","middle","","","","",""
"","null","html-keyboard-response","68","254454","0.0-17.0-0.3","SS1613100636000","","","null","","","","","<p><img src= images/blank.png width =""200"" height = ""200"" style = ""float:right""></p><p><img src=images/blank.png width =""800"" height = ""200""></p>","","","","","","","","","","","",""
"","269.315000041388","sequential-stimulus-presentation","69","255530","0.0-17.0-1.3","SS1613100636000","trial","","40","800","1069.315000041388","images/stimuli/spore_stims/simple_15_A_c.gif","images/stimuli/spore_stims/simple_15_B_c.gif","","","","","3","simple_similar","images/stimuli/spore_stims/simple_15_B_c.gif","middle","","","","",""
"","null","html-keyboard-response","70","256427","0.0-17.0-0.4","SS1613100636000","","","null","","","","","<p><img src= images/blank.png width =""200"" height = ""200"" style = ""float:right""></p><p><img src=images/blank.png width =""800"" height = ""200""></p>","","","","","","","","","","","",""
"","536.5200000815094","sequential-stimulus-presentation","71","257770","0.0-17.0-1.4","SS1613100636000","trial","","40","800","1336.5200000815094","images/stimuli/spore_stims/simple_15_A_c.gif","images/stimuli/spore_stims/simple_15_B_c.gif","","","","","3","simple_similar","images/stimuli/spore_stims/simple_15_B_c.gif","middle","","","","",""
"","null","html-keyboard-response","72","258825","0.0-17.0-0.5","SS1613100636000","","","null","","","","","<p><img src= images/blank.png width =""200"" height = ""200"" style = ""float:right""></p><p><img src=images/blank.png width =""800"" height = ""200""></p>","","","","","","","","","","","",""
"","313.8700000708923","sequential-stimulus-presentation","73","259946","0.0-17.0-1.5","SS1613100636000","trial","","40","800","1113.8700000708923","images/stimuli/spore_stims/simple_15_A_c.gif","images/stimuli/spore_stims/simple_15_B_c.gif","","","","","3","simple_similar","images/stimuli/spore_stims/simple_15_B_c.gif","middle","","","","",""
"","null","html-keyboard-response","74","261071","0.0-17.0-0.6","SS1613100636000","","","null","","","","","<p><img src= images/blank.png width =""200"" height = ""200"" style = ""float:right""></p><p><img src=images/blank.png width =""800"" height = ""200""></p>","","","","","","","","","","","",""
"","301.12499999813735","sequential-stimulus-presentation","75","262180","0.0-17.0-1.6","SS1613100636000","trial","","40","800","1101.1249999981374","images/stimuli/spore_stims/simple_15_A_c.gif","images/stimuli/spore_stims/simple_15_B_c.gif","","","","","3","simple_similar","images/stimuli/spore_stims/simple_15_B_c.gif","middle","","","","",""
"","null","html-keyboard-response","76","263391","0.0-17.0-0.7","SS1613100636000","","","null","","","","","<p><img src= images/blank.png width =""200"" height = ""200"" style = ""float:right""></p><p><img src=images/blank.png width =""800"" height = ""200""></p>","","","","","","","","","","","",""
"","277.2150000091642","sequential-stimulus-presentation","77","264473","0.0-17.0-1.7","SS1613100636000","trial","","40","800","1077.2150000091642","images/stimuli/spore_stims/simple_15_A_c.gif","images/stimuli/spore_stims/simple_15_B_c.gif","","","","","3","simple_similar","images/stimuli/spore_stims/simple_15_A_c.gif","left","","","","",""
"","2212.5450000166893","html-keyboard-response","78","266689","0.0-18.0","SS1613100636000","pref_question","","50","","","","","<video width ='960' height = '540' style='padding-top:8%' autoplay muted><source src='images/stimuli/wall_pref.mp4' type='video/mp4'></video>","2","middle","45%","3","","","","","","","",""
"","2801.504999981262","sequential-stimulus-presentation","79","270299","0.0-19.0","SS1613100636000","pref_reveal","","40","800","3601.504999981262","null","null","","","","","3","","","","background","","","",""
"","null","html-keyboard-response","80","271503","0.0-20.0-0.0","SS1613100636000","","","null","","","","","<p><img src= images/blank.png width =""200"" height = ""200"" style = ""float:right""></p><p><img src=images/blank.png width =""800"" height = ""200""></p>","","","","","","","","","","","",""
"","1964.6349999820814","sequential-stimulus-presentation","81","274274","0.0-20.0-1.0","SS1613100636000","trial","","40","800","2764.6349999820814","images/stimuli/spore_stims/simple_20_A_c.gif","images/stimuli/spore_stims/simple_02_B_d.gif","","","","","4","simple_dissimilar","images/stimuli/spore_stims/simple_02_B_d.gif","left","","","","",""
"","null","html-keyboard-response","82","275098","0.0-20.0-0.1","SS1613100636000","","","null","","","","","<p><img src= images/blank.png width =""200"" height = ""200"" style = ""float:right""></p><p><img src=images/blank.png width =""800"" height = ""200""></p>","","","","","","","","","","","",""
"","975.3149999305606","sequential-stimulus-presentation","83","276881","0.0-20.0-1.1","SS1613100636000","trial","","40","800","1775.3149999305606","images/stimuli/spore_stims/simple_20_A_c.gif","images/stimuli/spore_stims/simple_02_B_d.gif","","","","","4","simple_dissimilar","images/stimuli/spore_stims/simple_02_B_d.gif","left","","","","",""
"","null","html-keyboard-response","84","277756","0.0-20.0-0.2","SS1613100636000","","","null","","","","","<p><img src= images/blank.png width =""200"" height = ""200"" style = ""float:right""></p><p><img src=images/blank.png width =""800"" height = ""200""></p>","","","","","","","","","","","",""
"","919.9650000082329","sequential-stimulus-presentation","85","279481","0.0-20.0-1.2","SS1613100636000","trial","","40","800","1719.965000008233","images/stimuli/spore_stims/simple_20_A_c.gif","images/stimuli/spore_stims/simple_02_B_d.gif","","","","","4","simple_dissimilar","images/stimuli/spore_stims/simple_02_B_d.gif","left","","","","",""
"","null","html-keyboard-response","86","280449","0.0-20.0-0.3","SS1613100636000","","","null","","","","","<p><img src= images/blank.png width =""200"" height = ""200"" style = ""float:right""></p><p><img src=images/blank.png width =""800"" height = ""200""></p>","","","","","","","","","","","",""
"","850.9149999590591","sequential-stimulus-presentation","87","282107","0.0-20.0-1.3","SS1613100636000","trial","","40","800","1650.914999959059","images/stimuli/spore_stims/simple_20_A_c.gif","images/stimuli/spore_stims/simple_02_B_d.gif","","","","","4","simple_dissimilar","images/stimuli/spore_stims/simple_02_B_d.gif","left","","","","",""
"","null","html-keyboard-response","88","283407","0.0-20.0-0.4","SS1613100636000","","","null","","","","","<p><img src= images/blank.png width =""200"" height = ""200"" style = ""float:right""></p><p><img src=images/blank.png width =""800"" height = ""200""></p>","","","","","","","","","","","",""
"","702.3699999554083","sequential-stimulus-presentation","89","284914","0.0-20.0-1.4","SS1613100636000","trial","","40","800","1502.3699999554083","images/stimuli/spore_stims/simple_20_A_c.gif","images/stimuli/spore_stims/simple_02_B_d.gif","","","","","4","simple_dissimilar","images/stimuli/spore_stims/simple_02_B_d.gif","left","","","","",""
"","null","html-keyboard-response","90","285968","0.0-20.0-0.5","SS1613100636000","","","null","","","","","<p><img src= images/blank.png width =""200"" height = ""200"" style = ""float:right""></p><p><img src=images/blank.png width =""800"" height = ""200""></p>","","","","","","","","","","","",""
"","697.770000086166","sequential-stimulus-presentation","91","287473","0.0-20.0-1.5","SS1613100636000","trial","","40","800","1497.770000086166","images/stimuli/spore_stims/simple_20_A_c.gif","images/stimuli/spore_stims/simple_02_B_d.gif","","","","","4","simple_dissimilar","images/stimuli/spore_stims/simple_02_B_d.gif","left","","","","",""
"","null","html-keyboard-response","92","288743","0.0-20.0-0.6","SS1613100636000","","","null","","","","","<p><img src= images/blank.png width =""200"" height = ""200"" style = ""float:right""></p><p><img src=images/blank.png width =""800"" height = ""200""></p>","","","","","","","","","","","",""
"","803.3800000557676","sequential-stimulus-presentation","93","290353","0.0-20.0-1.6","SS1613100636000","trial","","40","800","1603.3800000557676","images/stimuli/spore_stims/simple_20_A_c.gif","images/stimuli/spore_stims/simple_02_B_d.gif","","","","","4","simple_dissimilar","images/stimuli/spore_stims/simple_02_B_d.gif","left","","","","",""
"","null","html-keyboard-response","94","291306","0.0-20.0-0.7","SS1613100636000","","","null","","","","","<p><img src= images/blank.png width =""200"" height = ""200"" style = ""float:right""></p><p><img src=images/blank.png width =""800"" height = ""200""></p>","","","","","","","","","","","",""
"","1300.0600000377744","sequential-stimulus-presentation","95","293410","0.0-20.0-1.7","SS1613100636000","trial","","40","800","2100.0600000377744","images/stimuli/spore_stims/simple_20_A_c.gif","images/stimuli/spore_stims/simple_02_B_d.gif","","","","","4","simple_dissimilar","images/stimuli/spore_stims/simple_20_A_c.gif","middle","","","","",""
"","3010.400000028312","html-keyboard-response","96","296425","0.0-21.0","SS1613100636000","pref_question","","49","","","","","<video width ='960' height = '540' style='padding-top:8%' autoplay muted><source src='images/stimuli/wall_pref.mp4' type='video/mp4'></video>","1","left","25%","4","","","","","","","",""
"","1464.1500000143424","sequential-stimulus-presentation","97","298697","0.0-22.0","SS1613100636000","pref_reveal","","40","800","2264.1500000143424","null","null","","","","","4","","","","background","","","",""
"","null","html-keyboard-response","98","299931","0.0-23.0-0.0","SS1613100636000","","","null","","","","","<p><img src= images/blank.png width =""200"" height = ""200"" style = ""float:right""></p><p><img src=images/blank.png width =""800"" height = ""200""></p>","","","","","","","","","","","",""
"","1918.8500000163913","sequential-stimulus-presentation","99","302656","0.0-23.0-1.0","SS1613100636000","trial","","40","800","2718.8500000163913","images/stimuli/spore_stims/complex_08_A_c.gif","images/stimuli/spore_stims/complex_06_A_d.gif","","","","","5","complex_dissimilar","images/stimuli/spore_stims/complex_06_A_d.gif","left","","","","",""
"","null","html-keyboard-response","100","303555","0.0-23.0-0.1","SS1613100636000","","","null","","","","","<p><img src= images/blank.png width =""200"" height = ""200"" style = ""float:right""></p><p><img src=images/blank.png width =""800"" height = ""200""></p>","","","","","","","","","","","",""
"","700.1349999336526","sequential-stimulus-presentation","101","305064","0.0-23.0-1.1","SS1613100636000","trial","","40","800","1500.1349999336526","images/stimuli/spore_stims/complex_08_A_c.gif","images/stimuli/spore_stims/complex_06_A_d.gif","","","","","5","complex_dissimilar","images/stimuli/spore_stims/complex_06_A_d.gif","left","","","","",""
"","null","html-keyboard-response","102","306090","0.0-23.0-0.2","SS1613100636000","","","null","","","","","<p><img src= images/blank.png width =""200"" height = ""200"" style = ""float:right""></p><p><img src=images/blank.png width =""800"" height = ""200""></p>","","","","","","","","","","","",""
"","720.1249999925494","sequential-stimulus-presentation","103","307617","0.0-23.0-1.2","SS1613100636000","trial","","40","800","1520.1249999925494","images/stimuli/spore_stims/complex_08_A_c.gif","images/stimuli/spore_stims/complex_06_A_d.gif","","","","","5","complex_dissimilar","images/stimuli/spore_stims/complex_06_A_d.gif","left","","","","",""
"","null","html-keyboard-response","104","308433","0.0-23.0-0.3","SS1613100636000","","","null","","","","","<p><img src= images/blank.png width =""200"" height = ""200"" style = ""float:right""></p><p><img src=images/blank.png width =""800"" height = ""200""></p>","","","","","","","","","","","",""
"","968.9749999670312","sequential-stimulus-presentation","105","310209","0.0-23.0-1.3","SS1613100636000","trial","","40","800","1768.9749999670312","images/stimuli/spore_stims/complex_08_A_c.gif","images/stimuli/spore_stims/complex_06_A_d.gif","","","","","5","complex_dissimilar","images/stimuli/spore_stims/complex_06_A_d.gif","left","","","","",""
"","null","html-keyboard-response","106","311341","0.0-23.0-0.4","SS1613100636000","","","null","","","","","<p><img src= images/blank.png width =""200"" height = ""200"" style = ""float:right""></p><p><img src=images/blank.png width =""800"" height = ""200""></p>","","","","","","","","","","","",""
"","1597.2849999088794","sequential-stimulus-presentation","107","313744","0.0-23.0-1.4","SS1613100636000","trial","","40","800","2397.2849999088794","images/stimuli/spore_stims/complex_08_A_c.gif","images/stimuli/spore_stims/complex_06_A_d.gif","","","","","5","complex_dissimilar","images/stimuli/spore_stims/complex_08_A_c.gif","middle","","","","",""
"","null","html-keyboard-response","108","314756","0.0-23.0-0.5","SS1613100636000","","","null","","","","","<p><img src= images/blank.png width =""200"" height = ""200"" style = ""float:right""></p><p><img src=images/blank.png width =""800"" height = ""200""></p>","","","","","","","","","","","",""
"","1006.2149999430403","sequential-stimulus-presentation","109","316568","0.0-23.0-1.5","SS1613100636000","trial","","40","800","1806.2149999430403","images/stimuli/spore_stims/complex_08_A_c.gif","images/stimuli/spore_stims/complex_06_A_d.gif","","","","","5","complex_dissimilar","images/stimuli/spore_stims/complex_06_A_d.gif","left","","","","",""
"","null","html-keyboard-response","110","317481","0.0-23.0-0.6","SS1613100636000","","","null","","","","","<p><img src= images/blank.png width =""200"" height = ""200"" style = ""float:right""></p><p><img src=images/blank.png width =""800"" height = ""200""></p>","","","","","","","","","","","",""
"","654.9550000345334","sequential-stimulus-presentation","111","318945","0.0-23.0-1.6","SS1613100636000","trial","","40","800","1454.9550000345334","images/stimuli/spore_stims/complex_08_A_c.gif","images/stimuli/spore_stims/complex_06_A_d.gif","","","","","5","complex_dissimilar","images/stimuli/spore_stims/complex_06_A_d.gif","left","","","","",""
"","null","html-keyboard-response","112","320188","0.0-23.0-0.7","SS1613100636000","","","null","","","","","<p><img src= images/blank.png width =""200"" height = ""200"" style = ""float:right""></p><p><img src=images/blank.png width =""800"" height = ""200""></p>","","","","","","","","","","","",""
"","748.9400000777096","sequential-stimulus-presentation","113","321744","0.0-23.0-1.7","SS1613100636000","trial","","40","800","1548.9400000777096","images/stimuli/spore_stims/complex_08_A_c.gif","images/stimuli/spore_stims/complex_06_A_d.gif","","","","","5","complex_dissimilar","images/stimuli/spore_stims/complex_06_A_d.gif","left","","","","",""
"","2027.8450000332668","html-keyboard-response","114","323776","0.0-24.0","SS1613100636000","pref_question","","51","","","","","<video width ='960' height = '540' style='padding-top:8%' autoplay muted><source src='images/stimuli/wall_pref.mp4' type='video/mp4'></video>","3","right","66%","5","","","","","","","",""
"","1969.5300000021234","sequential-stimulus-presentation","115","326552","0.0-25.0","SS1613100636000","pref_reveal","","40","800","2769.5300000021234","null","null","","","","","5","","","","novel","","","",""
"","null","html-keyboard-response","116","327756","0.0-26.0-0.0","SS1613100636000","","","null","","","","","<p><img src= images/blank.png width =""200"" height = ""200"" style = ""float:right""></p><p><img src=images/blank.png width =""800"" height = ""200""></p>","","","","","","","","","","","",""
"","2151.880000019446","sequential-stimulus-presentation","117","330736","0.0-26.0-1.0","SS1613100636000","trial","","40","800","2951.880000019446","images/stimuli/spore_stims/simple_07_B_a.gif","images/stimuli/spore_stims/simple_03_A_c.gif","","","","","6","simple_dissimilar","images/stimuli/spore_stims/simple_03_A_c.gif","left","","","","",""
"","null","html-keyboard-response","118","331695","0.0-26.0-0.1","SS1613100636000","","","null","","","","","<p><img src= images/blank.png width =""200"" height = ""200"" style = ""float:right""></p><p><img src=images/blank.png width =""800"" height = ""200""></p>","","","","","","","","","","","",""
"","1200.1599998911843","sequential-stimulus-presentation","119","333704","0.0-26.0-1.1","SS1613100636000","trial","","40","800","2000.1599998911843","images/stimuli/spore_stims/simple_07_B_a.gif","images/stimuli/spore_stims/simple_03_A_c.gif","","","","","6","simple_dissimilar","images/stimuli/spore_stims/simple_03_A_c.gif","left","","","","",""
"","null","html-keyboard-response","120","334625","0.0-26.0-0.2","SS1613100636000","","","null","","","","","<p><img src= images/blank.png width =""200"" height = ""200"" style = ""float:right""></p><p><img src=images/blank.png width =""800"" height = ""200""></p>","","","","","","","","","","","",""
"","410.4949999600649","sequential-stimulus-presentation","121","335840","0.0-26.0-1.2","SS1613100636000","trial","","40","800","1210.494999960065","images/stimuli/spore_stims/simple_07_B_a.gif","images/stimuli/spore_stims/simple_03_A_c.gif","","","","","6","simple_dissimilar","images/stimuli/spore_stims/simple_03_A_c.gif","left","","","","",""
"","null","html-keyboard-response","122","336679","0.0-26.0-0.3","SS1613100636000","","","null","","","","","<p><img src= images/blank.png width =""200"" height = ""200"" style = ""float:right""></p><p><img src=images/blank.png width =""800"" height = ""200""></p>","","","","","","","","","","","",""
"","361.2349999602884","sequential-stimulus-presentation","123","337848","0.0-26.0-1.3","SS1613100636000","trial","","40","800","1161.2349999602884","images/stimuli/spore_stims/simple_07_B_a.gif","images/stimuli/spore_stims/simple_03_A_c.gif","","","","","6","simple_dissimilar","images/stimuli/spore_stims/simple_03_A_c.gif","left","","","","",""
"","null","html-keyboard-response","124","339138","0.0-26.0-0.4","SS1613100636000","","","null","","","","","<p><img src= images/blank.png width =""200"" height = ""200"" style = ""float:right""></p><p><img src=images/blank.png width =""800"" height = ""200""></p>","","","","","","","","","","","",""
"","348.31500006839633","sequential-stimulus-presentation","125","340296","0.0-26.0-1.4","SS1613100636000","trial","","40","800","1148.3150000683963","images/stimuli/spore_stims/simple_07_B_a.gif","images/stimuli/spore_stims/simple_03_A_c.gif","","","","","6","simple_dissimilar","images/stimuli/spore_stims/simple_03_A_c.gif","left","","","","",""
"","null","html-keyboard-response","126","341521","0.0-26.0-0.5","SS1613100636000","","","null","","","","","<p><img src= images/blank.png width =""200"" height = ""200"" style = ""float:right""></p><p><img src=images/blank.png width =""800"" height = ""200""></p>","","","","","","","","","","","",""
"","415.09500006213784","sequential-stimulus-presentation","127","342744","0.0-26.0-1.5","SS1613100636000","trial","","40","800","1215.0950000621378","images/stimuli/spore_stims/simple_07_B_a.gif","images/stimuli/spore_stims/simple_03_A_c.gif","","","","","6","simple_dissimilar","images/stimuli/spore_stims/simple_03_A_c.gif","left","","","","",""
"","null","html-keyboard-response","128","343738","0.0-26.0-0.6","SS1613100636000","","","null","","","","","<p><img src= images/blank.png width =""200"" height = ""200"" style = ""float:right""></p><p><img src=images/blank.png width =""800"" height = ""200""></p>","","","","","","","","","","","",""
"","360.8050000621006","sequential-stimulus-presentation","129","344903","0.0-26.0-1.6","SS1613100636000","trial","","40","800","1160.8050000621006","images/stimuli/spore_stims/simple_07_B_a.gif","images/stimuli/spore_stims/simple_03_A_c.gif","","","","","6","simple_dissimilar","images/stimuli/spore_stims/simple_07_B_a.gif","right","","","","",""
"","null","html-keyboard-response","130","345991","0.0-26.0-0.7","SS1613100636000","","","null","","","","","<p><img src= images/blank.png width =""200"" height = ""200"" style = ""float:right""></p><p><img src=images/blank.png width =""800"" height = ""200""></p>","","","","","","","","","","","",""
"","515.9599999897182","sequential-stimulus-presentation","131","347312","0.0-26.0-1.7","SS1613100636000","trial","","40","800","1315.9599999897182","images/stimuli/spore_stims/simple_07_B_a.gif","images/stimuli/spore_stims/simple_03_A_c.gif","","","","","6","simple_dissimilar","images/stimuli/spore_stims/simple_03_A_c.gif","left","","","","",""
"","2163.5549999773502","html-keyboard-response","132","349479","0.0-27.0","SS1613100636000","pref_question","","50","","","","","<video width ='960' height = '540' style='padding-top:8%' autoplay muted><source src='images/stimuli/wall_pref.mp4' type='video/mp4'></video>","2","middle","45%","6","","","","","","","",""
"","5548.930000048131","sequential-stimulus-presentation","133","355840","0.0-28.0","SS1613100636000","pref_reveal","","40","800","6348.930000048131","null","null","","","","","6","","","","novel","","","",""
"","null","html-keyboard-response","134","356921","0.0-29.0-0.0","SS1613100636000","","","null","","","","","<p><img src= images/blank.png width =""200"" height = ""200"" style = ""float:right""></p><p><img src=images/blank.png width =""800"" height = ""200""></p>","","","","","","","","","","","",""
"","1472.829999984242","sequential-stimulus-presentation","135","359202","0.0-29.0-1.0","SS1613100636000","trial","","40","800","2272.829999984242","images/stimuli/spore_stims/complex_15_B_d.gif","images/stimuli/spore_stims/complex_03_A_a.gif","","","","","7","complex_dissimilar","images/stimuli/spore_stims/complex_03_A_a.gif","right","","","","",""
"","null","html-keyboard-response","136","360146","0.0-29.0-0.1","SS1613100636000","","","null","","","","","<p><img src= images/blank.png width =""200"" height = ""200"" style = ""float:right""></p><p><img src=images/blank.png width =""800"" height = ""200""></p>","","","","","","","","","","","",""
"","476.7950000241399","sequential-stimulus-presentation","137","361432","0.0-29.0-1.1","SS1613100636000","trial","","40","800","1276.7950000241399","images/stimuli/spore_stims/complex_15_B_d.gif","images/stimuli/spore_stims/complex_03_A_a.gif","","","","","7","complex_dissimilar","images/stimuli/spore_stims/complex_03_A_a.gif","right","","","","",""
"","null","html-keyboard-response","138","362517","0.0-29.0-0.2","SS1613100636000","","","null","","","","","<p><img src= images/blank.png width =""200"" height = ""200"" style = ""float:right""></p><p><img src=images/blank.png width =""800"" height = ""200""></p>","","","","","","","","","","","",""
"","371.86499999370426","sequential-stimulus-presentation","139","363695","0.0-29.0-1.2","SS1613100636000","trial","","40","800","1171.8649999937043","images/stimuli/spore_stims/complex_15_B_d.gif","images/stimuli/spore_stims/complex_03_A_a.gif","","","","","7","complex_dissimilar","images/stimuli/spore_stims/complex_15_B_d.gif","middle","","","","",""
"","null","html-keyboard-response","140","364740","0.0-29.0-0.3","SS1613100636000","","","null","","","","","<p><img src= images/blank.png width =""200"" height = ""200"" style = ""float:right""></p><p><img src=images/blank.png width =""800"" height = ""200""></p>","","","","","","","","","","","",""
"","894.1849999828264","sequential-stimulus-presentation","141","366440","0.0-29.0-1.3","SS1613100636000","trial","","40","800","1694.1849999828264","images/stimuli/spore_stims/complex_15_B_d.gif","images/stimuli/spore_stims/complex_03_A_a.gif","","","","","7","complex_dissimilar","images/stimuli/spore_stims/complex_03_A_a.gif","right","","","","",""
"","null","html-keyboard-response","142","367434","0.0-29.0-0.4","SS1613100636000","","","null","","","","","<p><img src= images/blank.png width =""200"" height = ""200"" style = ""float:right""></p><p><img src=images/blank.png width =""800"" height = ""200""></p>","","","","","","","","","","","",""
"","1051.5400000149384","sequential-stimulus-presentation","143","369296","0.0-29.0-1.4","SS1613100636000","trial","","40","800","1851.5400000149384","images/stimuli/spore_stims/complex_15_B_d.gif","images/stimuli/spore_stims/complex_03_A_a.gif","","","","","7","complex_dissimilar","images/stimuli/spore_stims/complex_03_A_a.gif","right","","","","",""
"","null","html-keyboard-response","144","370555","0.0-29.0-0.5","SS1613100636000","","","null","","","","","<p><img src= images/blank.png width =""200"" height = ""200"" style = ""float:right""></p><p><img src=images/blank.png width =""800"" height = ""200""></p>","","","","","","","","","","","",""
"","570.9849999984726","sequential-stimulus-presentation","145","371935","0.0-29.0-1.5","SS1613100636000","trial","","40","800","1370.9849999984726","images/stimuli/spore_stims/complex_15_B_d.gif","images/stimuli/spore_stims/complex_03_A_a.gif","","","","","7","complex_dissimilar","images/stimuli/spore_stims/complex_03_A_a.gif","right","","","","",""
"","null","html-keyboard-response","146","373108","0.0-29.0-0.6","SS1613100636000","","","null","","","","","<p><img src= images/blank.png width =""200"" height = ""200"" style = ""float:right""></p><p><img src=images/blank.png width =""800"" height = ""200""></p>","","","","","","","","","","","",""
"","1549.3400000268593","sequential-stimulus-presentation","147","375463","0.0-29.0-1.6","SS1613100636000","trial","","40","800","2349.3400000268593","images/stimuli/spore_stims/complex_15_B_d.gif","images/stimuli/spore_stims/complex_03_A_a.gif","","","","","7","complex_dissimilar","images/stimuli/spore_stims/complex_03_A_a.gif","right","","","","",""
"","null","html-keyboard-response","148","376516","0.0-29.0-0.7","SS1613100636000","","","null","","","","","<p><img src= images/blank.png width =""200"" height = ""200"" style = ""float:right""></p><p><img src=images/blank.png width =""800"" height = ""200""></p>","","","","","","","","","","","",""
"","1767.0699999434873","sequential-stimulus-presentation","149","379088","0.0-29.0-1.7","SS1613100636000","trial","","40","800","2567.0699999434873","images/stimuli/spore_stims/complex_15_B_d.gif","images/stimuli/spore_stims/complex_03_A_a.gif","","","","","7","complex_dissimilar","images/stimuli/spore_stims/complex_03_A_a.gif","right","","","","",""
"","1514.6749999839813","html-keyboard-response","150","380607","0.0-30.0","SS1613100636000","pref_question","","49","","","","","<video width ='960' height = '540' style='padding-top:8%' autoplay muted><source src='images/stimuli/wall_pref.mp4' type='video/mp4'></video>","1","left","25%","7","","","","","","","",""
"","7843.789999955334","sequential-stimulus-presentation","151","389257","0.0-31.0","SS1613100636000","pref_reveal","","40","800","8643.789999955334","null","null","","","","","7","","","","novel","","","",""
"","null","html-keyboard-response","152","390316","0.0-32.0-0.0","SS1613100636000","","","null","","","","","<p><img src= images/blank.png width =""200"" height = ""200"" style = ""float:right""></p><p><img src=images/blank.png width =""800"" height = ""200""></p>","","","","","","","","","","","",""
"","1203.9649999933317","sequential-stimulus-presentation","153","392327","0.0-32.0-1.0","SS1613100636000","trial","","40","800","2003.9649999933317","images/stimuli/spore_stims/simple_17_B_c.gif","images/stimuli/spore_stims/simple_17_A_c.gif","","","","","8","simple_similar","images/stimuli/spore_stims/simple_17_A_c.gif","left","","","","",""
"","null","html-keyboard-response","154","393342","0.0-32.0-0.1","SS1613100636000","","","null","","","","","<p><img src= images/blank.png width =""200"" height = ""200"" style = ""float:right""></p><p><img src=images/blank.png width =""800"" height = ""200""></p>","","","","","","","","","","","",""
"","775.0650000525638","sequential-stimulus-presentation","155","394927","0.0-32.0-1.1","SS1613100636000","trial","","40","800","1575.0650000525638","images/stimuli/spore_stims/simple_17_B_c.gif","images/stimuli/spore_stims/simple_17_A_c.gif","","","","","8","simple_similar","images/stimuli/spore_stims/simple_17_A_c.gif","left","","","","",""
"","null","html-keyboard-response","156","396220","0.0-32.0-0.2","SS1613100636000","","","null","","","","","<p><img src= images/blank.png width =""200"" height = ""200"" style = ""float:right""></p><p><img src=images/blank.png width =""800"" height = ""200""></p>","","","","","","","","","","","",""
"","841.7800000170246","sequential-stimulus-presentation","157","397870","0.0-32.0-1.2","SS1613100636000","trial","","40","800","1641.7800000170246","images/stimuli/spore_stims/simple_17_B_c.gif","images/stimuli/spore_stims/simple_17_A_c.gif","","","","","8","simple_similar","images/stimuli/spore_stims/simple_17_B_c.gif","middle","","","","",""
"","null","html-keyboard-response","158","398687","0.0-32.0-0.3","SS1613100636000","","","null","","","","","<p><img src= images/blank.png width =""200"" height = ""200"" style = ""float:right""></p><p><img src=images/blank.png width =""800"" height = ""200""></p>","","","","","","","","","","","",""
"","927.5549999438226","sequential-stimulus-presentation","159","400447","0.0-32.0-1.3","SS1613100636000","trial","","40","800","1727.5549999438226","images/stimuli/spore_stims/simple_17_B_c.gif","images/stimuli/spore_stims/simple_17_A_c.gif","","","","","8","simple_similar","images/stimuli/spore_stims/simple_17_A_c.gif","left","","","","",""
"","null","html-keyboard-response","160","401409","0.0-32.0-0.4","SS1613100636000","","","null","","","","","<p><img src= images/blank.png width =""200"" height = ""200"" style = ""float:right""></p><p><img src=images/blank.png width =""800"" height = ""200""></p>","","","","","","","","","","","",""
"","926.6549999592826","sequential-stimulus-presentation","161","403143","0.0-32.0-1.4","SS1613100636000","trial","","40","800","1726.6549999592826","images/stimuli/spore_stims/simple_17_B_c.gif","images/stimuli/spore_stims/simple_17_A_c.gif","","","","","8","simple_similar","images/stimuli/spore_stims/simple_17_A_c.gif","left","","","","",""
"","null","html-keyboard-response","162","403977","0.0-32.0-0.5","SS1613100636000","","","null","","","","","<p><img src= images/blank.png width =""200"" height = ""200"" style = ""float:right""></p><p><img src=images/blank.png width =""800"" height = ""200""></p>","","","","","","","","","","","",""
"","790.235000080429","sequential-stimulus-presentation","163","405574","0.0-32.0-1.5","SS1613100636000","trial","","40","800","1590.235000080429","images/stimuli/spore_stims/simple_17_B_c.gif","images/stimuli/spore_stims/simple_17_A_c.gif","","","","","8","simple_similar","images/stimuli/spore_stims/simple_17_A_c.gif","left","","","","",""
"","null","html-keyboard-response","164","406849","0.0-32.0-0.6","SS1613100636000","","","null","","","","","<p><img src= images/blank.png width =""200"" height = ""200"" style = ""float:right""></p><p><img src=images/blank.png width =""800"" height = ""200""></p>","","","","","","","","","","","",""
"","295.6750000594184","sequential-stimulus-presentation","165","407950","0.0-32.0-1.6","SS1613100636000","trial","","40","800","1095.6750000594184","images/stimuli/spore_stims/simple_17_B_c.gif","images/stimuli/spore_stims/simple_17_A_c.gif","","","","","8","simple_similar","images/stimuli/spore_stims/simple_17_A_c.gif","left","","","","",""
"","null","html-keyboard-response","166","409132","0.0-32.0-0.7","SS1613100636000","","","null","","","","","<p><img src= images/blank.png width =""200"" height = ""200"" style = ""float:right""></p><p><img src=images/blank.png width =""800"" height = ""200""></p>","","","","","","","","","","","",""
"","333.49500002805144","sequential-stimulus-presentation","167","410271","0.0-32.0-1.7","SS1613100636000","trial","","40","800","1133.4950000280514","images/stimuli/spore_stims/simple_17_B_c.gif","images/stimuli/spore_stims/simple_17_A_c.gif","","","","","8","simple_similar","images/stimuli/spore_stims/simple_17_A_c.gif","left","","","","",""
"","1938.0850000306964","html-keyboard-response","168","412215","0.0-33.0","SS1613100636000","pref_question","","50","","","","","<video width ='960' height = '540' style='padding-top:8%' autoplay muted><source src='images/stimuli/wall_pref.mp4' type='video/mp4'></video>","2","middle","45%","8","","","","","","","",""
"","967.9550000000745","sequential-stimulus-presentation","169","413990","0.0-34.0","SS1613100636000","pref_reveal","","40","800","1767.9550000000745","null","null","","","","","8","","","","deviant","","","",""
"","null","html-keyboard-response","170","414900","0.0-35.0-0.0","SS1613100636000","","","null","","","","","<p><img src= images/blank.png width =""200"" height = ""200"" style = ""float:right""></p><p><img src=images/blank.png width =""800"" height = ""200""></p>","","","","","","","","","","","",""
"","2370.8349999506027","sequential-stimulus-presentation","171","418078","0.0-35.0-1.0","SS1613100636000","trial","","40","800","3170.8349999506027","images/stimuli/spore_stims/complex_05_A_d.gif","images/stimuli/spore_stims/complex_16_B_b.gif","","","","","9","complex_dissimilar","images/stimuli/spore_stims/complex_16_B_b.gif","left","","","","",""
"","null","html-keyboard-response","172","418890","0.0-35.0-0.1","SS1613100636000","","","null","","","","","<p><img src= images/blank.png width =""200"" height = ""200"" style = ""float:right""></p><p><img src=images/blank.png width =""800"" height = ""200""></p>","","","","","","","","","","","",""
"","1397.1749999327585","sequential-stimulus-presentation","173","421094","0.0-35.0-1.1","SS1613100636000","trial","","40","800","2197.1749999327585","images/stimuli/spore_stims/complex_05_A_d.gif","images/stimuli/spore_stims/complex_16_B_b.gif","","","","","9","complex_dissimilar","images/stimuli/spore_stims/complex_16_B_b.gif","left","","","","",""
"","null","html-keyboard-response","174","422284","0.0-35.0-0.2","SS1613100636000","","","null","","","","","<p><img src= images/blank.png width =""200"" height = ""200"" style = ""float:right""></p><p><img src=images/blank.png width =""800"" height = ""200""></p>","","","","","","","","","","","",""
"","1003.3399999374524","sequential-stimulus-presentation","175","424094","0.0-35.0-1.2","SS1613100636000","trial","","40","800","1803.3399999374524","images/stimuli/spore_stims/complex_05_A_d.gif","images/stimuli/spore_stims/complex_16_B_b.gif","","","","","9","complex_dissimilar","images/stimuli/spore_stims/complex_16_B_b.gif","left","","","","",""
"","null","html-keyboard-response","176","425064","0.0-35.0-0.3","SS1613100636000","","","null","","","","","<p><img src= images/blank.png width =""200"" height = ""200"" style = ""float:right""></p><p><img src=images/blank.png width =""800"" height = ""200""></p>","","","","","","","","","","","",""
"","796.5799999656156","sequential-stimulus-presentation","177","426670","0.0-35.0-1.3","SS1613100636000","trial","","40","800","1596.5799999656156","images/stimuli/spore_stims/complex_05_A_d.gif","images/stimuli/spore_stims/complex_16_B_b.gif","","","","","9","complex_dissimilar","images/stimuli/spore_stims/complex_16_B_b.gif","left","","","","",""
"","null","html-keyboard-response","178","427769","0.0-35.0-0.4","SS1613100636000","","","null","","","","","<p><img src= images/blank.png width =""200"" height = ""200"" style = ""float:right""></p><p><img src=images/blank.png width =""800"" height = ""200""></p>","","","","","","","","","","","",""
"","938.8850000686944","sequential-stimulus-presentation","179","429518","0.0-35.0-1.4","SS1613100636000","trial","","40","800","1738.8850000686944","images/stimuli/spore_stims/complex_05_A_d.gif","images/stimuli/spore_stims/complex_16_B_b.gif","","","","","9","complex_dissimilar","images/stimuli/spore_stims/complex_16_B_b.gif","left","","","","",""
"","null","html-keyboard-response","180","430660","0.0-35.0-0.5","SS1613100636000","","","null","","","","","<p><img src= images/blank.png width =""200"" height = ""200"" style = ""float:right""></p><p><img src=images/blank.png width =""800"" height = ""200""></p>","","","","","","","","","","","",""
"","1930.7699999772012","sequential-stimulus-presentation","181","433398","0.0-35.0-1.5","SS1613100636000","trial","","40","800","2730.769999977201","images/stimuli/spore_stims/complex_05_A_d.gif","images/stimuli/spore_stims/complex_16_B_b.gif","","","","","9","complex_dissimilar","images/stimuli/spore_stims/complex_05_A_d.gif","right","","","","",""
"","null","html-keyboard-response","182","434689","0.0-35.0-0.6","SS1613100636000","","","null","","","","","<p><img src= images/blank.png width =""200"" height = ""200"" style = ""float:right""></p><p><img src=images/blank.png width =""800"" height = ""200""></p>","","","","","","","","","","","",""
"","630.8800000697374","sequential-stimulus-presentation","183","436127","0.0-35.0-1.6","SS1613100636000","trial","","40","800","1430.8800000697374","images/stimuli/spore_stims/complex_05_A_d.gif","images/stimuli/spore_stims/complex_16_B_b.gif","","","","","9","complex_dissimilar","images/stimuli/spore_stims/complex_16_B_b.gif","left","","","","",""
"","null","html-keyboard-response","184","436949","0.0-35.0-0.7","SS1613100636000","","","null","","","","","<p><img src= images/blank.png width =""200"" height = ""200"" style = ""float:right""></p><p><img src=images/blank.png width =""800"" height = ""200""></p>","","","","","","","","","","","",""
"","915.5099999625236","sequential-stimulus-presentation","185","438670","0.0-35.0-1.7","SS1613100636000","trial","","40","800","1715.5099999625236","images/stimuli/spore_stims/complex_05_A_d.gif","images/stimuli/spore_stims/complex_16_B_b.gif","","","","","9","complex_dissimilar","images/stimuli/spore_stims/complex_16_B_b.gif","left","","","","",""
"","1827.030000044033","html-keyboard-response","186","440502","0.0-36.0","SS1613100636000","pref_question","","50","","","","","<video width ='960' height = '540' style='padding-top:8%' autoplay muted><source src='images/stimuli/wall_pref.mp4' type='video/mp4'></video>","2","middle","45%","9","","","","","","","",""
"","2045.2049999730662","sequential-stimulus-presentation","187","443353","0.0-37.0","SS1613100636000","pref_reveal","","40","800","2845.204999973066","null","null","","","","","9","","","","novel","","","",""
"","null","html-keyboard-response","188","444388","0.0-38.0-0.0","SS1613100636000","","","null","","","","","<p><img src= images/blank.png width =""200"" height = ""200"" style = ""float:right""></p><p><img src=images/blank.png width =""800"" height = ""200""></p>","","","","","","","","","","","",""
"","994.6650000056252","sequential-stimulus-presentation","189","446190","0.0-38.0-1.0","SS1613100636000","trial","","40","800","1794.6650000056252","images/stimuli/spore_stims/complex_19_A_c.gif","images/stimuli/spore_stims/complex_19_B_c.gif","","","","","10","complex_similar","images/stimuli/spore_stims/complex_19_B_c.gif","left","","","","",""
"","null","html-keyboard-response","190","447334","0.0-38.0-0.1","SS1613100636000","","","null","","","","","<p><img src= images/blank.png width =""200"" height = ""200"" style = ""float:right""></p><p><img src=images/blank.png width =""800"" height = ""200""></p>","","","","","","","","","","","",""
"","423.81499998737127","sequential-stimulus-presentation","191","448566","0.0-38.0-1.1","SS1613100636000","trial","","40","800","1223.8149999873713","images/stimuli/spore_stims/complex_19_A_c.gif","images/stimuli/spore_stims/complex_19_B_c.gif","","","","","10","complex_similar","images/stimuli/spore_stims/complex_19_B_c.gif","left","","","","",""
"","null","html-keyboard-response","192","449694","0.0-38.0-0.2","SS1613100636000","","","null","","","","","<p><img src= images/blank.png width =""200"" height = ""200"" style = ""float:right""></p><p><img src=images/blank.png width =""800"" height = ""200""></p>","","","","","","","","","","","",""
"","406.0999999055639","sequential-stimulus-presentation","193","450909","0.0-38.0-1.2","SS1613100636000","trial","","40","800","1206.099999905564","images/stimuli/spore_stims/complex_19_A_c.gif","images/stimuli/spore_stims/complex_19_B_c.gif","","","","","10","complex_similar","images/stimuli/spore_stims/complex_19_B_c.gif","left","","","","",""
"","null","html-keyboard-response","194","452127","0.0-38.0-0.3","SS1613100636000","","","null","","","","","<p><img src= images/blank.png width =""200"" height = ""200"" style = ""float:right""></p><p><img src=images/blank.png width =""800"" height = ""200""></p>","","","","","","","","","","","",""
"","344.10500002559274","sequential-stimulus-presentation","195","453280","0.0-38.0-1.3","SS1613100636000","trial","","40","800","1144.1050000255927","images/stimuli/spore_stims/complex_19_A_c.gif","images/stimuli/spore_stims/complex_19_B_c.gif","","","","","10","complex_similar","images/stimuli/spore_stims/complex_19_B_c.gif","left","","","","",""
"","null","html-keyboard-response","196","454317","0.0-38.0-0.4","SS1613100636000","","","null","","","","","<p><img src= images/blank.png width =""200"" height = ""200"" style = ""float:right""></p><p><img src=images/blank.png width =""800"" height = ""200""></p>","","","","","","","","","","","",""
"","417.505000019446","sequential-stimulus-presentation","197","455541","0.0-38.0-1.4","SS1613100636000","trial","","40","800","1217.505000019446","images/stimuli/spore_stims/complex_19_A_c.gif","images/stimuli/spore_stims/complex_19_B_c.gif","","","","","10","complex_similar","images/stimuli/spore_stims/complex_19_B_c.gif","left","","","","",""
"","null","html-keyboard-response","198","456586","0.0-38.0-0.5","SS1613100636000","","","null","","","","","<p><img src= images/blank.png width =""200"" height = ""200"" style = ""float:right""></p><p><img src=images/blank.png width =""800"" height = ""200""></p>","","","","","","","","","","","",""
"","485.7499999925494","sequential-stimulus-presentation","199","457878","0.0-38.0-1.5","SS1613100636000","trial","","40","800","1285.7499999925494","images/stimuli/spore_stims/complex_19_A_c.gif","images/stimuli/spore_stims/complex_19_B_c.gif","","","","","10","complex_similar","images/stimuli/spore_stims/complex_19_B_c.gif","left","","","","",""
"","null","html-keyboard-response","200","458762","0.0-38.0-0.6","SS1613100636000","","","null","","","","","<p><img src= images/blank.png width =""200"" height = ""200"" style = ""float:right""></p><p><img src=images/blank.png width =""800"" height = ""200""></p>","","","","","","","","","","","",""
"","484.42999995313585","sequential-stimulus-presentation","201","460053","0.0-38.0-1.6","SS1613100636000","trial","","40","800","1284.4299999531358","images/stimuli/spore_stims/complex_19_A_c.gif","images/stimuli/spore_stims/complex_19_B_c.gif","","","","","10","complex_similar","images/stimuli/spore_stims/complex_19_B_c.gif","left","","","","",""
"","null","html-keyboard-response","202","461117","0.0-38.0-0.7","SS1613100636000","","","null","","","","","<p><img src= images/blank.png width =""200"" height = ""200"" style = ""float:right""></p><p><img src=images/blank.png width =""800"" height = ""200""></p>","","","","","","","","","","","",""
"","489.82000001706183","sequential-stimulus-presentation","203","462413","0.0-38.0-1.7","SS1613100636000","trial","","40","800","1289.8200000170618","images/stimuli/spore_stims/complex_19_A_c.gif","images/stimuli/spore_stims/complex_19_B_c.gif","","","","","10","complex_similar","images/stimuli/spore_stims/complex_19_A_c.gif","right","","","","",""
"","1594.7400000877678","html-keyboard-response","204","464013","0.0-39.0","SS1613100636000","pref_question","","51","","","","","<video width ='960' height = '540' style='padding-top:8%' autoplay muted><source src='images/stimuli/wall_pref.mp4' type='video/mp4'></video>","3","right","66%","10","","","","","","","",""
"","1102.8299999888986","sequential-stimulus-presentation","205","465925","0.0-40.0","SS1613100636000","pref_reveal","","40","800","1902.8299999888986","null","null","","","","","10","","","","deviant","","","",""
"","null","html-keyboard-response","206","466963","0.0-41.0-0.0","SS1613100636000","","","null","","","","","<p><img src= images/blank.png width =""200"" height = ""200"" style = ""float:right""></p><p><img src=images/blank.png width =""800"" height = ""200""></p>","","","","","","","","","","","",""
"","1355.7149999542162","sequential-stimulus-presentation","207","469144","0.0-41.0-1.0","SS1613100636000","trial","","40","800","2155.714999954216","images/stimuli/spore_stims/simple_08_A_a.gif","images/stimuli/spore_stims/simple_06_B_c.gif","","","","","11","simple_dissimilar","images/stimuli/spore_stims/simple_06_B_c.gif","middle","","","","",""
"","null","html-keyboard-response","208","470040","0.0-41.0-0.1","SS1613100636000","","","null","","","","","<p><img src= images/blank.png width =""200"" height = ""200"" style = ""float:right""></p><p><img src=images/blank.png width =""800"" height = ""200""></p>","","","","","","","","","","","",""
"","878.0200000619516","sequential-stimulus-presentation","209","471725","0.0-41.0-1.1","SS1613100636000","trial","","40","800","1678.0200000619516","images/stimuli/spore_stims/simple_08_A_a.gif","images/stimuli/spore_stims/simple_06_B_c.gif","","","","","11","simple_dissimilar","images/stimuli/spore_stims/simple_06_B_c.gif","middle","","","","",""
"","null","html-keyboard-response","210","472675","0.0-41.0-0.2","SS1613100636000","","","null","","","","","<p><img src= images/blank.png width =""200"" height = ""200"" style = ""float:right""></p><p><img src=images/blank.png width =""800"" height = ""200""></p>","","","","","","","","","","","",""
"","433.79499996080995","sequential-stimulus-presentation","211","473917","0.0-41.0-1.2","SS1613100636000","trial","","40","800","1233.79499996081","images/stimuli/spore_stims/simple_08_A_a.gif","images/stimuli/spore_stims/simple_06_B_c.gif","","","","","11","simple_dissimilar","images/stimuli/spore_stims/simple_06_B_c.gif","middle","","","","",""
"","null","html-keyboard-response","212","474925","0.0-41.0-0.3","SS1613100636000","","","null","","","","","<p><img src= images/blank.png width =""200"" height = ""200"" style = ""float:right""></p><p><img src=images/blank.png width =""800"" height = ""200""></p>","","","","","","","","","","","",""
"","384.18000005185604","sequential-stimulus-presentation","213","476118","0.0-41.0-1.3","SS1613100636000","trial","","40","800","1184.180000051856","images/stimuli/spore_stims/simple_08_A_a.gif","images/stimuli/spore_stims/simple_06_B_c.gif","","","","","11","simple_dissimilar","images/stimuli/spore_stims/simple_06_B_c.gif","middle","","","","",""
"","null","html-keyboard-response","214","477162","0.0-41.0-0.4","SS1613100636000","","","null","","","","","<p><img src= images/blank.png width =""200"" height = ""200"" style = ""float:right""></p><p><img src=images/blank.png width =""800"" height = ""200""></p>","","","","","","","","","","","",""
"","1403.7300000200048","sequential-stimulus-presentation","215","479373","0.0-41.0-1.4","SS1613100636000","trial","","40","800","2203.730000020005","images/stimuli/spore_stims/simple_08_A_a.gif","images/stimuli/spore_stims/simple_06_B_c.gif","","","","","11","simple_dissimilar","images/stimuli/spore_stims/simple_06_B_c.gif","middle","","","","",""
"","null","html-keyboard-response","216","480570","0.0-41.0-0.5","SS1613100636000","","","null","","","","","<p><img src= images/blank.png width =""200"" height = ""200"" style = ""float:right""></p><p><img src=images/blank.png width =""800"" height = ""200""></p>","","","","","","","","","","","",""
"","931.0899999691173","sequential-stimulus-presentation","217","482308","0.0-41.0-1.5","SS1613100636000","trial","","40","800","1731.0899999691173","images/stimuli/spore_stims/simple_08_A_a.gif","images/stimuli/spore_stims/simple_06_B_c.gif","","","","","11","simple_dissimilar","images/stimuli/spore_stims/simple_06_B_c.gif","middle","","","","",""
"","null","html-keyboard-response","218","483558","0.0-41.0-0.6","SS1613100636000","","","null","","","","","<p><img src= images/blank.png width =""200"" height = ""200"" style = ""float:right""></p><p><img src=images/blank.png width =""800"" height = ""200""></p>","","","","","","","","","","","",""
"","429.7100000549108","sequential-stimulus-presentation","219","484797","0.0-41.0-1.6","SS1613100636000","trial","","40","800","1229.7100000549108","images/stimuli/spore_stims/simple_08_A_a.gif","images/stimuli/spore_stims/simple_06_B_c.gif","","","","","11","simple_dissimilar","images/stimuli/spore_stims/simple_06_B_c.gif","middle","","","","",""
"","null","html-keyboard-response","220","485888","0.0-41.0-0.7","SS1613100636000","","","null","","","","","<p><img src= images/blank.png width =""200"" height = ""200"" style = ""float:right""></p><p><img src=images/blank.png width =""800"" height = ""200""></p>","","","","","","","","","","","",""
"","1918.2049999944866","sequential-stimulus-presentation","221","488613","0.0-41.0-1.7","SS1613100636000","trial","","40","800","2718.2049999944866","images/stimuli/spore_stims/simple_08_A_a.gif","images/stimuli/spore_stims/simple_06_B_c.gif","","","","","11","simple_dissimilar","images/stimuli/spore_stims/simple_08_A_a.gif","left","","","","",""
"","1339.4149999367073","html-keyboard-response","222","489957","0.0-42.0","SS1613100636000","pref_question","","49","","","","","<video width ='960' height = '540' style='padding-top:8%' autoplay muted><source src='images/stimuli/wall_pref.mp4' type='video/mp4'></video>","1","left","25%","11","","","","","","","",""
"","1072.319999919273","sequential-stimulus-presentation","223","491836","0.0-43.0","SS1613100636000","pref_reveal","","40","800","1872.319999919273","null","null","","","","","11","","","","deviant","","","",""
"","null","html-keyboard-response","224","493016","0.0-44.0-0.0","SS1613100636000","","","null","","","","","<p><img src= images/blank.png width =""200"" height = ""200"" style = ""float:right""></p><p><img src=images/blank.png width =""800"" height = ""200""></p>","","","","","","","","","","","",""
"","1073.5700000077486","sequential-stimulus-presentation","225","494900","0.0-44.0-1.0","SS1613100636000","trial","","40","800","1873.5700000077486","images/stimuli/spore_stims/complex_10_B_d.gif","images/stimuli/spore_stims/complex_10_A_d.gif","","","","","12","complex_similar","images/stimuli/spore_stims/complex_10_A_d.gif","middle","","","","",""
"","null","html-keyboard-response","226","496127","0.0-44.0-0.1","SS1613100636000","","","null","","","","","<p><img src= images/blank.png width =""200"" height = ""200"" style = ""float:right""></p><p><img src=images/blank.png width =""800"" height = ""200""></p>","","","","","","","","","","","",""
"","669.5049999980256","sequential-stimulus-presentation","227","497604","0.0-44.0-1.1","SS1613100636000","trial","","40","800","1469.5049999980256","images/stimuli/spore_stims/complex_10_B_d.gif","images/stimuli/spore_stims/complex_10_A_d.gif","","","","","12","complex_similar","images/stimuli/spore_stims/complex_10_A_d.gif","middle","","","","",""
"","null","html-keyboard-response","228","498812","0.0-44.0-0.2","SS1613100636000","","","null","","","","","<p><img src= images/blank.png width =""200"" height = ""200"" style = ""float:right""></p><p><img src=images/blank.png width =""800"" height = ""200""></p>","","","","","","","","","","","",""
"","406.36499994434416","sequential-stimulus-presentation","229","500029","0.0-44.0-1.2","SS1613100636000","trial","","40","800","1206.3649999443442","images/stimuli/spore_stims/complex_10_B_d.gif","images/stimuli/spore_stims/complex_10_A_d.gif","","","","","12","complex_similar","images/stimuli/spore_stims/complex_10_B_d.gif","left","","","","",""
"","null","html-keyboard-response","230","500960","0.0-44.0-0.3","SS1613100636000","","","null","","","","","<p><img src= images/blank.png width =""200"" height = ""200"" style = ""float:right""></p><p><img src=images/blank.png width =""800"" height = ""200""></p>","","","","","","","","","","","",""
"","771.7300000367686","sequential-stimulus-presentation","231","502540","0.0-44.0-1.3","SS1613100636000","trial","","40","800","1571.7300000367686","images/stimuli/spore_stims/complex_10_B_d.gif","images/stimuli/spore_stims/complex_10_A_d.gif","","","","","12","complex_similar","images/stimuli/spore_stims/complex_10_A_d.gif","middle","","","","",""
"","null","html-keyboard-response","232","503638","0.0-44.0-0.4","SS1613100636000","","","null","","","","","<p><img src= images/blank.png width =""200"" height = ""200"" style = ""float:right""></p><p><img src=images/blank.png width =""800"" height = ""200""></p>","","","","","","","","","","","",""
"","703.3999999985099","sequential-stimulus-presentation","233","505151","0.0-44.0-1.4","SS1613100636000","trial","","40","800","1503.3999999985099","images/stimuli/spore_stims/complex_10_B_d.gif","images/stimuli/spore_stims/complex_10_A_d.gif","","","","","12","complex_similar","images/stimuli/spore_stims/complex_10_A_d.gif","middle","","","","",""
"","null","html-keyboard-response","234","506012","0.0-44.0-0.5","SS1613100636000","","","null","","","","","<p><img src= images/blank.png width =""200"" height = ""200"" style = ""float:right""></p><p><img src=images/blank.png width =""800"" height = ""200""></p>","","","","","","","","","","","",""
"","1070.27000002563","sequential-stimulus-presentation","235","507892","0.0-44.0-1.5","SS1613100636000","trial","","40","800","1870.27000002563","images/stimuli/spore_stims/complex_10_B_d.gif","images/stimuli/spore_stims/complex_10_A_d.gif","","","","","12","complex_similar","images/stimuli/spore_stims/complex_10_A_d.gif","middle","","","","",""
"","null","html-keyboard-response","236","508928","0.0-44.0-0.6","SS1613100636000","","","null","","","","","<p><img src= images/blank.png width =""200"" height = ""200"" style = ""float:right""></p><p><img src=images/blank.png width =""800"" height = ""200""></p>","","","","","","","","","","","",""
"","634.349999949336","sequential-stimulus-presentation","237","510372","0.0-44.0-1.6","SS1613100636000","trial","","40","800","1434.349999949336","images/stimuli/spore_stims/complex_10_B_d.gif","images/stimuli/spore_stims/complex_10_A_d.gif","","","","","12","complex_similar","images/stimuli/spore_stims/complex_10_A_d.gif","middle","","","","",""
"","null","html-keyboard-response","238","511444","0.0-44.0-0.7","SS1613100636000","","","null","","","","","<p><img src= images/blank.png width =""200"" height = ""200"" style = ""float:right""></p><p><img src=images/blank.png width =""800"" height = ""200""></p>","","","","","","","","","","","",""
"","623.9899999927729","sequential-stimulus-presentation","239","512876","0.0-44.0-1.7","SS1613100636000","trial","","40","800","1423.989999992773","images/stimuli/spore_stims/complex_10_B_d.gif","images/stimuli/spore_stims/complex_10_A_d.gif","","","","","12","complex_similar","images/stimuli/spore_stims/complex_10_A_d.gif","middle","","","","",""
"","1514.3300000345334","html-keyboard-response","240","514396","0.0-45.0","SS1613100636000","pref_question","","51","","","","","<video width ='960' height = '540' style='padding-top:8%' autoplay muted><source src='images/stimuli/wall_pref.mp4' type='video/mp4'></video>","3","right","66%","12","","","","","","","",""
"","2223.8750000251457","sequential-stimulus-presentation","241","517428","0.0-46.0","SS1613100636000","pref_reveal","","40","800","3023.8750000251457","null","null","","","","","12","","","","novel","","","",""
"","null","html-keyboard-response","242","518252","0.0-47.0-0.0","SS1613100636000","","","null","","","","","<p><img src= images/blank.png width =""200"" height = ""200"" style = ""float:right""></p><p><img src=images/blank.png width =""800"" height = ""200""></p>","","","","","","","","","","","",""
"","1503.2849999843165","sequential-stimulus-presentation","243","520564","0.0-47.0-1.0","SS1613100636000","trial","","40","800","2303.2849999843165","images/stimuli/spore_stims/complex_16_A_c.gif","images/stimuli/spore_stims/complex_13_A_c.gif","","","","","13","complex_dissimilar","images/stimuli/spore_stims/complex_13_A_c.gif","left","","","","",""
"","null","html-keyboard-response","244","521607","0.0-47.0-0.1","SS1613100636000","","","null","","","","","<p><img src= images/blank.png width =""200"" height = ""200"" style = ""float:right""></p><p><img src=images/blank.png width =""800"" height = ""200""></p>","","","","","","","","","","","",""
"","603.1749999383464","sequential-stimulus-presentation","245","523020","0.0-47.0-1.1","SS1613100636000","trial","","40","800","1403.1749999383464","images/stimuli/spore_stims/complex_16_A_c.gif","images/stimuli/spore_stims/complex_13_A_c.gif","","","","","13","complex_dissimilar","images/stimuli/spore_stims/complex_13_A_c.gif","left","","","","",""
"","null","html-keyboard-response","246","524077","0.0-47.0-0.2","SS1613100636000","","","null","","","","","<p><img src= images/blank.png width =""200"" height = ""200"" style = ""float:right""></p><p><img src=images/blank.png width =""800"" height = ""200""></p>","","","","","","","","","","","",""
"","534.9450000794604","sequential-stimulus-presentation","247","525420","0.0-47.0-1.2","SS1613100636000","trial","","40","800","1334.9450000794604","images/stimuli/spore_stims/complex_16_A_c.gif","images/stimuli/spore_stims/complex_13_A_c.gif","","","","","13","complex_dissimilar","images/stimuli/spore_stims/complex_13_A_c.gif","left","","","","",""
"","null","html-keyboard-response","248","526290","0.0-47.0-0.3","SS1613100636000","","","null","","","","","<p><img src= images/blank.png width =""200"" height = ""200"" style = ""float:right""></p><p><img src=images/blank.png width =""800"" height = ""200""></p>","","","","","","","","","","","",""
"","850.1149999210611","sequential-stimulus-presentation","249","527948","0.0-47.0-1.3","SS1613100636000","trial","","40","800","1650.114999921061","images/stimuli/spore_stims/complex_16_A_c.gif","images/stimuli/spore_stims/complex_13_A_c.gif","","","","","13","complex_dissimilar","images/stimuli/spore_stims/complex_13_A_c.gif","left","","","","",""
"","null","html-keyboard-response","250","529193","0.0-47.0-0.4","SS1613100636000","","","null","","","","","<p><img src= images/blank.png width =""200"" height = ""200"" style = ""float:right""></p><p><img src=images/blank.png width =""800"" height = ""200""></p>","","","","","","","","","","","",""
"","651.0049999924377","sequential-stimulus-presentation","251","530652","0.0-47.0-1.4","SS1613100636000","trial","","40","800","1451.0049999924377","images/stimuli/spore_stims/complex_16_A_c.gif","images/stimuli/spore_stims/complex_13_A_c.gif","","","","","13","complex_dissimilar","images/stimuli/spore_stims/complex_13_A_c.gif","left","","","","",""
"","null","html-keyboard-response","252","531667","0.0-47.0-0.5","SS1613100636000","","","null","","","","","<p><img src= images/blank.png width =""200"" height = ""200"" style = ""float:right""></p><p><img src=images/blank.png width =""800"" height = ""200""></p>","","","","","","","","","","","",""
"","424.4800000451505","sequential-stimulus-presentation","253","532900","0.0-47.0-1.5","SS1613100636000","trial","","40","800","1224.4800000451505","images/stimuli/spore_stims/complex_16_A_c.gif","images/stimuli/spore_stims/complex_13_A_c.gif","","","","","13","complex_dissimilar","images/stimuli/spore_stims/complex_13_A_c.gif","left","","","","",""
"","null","html-keyboard-response","254","533851","0.0-47.0-0.6","SS1613100636000","","","null","","","","","<p><img src= images/blank.png width =""200"" height = ""200"" style = ""float:right""></p><p><img src=images/blank.png width =""800"" height = ""200""></p>","","","","","","","","","","","",""
"","1144.1549999872223","sequential-stimulus-presentation","255","535805","0.0-47.0-1.6","SS1613100636000","trial","","40","800","1944.1549999872223","images/stimuli/spore_stims/complex_16_A_c.gif","images/stimuli/spore_stims/complex_13_A_c.gif","","","","","13","complex_dissimilar","images/stimuli/spore_stims/complex_16_A_c.gif","middle","","","","",""
"","null","html-keyboard-response","256","536741","0.0-47.0-0.7","SS1613100636000","","","null","","","","","<p><img src= images/blank.png width =""200"" height = ""200"" style = ""float:right""></p><p><img src=images/blank.png width =""800"" height = ""200""></p>","","","","","","","","","","","",""
"","620.1100000180304","sequential-stimulus-presentation","257","538171","0.0-47.0-1.7","SS1613100636000","trial","","40","800","1420.1100000180304","images/stimuli/spore_stims/complex_16_A_c.gif","images/stimuli/spore_stims/complex_13_A_c.gif","","","","","13","complex_dissimilar","images/stimuli/spore_stims/complex_13_A_c.gif","left","","","","",""
"","1594.0799999516457","html-keyboard-response","258","539771","0.0-48.0","SS1613100636000","pref_question","","50","","","","","<video width ='960' height = '540' style='padding-top:8%' autoplay muted><source src='images/stimuli/wall_pref.mp4' type='video/mp4'></video>","2","middle","45%","13","","","","","","","",""
"","1886.4599999506027","sequential-stimulus-presentation","259","542468","0.0-49.0","SS1613100636000","pref_reveal","","40","800","2686.4599999506027","null","null","","","","","13","","","","deviant","","","",""
"","null","html-keyboard-response","260","543768","0.0-50.0-0.0","SS1613100636000","","","null","","","","","<p><img src= images/blank.png width =""200"" height = ""200"" style = ""float:right""></p><p><img src=images/blank.png width =""800"" height = ""200""></p>","","","","","","","","","","","",""
"","1258.460000040941","sequential-stimulus-presentation","261","545835","0.0-50.0-1.0","SS1613100636000","trial","","40","800","2058.460000040941","images/stimuli/spore_stims/simple_01_A_d.gif","images/stimuli/spore_stims/simple_14_A_b.gif","","","","","14","simple_dissimilar","images/stimuli/spore_stims/simple_14_A_b.gif","left","","","","",""
"","null","html-keyboard-response","262","546746","0.0-50.0-0.1","SS1613100636000","","","null","","","","","<p><img src= images/blank.png width =""200"" height = ""200"" style = ""float:right""></p><p><img src=images/blank.png width =""800"" height = ""200""></p>","","","","","","","","","","","",""
"","1090.639999951236","sequential-stimulus-presentation","263","548643","0.0-50.0-1.1","SS1613100636000","trial","","40","800","1890.639999951236","images/stimuli/spore_stims/simple_01_A_d.gif","images/stimuli/spore_stims/simple_14_A_b.gif","","","","","14","simple_dissimilar","images/stimuli/spore_stims/simple_14_A_b.gif","left","","","","",""
"","null","html-keyboard-response","264","549573","0.0-50.0-0.2","SS1613100636000","","","null","","","","","<p><img src= images/blank.png width =""200"" height = ""200"" style = ""float:right""></p><p><img src=images/blank.png width =""800"" height = ""200""></p>","","","","","","","","","","","",""
"","1108.3050000015646","sequential-stimulus-presentation","265","551491","0.0-50.0-1.2","SS1613100636000","trial","","40","800","1908.3050000015646","images/stimuli/spore_stims/simple_01_A_d.gif","images/stimuli/spore_stims/simple_14_A_b.gif","","","","","14","simple_dissimilar","images/stimuli/spore_stims/simple_14_A_b.gif","left","","","","",""
"","null","html-keyboard-response","266","552429","0.0-50.0-0.3","SS1613100636000","","","null","","","","","<p><img src= images/blank.png width =""200"" height = ""200"" style = ""float:right""></p><p><img src=images/blank.png width =""800"" height = ""200""></p>","","","","","","","","","","","",""
"","848.2650000369176","sequential-stimulus-presentation","267","554084","0.0-50.0-1.3","SS1613100636000","trial","","40","800","1648.2650000369176","images/stimuli/spore_stims/simple_01_A_d.gif","images/stimuli/spore_stims/simple_14_A_b.gif","","","","","14","simple_dissimilar","images/stimuli/spore_stims/simple_14_A_b.gif","left","","","","",""
"","null","html-keyboard-response","268","555321","0.0-50.0-0.4","SS1613100636000","","","null","","","","","<p><img src= images/blank.png width =""200"" height = ""200"" style = ""float:right""></p><p><img src=images/blank.png width =""800"" height = ""200""></p>","","","","","","","","","","","",""
"","973.0699999490753","sequential-stimulus-presentation","269","557101","0.0-50.0-1.4","SS1613100636000","trial","","40","800","1773.0699999490753","images/stimuli/spore_stims/simple_01_A_d.gif","images/stimuli/spore_stims/simple_14_A_b.gif","","","","","14","simple_dissimilar","images/stimuli/spore_stims/simple_14_A_b.gif","left","","","","",""
"","null","html-keyboard-response","270","558371","0.0-50.0-0.5","SS1613100636000","","","null","","","","","<p><img src= images/blank.png width =""200"" height = ""200"" style = ""float:right""></p><p><img src=images/blank.png width =""800"" height = ""200""></p>","","","","","","","","","","","",""
"","894.984999904409","sequential-stimulus-presentation","271","560075","0.0-50.0-1.5","SS1613100636000","trial","","40","800","1694.984999904409","images/stimuli/spore_stims/simple_01_A_d.gif","images/stimuli/spore_stims/simple_14_A_b.gif","","","","","14","simple_dissimilar","images/stimuli/spore_stims/simple_14_A_b.gif","left","","","","",""
"","null","html-keyboard-response","272","561266","0.0-50.0-0.6","SS1613100636000","","","null","","","","","<p><img src= images/blank.png width =""200"" height = ""200"" style = ""float:right""></p><p><img src=images/blank.png width =""800"" height = ""200""></p>","","","","","","","","","","","",""
"","384.4850000459701","sequential-stimulus-presentation","273","562459","0.0-50.0-1.6","SS1613100636000","trial","","40","800","1184.48500004597","images/stimuli/spore_stims/simple_01_A_d.gif","images/stimuli/spore_stims/simple_14_A_b.gif","","","","","14","simple_dissimilar","images/stimuli/spore_stims/simple_14_A_b.gif","left","","","","",""
"","null","html-keyboard-response","274","563701","0.0-50.0-0.7","SS1613100636000","","","null","","","","","<p><img src= images/blank.png width =""200"" height = ""200"" style = ""float:right""></p><p><img src=images/blank.png width =""800"" height = ""200""></p>","","","","","","","","","","","",""
"","1770.4399999929592","sequential-stimulus-presentation","275","566283","0.0-50.0-1.7","SS1613100636000","trial","","40","800","2570.439999992959","images/stimuli/spore_stims/simple_01_A_d.gif","images/stimuli/spore_stims/simple_14_A_b.gif","","","","","14","simple_dissimilar","images/stimuli/spore_stims/simple_01_A_d.gif","right","","","","",""
"","1712.9299999214709","html-keyboard-response","276","568003","0.0-51.0","SS1613100636000","pref_question","","51","","","","","<video width ='960' height = '540' style='padding-top:8%' autoplay muted><source src='images/stimuli/wall_pref.mp4' type='video/mp4'></video>","3","right","66%","14","","","","","","","",""
"","3400.5200000246987","sequential-stimulus-presentation","277","572211","0.0-52.0","SS1613100636000","pref_reveal","","40","800","4200.520000024699","null","null","","","","","14","","","","deviant","","","",""
"","null","html-keyboard-response","278","573517","0.0-53.0-0.0","SS1613100636000","","","null","","","","","<p><img src= images/blank.png width =""200"" height = ""200"" style = ""float:right""></p><p><img src=images/blank.png width =""800"" height = ""200""></p>","","","","","","","","","","","",""
"","1433.8449999922886","sequential-stimulus-presentation","279","575787","0.0-53.0-1.0","SS1613100636000","trial","","40","800","2233.8449999922886","images/stimuli/spore_stims/simple_12_B_a.gif","images/stimuli/spore_stims/simple_09_A_c.gif","","","","","15","simple_dissimilar","images/stimuli/spore_stims/simple_09_A_c.gif","right","","","","",""
"","null","html-keyboard-response","280","576826","0.0-53.0-0.1","SS1613100636000","","","null","","","","","<p><img src= images/blank.png width =""200"" height = ""200"" style = ""float:right""></p><p><img src=images/blank.png width =""800"" height = ""200""></p>","","","","","","","","","","","",""
"","807.825000025332","sequential-stimulus-presentation","281","578443","0.0-53.0-1.1","SS1613100636000","trial","","40","800","1607.825000025332","images/stimuli/spore_stims/simple_12_B_a.gif","images/stimuli/spore_stims/simple_09_A_c.gif","","","","","15","simple_dissimilar","images/stimuli/spore_stims/simple_09_A_c.gif","right","","","","",""
"","null","html-keyboard-response","282","579316","0.0-53.0-0.2","SS1613100636000","","","null","","","","","<p><img src= images/blank.png width =""200"" height = ""200"" style = ""float:right""></p><p><img src=images/blank.png width =""800"" height = ""200""></p>","","","","","","","","","","","",""
"","790.3099999530241","sequential-stimulus-presentation","283","580914","0.0-53.0-1.2","SS1613100636000","trial","","40","800","1590.309999953024","images/stimuli/spore_stims/simple_12_B_a.gif","images/stimuli/spore_stims/simple_09_A_c.gif","","","","","15","simple_dissimilar","images/stimuli/spore_stims/simple_09_A_c.gif","right","","","","",""
"","null","html-keyboard-response","284","582120","0.0-53.0-0.3","SS1613100636000","","","null","","","","","<p><img src= images/blank.png width =""200"" height = ""200"" style = ""float:right""></p><p><img src=images/blank.png width =""800"" height = ""200""></p>","","","","","","","","","","","",""
"","642.7799999946728","sequential-stimulus-presentation","285","583570","0.0-53.0-1.3","SS1613100636000","trial","","40","800","1442.7799999946728","images/stimuli/spore_stims/simple_12_B_a.gif","images/stimuli/spore_stims/simple_09_A_c.gif","","","","","15","simple_dissimilar","images/stimuli/spore_stims/simple_09_A_c.gif","right","","","","",""
"","null","html-keyboard-response","286","584400","0.0-53.0-0.4","SS1613100636000","","","null","","","","","<p><img src= images/blank.png width =""200"" height = ""200"" style = ""float:right""></p><p><img src=images/blank.png width =""800"" height = ""200""></p>","","","","","","","","","","","",""
"","1004.3050000676885","sequential-stimulus-presentation","287","586219","0.0-53.0-1.4","SS1613100636000","trial","","40","800","1804.3050000676885","images/stimuli/spore_stims/simple_12_B_a.gif","images/stimuli/spore_stims/simple_09_A_c.gif","","","","","15","simple_dissimilar","images/stimuli/spore_stims/simple_09_A_c.gif","right","","","","",""
"","null","html-keyboard-response","288","587450","0.0-53.0-0.5","SS1613100636000","","","null","","","","","<p><img src= images/blank.png width =""200"" height = ""200"" style = ""float:right""></p><p><img src=images/blank.png width =""800"" height = ""200""></p>","","","","","","","","","","","",""
"","1214.1100000590086","sequential-stimulus-presentation","289","589475","0.0-53.0-1.5","SS1613100636000","trial","","40","800","2014.1100000590086","images/stimuli/spore_stims/simple_12_B_a.gif","images/stimuli/spore_stims/simple_09_A_c.gif","","","","","15","simple_dissimilar","images/stimuli/spore_stims/simple_12_B_a.gif","left","","","","",""
"","null","html-keyboard-response","290","590450","0.0-53.0-0.6","SS1613100636000","","","null","","","","","<p><img src= images/blank.png width =""200"" height = ""200"" style = ""float:right""></p><p><img src=images/blank.png width =""800"" height = ""200""></p>","","","","","","","","","","","",""
"","584.3950000125915","sequential-stimulus-presentation","291","591842","0.0-53.0-1.6","SS1613100636000","trial","","40","800","1384.3950000125915","images/stimuli/spore_stims/simple_12_B_a.gif","images/stimuli/spore_stims/simple_09_A_c.gif","","","","","15","simple_dissimilar","images/stimuli/spore_stims/simple_09_A_c.gif","right","","","","",""
"","null","html-keyboard-response","292","592691","0.0-53.0-0.7","SS1613100636000","","","null","","","","","<p><img src= images/blank.png width =""200"" height = ""200"" style = ""float:right""></p><p><img src=images/blank.png width =""800"" height = ""200""></p>","","","","","","","","","","","",""
"","607.880000025034","sequential-stimulus-presentation","293","594108","0.0-53.0-1.7","SS1613100636000","trial","","40","800","1407.880000025034","images/stimuli/spore_stims/simple_12_B_a.gif","images/stimuli/spore_stims/simple_09_A_c.gif","","","","","15","simple_dissimilar","images/stimuli/spore_stims/simple_09_A_c.gif","right","","","","",""
"","1472.2749999491498","html-keyboard-response","294","595586","0.0-54.0","SS1613100636000","pref_question","","50","","","","","<video width ='960' height = '540' style='padding-top:8%' autoplay muted><source src='images/stimuli/wall_pref.mp4' type='video/mp4'></video>","2","middle","45%","15","","","","","","","",""
"","1214.96000001207","sequential-stimulus-presentation","295","597612","0.0-55.0","SS1613100636000","pref_reveal","","40","800","2014.96000001207","null","null","","","","","15","","","","novel","","","",""
"","null","html-keyboard-response","296","598649","0.0-56.0-0.0","SS1613100636000","","","null","","","","","<p><img src= images/blank.png width =""200"" height = ""200"" style = ""float:right""></p><p><img src=images/blank.png width =""800"" height = ""200""></p>","","","","","","","","","","","",""
"","1382.2299999883398","sequential-stimulus-presentation","297","600842","0.0-56.0-1.0","SS1613100636000","trial","","40","800","2182.22999998834","images/stimuli/spore_stims/simple_18_B_b.gif","images/stimuli/spore_stims/simple_18_A_b.gif","","","","","16","simple_similar","images/stimuli/spore_stims/simple_18_A_b.gif","middle","","","","",""
"","null","html-keyboard-response","298","602014","0.0-56.0-0.1","SS1613100636000","","","null","","","","","<p><img src= images/blank.png width =""200"" height = ""200"" style = ""float:right""></p><p><img src=images/blank.png width =""800"" height = ""200""></p>","","","","","","","","","","","",""
"","476.93500004243106","sequential-stimulus-presentation","299","603298","0.0-56.0-1.1","SS1613100636000","trial","","40","800","1276.935000042431","images/stimuli/spore_stims/simple_18_B_b.gif","images/stimuli/spore_stims/simple_18_A_b.gif","","","","","16","simple_similar","images/stimuli/spore_stims/simple_18_A_b.gif","middle","","","","",""
"","null","html-keyboard-response","300","604198","0.0-56.0-0.2","SS1613100636000","","","null","","","","","<p><img src= images/blank.png width =""200"" height = ""200"" style = ""float:right""></p><p><img src=images/blank.png width =""800"" height = ""200""></p>","","","","","","","","","","","",""
"","872.4050000309944","sequential-stimulus-presentation","301","605882","0.0-56.0-1.2","SS1613100636000","trial","","40","800","1672.4050000309944","images/stimuli/spore_stims/simple_18_B_b.gif","images/stimuli/spore_stims/simple_18_A_b.gif","","","","","16","simple_similar","images/stimuli/spore_stims/simple_18_B_b.gif","right","","","","",""
"","null","html-keyboard-response","302","606967","0.0-56.0-0.3","SS1613100636000","","","null","","","","","<p><img src= images/blank.png width =""200"" height = ""200"" style = ""float:right""></p><p><img src=images/blank.png width =""800"" height = ""200""></p>","","","","","","","","","","","",""
"","436.1700000008568","sequential-stimulus-presentation","303","608210","0.0-56.0-1.3","SS1613100636000","trial","","40","800","1236.1700000008568","images/stimuli/spore_stims/simple_18_B_b.gif","images/stimuli/spore_stims/simple_18_A_b.gif","","","","","16","simple_similar","images/stimuli/spore_stims/simple_18_A_b.gif","middle","","","","",""
"","null","html-keyboard-response","304","609177","0.0-56.0-0.4","SS1613100636000","","","null","","","","","<p><img src= images/blank.png width =""200"" height = ""200"" style = ""float:right""></p><p><img src=images/blank.png width =""800"" height = ""200""></p>","","","","","","","","","","","",""
"","2922.2249999875203","sequential-stimulus-presentation","305","612906","0.0-56.0-1.4","SS1613100636000","trial","","40","800","3722.2249999875203","images/stimuli/spore_stims/simple_18_B_b.gif","images/stimuli/spore_stims/simple_18_A_b.gif","","","","","16","simple_similar","images/stimuli/spore_stims/simple_18_A_b.gif","middle","","","","",""
"","null","html-keyboard-response","306","614015","0.0-56.0-0.5","SS1613100636000","","","null","","","","","<p><img src= images/blank.png width =""200"" height = ""200"" style = ""float:right""></p><p><img src=images/blank.png width =""800"" height = ""200""></p>","","","","","","","","","","","",""
"","849.4250000221655","sequential-stimulus-presentation","307","615673","0.0-56.0-1.5","SS1613100636000","trial","","40","800","1649.4250000221655","images/stimuli/spore_stims/simple_18_B_b.gif","images/stimuli/spore_stims/simple_18_A_b.gif","","","","","16","simple_similar","images/stimuli/spore_stims/simple_18_A_b.gif","middle","","","","",""
"","null","html-keyboard-response","308","616649","0.0-56.0-0.6","SS1613100636000","","","null","","","","","<p><img src= images/blank.png width =""200"" height = ""200"" style = ""float:right""></p><p><img src=images/blank.png width =""800"" height = ""200""></p>","","","","","","","","","","","",""
"","590.9049999900162","sequential-stimulus-presentation","309","618049","0.0-56.0-1.6","SS1613100636000","trial","","40","800","1390.9049999900162","images/stimuli/spore_stims/simple_18_B_b.gif","images/stimuli/spore_stims/simple_18_A_b.gif","","","","","16","simple_similar","images/stimuli/spore_stims/simple_18_A_b.gif","middle","","","","",""
"","null","html-keyboard-response","310","619330","0.0-56.0-0.7","SS1613100636000","","","null","","","","","<p><img src= images/blank.png width =""200"" height = ""200"" style = ""float:right""></p><p><img src=images/blank.png width =""800"" height = ""200""></p>","","","","","","","","","","","",""
"","695.7150000380352","sequential-stimulus-presentation","311","620834","0.0-56.0-1.7","SS1613100636000","trial","","40","800","1495.7150000380352","images/stimuli/spore_stims/simple_18_B_b.gif","images/stimuli/spore_stims/simple_18_A_b.gif","","","","","16","simple_similar","images/stimuli/spore_stims/simple_18_A_b.gif","middle","","","","",""
"","4497.350000077859","html-keyboard-response","312","625338","0.0-57.0","SS1613100636000","pref_question","","49","","","","","<video width ='960' height = '540' style='padding-top:8%' autoplay muted><source src='images/stimuli/wall_pref.mp4' type='video/mp4'></video>","1","left","25%","16","","","","","","","",""
