"view_history","rt","trial_type","trial_index","time_elapsed","internal_node_id","subject","stimulus_type","trial_stimulus","key_press","minimum_viewing_duration","trial_looking_time","block_deviant","block_background","stimulus","wall_pref","location","location_percent","block_number","block_type","stimulus_displayed","position_displayed","stim_type_selected","responses","question_order","stimulus_left","stimulus_right"
"[{""page_index"":0,""viewing_time"":6322.415000002366}]","6323.035000008531","instructions","0","6324","0.0-0.0","SS1613141047018","","","","","","","","","","","","","","","","","","","",""
"[{""page_index"":0,""viewing_time"":8104.534999991301},{""page_index"":1,""viewing_time"":6360.285000002477}]","14464.97499999532","instructions","1","22801","0.0-1.0","SS1613141047018","instructions","","","","","","","","","","","","","","","","","","",""
"","6337.400000003981","sequential-stimulus-presentation","2","29944","0.0-2.0","SS1613141047018","","","40","800","7137.400000003981","null","null","","","","","","","","","","","","",""
"","3611.080000002403","sequential-stimulus-presentation","3","34359","0.0-3.0","SS1613141047018","","","40","800","4411.080000002403","null","null","","","","","","","","","","","","",""
"[{""page_index"":0,""viewing_time"":3433.259999990696}]","3433.454999991227","instructions","4","37793","0.0-4.0","SS1613141047018","instructions","","","","","","","","","","","","","","","","","","",""
"","9044.120000005933","html-keyboard-response","5","46840","0.0-5.0","SS1613141047018","instructions","","51","","","","","<video width ='960' height = '540' autoplay muted><source src='images/stimuli/wall_pref.mp4' type='video/mp4'></video>","3","right","66%","","","","","","","","",""
"","2706.494999991264","sequential-stimulus-presentation","6","50352","0.0-6.0","SS1613141047018","pref_reveal","","40","800","3506.494999991264","null","null","","","","","","","","","","","","",""
"[{""page_index"":0,""viewing_time"":6135.2049999986775},{""page_index"":1,""viewing_time"":3262.155000003986},{""page_index"":2,""viewing_time"":1267.679999989923},{""page_index"":3,""viewing_time"":725.6699999998091}]","11390.914999996312","instructions","7","61743","0.0-7.0","SS1613141047018","instructions","","","","","","","","","","","","","","","","","","",""
"","null","html-keyboard-response","8","62967","0.0-8.0-0.0","SS1613141047018","","","null","","","","","<p><img src= images/blank.png width =""200"" height = ""200"" style = ""float:right""></p><p><img src=images/blank.png width =""800"" height = ""200""></p>","","","","","","","","","","","",""
"","3354.024999993271","sequential-stimulus-presentation","9","67128","0.0-8.0-1.0","SS1613141047018","trial","","40","800","4154.024999993271","images/stimuli/spore_stims/simple_18_B_c.gif","images/stimuli/spore_stims/simple_18_A_c.gif","","","","","0","simple_similar","images/stimuli/spore_stims/simple_18_A_c.gif","right","","","","",""
"","null","html-keyboard-response","10","68069","0.0-8.0-0.1","SS1613141047018","","","null","","","","","<p><img src= images/blank.png width =""200"" height = ""200"" style = ""float:right""></p><p><img src=images/blank.png width =""800"" height = ""200""></p>","","","","","","","","","","","",""
"","2727.725000004284","sequential-stimulus-presentation","11","71599","0.0-8.0-1.1","SS1613141047018","trial","","40","800","3527.725000004284","images/stimuli/spore_stims/simple_18_B_c.gif","images/stimuli/spore_stims/simple_18_A_c.gif","","","","","0","simple_similar","images/stimuli/spore_stims/simple_18_A_c.gif","right","","","","",""
"","null","html-keyboard-response","12","72804","0.0-8.0-0.2","SS1613141047018","","","null","","","","","<p><img src= images/blank.png width =""200"" height = ""200"" style = ""float:right""></p><p><img src=images/blank.png width =""800"" height = ""200""></p>","","","","","","","","","","","",""
"","2727.760000008857","sequential-stimulus-presentation","13","76335","0.0-8.0-1.2","SS1613141047018","trial","","40","800","3527.760000008857","images/stimuli/spore_stims/simple_18_B_c.gif","images/stimuli/spore_stims/simple_18_A_c.gif","","","","","0","simple_similar","images/stimuli/spore_stims/simple_18_A_c.gif","right","","","","",""
"","null","html-keyboard-response","14","77147","0.0-8.0-0.3","SS1613141047018","","","null","","","","","<p><img src= images/blank.png width =""200"" height = ""200"" style = ""float:right""></p><p><img src=images/blank.png width =""800"" height = ""200""></p>","","","","","","","","","","","",""
"","3359.1400000004796","sequential-stimulus-presentation","15","81311","0.0-8.0-1.3","SS1613141047018","trial","","40","800","4159.14000000048","images/stimuli/spore_stims/simple_18_B_c.gif","images/stimuli/spore_stims/simple_18_A_c.gif","","","","","0","simple_similar","images/stimuli/spore_stims/simple_18_A_c.gif","right","","","","",""
"","null","html-keyboard-response","16","82384","0.0-8.0-0.4","SS1613141047018","","","null","","","","","<p><img src= images/blank.png width =""200"" height = ""200"" style = ""float:right""></p><p><img src=images/blank.png width =""800"" height = ""200""></p>","","","","","","","","","","","",""
"","1964.7249999979977","sequential-stimulus-presentation","17","85152","0.0-8.0-1.4","SS1613141047018","trial","","40","800","2764.7249999979977","images/stimuli/spore_stims/simple_18_B_c.gif","images/stimuli/spore_stims/simple_18_A_c.gif","","","","","0","simple_similar","images/stimuli/spore_stims/simple_18_B_c.gif","left","","","","",""
"","null","html-keyboard-response","18","86168","0.0-8.0-0.5","SS1613141047018","","","null","","","","","<p><img src= images/blank.png width =""200"" height = ""200"" style = ""float:right""></p><p><img src=images/blank.png width =""800"" height = ""200""></p>","","","","","","","","","","","",""
"","2094.0600000030827","sequential-stimulus-presentation","19","89072","0.0-8.0-1.5","SS1613141047018","trial","","40","800","2894.0600000030827","images/stimuli/spore_stims/simple_18_B_c.gif","images/stimuli/spore_stims/simple_18_A_c.gif","","","","","0","simple_similar","images/stimuli/spore_stims/simple_18_A_c.gif","right","","","","",""
"","null","html-keyboard-response","20","90088","0.0-8.0-0.6","SS1613141047018","","","null","","","","","<p><img src= images/blank.png width =""200"" height = ""200"" style = ""float:right""></p><p><img src=images/blank.png width =""800"" height = ""200""></p>","","","","","","","","","","","",""
"","3244.525000001886","sequential-stimulus-presentation","21","94136","0.0-8.0-1.6","SS1613141047018","trial","","40","800","4044.525000001886","images/stimuli/spore_stims/simple_18_B_c.gif","images/stimuli/spore_stims/simple_18_A_c.gif","","","","","0","simple_similar","images/stimuli/spore_stims/simple_18_A_c.gif","right","","","","",""
"","null","html-keyboard-response","22","95289","0.0-8.0-0.7","SS1613141047018","","","null","","","","","<p><img src= images/blank.png width =""200"" height = ""200"" style = ""float:right""></p><p><img src=images/blank.png width =""800"" height = ""200""></p>","","","","","","","","","","","",""
"","3617.9249999986496","sequential-stimulus-presentation","23","99710","0.0-8.0-1.7","SS1613141047018","trial","","40","800","4417.92499999865","images/stimuli/spore_stims/simple_18_B_c.gif","images/stimuli/spore_stims/simple_18_A_c.gif","","","","","0","simple_similar","images/stimuli/spore_stims/simple_18_A_c.gif","right","","","","",""
"","2606.580000006943","html-keyboard-response","24","102319","0.0-9.0","SS1613141047018","pref_question","","51","","","","","<video width ='960' height = '540' style='padding-top:8%' autoplay muted><source src='images/stimuli/wall_pref.mp4' type='video/mp4'></video>","3","right","66%","0","","","","","","","",""
"","2924.6799999964423","sequential-stimulus-presentation","25","106048","0.0-10.0","SS1613141047018","pref_reveal","","40","800","3724.6799999964423","null","null","","","","","0","","","","background","","","",""
"","null","html-keyboard-response","26","107054","0.0-11.0-0.0","SS1613141047018","","","null","","","","","<p><img src= images/blank.png width =""200"" height = ""200"" style = ""float:right""></p><p><img src=images/blank.png width =""800"" height = ""200""></p>","","","","","","","","","","","",""
"","2421.5449999901466","sequential-stimulus-presentation","27","110279","0.0-11.0-1.0","SS1613141047018","trial","","40","800","3221.5449999901466","images/stimuli/spore_stims/complex_18_A_c.gif","images/stimuli/spore_stims/complex_18_B_c.gif","","","","","1","complex_similar","images/stimuli/spore_stims/complex_18_B_c.gif","left","","","","",""
"","null","html-keyboard-response","28","111561","0.0-11.0-0.1","SS1613141047018","","","null","","","","","<p><img src= images/blank.png width =""200"" height = ""200"" style = ""float:right""></p><p><img src=images/blank.png width =""800"" height = ""200""></p>","","","","","","","","","","","",""
"","2026.7299999977695","sequential-stimulus-presentation","29","114398","0.0-11.0-1.1","SS1613141047018","trial","","40","800","2826.7299999977695","images/stimuli/spore_stims/complex_18_A_c.gif","images/stimuli/spore_stims/complex_18_B_c.gif","","","","","1","complex_similar","images/stimuli/spore_stims/complex_18_B_c.gif","left","","","","",""
"","null","html-keyboard-response","30","115603","0.0-11.0-0.2","SS1613141047018","","","null","","","","","<p><img src= images/blank.png width =""200"" height = ""200"" style = ""float:right""></p><p><img src=images/blank.png width =""800"" height = ""200""></p>","","","","","","","","","","","",""
"","2184.124999999767","sequential-stimulus-presentation","31","118598","0.0-11.0-1.2","SS1613141047018","trial","","40","800","2984.124999999767","images/stimuli/spore_stims/complex_18_A_c.gif","images/stimuli/spore_stims/complex_18_B_c.gif","","","","","1","complex_similar","images/stimuli/spore_stims/complex_18_B_c.gif","left","","","","",""
"","null","html-keyboard-response","32","119744","0.0-11.0-0.3","SS1613141047018","","","null","","","","","<p><img src= images/blank.png width =""200"" height = ""200"" style = ""float:right""></p><p><img src=images/blank.png width =""800"" height = ""200""></p>","","","","","","","","","","","",""
"","2202.919999996084","sequential-stimulus-presentation","33","122751","0.0-11.0-1.3","SS1613141047018","trial","","40","800","3002.919999996084","images/stimuli/spore_stims/complex_18_A_c.gif","images/stimuli/spore_stims/complex_18_B_c.gif","","","","","1","complex_similar","images/stimuli/spore_stims/complex_18_B_c.gif","left","","","","",""
"","null","html-keyboard-response","34","123799","0.0-11.0-0.4","SS1613141047018","","","null","","","","","<p><img src= images/blank.png width =""200"" height = ""200"" style = ""float:right""></p><p><img src=images/blank.png width =""800"" height = ""200""></p>","","","","","","","","","","","",""
"","2347.895000013523","sequential-stimulus-presentation","35","126950","0.0-11.0-1.4","SS1613141047018","trial","","40","800","3147.895000013523","images/stimuli/spore_stims/complex_18_A_c.gif","images/stimuli/spore_stims/complex_18_B_c.gif","","","","","1","complex_similar","images/stimuli/spore_stims/complex_18_B_c.gif","left","","","","",""
"","null","html-keyboard-response","36","128107","0.0-11.0-0.5","SS1613141047018","","","null","","","","","<p><img src= images/blank.png width =""200"" height = ""200"" style = ""float:right""></p><p><img src=images/blank.png width =""800"" height = ""200""></p>","","","","","","","","","","","",""
"","2286.4299999928335","sequential-stimulus-presentation","37","131199","0.0-11.0-1.5","SS1613141047018","trial","","40","800","3086.4299999928335","images/stimuli/spore_stims/complex_18_A_c.gif","images/stimuli/spore_stims/complex_18_B_c.gif","","","","","1","complex_similar","images/stimuli/spore_stims/complex_18_B_c.gif","left","","","","",""
"","null","html-keyboard-response","38","132439","0.0-11.0-0.6","SS1613141047018","","","null","","","","","<p><img src= images/blank.png width =""200"" height = ""200"" style = ""float:right""></p><p><img src=images/blank.png width =""800"" height = ""200""></p>","","","","","","","","","","","",""
"","517.2549999988405","sequential-stimulus-presentation","39","133774","0.0-11.0-1.6","SS1613141047018","trial","","40","800","1317.2549999988405","images/stimuli/spore_stims/complex_18_A_c.gif","images/stimuli/spore_stims/complex_18_B_c.gif","","","","","1","complex_similar","images/stimuli/spore_stims/complex_18_B_c.gif","left","","","","",""
"","null","html-keyboard-response","40","134698","0.0-11.0-0.7","SS1613141047018","","","null","","","","","<p><img src= images/blank.png width =""200"" height = ""200"" style = ""float:right""></p><p><img src=images/blank.png width =""800"" height = ""200""></p>","","","","","","","","","","","",""
"","857.6150000008056","sequential-stimulus-presentation","41","136359","0.0-11.0-1.7","SS1613141047018","trial","","40","800","1657.6150000008056","images/stimuli/spore_stims/complex_18_A_c.gif","images/stimuli/spore_stims/complex_18_B_c.gif","","","","","1","complex_similar","images/stimuli/spore_stims/complex_18_A_c.gif","right","","","","",""
"","11309.56999999762","html-keyboard-response","42","147671","0.0-12.0","SS1613141047018","pref_question","","51","","","","","<video width ='960' height = '540' style='padding-top:8%' autoplay muted><source src='images/stimuli/wall_pref.mp4' type='video/mp4'></video>","3","right","66%","1","","","","","","","",""
"","2307.089999987511","sequential-stimulus-presentation","43","150782","0.0-13.0","SS1613141047018","pref_reveal","","40","800","3107.089999987511","null","null","","","","","1","","","","deviant","","","",""
"","null","html-keyboard-response","44","151885","0.0-14.0-0.0","SS1613141047018","","","null","","","","","<p><img src= images/blank.png width =""200"" height = ""200"" style = ""float:right""></p><p><img src=images/blank.png width =""800"" height = ""200""></p>","","","","","","","","","","","",""
"","1236.2949999951525","sequential-stimulus-presentation","45","153927","0.0-14.0-1.0","SS1613141047018","trial","","40","800","2036.2949999951525","images/stimuli/spore_stims/complex_17_B_a.gif","images/stimuli/spore_stims/complex_17_A_a.gif","","","","","2","complex_similar","images/stimuli/spore_stims/complex_17_A_a.gif","left","","","","",""
"","null","html-keyboard-response","46","155054","0.0-14.0-0.1","SS1613141047018","","","null","","","","","<p><img src= images/blank.png width =""200"" height = ""200"" style = ""float:right""></p><p><img src=images/blank.png width =""800"" height = ""200""></p>","","","","","","","","","","","",""
"","2021.134999988135","sequential-stimulus-presentation","47","157878","0.0-14.0-1.1","SS1613141047018","trial","","40","800","2821.134999988135","images/stimuli/spore_stims/complex_17_B_a.gif","images/stimuli/spore_stims/complex_17_A_a.gif","","","","","2","complex_similar","images/stimuli/spore_stims/complex_17_A_a.gif","left","","","","",""
"","null","html-keyboard-response","48","158967","0.0-14.0-0.2","SS1613141047018","","","null","","","","","<p><img src= images/blank.png width =""200"" height = ""200"" style = ""float:right""></p><p><img src=images/blank.png width =""800"" height = ""200""></p>","","","","","","","","","","","",""
"","1562.7999999996973","sequential-stimulus-presentation","49","161335","0.0-14.0-1.2","SS1613141047018","trial","","40","800","2362.7999999996973","images/stimuli/spore_stims/complex_17_B_a.gif","images/stimuli/spore_stims/complex_17_A_a.gif","","","","","2","complex_similar","images/stimuli/spore_stims/complex_17_A_a.gif","left","","","","",""
"","null","html-keyboard-response","50","162444","0.0-14.0-0.3","SS1613141047018","","","null","","","","","<p><img src= images/blank.png width =""200"" height = ""200"" style = ""float:right""></p><p><img src=images/blank.png width =""800"" height = ""200""></p>","","","","","","","","","","","",""
"","1712.4200000107521","sequential-stimulus-presentation","51","164959","0.0-14.0-1.3","SS1613141047018","trial","","40","800","2512.420000010752","images/stimuli/spore_stims/complex_17_B_a.gif","images/stimuli/spore_stims/complex_17_A_a.gif","","","","","2","complex_similar","images/stimuli/spore_stims/complex_17_A_a.gif","left","","","","",""
"","null","html-keyboard-response","52","166100","0.0-14.0-0.4","SS1613141047018","","","null","","","","","<p><img src= images/blank.png width =""200"" height = ""200"" style = ""float:right""></p><p><img src=images/blank.png width =""800"" height = ""200""></p>","","","","","","","","","","","",""
"","2285.8300000079907","sequential-stimulus-presentation","53","169191","0.0-14.0-1.4","SS1613141047018","trial","","40","800","3085.8300000079907","images/stimuli/spore_stims/complex_17_B_a.gif","images/stimuli/spore_stims/complex_17_A_a.gif","","","","","2","complex_similar","images/stimuli/spore_stims/complex_17_A_a.gif","left","","","","",""
"","null","html-keyboard-response","54","170398","0.0-14.0-0.5","SS1613141047018","","","null","","","","","<p><img src= images/blank.png width =""200"" height = ""200"" style = ""float:right""></p><p><img src=images/blank.png width =""800"" height = ""200""></p>","","","","","","","","","","","",""
"","1134.1749999992317","sequential-stimulus-presentation","55","172336","0.0-14.0-1.5","SS1613141047018","trial","","40","800","1934.1749999992317","images/stimuli/spore_stims/complex_17_B_a.gif","images/stimuli/spore_stims/complex_17_A_a.gif","","","","","2","complex_similar","images/stimuli/spore_stims/complex_17_A_a.gif","left","","","","",""
"","null","html-keyboard-response","56","173638","0.0-14.0-0.6","SS1613141047018","","","null","","","","","<p><img src= images/blank.png width =""200"" height = ""200"" style = ""float:right""></p><p><img src=images/blank.png width =""800"" height = ""200""></p>","","","","","","","","","","","",""
"","1195.5199999938486","sequential-stimulus-presentation","57","175639","0.0-14.0-1.6","SS1613141047018","trial","","40","800","1995.5199999938486","images/stimuli/spore_stims/complex_17_B_a.gif","images/stimuli/spore_stims/complex_17_A_a.gif","","","","","2","complex_similar","images/stimuli/spore_stims/complex_17_A_a.gif","left","","","","",""
"","null","html-keyboard-response","58","176704","0.0-14.0-0.7","SS1613141047018","","","null","","","","","<p><img src= images/blank.png width =""200"" height = ""200"" style = ""float:right""></p><p><img src=images/blank.png width =""800"" height = ""200""></p>","","","","","","","","","","","",""
"","1641.8850000045495","sequential-stimulus-presentation","59","179151","0.0-14.0-1.7","SS1613141047018","trial","","40","800","2441.8850000045495","images/stimuli/spore_stims/complex_17_B_a.gif","images/stimuli/spore_stims/complex_17_A_a.gif","","","","","2","complex_similar","images/stimuli/spore_stims/complex_17_B_a.gif","middle","","","","",""
"","2006.680000005872","html-keyboard-response","60","181160","0.0-15.0","SS1613141047018","pref_question","","51","","","","","<video width ='960' height = '540' style='padding-top:8%' autoplay muted><source src='images/stimuli/wall_pref.mp4' type='video/mp4'></video>","3","right","66%","2","","","","","","","",""
"","386.35499999509193","sequential-stimulus-presentation","61","182351","0.0-16.0","SS1613141047018","pref_reveal","","40","800","1186.354999995092","null","null","","","","","2","","","","novel","","","",""
"","null","html-keyboard-response","62","183243","0.0-17.0-0.0","SS1613141047018","","","null","","","","","<p><img src= images/blank.png width =""200"" height = ""200"" style = ""float:right""></p><p><img src=images/blank.png width =""800"" height = ""200""></p>","","","","","","","","","","","",""
"","983.5949999978766","sequential-stimulus-presentation","63","185031","0.0-17.0-1.0","SS1613141047018","trial","","40","800","1783.5949999978766","images/stimuli/spore_stims/complex_02_B_d.gif","images/stimuli/spore_stims/complex_06_B_d.gif","","","","","3","complex_dissimilar","images/stimuli/spore_stims/complex_06_B_d.gif","middle","","","","",""
"","null","html-keyboard-response","64","186254","0.0-17.0-0.1","SS1613141047018","","","null","","","","","<p><img src= images/blank.png width =""200"" height = ""200"" style = ""float:right""></p><p><img src=images/blank.png width =""800"" height = ""200""></p>","","","","","","","","","","","",""
"","1052.9649999953108","sequential-stimulus-presentation","65","188111","0.0-17.0-1.1","SS1613141047018","trial","","40","800","1852.9649999953108","images/stimuli/spore_stims/complex_02_B_d.gif","images/stimuli/spore_stims/complex_06_B_d.gif","","","","","3","complex_dissimilar","images/stimuli/spore_stims/complex_06_B_d.gif","middle","","","","",""
"","null","html-keyboard-response","66","189152","0.0-17.0-0.2","SS1613141047018","","","null","","","","","<p><img src= images/blank.png width =""200"" height = ""200"" style = ""float:right""></p><p><img src=images/blank.png width =""800"" height = ""200""></p>","","","","","","","","","","","",""
"","954.2450000008103","sequential-stimulus-presentation","67","190911","0.0-17.0-1.2","SS1613141047018","trial","","40","800","1754.2450000008103","images/stimuli/spore_stims/complex_02_B_d.gif","images/stimuli/spore_stims/complex_06_B_d.gif","","","","","3","complex_dissimilar","images/stimuli/spore_stims/complex_06_B_d.gif","middle","","","","",""
"","null","html-keyboard-response","68","191751","0.0-17.0-0.3","SS1613141047018","","","null","","","","","<p><img src= images/blank.png width =""200"" height = ""200"" style = ""float:right""></p><p><img src=images/blank.png width =""800"" height = ""200""></p>","","","","","","","","","","","",""
"","858.9600000123028","sequential-stimulus-presentation","69","193431","0.0-17.0-1.3","SS1613141047018","trial","","40","800","1658.9600000123028","images/stimuli/spore_stims/complex_02_B_d.gif","images/stimuli/spore_stims/complex_06_B_d.gif","","","","","3","complex_dissimilar","images/stimuli/spore_stims/complex_06_B_d.gif","middle","","","","",""
"","null","html-keyboard-response","70","194615","0.0-17.0-0.4","SS1613141047018","","","null","","","","","<p><img src= images/blank.png width =""200"" height = ""200"" style = ""float:right""></p><p><img src=images/blank.png width =""800"" height = ""200""></p>","","","","","","","","","","","",""
"","451.5699999901699","sequential-stimulus-presentation","71","195872","0.0-17.0-1.4","SS1613141047018","trial","","40","800","1251.56999999017","images/stimuli/spore_stims/complex_02_B_d.gif","images/stimuli/spore_stims/complex_06_B_d.gif","","","","","3","complex_dissimilar","images/stimuli/spore_stims/complex_06_B_d.gif","middle","","","","",""
"","null","html-keyboard-response","72","196845","0.0-17.0-0.5","SS1613141047018","","","null","","","","","<p><img src= images/blank.png width =""200"" height = ""200"" style = ""float:right""></p><p><img src=images/blank.png width =""800"" height = ""200""></p>","","","","","","","","","","","",""
"","485.6299999955809","sequential-stimulus-presentation","73","198135","0.0-17.0-1.5","SS1613141047018","trial","","40","800","1285.6299999955809","images/stimuli/spore_stims/complex_02_B_d.gif","images/stimuli/spore_stims/complex_06_B_d.gif","","","","","3","complex_dissimilar","images/stimuli/spore_stims/complex_06_B_d.gif","middle","","","","",""
"","null","html-keyboard-response","74","199381","0.0-17.0-0.6","SS1613141047018","","","null","","","","","<p><img src= images/blank.png width =""200"" height = ""200"" style = ""float:right""></p><p><img src=images/blank.png width =""800"" height = ""200""></p>","","","","","","","","","","","",""
"","593.2800000009593","sequential-stimulus-presentation","75","200799","0.0-17.0-1.6","SS1613141047018","trial","","40","800","1393.2800000009593","images/stimuli/spore_stims/complex_02_B_d.gif","images/stimuli/spore_stims/complex_06_B_d.gif","","","","","3","complex_dissimilar","images/stimuli/spore_stims/complex_06_B_d.gif","middle","","","","",""
"","null","html-keyboard-response","76","201913","0.0-17.0-0.7","SS1613141047018","","","null","","","","","<p><img src= images/blank.png width =""200"" height = ""200"" style = ""float:right""></p><p><img src=images/blank.png width =""800"" height = ""200""></p>","","","","","","","","","","","",""
"","1073.3049999980722","sequential-stimulus-presentation","77","203791","0.0-17.0-1.7","SS1613141047018","trial","","40","800","1873.3049999980722","images/stimuli/spore_stims/complex_02_B_d.gif","images/stimuli/spore_stims/complex_06_B_d.gif","","","","","3","complex_dissimilar","images/stimuli/spore_stims/complex_02_B_d.gif","right","","","","",""
"","1396.7799999954877","html-keyboard-response","78","205191","0.0-18.0","SS1613141047018","pref_question","","51","","","","","<video width ='960' height = '540' style='padding-top:8%' autoplay muted><source src='images/stimuli/wall_pref.mp4' type='video/mp4'></video>","3","right","66%","3","","","","","","","",""
"","565.004999996745","sequential-stimulus-presentation","79","206559","0.0-19.0","SS1613141047018","pref_reveal","","40","800","1365.004999996745","null","null","","","","","3","","","","deviant","","","",""
"","null","html-keyboard-response","80","207533","0.0-20.0-0.0","SS1613141047018","","","null","","","","","<p><img src= images/blank.png width =""200"" height = ""200"" style = ""float:right""></p><p><img src=images/blank.png width =""800"" height = ""200""></p>","","","","","","","","","","","",""
"","172.14999999850988","sequential-stimulus-presentation","81","208527","0.0-20.0-1.0","SS1613141047018","trial","","40","800","972.1499999985099","images/stimuli/spore_stims/simple_11_B_b.gif","images/stimuli/spore_stims/simple_10_B_a.gif","","","","","4","simple_dissimilar","images/stimuli/spore_stims/simple_10_B_a.gif","middle","","","","",""
"","null","html-keyboard-response","82","209334","0.0-20.0-0.1","SS1613141047018","","","null","","","","","<p><img src= images/blank.png width =""200"" height = ""200"" style = ""float:right""></p><p><img src=images/blank.png width =""800"" height = ""200""></p>","","","","","","","","","","","",""
"","780.1199999958044","sequential-stimulus-presentation","83","210919","0.0-20.0-1.1","SS1613141047018","trial","","40","800","1580.1199999958044","images/stimuli/spore_stims/simple_11_B_b.gif","images/stimuli/spore_stims/simple_10_B_a.gif","","","","","4","simple_dissimilar","images/stimuli/spore_stims/simple_10_B_a.gif","middle","","","","",""
"","null","html-keyboard-response","84","212013","0.0-20.0-0.2","SS1613141047018","","","null","","","","","<p><img src= images/blank.png width =""200"" height = ""200"" style = ""float:right""></p><p><img src=images/blank.png width =""800"" height = ""200""></p>","","","","","","","","","","","",""
"","701.1450000136392","sequential-stimulus-presentation","85","213535","0.0-20.0-1.2","SS1613141047018","trial","","40","800","1501.1450000136392","images/stimuli/spore_stims/simple_11_B_b.gif","images/stimuli/spore_stims/simple_10_B_a.gif","","","","","4","simple_dissimilar","images/stimuli/spore_stims/simple_10_B_a.gif","middle","","","","",""
"","null","html-keyboard-response","86","214470","0.0-20.0-0.3","SS1613141047018","","","null","","","","","<p><img src= images/blank.png width =""200"" height = ""200"" style = ""float:right""></p><p><img src=images/blank.png width =""800"" height = ""200""></p>","","","","","","","","","","","",""
"","597.7750000020023","sequential-stimulus-presentation","87","215871","0.0-20.0-1.3","SS1613141047018","trial","","40","800","1397.7750000020023","images/stimuli/spore_stims/simple_11_B_b.gif","images/stimuli/spore_stims/simple_10_B_a.gif","","","","","4","simple_dissimilar","images/stimuli/spore_stims/simple_10_B_a.gif","middle","","","","",""
"","null","html-keyboard-response","88","217056","0.0-20.0-0.4","SS1613141047018","","","null","","","","","<p><img src= images/blank.png width =""200"" height = ""200"" style = ""float:right""></p><p><img src=images/blank.png width =""800"" height = ""200""></p>","","","","","","","","","","","",""
"","473.19999999308493","sequential-stimulus-presentation","89","218335","0.0-20.0-1.4","SS1613141047018","trial","","40","800","1273.199999993085","images/stimuli/spore_stims/simple_11_B_b.gif","images/stimuli/spore_stims/simple_10_B_a.gif","","","","","4","simple_dissimilar","images/stimuli/spore_stims/simple_10_B_a.gif","middle","","","","",""
"","null","html-keyboard-response","90","219426","0.0-20.0-0.5","SS1613141047018","","","null","","","","","<p><img src= images/blank.png width =""200"" height = ""200"" style = ""float:right""></p><p><img src=images/blank.png width =""800"" height = ""200""></p>","","","","","","","","","","","",""
"","753.3300000068266","sequential-stimulus-presentation","91","220983","0.0-20.0-1.5","SS1613141047018","trial","","40","800","1553.3300000068266","images/stimuli/spore_stims/simple_11_B_b.gif","images/stimuli/spore_stims/simple_10_B_a.gif","","","","","4","simple_dissimilar","images/stimuli/spore_stims/simple_11_B_b.gif","right","","","","",""
"","null","html-keyboard-response","92","222008","0.0-20.0-0.6","SS1613141047018","","","null","","","","","<p><img src= images/blank.png width =""200"" height = ""200"" style = ""float:right""></p><p><img src=images/blank.png width =""800"" height = ""200""></p>","","","","","","","","","","","",""
"","561.3049999956274","sequential-stimulus-presentation","93","223375","0.0-20.0-1.6","SS1613141047018","trial","","40","800","1361.3049999956274","images/stimuli/spore_stims/simple_11_B_b.gif","images/stimuli/spore_stims/simple_10_B_a.gif","","","","","4","simple_dissimilar","images/stimuli/spore_stims/simple_10_B_a.gif","middle","","","","",""
"","null","html-keyboard-response","94","224633","0.0-20.0-0.7","SS1613141047018","","","null","","","","","<p><img src= images/blank.png width =""200"" height = ""200"" style = ""float:right""></p><p><img src=images/blank.png width =""800"" height = ""200""></p>","","","","","","","","","","","",""
"","394.03999999922235","sequential-stimulus-presentation","95","225831","0.0-20.0-1.7","SS1613141047018","trial","","40","800","1194.0399999992223","images/stimuli/spore_stims/simple_11_B_b.gif","images/stimuli/spore_stims/simple_10_B_a.gif","","","","","4","simple_dissimilar","images/stimuli/spore_stims/simple_10_B_a.gif","middle","","","","",""
"","1814.2450000013923","html-keyboard-response","96","227647","0.0-21.0","SS1613141047018","pref_question","","51","","","","","<video width ='960' height = '540' style='padding-top:8%' autoplay muted><source src='images/stimuli/wall_pref.mp4' type='video/mp4'></video>","3","right","66%","4","","","","","","","",""
"","690.8850000036182","sequential-stimulus-presentation","97","229143","0.0-22.0","SS1613141047018","pref_reveal","","40","800","1490.8850000036182","null","null","","","","","4","","","","deviant","","","",""
"","null","html-keyboard-response","98","230088","0.0-23.0-0.0","SS1613141047018","","","null","","","","","<p><img src= images/blank.png width =""200"" height = ""200"" style = ""float:right""></p><p><img src=images/blank.png width =""800"" height = ""200""></p>","","","","","","","","","","","",""
"","743.8449999899603","sequential-stimulus-presentation","99","231639","0.0-23.0-1.0","SS1613141047018","trial","","40","800","1543.8449999899603","images/stimuli/spore_stims/complex_10_A_d.gif","images/stimuli/spore_stims/complex_19_A_a.gif","","","","","5","complex_dissimilar","images/stimuli/spore_stims/complex_19_A_a.gif","middle","","","","",""
"","null","html-keyboard-response","100","232540","0.0-23.0-0.1","SS1613141047018","","","null","","","","","<p><img src= images/blank.png width =""200"" height = ""200"" style = ""float:right""></p><p><img src=images/blank.png width =""800"" height = ""200""></p>","","","","","","","","","","","",""
"","726.3999999995576","sequential-stimulus-presentation","101","234071","0.0-23.0-1.1","SS1613141047018","trial","","40","800","1526.3999999995576","images/stimuli/spore_stims/complex_10_A_d.gif","images/stimuli/spore_stims/complex_19_A_a.gif","","","","","5","complex_dissimilar","images/stimuli/spore_stims/complex_19_A_a.gif","middle","","","","",""
"","null","html-keyboard-response","102","235233","0.0-23.0-0.2","SS1613141047018","","","null","","","","","<p><img src= images/blank.png width =""200"" height = ""200"" style = ""float:right""></p><p><img src=images/blank.png width =""800"" height = ""200""></p>","","","","","","","","","","","",""
"","730.4900000017369","sequential-stimulus-presentation","103","236768","0.0-23.0-1.2","SS1613141047018","trial","","40","800","1530.490000001737","images/stimuli/spore_stims/complex_10_A_d.gif","images/stimuli/spore_stims/complex_19_A_a.gif","","","","","5","complex_dissimilar","images/stimuli/spore_stims/complex_19_A_a.gif","middle","","","","",""
"","null","html-keyboard-response","104","237966","0.0-23.0-0.3","SS1613141047018","","","null","","","","","<p><img src= images/blank.png width =""200"" height = ""200"" style = ""float:right""></p><p><img src=images/blank.png width =""800"" height = ""200""></p>","","","","","","","","","","","",""
"","729.6099999948638","sequential-stimulus-presentation","105","239503","0.0-23.0-1.3","SS1613141047018","trial","","40","800","1529.6099999948638","images/stimuli/spore_stims/complex_10_A_d.gif","images/stimuli/spore_stims/complex_19_A_a.gif","","","","","5","complex_dissimilar","images/stimuli/spore_stims/complex_19_A_a.gif","middle","","","","",""
"","null","html-keyboard-response","106","240795","0.0-23.0-0.4","SS1613141047018","","","null","","","","","<p><img src= images/blank.png width =""200"" height = ""200"" style = ""float:right""></p><p><img src=images/blank.png width =""800"" height = ""200""></p>","","","","","","","","","","","",""
"","47.149999998509884","sequential-stimulus-presentation","107","241647","0.0-23.0-1.4","SS1613141047018","trial","","40","800","847.1499999985099","images/stimuli/spore_stims/complex_10_A_d.gif","images/stimuli/spore_stims/complex_19_A_a.gif","","","","","5","complex_dissimilar","images/stimuli/spore_stims/complex_19_A_a.gif","middle","","","","",""
"","null","html-keyboard-response","108","242937","0.0-23.0-0.5","SS1613141047018","","","null","","","","","<p><img src= images/blank.png width =""200"" height = ""200"" style = ""float:right""></p><p><img src=images/blank.png width =""800"" height = ""200""></p>","","","","","","","","","","","",""
"","1376.414999991539","sequential-stimulus-presentation","109","245119","0.0-23.0-1.5","SS1613141047018","trial","","40","800","2176.414999991539","images/stimuli/spore_stims/complex_10_A_d.gif","images/stimuli/spore_stims/complex_19_A_a.gif","","","","","5","complex_dissimilar","images/stimuli/spore_stims/complex_10_A_d.gif","right","","","","",""
"","null","html-keyboard-response","110","245952","0.0-23.0-0.6","SS1613141047018","","","null","","","","","<p><img src= images/blank.png width =""200"" height = ""200"" style = ""float:right""></p><p><img src=images/blank.png width =""800"" height = ""200""></p>","","","","","","","","","","","",""
"","978.9050000108546","sequential-stimulus-presentation","111","247735","0.0-23.0-1.6","SS1613141047018","trial","","40","800","1778.9050000108546","images/stimuli/spore_stims/complex_10_A_d.gif","images/stimuli/spore_stims/complex_19_A_a.gif","","","","","5","complex_dissimilar","images/stimuli/spore_stims/complex_19_A_a.gif","middle","","","","",""
"","null","html-keyboard-response","112","248930","0.0-23.0-0.7","SS1613141047018","","","null","","","","","<p><img src= images/blank.png width =""200"" height = ""200"" style = ""float:right""></p><p><img src=images/blank.png width =""800"" height = ""200""></p>","","","","","","","","","","","",""
"","1144.2349999997532","sequential-stimulus-presentation","113","250879","0.0-23.0-1.7","SS1613141047018","trial","","40","800","1944.2349999997532","images/stimuli/spore_stims/complex_10_A_d.gif","images/stimuli/spore_stims/complex_19_A_a.gif","","","","","5","complex_dissimilar","images/stimuli/spore_stims/complex_19_A_a.gif","middle","","","","",""
"","1045.1199999952223","html-keyboard-response","114","251927","0.0-24.0","SS1613141047018","pref_question","","51","","","","","<video width ='960' height = '540' style='padding-top:8%' autoplay muted><source src='images/stimuli/wall_pref.mp4' type='video/mp4'></video>","3","right","66%","5","","","","","","","",""
"","1108.170000006794","sequential-stimulus-presentation","115","253839","0.0-25.0","SS1613141047018","pref_reveal","","40","800","1908.170000006794","null","null","","","","","5","","","","deviant","","","",""
"","null","html-keyboard-response","116","254687","0.0-26.0-0.0","SS1613141047018","","","null","","","","","<p><img src= images/blank.png width =""200"" height = ""200"" style = ""float:right""></p><p><img src=images/blank.png width =""800"" height = ""200""></p>","","","","","","","","","","","",""
"","94.83500001078937","sequential-stimulus-presentation","117","255607","0.0-26.0-1.0","SS1613141047018","trial","","40","800","894.8350000107894","images/stimuli/spore_stims/complex_12_A_a.gif","images/stimuli/spore_stims/complex_12_B_a.gif","","","","","6","complex_similar","images/stimuli/spore_stims/complex_12_B_a.gif","right","","","","",""
"","null","html-keyboard-response","118","256571","0.0-26.0-0.1","SS1613141047018","","","null","","","","","<p><img src= images/blank.png width =""200"" height = ""200"" style = ""float:right""></p><p><img src=images/blank.png width =""800"" height = ""200""></p>","","","","","","","","","","","",""
"","523.3299999963492","sequential-stimulus-presentation","119","257903","0.0-26.0-1.1","SS1613141047018","trial","","40","800","1323.3299999963492","images/stimuli/spore_stims/complex_12_A_a.gif","images/stimuli/spore_stims/complex_12_B_a.gif","","","","","6","complex_similar","images/stimuli/spore_stims/complex_12_B_a.gif","right","","","","",""
"","null","html-keyboard-response","120","258746","0.0-26.0-0.2","SS1613141047018","","","null","","","","","<p><img src= images/blank.png width =""200"" height = ""200"" style = ""float:right""></p><p><img src=images/blank.png width =""800"" height = ""200""></p>","","","","","","","","","","","",""
"","257.0850000047358","sequential-stimulus-presentation","121","259807","0.0-26.0-1.2","SS1613141047018","trial","","40","800","1057.0850000047358","images/stimuli/spore_stims/complex_12_A_a.gif","images/stimuli/spore_stims/complex_12_B_a.gif","","","","","6","complex_similar","images/stimuli/spore_stims/complex_12_B_a.gif","right","","","","",""
"","null","html-keyboard-response","122","261033","0.0-26.0-0.3","SS1613141047018","","","null","","","","","<p><img src= images/blank.png width =""200"" height = ""200"" style = ""float:right""></p><p><img src=images/blank.png width =""800"" height = ""200""></p>","","","","","","","","","","","",""
"","91.28999999666121","sequential-stimulus-presentation","123","261928","0.0-26.0-1.3","SS1613141047018","trial","","40","800","891.2899999966612","images/stimuli/spore_stims/complex_12_A_a.gif","images/stimuli/spore_stims/complex_12_B_a.gif","","","","","6","complex_similar","images/stimuli/spore_stims/complex_12_B_a.gif","right","","","","",""
"","null","html-keyboard-response","124","262922","0.0-26.0-0.4","SS1613141047018","","","null","","","","","<p><img src= images/blank.png width =""200"" height = ""200"" style = ""float:right""></p><p><img src=images/blank.png width =""800"" height = ""200""></p>","","","","","","","","","","","",""
"","272.59000000776723","sequential-stimulus-presentation","125","263999","0.0-26.0-1.4","SS1613141047018","trial","","40","800","1072.5900000077672","images/stimuli/spore_stims/complex_12_A_a.gif","images/stimuli/spore_stims/complex_12_B_a.gif","","","","","6","complex_similar","images/stimuli/spore_stims/complex_12_B_a.gif","right","","","","",""
"","null","html-keyboard-response","126","264915","0.0-26.0-0.5","SS1613141047018","","","null","","","","","<p><img src= images/blank.png width =""200"" height = ""200"" style = ""float:right""></p><p><img src=images/blank.png width =""800"" height = ""200""></p>","","","","","","","","","","","",""
"","631.664999993518","sequential-stimulus-presentation","127","266351","0.0-26.0-1.5","SS1613141047018","trial","","40","800","1431.664999993518","images/stimuli/spore_stims/complex_12_A_a.gif","images/stimuli/spore_stims/complex_12_B_a.gif","","","","","6","complex_similar","images/stimuli/spore_stims/complex_12_A_a.gif","middle","","","","",""
"","null","html-keyboard-response","128","267546","0.0-26.0-0.6","SS1613141047018","","","null","","","","","<p><img src= images/blank.png width =""200"" height = ""200"" style = ""float:right""></p><p><img src=images/blank.png width =""800"" height = ""200""></p>","","","","","","","","","","","",""
"","311.02500000270084","sequential-stimulus-presentation","129","268687","0.0-26.0-1.6","SS1613141047018","trial","","40","800","1111.0250000027008","images/stimuli/spore_stims/complex_12_A_a.gif","images/stimuli/spore_stims/complex_12_B_a.gif","","","","","6","complex_similar","images/stimuli/spore_stims/complex_12_B_a.gif","right","","","","",""
"","null","html-keyboard-response","130","269514","0.0-26.0-0.7","SS1613141047018","","","null","","","","","<p><img src= images/blank.png width =""200"" height = ""200"" style = ""float:right""></p><p><img src=images/blank.png width =""800"" height = ""200""></p>","","","","","","","","","","","",""
"","407.0249999931548","sequential-stimulus-presentation","131","270727","0.0-26.0-1.7","SS1613141047018","trial","","40","800","1207.0249999931548","images/stimuli/spore_stims/complex_12_A_a.gif","images/stimuli/spore_stims/complex_12_B_a.gif","","","","","6","complex_similar","images/stimuli/spore_stims/complex_12_B_a.gif","right","","","","",""
"","1445.2650000021094","html-keyboard-response","132","272175","0.0-27.0","SS1613141047018","pref_question","","51","","","","","<video width ='960' height = '540' style='padding-top:8%' autoplay muted><source src='images/stimuli/wall_pref.mp4' type='video/mp4'></video>","3","right","66%","6","","","","","","","",""
"","608.6000000068452","sequential-stimulus-presentation","133","273599","0.0-28.0","SS1613141047018","pref_reveal","","40","800","1408.6000000068452","null","null","","","","","6","","","","background","","","",""
"","null","html-keyboard-response","134","274617","0.0-29.0-0.0","SS1613141047018","","","null","","","","","<p><img src= images/blank.png width =""200"" height = ""200"" style = ""float:right""></p><p><img src=images/blank.png width =""800"" height = ""200""></p>","","","","","","","","","","","",""
"","664.7249999950873","sequential-stimulus-presentation","135","276088","0.0-29.0-1.0","SS1613141047018","trial","","40","800","1464.7249999950873","images/stimuli/spore_stims/complex_13_B_d.gif","images/stimuli/spore_stims/complex_13_A_d.gif","","","","","7","complex_similar","images/stimuli/spore_stims/complex_13_A_d.gif","left","","","","",""
"","null","html-keyboard-response","136","277072","0.0-29.0-0.1","SS1613141047018","","","null","","","","","<p><img src= images/blank.png width =""200"" height = ""200"" style = ""float:right""></p><p><img src=images/blank.png width =""800"" height = ""200""></p>","","","","","","","","","","","",""
"","514.2400000040652","sequential-stimulus-presentation","137","278391","0.0-29.0-1.1","SS1613141047018","trial","","40","800","1314.2400000040652","images/stimuli/spore_stims/complex_13_B_d.gif","images/stimuli/spore_stims/complex_13_A_d.gif","","","","","7","complex_similar","images/stimuli/spore_stims/complex_13_A_d.gif","left","","","","",""
"","null","html-keyboard-response","138","279587","0.0-29.0-0.2","SS1613141047018","","","null","","","","","<p><img src= images/blank.png width =""200"" height = ""200"" style = ""float:right""></p><p><img src=images/blank.png width =""800"" height = ""200""></p>","","","","","","","","","","","",""
"","454.93000000715256","sequential-stimulus-presentation","139","280847","0.0-29.0-1.2","SS1613141047018","trial","","40","800","1254.9300000071526","images/stimuli/spore_stims/complex_13_B_d.gif","images/stimuli/spore_stims/complex_13_A_d.gif","","","","","7","complex_similar","images/stimuli/spore_stims/complex_13_A_d.gif","left","","","","",""
"","null","html-keyboard-response","140","281969","0.0-29.0-0.3","SS1613141047018","","","null","","","","","<p><img src= images/blank.png width =""200"" height = ""200"" style = ""float:right""></p><p><img src=images/blank.png width =""800"" height = ""200""></p>","","","","","","","","","","","",""
"","592.964999988908","sequential-stimulus-presentation","141","283367","0.0-29.0-1.3","SS1613141047018","trial","","40","800","1392.964999988908","images/stimuli/spore_stims/complex_13_B_d.gif","images/stimuli/spore_stims/complex_13_A_d.gif","","","","","7","complex_similar","images/stimuli/spore_stims/complex_13_A_d.gif","left","","","","",""
"","null","html-keyboard-response","142","284483","0.0-29.0-0.4","SS1613141047018","","","null","","","","","<p><img src= images/blank.png width =""200"" height = ""200"" style = ""float:right""></p><p><img src=images/blank.png width =""800"" height = ""200""></p>","","","","","","","","","","","",""
"","990.0249999918742","sequential-stimulus-presentation","143","286279","0.0-29.0-1.4","SS1613141047018","trial","","40","800","1790.0249999918742","images/stimuli/spore_stims/complex_13_B_d.gif","images/stimuli/spore_stims/complex_13_A_d.gif","","","","","7","complex_similar","images/stimuli/spore_stims/complex_13_B_d.gif","middle","","","","",""
"","null","html-keyboard-response","144","287264","0.0-29.0-0.5","SS1613141047018","","","null","","","","","<p><img src= images/blank.png width =""200"" height = ""200"" style = ""float:right""></p><p><img src=images/blank.png width =""800"" height = ""200""></p>","","","","","","","","","","","",""
"","626.9949999987148","sequential-stimulus-presentation","145","288696","0.0-29.0-1.5","SS1613141047018","trial","","40","800","1426.9949999987148","images/stimuli/spore_stims/complex_13_B_d.gif","images/stimuli/spore_stims/complex_13_A_d.gif","","","","","7","complex_similar","images/stimuli/spore_stims/complex_13_A_d.gif","left","","","","",""
"","null","html-keyboard-response","146","289676","0.0-29.0-0.6","SS1613141047018","","","null","","","","","<p><img src= images/blank.png width =""200"" height = ""200"" style = ""float:right""></p><p><img src=images/blank.png width =""800"" height = ""200""></p>","","","","","","","","","","","",""
"","493.95499999809545","sequential-stimulus-presentation","147","290975","0.0-29.0-1.6","SS1613141047018","trial","","40","800","1293.9549999980954","images/stimuli/spore_stims/complex_13_B_d.gif","images/stimuli/spore_stims/complex_13_A_d.gif","","","","","7","complex_similar","images/stimuli/spore_stims/complex_13_A_d.gif","left","","","","",""
"","null","html-keyboard-response","148","292163","0.0-29.0-0.7","SS1613141047018","","","null","","","","","<p><img src= images/blank.png width =""200"" height = ""200"" style = ""float:right""></p><p><img src=images/blank.png width =""800"" height = ""200""></p>","","","","","","","","","","","",""
"","399.22500000102445","sequential-stimulus-presentation","149","293399","0.0-29.0-1.7","SS1613141047018","trial","","40","800","1199.2250000010245","images/stimuli/spore_stims/complex_13_B_d.gif","images/stimuli/spore_stims/complex_13_A_d.gif","","","","","7","complex_similar","images/stimuli/spore_stims/complex_13_A_d.gif","left","","","","",""
"","1300.0599999941187","html-keyboard-response","150","294703","0.0-30.0","SS1613141047018","pref_question","","51","","","","","<video width ='960' height = '540' style='padding-top:8%' autoplay muted><source src='images/stimuli/wall_pref.mp4' type='video/mp4'></video>","3","right","66%","7","","","","","","","",""
"","2343.059999999241","sequential-stimulus-presentation","151","297863","0.0-31.0","SS1613141047018","pref_reveal","","40","800","3143.059999999241","null","null","","","","","7","","","","novel","","","",""
"","null","html-keyboard-response","152","298861","0.0-32.0-0.0","SS1613141047018","","","null","","","","","<p><img src= images/blank.png width =""200"" height = ""200"" style = ""float:right""></p><p><img src=images/blank.png width =""800"" height = ""200""></p>","","","","","","","","","","","",""
"","565.6750000052853","sequential-stimulus-presentation","153","300231","0.0-32.0-1.0","SS1613141047018","trial","","40","800","1365.6750000052853","images/stimuli/spore_stims/simple_13_A_d.gif","images/stimuli/spore_stims/simple_07_A_b.gif","","","","","8","simple_dissimilar","images/stimuli/spore_stims/simple_07_A_b.gif","right","","","","",""
"","null","html-keyboard-response","154","301193","0.0-32.0-0.1","SS1613141047018","","","null","","","","","<p><img src= images/blank.png width =""200"" height = ""200"" style = ""float:right""></p><p><img src=images/blank.png width =""800"" height = ""200""></p>","","","","","","","","","","","",""
"","344.3399999960093","sequential-stimulus-presentation","155","302343","0.0-32.0-1.1","SS1613141047018","trial","","40","800","1144.3399999960093","images/stimuli/spore_stims/simple_13_A_d.gif","images/stimuli/spore_stims/simple_07_A_b.gif","","","","","8","simple_dissimilar","images/stimuli/spore_stims/simple_07_A_b.gif","right","","","","",""
"","null","html-keyboard-response","156","303248","0.0-32.0-0.2","SS1613141047018","","","null","","","","","<p><img src= images/blank.png width =""200"" height = ""200"" style = ""float:right""></p><p><img src=images/blank.png width =""800"" height = ""200""></p>","","","","","","","","","","","",""
"","729.3900000076974","sequential-stimulus-presentation","157","304783","0.0-32.0-1.2","SS1613141047018","trial","","40","800","1529.3900000076974","images/stimuli/spore_stims/simple_13_A_d.gif","images/stimuli/spore_stims/simple_07_A_b.gif","","","","","8","simple_dissimilar","images/stimuli/spore_stims/simple_13_A_d.gif","middle","","","","",""
"","null","html-keyboard-response","158","305969","0.0-32.0-0.3","SS1613141047018","","","null","","","","","<p><img src= images/blank.png width =""200"" height = ""200"" style = ""float:right""></p><p><img src=images/blank.png width =""800"" height = ""200""></p>","","","","","","","","","","","",""
"","847.1799999970244","sequential-stimulus-presentation","159","307623","0.0-32.0-1.3","SS1613141047018","trial","","40","800","1647.1799999970244","images/stimuli/spore_stims/simple_13_A_d.gif","images/stimuli/spore_stims/simple_07_A_b.gif","","","","","8","simple_dissimilar","images/stimuli/spore_stims/simple_07_A_b.gif","right","","","","",""
"","null","html-keyboard-response","160","308623","0.0-32.0-0.4","SS1613141047018","","","null","","","","","<p><img src= images/blank.png width =""200"" height = ""200"" style = ""float:right""></p><p><img src=images/blank.png width =""800"" height = ""200""></p>","","","","","","","","","","","",""
"","348.4000000025844","sequential-stimulus-presentation","161","309783","0.0-32.0-1.4","SS1613141047018","trial","","40","800","1148.4000000025844","images/stimuli/spore_stims/simple_13_A_d.gif","images/stimuli/spore_stims/simple_07_A_b.gif","","","","","8","simple_dissimilar","images/stimuli/spore_stims/simple_07_A_b.gif","right","","","","",""
"","null","html-keyboard-response","162","310609","0.0-32.0-0.5","SS1613141047018","","","null","","","","","<p><img src= images/blank.png width =""200"" height = ""200"" style = ""float:right""></p><p><img src=images/blank.png width =""800"" height = ""200""></p>","","","","","","","","","","","",""
"","415.0800000061281","sequential-stimulus-presentation","163","311840","0.0-32.0-1.5","SS1613141047018","trial","","40","800","1215.080000006128","images/stimuli/spore_stims/simple_13_A_d.gif","images/stimuli/spore_stims/simple_07_A_b.gif","","","","","8","simple_dissimilar","images/stimuli/spore_stims/simple_07_A_b.gif","right","","","","",""
"","null","html-keyboard-response","164","313128","0.0-32.0-0.6","SS1613141047018","","","null","","","","","<p><img src= images/blank.png width =""200"" height = ""200"" style = ""float:right""></p><p><img src=images/blank.png width =""800"" height = ""200""></p>","","","","","","","","","","","",""
"","735.3350000048522","sequential-stimulus-presentation","165","314671","0.0-32.0-1.6","SS1613141047018","trial","","40","800","1535.3350000048522","images/stimuli/spore_stims/simple_13_A_d.gif","images/stimuli/spore_stims/simple_07_A_b.gif","","","","","8","simple_dissimilar","images/stimuli/spore_stims/simple_07_A_b.gif","right","","","","",""
"","null","html-keyboard-response","166","315778","0.0-32.0-0.7","SS1613141047018","","","null","","","","","<p><img src= images/blank.png width =""200"" height = ""200"" style = ""float:right""></p><p><img src=images/blank.png width =""800"" height = ""200""></p>","","","","","","","","","","","",""
"","448.43499999842606","sequential-stimulus-presentation","167","317031","0.0-32.0-1.7","SS1613141047018","trial","","40","800","1248.434999998426","images/stimuli/spore_stims/simple_13_A_d.gif","images/stimuli/spore_stims/simple_07_A_b.gif","","","","","8","simple_dissimilar","images/stimuli/spore_stims/simple_07_A_b.gif","right","","","","",""
"","1127.455000008922","html-keyboard-response","168","318175","0.0-33.0","SS1613141047018","pref_question","","51","","","","","<video width ='960' height = '540' style='padding-top:8%' autoplay muted><source src='images/stimuli/wall_pref.mp4' type='video/mp4'></video>","3","right","66%","8","","","","","","","",""
"","2187.535000004573","sequential-stimulus-presentation","169","321167","0.0-34.0","SS1613141047018","pref_reveal","","40","800","2987.535000004573","null","null","","","","","8","","","","background","","","",""
"","null","html-keyboard-response","170","322061","0.0-35.0-0.0","SS1613141047018","","","null","","","","","<p><img src= images/blank.png width =""200"" height = ""200"" style = ""float:right""></p><p><img src=images/blank.png width =""800"" height = ""200""></p>","","","","","","","","","","","",""
"","586.2899999920046","sequential-stimulus-presentation","171","323455","0.0-35.0-1.0","SS1613141047018","trial","","40","800","1386.2899999920046","images/stimuli/spore_stims/simple_03_A_a.gif","images/stimuli/spore_stims/simple_03_B_a.gif","","","","","9","simple_similar","images/stimuli/spore_stims/simple_03_B_a.gif","middle","","","","",""
"","null","html-keyboard-response","172","324572","0.0-35.0-0.1","SS1613141047018","","","null","","","","","<p><img src= images/blank.png width =""200"" height = ""200"" style = ""float:right""></p><p><img src=images/blank.png width =""800"" height = ""200""></p>","","","","","","","","","","","",""
"","323.15500000549946","sequential-stimulus-presentation","173","325703","0.0-35.0-1.1","SS1613141047018","trial","","40","800","1123.1550000054995","images/stimuli/spore_stims/simple_03_A_a.gif","images/stimuli/spore_stims/simple_03_B_a.gif","","","","","9","simple_similar","images/stimuli/spore_stims/simple_03_B_a.gif","middle","","","","",""
"","null","html-keyboard-response","174","326675","0.0-35.0-0.2","SS1613141047018","","","null","","","","","<p><img src= images/blank.png width =""200"" height = ""200"" style = ""float:right""></p><p><img src=images/blank.png width =""800"" height = ""200""></p>","","","","","","","","","","","",""
"","331.52500000142027","sequential-stimulus-presentation","175","327815","0.0-35.0-1.2","SS1613141047018","trial","","40","800","1131.5250000014203","images/stimuli/spore_stims/simple_03_A_a.gif","images/stimuli/spore_stims/simple_03_B_a.gif","","","","","9","simple_similar","images/stimuli/spore_stims/simple_03_B_a.gif","middle","","","","",""
"","null","html-keyboard-response","176","328864","0.0-35.0-0.3","SS1613141047018","","","null","","","","","<p><img src= images/blank.png width =""200"" height = ""200"" style = ""float:right""></p><p><img src=images/blank.png width =""800"" height = ""200""></p>","","","","","","","","","","","",""
"","463.4799999912502","sequential-stimulus-presentation","177","330135","0.0-35.0-1.3","SS1613141047018","trial","","40","800","1263.4799999912502","images/stimuli/spore_stims/simple_03_A_a.gif","images/stimuli/spore_stims/simple_03_B_a.gif","","","","","9","simple_similar","images/stimuli/spore_stims/simple_03_A_a.gif","right","","","","",""
"","null","html-keyboard-response","178","331421","0.0-35.0-0.4","SS1613141047018","","","null","","","","","<p><img src= images/blank.png width =""200"" height = ""200"" style = ""float:right""></p><p><img src=images/blank.png width =""800"" height = ""200""></p>","","","","","","","","","","","",""
"","1664.8699999932433","sequential-stimulus-presentation","179","333903","0.0-35.0-1.4","SS1613141047018","trial","","40","800","2464.8699999932433","images/stimuli/spore_stims/simple_03_A_a.gif","images/stimuli/spore_stims/simple_03_B_a.gif","","","","","9","simple_similar","images/stimuli/spore_stims/simple_03_B_a.gif","middle","","","","",""
"","null","html-keyboard-response","180","335142","0.0-35.0-0.5","SS1613141047018","","","null","","","","","<p><img src= images/blank.png width =""200"" height = ""200"" style = ""float:right""></p><p><img src=images/blank.png width =""800"" height = ""200""></p>","","","","","","","","","","","",""
"","2450.880000003963","sequential-stimulus-presentation","181","338399","0.0-35.0-1.5","SS1613141047018","trial","","40","800","3250.880000003963","images/stimuli/spore_stims/simple_03_A_a.gif","images/stimuli/spore_stims/simple_03_B_a.gif","","","","","9","simple_similar","images/stimuli/spore_stims/simple_03_B_a.gif","middle","","","","",""
"","null","html-keyboard-response","182","339476","0.0-35.0-0.6","SS1613141047018","","","null","","","","","<p><img src= images/blank.png width =""200"" height = ""200"" style = ""float:right""></p><p><img src=images/blank.png width =""800"" height = ""200""></p>","","","","","","","","","","","",""
"","787.3649999964982","sequential-stimulus-presentation","183","341071","0.0-35.0-1.6","SS1613141047018","trial","","40","800","1587.3649999964982","images/stimuli/spore_stims/simple_03_A_a.gif","images/stimuli/spore_stims/simple_03_B_a.gif","","","","","9","simple_similar","images/stimuli/spore_stims/simple_03_B_a.gif","middle","","","","",""
"","null","html-keyboard-response","184","342008","0.0-35.0-0.7","SS1613141047018","","","null","","","","","<p><img src= images/blank.png width =""200"" height = ""200"" style = ""float:right""></p><p><img src=images/blank.png width =""800"" height = ""200""></p>","","","","","","","","","","","",""
"","1941.515000013169","sequential-stimulus-presentation","185","344767","0.0-35.0-1.7","SS1613141047018","trial","","40","800","2741.515000013169","images/stimuli/spore_stims/simple_03_A_a.gif","images/stimuli/spore_stims/simple_03_B_a.gif","","","","","9","simple_similar","images/stimuli/spore_stims/simple_03_B_a.gif","middle","","","","",""
"","1828.0700000032084","html-keyboard-response","186","346599","0.0-36.0","SS1613141047018","pref_question","","50","","","","","<video width ='960' height = '540' style='padding-top:8%' autoplay muted><source src='images/stimuli/wall_pref.mp4' type='video/mp4'></video>","2","middle","45%","9","","","","","","","",""
"","459.3049999966752","sequential-stimulus-presentation","187","347863","0.0-37.0","SS1613141047018","pref_reveal","","40","800","1259.3049999966752","null","null","","","","","9","","","","background","","","",""
"","null","html-keyboard-response","188","348819","0.0-38.0-0.0","SS1613141047018","","","null","","","","","<p><img src= images/blank.png width =""200"" height = ""200"" style = ""float:right""></p><p><img src=images/blank.png width =""800"" height = ""200""></p>","","","","","","","","","","","",""
"","1445.3450000000885","sequential-stimulus-presentation","189","351071","0.0-38.0-1.0","SS1613141047018","trial","","40","800","2245.3450000000885","images/stimuli/spore_stims/simple_12_B_b.gif","images/stimuli/spore_stims/simple_12_A_b.gif","","","","","10","simple_similar","images/stimuli/spore_stims/simple_12_A_b.gif","left","","","","",""
"","null","html-keyboard-response","190","352347","0.0-38.0-0.1","SS1613141047018","","","null","","","","","<p><img src= images/blank.png width =""200"" height = ""200"" style = ""float:right""></p><p><img src=images/blank.png width =""800"" height = ""200""></p>","","","","","","","","","","","",""
"","342.63499999360647","sequential-stimulus-presentation","191","353495","0.0-38.0-1.1","SS1613141047018","trial","","40","800","1142.6349999936065","images/stimuli/spore_stims/simple_12_B_b.gif","images/stimuli/spore_stims/simple_12_A_b.gif","","","","","10","simple_similar","images/stimuli/spore_stims/simple_12_A_b.gif","left","","","","",""
"","null","html-keyboard-response","192","354421","0.0-38.0-0.2","SS1613141047018","","","null","","","","","<p><img src= images/blank.png width =""200"" height = ""200"" style = ""float:right""></p><p><img src=images/blank.png width =""800"" height = ""200""></p>","","","","","","","","","","","",""
"","265.69000000017695","sequential-stimulus-presentation","193","355495","0.0-38.0-1.2","SS1613141047018","trial","","40","800","1065.690000000177","images/stimuli/spore_stims/simple_12_B_b.gif","images/stimuli/spore_stims/simple_12_A_b.gif","","","","","10","simple_similar","images/stimuli/spore_stims/simple_12_A_b.gif","left","","","","",""
"","null","html-keyboard-response","194","356440","0.0-38.0-0.3","SS1613141047018","","","null","","","","","<p><img src= images/blank.png width =""200"" height = ""200"" style = ""float:right""></p><p><img src=images/blank.png width =""800"" height = ""200""></p>","","","","","","","","","","","",""
"","1711.410000003525","sequential-stimulus-presentation","195","358959","0.0-38.0-1.3","SS1613141047018","trial","","40","800","2511.410000003525","images/stimuli/spore_stims/simple_12_B_b.gif","images/stimuli/spore_stims/simple_12_A_b.gif","","","","","10","simple_similar","images/stimuli/spore_stims/simple_12_A_b.gif","left","","","","",""
"","null","html-keyboard-response","196","359783","0.0-38.0-0.4","SS1613141047018","","","null","","","","","<p><img src= images/blank.png width =""200"" height = ""200"" style = ""float:right""></p><p><img src=images/blank.png width =""800"" height = ""200""></p>","","","","","","","","","","","",""
"","158.60999999858905","sequential-stimulus-presentation","197","360759","0.0-38.0-1.4","SS1613141047018","trial","","40","800","958.609999998589","images/stimuli/spore_stims/simple_12_B_b.gif","images/stimuli/spore_stims/simple_12_A_b.gif","","","","","10","simple_similar","images/stimuli/spore_stims/simple_12_A_b.gif","left","","","","",""
"","null","html-keyboard-response","198","361883","0.0-38.0-0.5","SS1613141047018","","","null","","","","","<p><img src= images/blank.png width =""200"" height = ""200"" style = ""float:right""></p><p><img src=images/blank.png width =""800"" height = ""200""></p>","","","","","","","","","","","",""
"","565.3800000000047","sequential-stimulus-presentation","199","363255","0.0-38.0-1.5","SS1613141047018","trial","","40","800","1365.3800000000047","images/stimuli/spore_stims/simple_12_B_b.gif","images/stimuli/spore_stims/simple_12_A_b.gif","","","","","10","simple_similar","images/stimuli/spore_stims/simple_12_A_b.gif","left","","","","",""
"","null","html-keyboard-response","200","364116","0.0-38.0-0.6","SS1613141047018","","","null","","","","","<p><img src= images/blank.png width =""200"" height = ""200"" style = ""float:right""></p><p><img src=images/blank.png width =""800"" height = ""200""></p>","","","","","","","","","","","",""
"","557.7550000016345","sequential-stimulus-presentation","201","365479","0.0-38.0-1.6","SS1613141047018","trial","","40","800","1357.7550000016345","images/stimuli/spore_stims/simple_12_B_b.gif","images/stimuli/spore_stims/simple_12_A_b.gif","","","","","10","simple_similar","images/stimuli/spore_stims/simple_12_A_b.gif","left","","","","",""
"","null","html-keyboard-response","202","366745","0.0-38.0-0.7","SS1613141047018","","","null","","","","","<p><img src= images/blank.png width =""200"" height = ""200"" style = ""float:right""></p><p><img src=images/blank.png width =""800"" height = ""200""></p>","","","","","","","","","","","",""
"","363.0799999955343","sequential-stimulus-presentation","203","367919","0.0-38.0-1.7","SS1613141047018","trial","","40","800","1163.0799999955343","images/stimuli/spore_stims/simple_12_B_b.gif","images/stimuli/spore_stims/simple_12_A_b.gif","","","","","10","simple_similar","images/stimuli/spore_stims/simple_12_B_b.gif","middle","","","","",""
"","907.149999999092","html-keyboard-response","204","368831","0.0-39.0","SS1613141047018","pref_question","","50","","","","","<video width ='960' height = '540' style='padding-top:8%' autoplay muted><source src='images/stimuli/wall_pref.mp4' type='video/mp4'></video>","2","middle","45%","10","","","","","","","",""
"","4203.0050000030315","sequential-stimulus-presentation","205","373856","0.0-40.0","SS1613141047018","pref_reveal","","40","800","5003.0050000030315","null","null","","","","","10","","","","deviant","","","",""
"","null","html-keyboard-response","206","375126","0.0-41.0-0.0","SS1613141047018","","","null","","","","","<p><img src= images/blank.png width =""200"" height = ""200"" style = ""float:right""></p><p><img src=images/blank.png width =""800"" height = ""200""></p>","","","","","","","","","","","",""
"","561.9150000129594","sequential-stimulus-presentation","207","376495","0.0-41.0-1.0","SS1613141047018","trial","","40","800","1361.9150000129594","images/stimuli/spore_stims/simple_19_A_b.gif","images/stimuli/spore_stims/simple_19_B_b.gif","","","","","11","simple_similar","images/stimuli/spore_stims/simple_19_B_b.gif","middle","","","","",""
"","null","html-keyboard-response","208","377711","0.0-41.0-0.1","SS1613141047018","","","null","","","","","<p><img src= images/blank.png width =""200"" height = ""200"" style = ""float:right""></p><p><img src=images/blank.png width =""800"" height = ""200""></p>","","","","","","","","","","","",""
"","1075.3550000081304","sequential-stimulus-presentation","209","379590","0.0-41.0-1.1","SS1613141047018","trial","","40","800","1875.3550000081304","images/stimuli/spore_stims/simple_19_A_b.gif","images/stimuli/spore_stims/simple_19_B_b.gif","","","","","11","simple_similar","images/stimuli/spore_stims/simple_19_B_b.gif","middle","","","","",""
"","null","html-keyboard-response","210","380775","0.0-41.0-0.2","SS1613141047018","","","null","","","","","<p><img src= images/blank.png width =""200"" height = ""200"" style = ""float:right""></p><p><img src=images/blank.png width =""800"" height = ""200""></p>","","","","","","","","","","","",""
"","342.6449999969918","sequential-stimulus-presentation","211","381935","0.0-41.0-1.2","SS1613141047018","trial","","40","800","1142.6449999969918","images/stimuli/spore_stims/simple_19_A_b.gif","images/stimuli/spore_stims/simple_19_B_b.gif","","","","","11","simple_similar","images/stimuli/spore_stims/simple_19_B_b.gif","middle","","","","",""
"","null","html-keyboard-response","212","383169","0.0-41.0-0.3","SS1613141047018","","","null","","","","","<p><img src= images/blank.png width =""200"" height = ""200"" style = ""float:right""></p><p><img src=images/blank.png width =""800"" height = ""200""></p>","","","","","","","","","","","",""
"","659.9949999945238","sequential-stimulus-presentation","213","384639","0.0-41.0-1.3","SS1613141047018","trial","","40","800","1459.9949999945238","images/stimuli/spore_stims/simple_19_A_b.gif","images/stimuli/spore_stims/simple_19_B_b.gif","","","","","11","simple_similar","images/stimuli/spore_stims/simple_19_A_b.gif","right","","","","",""
"","null","html-keyboard-response","214","385924","0.0-41.0-0.4","SS1613141047018","","","null","","","","","<p><img src= images/blank.png width =""200"" height = ""200"" style = ""float:right""></p><p><img src=images/blank.png width =""800"" height = ""200""></p>","","","","","","","","","","","",""
"","733.6100000102306","sequential-stimulus-presentation","215","387463","0.0-41.0-1.4","SS1613141047018","trial","","40","800","1533.6100000102306","images/stimuli/spore_stims/simple_19_A_b.gif","images/stimuli/spore_stims/simple_19_B_b.gif","","","","","11","simple_similar","images/stimuli/spore_stims/simple_19_B_b.gif","middle","","","","",""
"","null","html-keyboard-response","216","388408","0.0-41.0-0.5","SS1613141047018","","","null","","","","","<p><img src= images/blank.png width =""200"" height = ""200"" style = ""float:right""></p><p><img src=images/blank.png width =""800"" height = ""200""></p>","","","","","","","","","","","",""
"","341.76499999011867","sequential-stimulus-presentation","217","389559","0.0-41.0-1.5","SS1613141047018","trial","","40","800","1141.7649999901187","images/stimuli/spore_stims/simple_19_A_b.gif","images/stimuli/spore_stims/simple_19_B_b.gif","","","","","11","simple_similar","images/stimuli/spore_stims/simple_19_B_b.gif","middle","","","","",""
"","null","html-keyboard-response","218","390750","0.0-41.0-0.6","SS1613141047018","","","null","","","","","<p><img src= images/blank.png width =""200"" height = ""200"" style = ""float:right""></p><p><img src=images/blank.png width =""800"" height = ""200""></p>","","","","","","","","","","","",""
"","404.75999999034684","sequential-stimulus-presentation","219","391975","0.0-41.0-1.6","SS1613141047018","trial","","40","800","1204.7599999903468","images/stimuli/spore_stims/simple_19_A_b.gif","images/stimuli/spore_stims/simple_19_B_b.gif","","","","","11","simple_similar","images/stimuli/spore_stims/simple_19_B_b.gif","middle","","","","",""
"","null","html-keyboard-response","220","393012","0.0-41.0-0.7","SS1613141047018","","","null","","","","","<p><img src= images/blank.png width =""200"" height = ""200"" style = ""float:right""></p><p><img src=images/blank.png width =""800"" height = ""200""></p>","","","","","","","","","","","",""
"","575.555000003078","sequential-stimulus-presentation","221","394399","0.0-41.0-1.7","SS1613141047018","trial","","40","800","1375.555000003078","images/stimuli/spore_stims/simple_19_A_b.gif","images/stimuli/spore_stims/simple_19_B_b.gif","","","","","11","simple_similar","images/stimuli/spore_stims/simple_19_B_b.gif","middle","","","","",""
"","2493.1550000037532","html-keyboard-response","222","396896","0.0-42.0","SS1613141047018","pref_question","","98","","","","","<video width ='960' height = '540' style='padding-top:8%' autoplay muted><source src='images/stimuli/wall_pref.mp4' type='video/mp4'></video>","2","middle","45%","11","","","","","","","",""
"","1975.4499999980908","sequential-stimulus-presentation","223","399679","0.0-43.0","SS1613141047018","pref_reveal","","40","800","2775.449999998091","null","null","","","","","11","","","","background","","","",""
"","null","html-keyboard-response","224","400913","0.0-44.0-0.0","SS1613141047018","","","null","","","","","<p><img src= images/blank.png width =""200"" height = ""200"" style = ""float:right""></p><p><img src=images/blank.png width =""800"" height = ""200""></p>","","","","","","","","","","","",""
"","911.0849999997299","sequential-stimulus-presentation","225","402639","0.0-44.0-1.0","SS1613141047018","trial","","40","800","1711.08499999973","images/stimuli/spore_stims/complex_07_B_a.gif","images/stimuli/spore_stims/complex_01_B_b.gif","","","","","12","complex_dissimilar","images/stimuli/spore_stims/complex_01_B_b.gif","right","","","","",""
"","null","html-keyboard-response","226","403864","0.0-44.0-0.1","SS1613141047018","","","null","","","","","<p><img src= images/blank.png width =""200"" height = ""200"" style = ""float:right""></p><p><img src=images/blank.png width =""800"" height = ""200""></p>","","","","","","","","","","","",""
"","420.86499999277294","sequential-stimulus-presentation","227","405094","0.0-44.0-1.1","SS1613141047018","trial","","40","800","1220.864999992773","images/stimuli/spore_stims/complex_07_B_a.gif","images/stimuli/spore_stims/complex_01_B_b.gif","","","","","12","complex_dissimilar","images/stimuli/spore_stims/complex_01_B_b.gif","right","","","","",""
"","null","html-keyboard-response","228","406128","0.0-44.0-0.2","SS1613141047018","","","null","","","","","<p><img src= images/blank.png width =""200"" height = ""200"" style = ""float:right""></p><p><img src=images/blank.png width =""800"" height = ""200""></p>","","","","","","","","","","","",""
"","350.16499999619555","sequential-stimulus-presentation","229","407289","0.0-44.0-1.2","SS1613141047018","trial","","40","800","1150.1649999961955","images/stimuli/spore_stims/complex_07_B_a.gif","images/stimuli/spore_stims/complex_01_B_b.gif","","","","","12","complex_dissimilar","images/stimuli/spore_stims/complex_01_B_b.gif","right","","","","",""
"","null","html-keyboard-response","230","408384","0.0-44.0-0.3","SS1613141047018","","","null","","","","","<p><img src= images/blank.png width =""200"" height = ""200"" style = ""float:right""></p><p><img src=images/blank.png width =""800"" height = ""200""></p>","","","","","","","","","","","",""
"","300.73499999707565","sequential-stimulus-presentation","231","409494","0.0-44.0-1.3","SS1613141047018","trial","","40","800","1100.7349999970756","images/stimuli/spore_stims/complex_07_B_a.gif","images/stimuli/spore_stims/complex_01_B_b.gif","","","","","12","complex_dissimilar","images/stimuli/spore_stims/complex_01_B_b.gif","right","","","","",""
"","null","html-keyboard-response","232","410662","0.0-44.0-0.4","SS1613141047018","","","null","","","","","<p><img src= images/blank.png width =""200"" height = ""200"" style = ""float:right""></p><p><img src=images/blank.png width =""800"" height = ""200""></p>","","","","","","","","","","","",""
"","409.429999999702","sequential-stimulus-presentation","233","411878","0.0-44.0-1.4","SS1613141047018","trial","","40","800","1209.429999999702","images/stimuli/spore_stims/complex_07_B_a.gif","images/stimuli/spore_stims/complex_01_B_b.gif","","","","","12","complex_dissimilar","images/stimuli/spore_stims/complex_01_B_b.gif","right","","","","",""
"","null","html-keyboard-response","234","413036","0.0-44.0-0.5","SS1613141047018","","","null","","","","","<p><img src= images/blank.png width =""200"" height = ""200"" style = ""float:right""></p><p><img src=images/blank.png width =""800"" height = ""200""></p>","","","","","","","","","","","",""
"","218.62499999406282","sequential-stimulus-presentation","235","414062","0.0-44.0-1.5","SS1613141047018","trial","","40","800","1018.6249999940628","images/stimuli/spore_stims/complex_07_B_a.gif","images/stimuli/spore_stims/complex_01_B_b.gif","","","","","12","complex_dissimilar","images/stimuli/spore_stims/complex_07_B_a.gif","middle","","","","",""
"","null","html-keyboard-response","236","415131","0.0-44.0-0.6","SS1613141047018","","","null","","","","","<p><img src= images/blank.png width =""200"" height = ""200"" style = ""float:right""></p><p><img src=images/blank.png width =""800"" height = ""200""></p>","","","","","","","","","","","",""
"","325.65499999327585","sequential-stimulus-presentation","237","416262","0.0-44.0-1.6","SS1613141047018","trial","","40","800","1125.6549999932759","images/stimuli/spore_stims/complex_07_B_a.gif","images/stimuli/spore_stims/complex_01_B_b.gif","","","","","12","complex_dissimilar","images/stimuli/spore_stims/complex_01_B_b.gif","right","","","","",""
"","null","html-keyboard-response","238","417410","0.0-44.0-0.7","SS1613141047018","","","null","","","","","<p><img src= images/blank.png width =""200"" height = ""200"" style = ""float:right""></p><p><img src=images/blank.png width =""800"" height = ""200""></p>","","","","","","","","","","","",""
"","255.44999999692664","sequential-stimulus-presentation","239","418478","0.0-44.0-1.7","SS1613141047018","trial","","40","800","1055.4499999969266","images/stimuli/spore_stims/complex_07_B_a.gif","images/stimuli/spore_stims/complex_01_B_b.gif","","","","","12","complex_dissimilar","images/stimuli/spore_stims/complex_01_B_b.gif","right","","","","",""
"","5699.41000000108","html-keyboard-response","240","424182","0.0-45.0","SS1613141047018","pref_question","","97","","","","","<video width ='960' height = '540' style='padding-top:8%' autoplay muted><source src='images/stimuli/wall_pref.mp4' type='video/mp4'></video>","1","left","25%","12","","","","","","","",""
"","1145.5349999887403","sequential-stimulus-presentation","241","426134","0.0-46.0","SS1613141047018","pref_reveal","","40","800","1945.5349999887403","null","null","","","","","12","","","","novel","","","",""
"","null","html-keyboard-response","242","427125","0.0-47.0-0.0","SS1613141047018","","","null","","","","","<p><img src= images/blank.png width =""200"" height = ""200"" style = ""float:right""></p><p><img src=images/blank.png width =""800"" height = ""200""></p>","","","","","","","","","","","",""
"","593.1599999894388","sequential-stimulus-presentation","243","428527","0.0-47.0-1.0","SS1613141047018","trial","","40","800","1393.1599999894388","images/stimuli/spore_stims/complex_11_B_c.gif","images/stimuli/spore_stims/complex_10_B_a.gif","","","","","13","complex_dissimilar","images/stimuli/spore_stims/complex_10_B_a.gif","left","","","","",""
"","null","html-keyboard-response","244","429635","0.0-47.0-0.1","SS1613141047018","","","null","","","","","<p><img src= images/blank.png width =""200"" height = ""200"" style = ""float:right""></p><p><img src=images/blank.png width =""800"" height = ""200""></p>","","","","","","","","","","","",""
"","372.4100000108592","sequential-stimulus-presentation","245","430814","0.0-47.0-1.1","SS1613141047018","trial","","40","800","1172.4100000108592","images/stimuli/spore_stims/complex_11_B_c.gif","images/stimuli/spore_stims/complex_10_B_a.gif","","","","","13","complex_dissimilar","images/stimuli/spore_stims/complex_10_B_a.gif","left","","","","",""
"","null","html-keyboard-response","246","432085","0.0-47.0-0.2","SS1613141047018","","","null","","","","","<p><img src= images/blank.png width =""200"" height = ""200"" style = ""float:right""></p><p><img src=images/blank.png width =""800"" height = ""200""></p>","","","","","","","","","","","",""
"","443.7550000002375","sequential-stimulus-presentation","247","433334","0.0-47.0-1.2","SS1613141047018","trial","","40","800","1243.7550000002375","images/stimuli/spore_stims/complex_11_B_c.gif","images/stimuli/spore_stims/complex_10_B_a.gif","","","","","13","complex_dissimilar","images/stimuli/spore_stims/complex_10_B_a.gif","left","","","","",""
"","null","html-keyboard-response","248","434237","0.0-47.0-0.3","SS1613141047018","","","null","","","","","<p><img src= images/blank.png width =""200"" height = ""200"" style = ""float:right""></p><p><img src=images/blank.png width =""800"" height = ""200""></p>","","","","","","","","","","","",""
"","626.8649999983609","sequential-stimulus-presentation","249","435670","0.0-47.0-1.3","SS1613141047018","trial","","40","800","1426.8649999983609","images/stimuli/spore_stims/complex_11_B_c.gif","images/stimuli/spore_stims/complex_10_B_a.gif","","","","","13","complex_dissimilar","images/stimuli/spore_stims/complex_11_B_c.gif","middle","","","","",""
"","null","html-keyboard-response","250","436624","0.0-47.0-0.4","SS1613141047018","","","null","","","","","<p><img src= images/blank.png width =""200"" height = ""200"" style = ""float:right""></p><p><img src=images/blank.png width =""800"" height = ""200""></p>","","","","","","","","","","","",""
"","805.4700000066077","sequential-stimulus-presentation","251","438238","0.0-47.0-1.4","SS1613141047018","trial","","40","800","1605.4700000066077","images/stimuli/spore_stims/complex_11_B_c.gif","images/stimuli/spore_stims/complex_10_B_a.gif","","","","","13","complex_dissimilar","images/stimuli/spore_stims/complex_10_B_a.gif","left","","","","",""
"","null","html-keyboard-response","252","439185","0.0-47.0-0.5","SS1613141047018","","","null","","","","","<p><img src= images/blank.png width =""200"" height = ""200"" style = ""float:right""></p><p><img src=images/blank.png width =""800"" height = ""200""></p>","","","","","","","","","","","",""
"","755.4999999993015","sequential-stimulus-presentation","253","440751","0.0-47.0-1.5","SS1613141047018","trial","","40","800","1555.4999999993015","images/stimuli/spore_stims/complex_11_B_c.gif","images/stimuli/spore_stims/complex_10_B_a.gif","","","","","13","complex_dissimilar","images/stimuli/spore_stims/complex_10_B_a.gif","left","","","","",""
"","null","html-keyboard-response","254","441929","0.0-47.0-0.6","SS1613141047018","","","null","","","","","<p><img src= images/blank.png width =""200"" height = ""200"" style = ""float:right""></p><p><img src=images/blank.png width =""800"" height = ""200""></p>","","","","","","","","","","","",""
"","447.87999999243766","sequential-stimulus-presentation","255","443182","0.0-47.0-1.6","SS1613141047018","trial","","40","800","1247.8799999924377","images/stimuli/spore_stims/complex_11_B_c.gif","images/stimuli/spore_stims/complex_10_B_a.gif","","","","","13","complex_dissimilar","images/stimuli/spore_stims/complex_10_B_a.gif","left","","","","",""
"","null","html-keyboard-response","256","444473","0.0-47.0-0.7","SS1613141047018","","","null","","","","","<p><img src= images/blank.png width =""200"" height = ""200"" style = ""float:right""></p><p><img src=images/blank.png width =""800"" height = ""200""></p>","","","","","","","","","","","",""
"","406.29500000795815","sequential-stimulus-presentation","257","445686","0.0-47.0-1.7","SS1613141047018","trial","","40","800","1206.2950000079582","images/stimuli/spore_stims/complex_11_B_c.gif","images/stimuli/spore_stims/complex_10_B_a.gif","","","","","13","complex_dissimilar","images/stimuli/spore_stims/complex_10_B_a.gif","left","","","","",""
"","3671.4000000065425","html-keyboard-response","258","449366","0.0-48.0","SS1613141047018","pref_question","","97","","","","","<video width ='960' height = '540' style='padding-top:8%' autoplay muted><source src='images/stimuli/wall_pref.mp4' type='video/mp4'></video>","1","left","25%","13","","","","","","","",""
"","571.7599999916274","sequential-stimulus-presentation","259","450766","0.0-49.0","SS1613141047018","pref_reveal","","40","800","1371.7599999916274","null","null","","","","","13","","","","background","","","",""
"","null","html-keyboard-response","260","451800","0.0-50.0-0.0","SS1613141047018","","","null","","","","","<p><img src= images/blank.png width =""200"" height = ""200"" style = ""float:right""></p><p><img src=images/blank.png width =""800"" height = ""200""></p>","","","","","","","","","","","",""
"","591.5049999894109","sequential-stimulus-presentation","261","453198","0.0-50.0-1.0","SS1613141047018","trial","","40","800","1391.5049999894109","images/stimuli/spore_stims/simple_02_B_d.gif","images/stimuli/spore_stims/simple_16_B_a.gif","","","","","14","simple_dissimilar","images/stimuli/spore_stims/simple_16_B_a.gif","middle","","","","",""
"","null","html-keyboard-response","262","454015","0.0-50.0-0.1","SS1613141047018","","","null","","","","","<p><img src= images/blank.png width =""200"" height = ""200"" style = ""float:right""></p><p><img src=images/blank.png width =""800"" height = ""200""></p>","","","","","","","","","","","",""
"","127.76999999186955","sequential-stimulus-presentation","263","454950","0.0-50.0-1.1","SS1613141047018","trial","","40","800","927.7699999918696","images/stimuli/spore_stims/simple_02_B_d.gif","images/stimuli/spore_stims/simple_16_B_a.gif","","","","","14","simple_dissimilar","images/stimuli/spore_stims/simple_16_B_a.gif","middle","","","","",""
"","null","html-keyboard-response","264","455797","0.0-50.0-0.2","SS1613141047018","","","null","","","","","<p><img src= images/blank.png width =""200"" height = ""200"" style = ""float:right""></p><p><img src=images/blank.png width =""800"" height = ""200""></p>","","","","","","","","","","","",""
"","364.36500000127126","sequential-stimulus-presentation","265","456966","0.0-50.0-1.2","SS1613141047018","trial","","40","800","1164.3650000012713","images/stimuli/spore_stims/simple_02_B_d.gif","images/stimuli/spore_stims/simple_16_B_a.gif","","","","","14","simple_dissimilar","images/stimuli/spore_stims/simple_16_B_a.gif","middle","","","","",""
"","null","html-keyboard-response","266","457900","0.0-50.0-0.3","SS1613141047018","","","null","","","","","<p><img src= images/blank.png width =""200"" height = ""200"" style = ""float:right""></p><p><img src=images/blank.png width =""800"" height = ""200""></p>","","","","","","","","","","","",""
"","314.4949999987148","sequential-stimulus-presentation","267","459022","0.0-50.0-1.3","SS1613141047018","trial","","40","800","1114.4949999987148","images/stimuli/spore_stims/simple_02_B_d.gif","images/stimuli/spore_stims/simple_16_B_a.gif","","","","","14","simple_dissimilar","images/stimuli/spore_stims/simple_16_B_a.gif","middle","","","","",""
"","null","html-keyboard-response","268","460110","0.0-50.0-0.4","SS1613141047018","","","null","","","","","<p><img src= images/blank.png width =""200"" height = ""200"" style = ""float:right""></p><p><img src=images/blank.png width =""800"" height = ""200""></p>","","","","","","","","","","","",""
"","1035.8549999946263","sequential-stimulus-presentation","269","461975","0.0-50.0-1.4","SS1613141047018","trial","","40","800","1835.8549999946263","images/stimuli/spore_stims/simple_02_B_d.gif","images/stimuli/spore_stims/simple_16_B_a.gif","","","","","14","simple_dissimilar","images/stimuli/spore_stims/simple_02_B_d.gif","right","","","","",""
"","null","html-keyboard-response","270","463114","0.0-50.0-0.5","SS1613141047018","","","null","","","","","<p><img src= images/blank.png width =""200"" height = ""200"" style = ""float:right""></p><p><img src=images/blank.png width =""800"" height = ""200""></p>","","","","","","","","","","","",""
"","573.0050000129268","sequential-stimulus-presentation","271","464494","0.0-50.0-1.5","SS1613141047018","trial","","40","800","1373.0050000129268","images/stimuli/spore_stims/simple_02_B_d.gif","images/stimuli/spore_stims/simple_16_B_a.gif","","","","","14","simple_dissimilar","images/stimuli/spore_stims/simple_16_B_a.gif","middle","","","","",""
"","null","html-keyboard-response","272","465675","0.0-50.0-0.6","SS1613141047018","","","null","","","","","<p><img src= images/blank.png width =""200"" height = ""200"" style = ""float:right""></p><p><img src=images/blank.png width =""800"" height = ""200""></p>","","","","","","","","","","","",""
"","419.21999999613035","sequential-stimulus-presentation","273","466902","0.0-50.0-1.6","SS1613141047018","trial","","40","800","1219.2199999961304","images/stimuli/spore_stims/simple_02_B_d.gif","images/stimuli/spore_stims/simple_16_B_a.gif","","","","","14","simple_dissimilar","images/stimuli/spore_stims/simple_16_B_a.gif","middle","","","","",""
"","null","html-keyboard-response","274","468054","0.0-50.0-0.7","SS1613141047018","","","null","","","","","<p><img src= images/blank.png width =""200"" height = ""200"" style = ""float:right""></p><p><img src=images/blank.png width =""800"" height = ""200""></p>","","","","","","","","","","","",""
"","466.3799999980256","sequential-stimulus-presentation","275","469327","0.0-50.0-1.7","SS1613141047018","trial","","40","800","1266.3799999980256","images/stimuli/spore_stims/simple_02_B_d.gif","images/stimuli/spore_stims/simple_16_B_a.gif","","","","","14","simple_dissimilar","images/stimuli/spore_stims/simple_16_B_a.gif","middle","","","","",""
"","2757.690000013099","html-keyboard-response","276","472111","0.0-51.0","SS1613141047018","pref_question","","98","","","","","<video width ='960' height = '540' style='padding-top:8%' autoplay muted><source src='images/stimuli/wall_pref.mp4' type='video/mp4'></video>","2","middle","45%","14","","","","","","","",""
"","751.3049999979557","sequential-stimulus-presentation","277","473671","0.0-52.0","SS1613141047018","pref_reveal","","40","800","1551.3049999979557","null","null","","","","","14","","","","background","","","",""
"","null","html-keyboard-response","278","474571","0.0-53.0-0.0","SS1613141047018","","","null","","","","","<p><img src= images/blank.png width =""200"" height = ""200"" style = ""float:right""></p><p><img src=images/blank.png width =""800"" height = ""200""></p>","","","","","","","","","","","",""
"","653.4400000091409","sequential-stimulus-presentation","279","476030","0.0-53.0-1.0","SS1613141047018","trial","","40","800","1453.440000009141","images/stimuli/spore_stims/simple_17_A_d.gif","images/stimuli/spore_stims/simple_17_B_d.gif","","","","","15","simple_similar","images/stimuli/spore_stims/simple_17_B_d.gif","right","","","","",""
"","null","html-keyboard-response","280","476911","0.0-53.0-0.1","SS1613141047018","","","null","","","","","<p><img src= images/blank.png width =""200"" height = ""200"" style = ""float:right""></p><p><img src=images/blank.png width =""800"" height = ""200""></p>","","","","","","","","","","","",""
"","458.8499999954365","sequential-stimulus-presentation","281","478175","0.0-53.0-1.1","SS1613141047018","trial","","40","800","1258.8499999954365","images/stimuli/spore_stims/simple_17_A_d.gif","images/stimuli/spore_stims/simple_17_B_d.gif","","","","","15","simple_similar","images/stimuli/spore_stims/simple_17_B_d.gif","right","","","","",""
"","null","html-keyboard-response","282","479434","0.0-53.0-0.2","SS1613141047018","","","null","","","","","<p><img src= images/blank.png width =""200"" height = ""200"" style = ""float:right""></p><p><img src=images/blank.png width =""800"" height = ""200""></p>","","","","","","","","","","","",""
"","2272.045000005164","sequential-stimulus-presentation","283","482511","0.0-53.0-1.2","SS1613141047018","trial","","40","800","3072.045000005164","images/stimuli/spore_stims/simple_17_A_d.gif","images/stimuli/spore_stims/simple_17_B_d.gif","","","","","15","simple_similar","images/stimuli/spore_stims/simple_17_B_d.gif","right","","","","",""
"","null","html-keyboard-response","284","483673","0.0-53.0-0.3","SS1613141047018","","","null","","","","","<p><img src= images/blank.png width =""200"" height = ""200"" style = ""float:right""></p><p><img src=images/blank.png width =""800"" height = ""200""></p>","","","","","","","","","","","",""
"","390.83499999833293","sequential-stimulus-presentation","285","484871","0.0-53.0-1.3","SS1613141047018","trial","","40","800","1190.834999998333","images/stimuli/spore_stims/simple_17_A_d.gif","images/stimuli/spore_stims/simple_17_B_d.gif","","","","","15","simple_similar","images/stimuli/spore_stims/simple_17_A_d.gif","left","","","","",""
"","null","html-keyboard-response","286","486161","0.0-53.0-0.4","SS1613141047018","","","null","","","","","<p><img src= images/blank.png width =""200"" height = ""200"" style = ""float:right""></p><p><img src=images/blank.png width =""800"" height = ""200""></p>","","","","","","","","","","","",""
"","797.1249999973224","sequential-stimulus-presentation","287","487775","0.0-53.0-1.4","SS1613141047018","trial","","40","800","1597.1249999973224","images/stimuli/spore_stims/simple_17_A_d.gif","images/stimuli/spore_stims/simple_17_B_d.gif","","","","","15","simple_similar","images/stimuli/spore_stims/simple_17_B_d.gif","right","","","","",""
"","null","html-keyboard-response","288","488694","0.0-53.0-0.5","SS1613141047018","","","null","","","","","<p><img src= images/blank.png width =""200"" height = ""200"" style = ""float:right""></p><p><img src=images/blank.png width =""800"" height = ""200""></p>","","","","","","","","","","","",""
"","473.36999999242835","sequential-stimulus-presentation","289","489974","0.0-53.0-1.5","SS1613141047018","trial","","40","800","1273.3699999924283","images/stimuli/spore_stims/simple_17_A_d.gif","images/stimuli/spore_stims/simple_17_B_d.gif","","","","","15","simple_similar","images/stimuli/spore_stims/simple_17_B_d.gif","right","","","","",""
"","null","html-keyboard-response","290","490930","0.0-53.0-0.6","SS1613141047018","","","null","","","","","<p><img src= images/blank.png width =""200"" height = ""200"" style = ""float:right""></p><p><img src=images/blank.png width =""800"" height = ""200""></p>","","","","","","","","","","","",""
"","374.32500001159497","sequential-stimulus-presentation","291","492110","0.0-53.0-1.6","SS1613141047018","trial","","40","800","1174.325000011595","images/stimuli/spore_stims/simple_17_A_d.gif","images/stimuli/spore_stims/simple_17_B_d.gif","","","","","15","simple_similar","images/stimuli/spore_stims/simple_17_B_d.gif","right","","","","",""
"","null","html-keyboard-response","292","493082","0.0-53.0-0.7","SS1613141047018","","","null","","","","","<p><img src= images/blank.png width =""200"" height = ""200"" style = ""float:right""></p><p><img src=images/blank.png width =""800"" height = ""200""></p>","","","","","","","","","","","",""
"","325.8150000037858","sequential-stimulus-presentation","293","494215","0.0-53.0-1.7","SS1613141047018","trial","","40","800","1125.8150000037858","images/stimuli/spore_stims/simple_17_A_d.gif","images/stimuli/spore_stims/simple_17_B_d.gif","","","","","15","simple_similar","images/stimuli/spore_stims/simple_17_B_d.gif","right","","","","",""
"","3504.814999992959","html-keyboard-response","294","497726","0.0-54.0","SS1613141047018","pref_question","","99","","","","","<video width ='960' height = '540' style='padding-top:8%' autoplay muted><source src='images/stimuli/wall_pref.mp4' type='video/mp4'></video>","3","right","66%","15","","","","","","","",""
"","1522.8400000050897","sequential-stimulus-presentation","295","500055","0.0-55.0","SS1613141047018","pref_reveal","","40","800","2322.8400000050897","null","null","","","","","15","","","","background","","","",""
"","null","html-keyboard-response","296","501288","0.0-56.0-0.0","SS1613141047018","","","null","","","","","<p><img src= images/blank.png width =""200"" height = ""200"" style = ""float:right""></p><p><img src=images/blank.png width =""800"" height = ""200""></p>","","","","","","","","","","","",""
"","602.7850000100443","sequential-stimulus-presentation","297","502702","0.0-56.0-1.0","SS1613141047018","trial","","40","800","1402.7850000100443","images/stimuli/spore_stims/simple_01_B_b.gif","images/stimuli/spore_stims/simple_15_A_b.gif","","","","","16","simple_dissimilar","images/stimuli/spore_stims/simple_15_A_b.gif","left","","","","",""
"","null","html-keyboard-response","298","503524","0.0-56.0-0.1","SS1613141047018","","","null","","","","","<p><img src= images/blank.png width =""200"" height = ""200"" style = ""float:right""></p><p><img src=images/blank.png width =""800"" height = ""200""></p>","","","","","","","","","","","",""
"","3055.1850000047125","sequential-stimulus-presentation","299","507391","0.0-56.0-1.1","SS1613141047018","trial","","40","800","3855.1850000047125","images/stimuli/spore_stims/simple_01_B_b.gif","images/stimuli/spore_stims/simple_15_A_b.gif","","","","","16","simple_dissimilar","images/stimuli/spore_stims/simple_15_A_b.gif","left","","","","",""
"","null","html-keyboard-response","300","508506","0.0-56.0-0.2","SS1613141047018","","","null","","","","","<p><img src= images/blank.png width =""200"" height = ""200"" style = ""float:right""></p><p><img src=images/blank.png width =""800"" height = ""200""></p>","","","","","","","","","","","",""
"","1221.350000007078","sequential-stimulus-presentation","301","510534","0.0-56.0-1.2","SS1613141047018","trial","","40","800","2021.350000007078","images/stimuli/spore_stims/simple_01_B_b.gif","images/stimuli/spore_stims/simple_15_A_b.gif","","","","","16","simple_dissimilar","images/stimuli/spore_stims/simple_15_A_b.gif","left","","","","",""
"","null","html-keyboard-response","302","511684","0.0-56.0-0.3","SS1613141047018","","","null","","","","","<p><img src= images/blank.png width =""200"" height = ""200"" style = ""float:right""></p><p><img src=images/blank.png width =""800"" height = ""200""></p>","","","","","","","","","","","",""
"","203.52499998989515","sequential-stimulus-presentation","303","512694","0.0-56.0-1.3","SS1613141047018","trial","","40","800","1003.5249999898952","images/stimuli/spore_stims/simple_01_B_b.gif","images/stimuli/spore_stims/simple_15_A_b.gif","","","","","16","simple_dissimilar","images/stimuli/spore_stims/simple_01_B_b.gif","right","","","","",""
"","null","html-keyboard-response","304","513639","0.0-56.0-0.4","SS1613141047018","","","null","","","","","<p><img src= images/blank.png width =""200"" height = ""200"" style = ""float:right""></p><p><img src=images/blank.png width =""800"" height = ""200""></p>","","","","","","","","","","","",""
"","783.015000008163","sequential-stimulus-presentation","305","515231","0.0-56.0-1.4","SS1613141047018","trial","","40","800","1583.015000008163","images/stimuli/spore_stims/simple_01_B_b.gif","images/stimuli/spore_stims/simple_15_A_b.gif","","","","","16","simple_dissimilar","images/stimuli/spore_stims/simple_15_A_b.gif","left","","","","",""
"","null","html-keyboard-response","306","516377","0.0-56.0-0.5","SS1613141047018","","","null","","","","","<p><img src= images/blank.png width =""200"" height = ""200"" style = ""float:right""></p><p><img src=images/blank.png width =""800"" height = ""200""></p>","","","","","","","","","","","",""
"","1037.1650000015507","sequential-stimulus-presentation","307","518223","0.0-56.0-1.5","SS1613141047018","trial","","40","800","1837.1650000015507","images/stimuli/spore_stims/simple_01_B_b.gif","images/stimuli/spore_stims/simple_15_A_b.gif","","","","","16","simple_dissimilar","images/stimuli/spore_stims/simple_15_A_b.gif","left","","","","",""
"","null","html-keyboard-response","308","519511","0.0-56.0-0.6","SS1613141047018","","","null","","","","","<p><img src= images/blank.png width =""200"" height = ""200"" style = ""float:right""></p><p><img src=images/blank.png width =""800"" height = ""200""></p>","","","","","","","","","","","",""
"","342.10999999777414","sequential-stimulus-presentation","309","520662","0.0-56.0-1.6","SS1613141047018","trial","","40","800","1142.1099999977741","images/stimuli/spore_stims/simple_01_B_b.gif","images/stimuli/spore_stims/simple_15_A_b.gif","","","","","16","simple_dissimilar","images/stimuli/spore_stims/simple_15_A_b.gif","left","","","","",""
"","null","html-keyboard-response","310","521618","0.0-56.0-0.7","SS1613141047018","","","null","","","","","<p><img src= images/blank.png width =""200"" height = ""200"" style = ""float:right""></p><p><img src=images/blank.png width =""800"" height = ""200""></p>","","","","","","","","","","","",""
"","61.19000000762753","sequential-stimulus-presentation","311","522486","0.0-56.0-1.7","SS1613141047018","trial","","40","800","861.1900000076275","images/stimuli/spore_stims/simple_01_B_b.gif","images/stimuli/spore_stims/simple_15_A_b.gif","","","","","16","simple_dissimilar","images/stimuli/spore_stims/simple_15_A_b.gif","left","","","","",""
"","3321.6300000058254","html-keyboard-response","312","525814","0.0-57.0","SS1613141047018","pref_question","","98","","","","","<video width ='960' height = '540' style='padding-top:8%' autoplay muted><source src='images/stimuli/wall_pref.mp4' type='video/mp4'></video>","2","middle","45%","16","","","","","","","",""
