"view_history","rt","trial_type","trial_index","time_elapsed","internal_node_id","subject","stimulus_type","trial_stimulus","key_press","minimum_viewing_duration","trial_looking_time","block_deviant","block_background","stimulus","wall_pref","location","location_percent","block_number","block_type","stimulus_displayed","position_displayed","stim_type_selected","responses","question_order","stimulus_left","stimulus_right"
"[{""page_index"":0,""viewing_time"":10190.345000009984}]","10190.885000047274","instructions","0","10193","0.0-0.0","SS1613098735934","","","","","","","","","","","","","","","","","","","",""
"[{""page_index"":0,""viewing_time"":17685.08500000462},{""page_index"":1,""viewing_time"":11704.185000038706}]","29389.51500004623","instructions","1","41584","0.0-1.0","SS1613098735934","instructions","","","","","","","","","","","","","","","","","","",""
"","14580.895000020973","sequential-stimulus-presentation","2","56968","0.0-2.0","SS1613098735934","","","40","800","15380.895000020973","null","null","","","","","","","","","","","","",""
"","524.3949999567121","sequential-stimulus-presentation","3","58295","0.0-3.0","SS1613098735934","","","40","800","1324.3949999567121","null","null","","","","","","","","","","","","",""
"[{""page_index"":0,""viewing_time"":8822.870000032708}]","8823.115000035614","instructions","4","67119","0.0-4.0","SS1613098735934","instructions","","","","","","","","","","","","","","","","","","",""
"","18518.329999991693","html-keyboard-response","5","85640","0.0-5.0","SS1613098735934","instructions","","49","","","","","<video width ='960' height = '540' autoplay muted><source src='images/stimuli/wall_pref.mp4' type='video/mp4'></video>","1","left","25%","","","","","","","","",""
"","7067.320000031032","sequential-stimulus-presentation","6","93511","0.0-6.0","SS1613098735934","pref_reveal","","40","800","7867.320000031032","null","null","","","","","","","","","","","","",""
"[{""page_index"":0,""viewing_time"":17278.97500002291},{""page_index"":1,""viewing_time"":5528.279999969527},{""page_index"":2,""viewing_time"":1879.60500002373},{""page_index"":3,""viewing_time"":1928.0850000213832}]","26615.14500004705","instructions","7","120128","0.0-7.0","SS1613098735934","instructions","","","","","","","","","","","","","","","","","","",""
"","null","html-keyboard-response","8","121213","0.0-8.0-0.0","SS1613098735934","","","null","","","","","<p><img src= images/blank.png width =""200"" height = ""200"" style = ""float:right""></p><p><img src=images/blank.png width =""800"" height = ""200""></p>","","","","","","","","","","","",""
"","12198.25499993749","sequential-stimulus-presentation","9","134216","0.0-8.0-1.0","SS1613098735934","trial","","40","800","12998.25499993749","images/stimuli/spore_stims/simple_17_B_c.gif","images/stimuli/spore_stims/simple_17_A_c.gif","","","","","0","simple_similar","images/stimuli/spore_stims/simple_17_A_c.gif","right","","","","",""
"","null","html-keyboard-response","10","135245","0.0-8.0-0.1","SS1613098735934","","","null","","","","","<p><img src= images/blank.png width =""200"" height = ""200"" style = ""float:right""></p><p><img src=images/blank.png width =""800"" height = ""200""></p>","","","","","","","","","","","",""
"","8632.395000080578","sequential-stimulus-presentation","11","144680","0.0-8.0-1.1","SS1613098735934","trial","","40","800","9432.395000080578","images/stimuli/spore_stims/simple_17_B_c.gif","images/stimuli/spore_stims/simple_17_A_c.gif","","","","","0","simple_similar","images/stimuli/spore_stims/simple_17_A_c.gif","right","","","","",""
"","null","html-keyboard-response","12","145982","0.0-8.0-0.2","SS1613098735934","","","null","","","","","<p><img src= images/blank.png width =""200"" height = ""200"" style = ""float:right""></p><p><img src=images/blank.png width =""800"" height = ""200""></p>","","","","","","","","","","","",""
"","12101.364999893121","sequential-stimulus-presentation","13","158888","0.0-8.0-1.2","SS1613098735934","trial","","40","800","12901.364999893121","images/stimuli/spore_stims/simple_17_B_c.gif","images/stimuli/spore_stims/simple_17_A_c.gif","","","","","0","simple_similar","images/stimuli/spore_stims/simple_17_A_c.gif","right","","","","",""
"","null","html-keyboard-response","14","160126","0.0-8.0-0.3","SS1613098735934","","","null","","","","","<p><img src= images/blank.png width =""200"" height = ""200"" style = ""float:right""></p><p><img src=images/blank.png width =""800"" height = ""200""></p>","","","","","","","","","","","",""
"","9669.579999987036","sequential-stimulus-presentation","15","170600","0.0-8.0-1.3","SS1613098735934","trial","","40","800","10469.579999987036","images/stimuli/spore_stims/simple_17_B_c.gif","images/stimuli/spore_stims/simple_17_A_c.gif","","","","","0","simple_similar","images/stimuli/spore_stims/simple_17_A_c.gif","right","","","","",""
"","null","html-keyboard-response","16","171882","0.0-8.0-0.4","SS1613098735934","","","null","","","","","<p><img src= images/blank.png width =""200"" height = ""200"" style = ""float:right""></p><p><img src=images/blank.png width =""800"" height = ""200""></p>","","","","","","","","","","","",""
"","8025.810000021011","sequential-stimulus-presentation","17","180713","0.0-8.0-1.4","SS1613098735934","trial","","40","800","8825.81000002101","images/stimuli/spore_stims/simple_17_B_c.gif","images/stimuli/spore_stims/simple_17_A_c.gif","","","","","0","simple_similar","images/stimuli/spore_stims/simple_17_A_c.gif","right","","","","",""
"","null","html-keyboard-response","18","181912","0.0-8.0-0.5","SS1613098735934","","","null","","","","","<p><img src= images/blank.png width =""200"" height = ""200"" style = ""float:right""></p><p><img src=images/blank.png width =""800"" height = ""200""></p>","","","","","","","","","","","",""
"","6731.894999975339","sequential-stimulus-presentation","19","189448","0.0-8.0-1.5","SS1613098735934","trial","","40","800","7531.894999975339","images/stimuli/spore_stims/simple_17_B_c.gif","images/stimuli/spore_stims/simple_17_A_c.gif","","","","","0","simple_similar","images/stimuli/spore_stims/simple_17_B_c.gif","left","","","","",""
"","null","html-keyboard-response","20","190396","0.0-8.0-0.6","SS1613098735934","","","null","","","","","<p><img src= images/blank.png width =""200"" height = ""200"" style = ""float:right""></p><p><img src=images/blank.png width =""800"" height = ""200""></p>","","","","","","","","","","","",""
"","8887.519999989308","sequential-stimulus-presentation","21","200088","0.0-8.0-1.6","SS1613098735934","trial","","40","800","9687.519999989308","images/stimuli/spore_stims/simple_17_B_c.gif","images/stimuli/spore_stims/simple_17_A_c.gif","","","","","0","simple_similar","images/stimuli/spore_stims/simple_17_A_c.gif","right","","","","",""
"","null","html-keyboard-response","22","200914","0.0-8.0-0.7","SS1613098735934","","","null","","","","","<p><img src= images/blank.png width =""200"" height = ""200"" style = ""float:right""></p><p><img src=images/blank.png width =""800"" height = ""200""></p>","","","","","","","","","","","",""
"","5857.625000062399","sequential-stimulus-presentation","23","207576","0.0-8.0-1.7","SS1613098735934","trial","","40","800","6657.625000062399","images/stimuli/spore_stims/simple_17_B_c.gif","images/stimuli/spore_stims/simple_17_A_c.gif","","","","","0","simple_similar","images/stimuli/spore_stims/simple_17_A_c.gif","right","","","","",""
"","2765.9749999875203","html-keyboard-response","24","210344","0.0-9.0","SS1613098735934","pref_question","","49","","","","","<video width ='960' height = '540' style='padding-top:8%' autoplay muted><source src='images/stimuli/wall_pref.mp4' type='video/mp4'></video>","1","left","25%","0","","","","","","","",""
"","5772.435000049882","sequential-stimulus-presentation","25","216920","0.0-10.0","SS1613098735934","pref_reveal","","40","800","6572.435000049882","null","null","","","","","0","","","","deviant","","","",""
"","null","html-keyboard-response","26","217854","0.0-11.0-0.0","SS1613098735934","","","null","","","","","<p><img src= images/blank.png width =""200"" height = ""200"" style = ""float:right""></p><p><img src=images/blank.png width =""800"" height = ""200""></p>","","","","","","","","","","","",""
"","15062.305000028573","sequential-stimulus-presentation","27","233720","0.0-11.0-1.0","SS1613098735934","trial","","40","800","15862.305000028573","images/stimuli/spore_stims/simple_19_A_b.gif","images/stimuli/spore_stims/simple_19_B_b.gif","","","","","1","simple_similar","images/stimuli/spore_stims/simple_19_B_b.gif","right","","","","",""
"","null","html-keyboard-response","28","234531","0.0-11.0-0.1","SS1613098735934","","","null","","","","","<p><img src= images/blank.png width =""200"" height = ""200"" style = ""float:right""></p><p><img src=images/blank.png width =""800"" height = ""200""></p>","","","","","","","","","","","",""
"","11168.300000019372","sequential-stimulus-presentation","29","246504","0.0-11.0-1.1","SS1613098735934","trial","","40","800","11968.300000019372","images/stimuli/spore_stims/simple_19_A_b.gif","images/stimuli/spore_stims/simple_19_B_b.gif","","","","","1","simple_similar","images/stimuli/spore_stims/simple_19_B_b.gif","right","","","","",""
"","null","html-keyboard-response","30","247748","0.0-11.0-0.2","SS1613098735934","","","null","","","","","<p><img src= images/blank.png width =""200"" height = ""200"" style = ""float:right""></p><p><img src=images/blank.png width =""800"" height = ""200""></p>","","","","","","","","","","","",""
"","6622.314999927767","sequential-stimulus-presentation","31","255176","0.0-11.0-1.2","SS1613098735934","trial","","40","800","7422.314999927767","images/stimuli/spore_stims/simple_19_A_b.gif","images/stimuli/spore_stims/simple_19_B_b.gif","","","","","1","simple_similar","images/stimuli/spore_stims/simple_19_B_b.gif","right","","","","",""
"","null","html-keyboard-response","32","256366","0.0-11.0-0.3","SS1613098735934","","","null","","","","","<p><img src= images/blank.png width =""200"" height = ""200"" style = ""float:right""></p><p><img src=images/blank.png width =""800"" height = ""200""></p>","","","","","","","","","","","",""
"","1077.9099999926984","sequential-stimulus-presentation","33","258248","0.0-11.0-1.3","SS1613098735934","trial","","40","800","1877.9099999926984","images/stimuli/spore_stims/simple_19_A_b.gif","images/stimuli/spore_stims/simple_19_B_b.gif","","","","","1","simple_similar","images/stimuli/spore_stims/simple_19_B_b.gif","right","","","","",""
"","null","html-keyboard-response","34","259462","0.0-11.0-0.4","SS1613098735934","","","null","","","","","<p><img src= images/blank.png width =""200"" height = ""200"" style = ""float:right""></p><p><img src=images/blank.png width =""800"" height = ""200""></p>","","","","","","","","","","","",""
"","4365.349999978207","sequential-stimulus-presentation","35","264631","0.0-11.0-1.4","SS1613098735934","trial","","40","800","5165.349999978207","images/stimuli/spore_stims/simple_19_A_b.gif","images/stimuli/spore_stims/simple_19_B_b.gif","","","","","1","simple_similar","images/stimuli/spore_stims/simple_19_B_b.gif","right","","","","",""
"","null","html-keyboard-response","36","265666","0.0-11.0-0.5","SS1613098735934","","","null","","","","","<p><img src= images/blank.png width =""200"" height = ""200"" style = ""float:right""></p><p><img src=images/blank.png width =""800"" height = ""200""></p>","","","","","","","","","","","",""
"","2097.5000000325963","sequential-stimulus-presentation","37","268568","0.0-11.0-1.5","SS1613098735934","trial","","40","800","2897.5000000325963","images/stimuli/spore_stims/simple_19_A_b.gif","images/stimuli/spore_stims/simple_19_B_b.gif","","","","","1","simple_similar","images/stimuli/spore_stims/simple_19_B_b.gif","right","","","","",""
"","null","html-keyboard-response","38","269502","0.0-11.0-0.6","SS1613098735934","","","null","","","","","<p><img src= images/blank.png width =""200"" height = ""200"" style = ""float:right""></p><p><img src=images/blank.png width =""800"" height = ""200""></p>","","","","","","","","","","","",""
"","3030.375000089407","sequential-stimulus-presentation","39","273335","0.0-11.0-1.6","SS1613098735934","trial","","40","800","3830.375000089407","images/stimuli/spore_stims/simple_19_A_b.gif","images/stimuli/spore_stims/simple_19_B_b.gif","","","","","1","simple_similar","images/stimuli/spore_stims/simple_19_B_b.gif","right","","","","",""
"","null","html-keyboard-response","40","274329","0.0-11.0-0.7","SS1613098735934","","","null","","","","","<p><img src= images/blank.png width =""200"" height = ""200"" style = ""float:right""></p><p><img src=images/blank.png width =""800"" height = ""200""></p>","","","","","","","","","","","",""
"","18090.45000001788","sequential-stimulus-presentation","41","293224","0.0-11.0-1.7","SS1613098735934","trial","","40","800","18890.45000001788","images/stimuli/spore_stims/simple_19_A_b.gif","images/stimuli/spore_stims/simple_19_B_b.gif","","","","","1","simple_similar","images/stimuli/spore_stims/simple_19_A_b.gif","left","","","","",""
"","2989.4149999599904","html-keyboard-response","42","296216","0.0-12.0","SS1613098735934","pref_question","","50","","","","","<video width ='960' height = '540' style='padding-top:8%' autoplay muted><source src='images/stimuli/wall_pref.mp4' type='video/mp4'></video>","2","middle","45%","1","","","","","","","",""
"","9131.885000038892","sequential-stimulus-presentation","43","306152","0.0-13.0","SS1613098735934","pref_reveal","","40","800","9931.885000038892","null","null","","","","","1","","","","novel","","","",""
"","null","html-keyboard-response","44","307337","0.0-14.0-0.0","SS1613098735934","","","null","","","","","<p><img src= images/blank.png width =""200"" height = ""200"" style = ""float:right""></p><p><img src=images/blank.png width =""800"" height = ""200""></p>","","","","","","","","","","","",""
"","7547.684999997728","sequential-stimulus-presentation","45","315688","0.0-14.0-1.0","SS1613098735934","trial","","40","800","8347.684999997728","images/stimuli/spore_stims/simple_05_B_d.gif","images/stimuli/spore_stims/simple_05_A_d.gif","","","","","2","simple_similar","images/stimuli/spore_stims/simple_05_A_d.gif","right","","","","",""
"","null","html-keyboard-response","46","316760","0.0-14.0-0.1","SS1613098735934","","","null","","","","","<p><img src= images/blank.png width =""200"" height = ""200"" style = ""float:right""></p><p><img src=images/blank.png width =""800"" height = ""200""></p>","","","","","","","","","","","",""
"","1499.3250000989065","sequential-stimulus-presentation","47","319065","0.0-14.0-1.1","SS1613098735934","trial","","40","800","2299.3250000989065","images/stimuli/spore_stims/simple_05_B_d.gif","images/stimuli/spore_stims/simple_05_A_d.gif","","","","","2","simple_similar","images/stimuli/spore_stims/simple_05_A_d.gif","right","","","","",""
"","null","html-keyboard-response","48","320017","0.0-14.0-0.2","SS1613098735934","","","null","","","","","<p><img src= images/blank.png width =""200"" height = ""200"" style = ""float:right""></p><p><img src=images/blank.png width =""800"" height = ""200""></p>","","","","","","","","","","","",""
"","1650.6300000473857","sequential-stimulus-presentation","49","322472","0.0-14.0-1.2","SS1613098735934","trial","","40","800","2450.6300000473857","images/stimuli/spore_stims/simple_05_B_d.gif","images/stimuli/spore_stims/simple_05_A_d.gif","","","","","2","simple_similar","images/stimuli/spore_stims/simple_05_A_d.gif","right","","","","",""
"","null","html-keyboard-response","50","323723","0.0-14.0-0.3","SS1613098735934","","","null","","","","","<p><img src= images/blank.png width =""200"" height = ""200"" style = ""float:right""></p><p><img src=images/blank.png width =""800"" height = ""200""></p>","","","","","","","","","","","",""
"","488.23000001721084","sequential-stimulus-presentation","51","325016","0.0-14.0-1.3","SS1613098735934","trial","","40","800","1288.2300000172108","images/stimuli/spore_stims/simple_05_B_d.gif","images/stimuli/spore_stims/simple_05_A_d.gif","","","","","2","simple_similar","images/stimuli/spore_stims/simple_05_A_d.gif","right","","","","",""
"","null","html-keyboard-response","52","325987","0.0-14.0-0.4","SS1613098735934","","","null","","","","","<p><img src= images/blank.png width =""200"" height = ""200"" style = ""float:right""></p><p><img src=images/blank.png width =""800"" height = ""200""></p>","","","","","","","","","","","",""
"","657.4649999383837","sequential-stimulus-presentation","53","327448","0.0-14.0-1.4","SS1613098735934","trial","","40","800","1457.4649999383837","images/stimuli/spore_stims/simple_05_B_d.gif","images/stimuli/spore_stims/simple_05_A_d.gif","","","","","2","simple_similar","images/stimuli/spore_stims/simple_05_A_d.gif","right","","","","",""
"","null","html-keyboard-response","54","328649","0.0-14.0-0.5","SS1613098735934","","","null","","","","","<p><img src= images/blank.png width =""200"" height = ""200"" style = ""float:right""></p><p><img src=images/blank.png width =""800"" height = ""200""></p>","","","","","","","","","","","",""
"","5658.799999975599","sequential-stimulus-presentation","55","335112","0.0-14.0-1.5","SS1613098735934","trial","","40","800","6458.799999975599","images/stimuli/spore_stims/simple_05_B_d.gif","images/stimuli/spore_stims/simple_05_A_d.gif","","","","","2","simple_similar","images/stimuli/spore_stims/simple_05_B_d.gif","middle","","","","",""
"","null","html-keyboard-response","56","335976","0.0-14.0-0.6","SS1613098735934","","","null","","","","","<p><img src= images/blank.png width =""200"" height = ""200"" style = ""float:right""></p><p><img src=images/blank.png width =""800"" height = ""200""></p>","","","","","","","","","","","",""
"","4426.659999997355","sequential-stimulus-presentation","57","341208","0.0-14.0-1.6","SS1613098735934","trial","","40","800","5226.659999997355","images/stimuli/spore_stims/simple_05_B_d.gif","images/stimuli/spore_stims/simple_05_A_d.gif","","","","","2","simple_similar","images/stimuli/spore_stims/simple_05_A_d.gif","right","","","","",""
"","null","html-keyboard-response","58","342175","0.0-14.0-0.7","SS1613098735934","","","null","","","","","<p><img src= images/blank.png width =""200"" height = ""200"" style = ""float:right""></p><p><img src=images/blank.png width =""800"" height = ""200""></p>","","","","","","","","","","","",""
"","1173.6950000049546","sequential-stimulus-presentation","59","344152","0.0-14.0-1.7","SS1613098735934","trial","","40","800","1973.6950000049546","images/stimuli/spore_stims/simple_05_B_d.gif","images/stimuli/spore_stims/simple_05_A_d.gif","","","","","2","simple_similar","images/stimuli/spore_stims/simple_05_A_d.gif","right","","","","",""
"","2316.6400000918657","html-keyboard-response","60","346472","0.0-15.0","SS1613098735934","pref_question","","51","","","","","<video width ='960' height = '540' style='padding-top:8%' autoplay muted><source src='images/stimuli/wall_pref.mp4' type='video/mp4'></video>","3","right","66%","2","","","","","","","",""
"","2555.3199999267235","sequential-stimulus-presentation","61","349832","0.0-16.0","SS1613098735934","pref_reveal","","40","800","3355.3199999267235","null","null","","","","","2","","","","background","","","",""
"","null","html-keyboard-response","62","351002","0.0-17.0-0.0","SS1613098735934","","","null","","","","","<p><img src= images/blank.png width =""200"" height = ""200"" style = ""float:right""></p><p><img src=images/blank.png width =""800"" height = ""200""></p>","","","","","","","","","","","",""
"","5810.504999943078","sequential-stimulus-presentation","63","357625","0.0-17.0-1.0","SS1613098735934","trial","","40","800","6610.504999943078","images/stimuli/spore_stims/simple_07_B_c.gif","images/stimuli/spore_stims/simple_04_B_c.gif","","","","","3","simple_dissimilar","images/stimuli/spore_stims/simple_04_B_c.gif","middle","","","","",""
"","null","html-keyboard-response","64","358567","0.0-17.0-0.1","SS1613098735934","","","null","","","","","<p><img src= images/blank.png width =""200"" height = ""200"" style = ""float:right""></p><p><img src=images/blank.png width =""800"" height = ""200""></p>","","","","","","","","","","","",""
"","1595.975000062026","sequential-stimulus-presentation","65","360968","0.0-17.0-1.1","SS1613098735934","trial","","40","800","2395.975000062026","images/stimuli/spore_stims/simple_07_B_c.gif","images/stimuli/spore_stims/simple_04_B_c.gif","","","","","3","simple_dissimilar","images/stimuli/spore_stims/simple_04_B_c.gif","middle","","","","",""
"","null","html-keyboard-response","66","362010","0.0-17.0-0.2","SS1613098735934","","","null","","","","","<p><img src= images/blank.png width =""200"" height = ""200"" style = ""float:right""></p><p><img src=images/blank.png width =""800"" height = ""200""></p>","","","","","","","","","","","",""
"","2505.1349999848753","sequential-stimulus-presentation","67","365320","0.0-17.0-1.2","SS1613098735934","trial","","40","800","3305.1349999848753","images/stimuli/spore_stims/simple_07_B_c.gif","images/stimuli/spore_stims/simple_04_B_c.gif","","","","","3","simple_dissimilar","images/stimuli/spore_stims/simple_04_B_c.gif","middle","","","","",""
"","null","html-keyboard-response","68","366275","0.0-17.0-0.3","SS1613098735934","","","null","","","","","<p><img src= images/blank.png width =""200"" height = ""200"" style = ""float:right""></p><p><img src=images/blank.png width =""800"" height = ""200""></p>","","","","","","","","","","","",""
"","7040.899999905378","sequential-stimulus-presentation","69","374120","0.0-17.0-1.3","SS1613098735934","trial","","40","800","7840.899999905378","images/stimuli/spore_stims/simple_07_B_c.gif","images/stimuli/spore_stims/simple_04_B_c.gif","","","","","3","simple_dissimilar","images/stimuli/spore_stims/simple_04_B_c.gif","middle","","","","",""
"","null","html-keyboard-response","70","375171","0.0-17.0-0.4","SS1613098735934","","","null","","","","","<p><img src= images/blank.png width =""200"" height = ""200"" style = ""float:right""></p><p><img src=images/blank.png width =""800"" height = ""200""></p>","","","","","","","","","","","",""
"","891.8699999339879","sequential-stimulus-presentation","71","376872","0.0-17.0-1.4","SS1613098735934","trial","","40","800","1691.8699999339879","images/stimuli/spore_stims/simple_07_B_c.gif","images/stimuli/spore_stims/simple_04_B_c.gif","","","","","3","simple_dissimilar","images/stimuli/spore_stims/simple_04_B_c.gif","middle","","","","",""
"","null","html-keyboard-response","72","377806","0.0-17.0-0.5","SS1613098735934","","","null","","","","","<p><img src= images/blank.png width =""200"" height = ""200"" style = ""float:right""></p><p><img src=images/blank.png width =""800"" height = ""200""></p>","","","","","","","","","","","",""
"","790.694999974221","sequential-stimulus-presentation","73","379400","0.0-17.0-1.5","SS1613098735934","trial","","40","800","1590.694999974221","images/stimuli/spore_stims/simple_07_B_c.gif","images/stimuli/spore_stims/simple_04_B_c.gif","","","","","3","simple_dissimilar","images/stimuli/spore_stims/simple_04_B_c.gif","middle","","","","",""
"","null","html-keyboard-response","74","380250","0.0-17.0-0.6","SS1613098735934","","","null","","","","","<p><img src= images/blank.png width =""200"" height = ""200"" style = ""float:right""></p><p><img src=images/blank.png width =""800"" height = ""200""></p>","","","","","","","","","","","",""
"","4697.689999942668","sequential-stimulus-presentation","75","385753","0.0-17.0-1.6","SS1613098735934","trial","","40","800","5497.689999942668","images/stimuli/spore_stims/simple_07_B_c.gif","images/stimuli/spore_stims/simple_04_B_c.gif","","","","","3","simple_dissimilar","images/stimuli/spore_stims/simple_07_B_c.gif","right","","","","",""
"","null","html-keyboard-response","76","386919","0.0-17.0-0.7","SS1613098735934","","","null","","","","","<p><img src= images/blank.png width =""200"" height = ""200"" style = ""float:right""></p><p><img src=images/blank.png width =""800"" height = ""200""></p>","","","","","","","","","","","",""
"","2736.3499999046326","sequential-stimulus-presentation","77","390460","0.0-17.0-1.7","SS1613098735934","trial","","40","800","3536.3499999046326","images/stimuli/spore_stims/simple_07_B_c.gif","images/stimuli/spore_stims/simple_04_B_c.gif","","","","","3","simple_dissimilar","images/stimuli/spore_stims/simple_04_B_c.gif","middle","","","","",""
"","1976.3650000095367","html-keyboard-response","78","392440","0.0-18.0","SS1613098735934","pref_question","","49","","","","","<video width ='960' height = '540' style='padding-top:8%' autoplay muted><source src='images/stimuli/wall_pref.mp4' type='video/mp4'></video>","1","left","25%","3","","","","","","","",""
"","6045.304999919608","sequential-stimulus-presentation","79","399288","0.0-19.0","SS1613098735934","pref_reveal","","40","800","6845.304999919608","null","null","","","","","3","","","","novel","","","",""
"","null","html-keyboard-response","80","400589","0.0-20.0-0.0","SS1613098735934","","","null","","","","","<p><img src= images/blank.png width =""200"" height = ""200"" style = ""float:right""></p><p><img src=images/blank.png width =""800"" height = ""200""></p>","","","","","","","","","","","",""
"","6022.789999959059","sequential-stimulus-presentation","81","407416","0.0-20.0-1.0","SS1613098735934","trial","","40","800","6822.789999959059","images/stimuli/spore_stims/complex_15_A_c.gif","images/stimuli/spore_stims/complex_15_B_c.gif","","","","","4","complex_similar","images/stimuli/spore_stims/complex_15_B_c.gif","left","","","","",""
"","null","html-keyboard-response","82","408413","0.0-20.0-0.1","SS1613098735934","","","null","","","","","<p><img src= images/blank.png width =""200"" height = ""200"" style = ""float:right""></p><p><img src=images/blank.png width =""800"" height = ""200""></p>","","","","","","","","","","","",""
"","966.8649999657646","sequential-stimulus-presentation","83","410184","0.0-20.0-1.1","SS1613098735934","trial","","40","800","1766.8649999657646","images/stimuli/spore_stims/complex_15_A_c.gif","images/stimuli/spore_stims/complex_15_B_c.gif","","","","","4","complex_similar","images/stimuli/spore_stims/complex_15_B_c.gif","left","","","","",""
"","null","html-keyboard-response","84","411046","0.0-20.0-0.2","SS1613098735934","","","null","","","","","<p><img src= images/blank.png width =""200"" height = ""200"" style = ""float:right""></p><p><img src=images/blank.png width =""800"" height = ""200""></p>","","","","","","","","","","","",""
"","6702.519999933429","sequential-stimulus-presentation","85","418553","0.0-20.0-1.2","SS1613098735934","trial","","40","800","7502.519999933429","images/stimuli/spore_stims/complex_15_A_c.gif","images/stimuli/spore_stims/complex_15_B_c.gif","","","","","4","complex_similar","images/stimuli/spore_stims/complex_15_A_c.gif","right","","","","",""
"","null","html-keyboard-response","86","419479","0.0-20.0-0.3","SS1613098735934","","","null","","","","","<p><img src= images/blank.png width =""200"" height = ""200"" style = ""float:right""></p><p><img src=images/blank.png width =""800"" height = ""200""></p>","","","","","","","","","","","",""
"","5165.8949999837205","sequential-stimulus-presentation","87","425449","0.0-20.0-1.3","SS1613098735934","trial","","40","800","5965.8949999837205","images/stimuli/spore_stims/complex_15_A_c.gif","images/stimuli/spore_stims/complex_15_B_c.gif","","","","","4","complex_similar","images/stimuli/spore_stims/complex_15_B_c.gif","left","","","","",""
"","null","html-keyboard-response","88","426308","0.0-20.0-0.4","SS1613098735934","","","null","","","","","<p><img src= images/blank.png width =""200"" height = ""200"" style = ""float:right""></p><p><img src=images/blank.png width =""800"" height = ""200""></p>","","","","","","","","","","","",""
"","770.725000067614","sequential-stimulus-presentation","89","427897","0.0-20.0-1.4","SS1613098735934","trial","","40","800","1570.725000067614","images/stimuli/spore_stims/complex_15_A_c.gif","images/stimuli/spore_stims/complex_15_B_c.gif","","","","","4","complex_similar","images/stimuli/spore_stims/complex_15_B_c.gif","left","","","","",""
"","null","html-keyboard-response","90","429192","0.0-20.0-0.5","SS1613098735934","","","null","","","","","<p><img src= images/blank.png width =""200"" height = ""200"" style = ""float:right""></p><p><img src=images/blank.png width =""800"" height = ""200""></p>","","","","","","","","","","","",""
"","525.2099999925122","sequential-stimulus-presentation","91","430520","0.0-20.0-1.5","SS1613098735934","trial","","40","800","1325.2099999925122","images/stimuli/spore_stims/complex_15_A_c.gif","images/stimuli/spore_stims/complex_15_B_c.gif","","","","","4","complex_similar","images/stimuli/spore_stims/complex_15_B_c.gif","left","","","","",""
"","null","html-keyboard-response","92","431552","0.0-20.0-0.6","SS1613098735934","","","null","","","","","<p><img src= images/blank.png width =""200"" height = ""200"" style = ""float:right""></p><p><img src=images/blank.png width =""800"" height = ""200""></p>","","","","","","","","","","","",""
"","516.925000003539","sequential-stimulus-presentation","93","432873","0.0-20.0-1.6","SS1613098735934","trial","","40","800","1316.925000003539","images/stimuli/spore_stims/complex_15_A_c.gif","images/stimuli/spore_stims/complex_15_B_c.gif","","","","","4","complex_similar","images/stimuli/spore_stims/complex_15_B_c.gif","left","","","","",""
"","null","html-keyboard-response","94","434000","0.0-20.0-0.7","SS1613098735934","","","null","","","","","<p><img src= images/blank.png width =""200"" height = ""200"" style = ""float:right""></p><p><img src=images/blank.png width =""800"" height = ""200""></p>","","","","","","","","","","","",""
"","421.3799999561161","sequential-stimulus-presentation","95","435225","0.0-20.0-1.7","SS1613098735934","trial","","40","800","1221.379999956116","images/stimuli/spore_stims/complex_15_A_c.gif","images/stimuli/spore_stims/complex_15_B_c.gif","","","","","4","complex_similar","images/stimuli/spore_stims/complex_15_B_c.gif","left","","","","",""
"","2669.80000003241","html-keyboard-response","96","437897","0.0-21.0","SS1613098735934","pref_question","","50","","","","","<video width ='960' height = '540' style='padding-top:8%' autoplay muted><source src='images/stimuli/wall_pref.mp4' type='video/mp4'></video>","2","middle","45%","4","","","","","","","",""
"","11708.680000039749","sequential-stimulus-presentation","97","450409","0.0-22.0","SS1613098735934","pref_reveal","","40","800","12508.680000039749","null","null","","","","","4","","","","novel","","","",""
"","null","html-keyboard-response","98","451387","0.0-23.0-0.0","SS1613098735934","","","null","","","","","<p><img src= images/blank.png width =""200"" height = ""200"" style = ""float:right""></p><p><img src=images/blank.png width =""800"" height = ""200""></p>","","","","","","","","","","","",""
"","2936.739999917336","sequential-stimulus-presentation","99","455129","0.0-23.0-1.0","SS1613098735934","trial","","40","800","3736.739999917336","images/stimuli/spore_stims/complex_18_A_c.gif","images/stimuli/spore_stims/complex_18_B_c.gif","","","","","5","complex_similar","images/stimuli/spore_stims/complex_18_B_c.gif","right","","","","",""
"","null","html-keyboard-response","100","456374","0.0-23.0-0.1","SS1613098735934","","","null","","","","","<p><img src= images/blank.png width =""200"" height = ""200"" style = ""float:right""></p><p><img src=images/blank.png width =""800"" height = ""200""></p>","","","","","","","","","","","",""
"","305.8250000467524","sequential-stimulus-presentation","101","457497","0.0-23.0-1.1","SS1613098735934","trial","","40","800","1105.8250000467524","images/stimuli/spore_stims/complex_18_A_c.gif","images/stimuli/spore_stims/complex_18_B_c.gif","","","","","5","complex_similar","images/stimuli/spore_stims/complex_18_B_c.gif","right","","","","",""
"","null","html-keyboard-response","102","458409","0.0-23.0-0.2","SS1613098735934","","","null","","","","","<p><img src= images/blank.png width =""200"" height = ""200"" style = ""float:right""></p><p><img src=images/blank.png width =""800"" height = ""200""></p>","","","","","","","","","","","",""
"","684.5800000010058","sequential-stimulus-presentation","103","459897","0.0-23.0-1.2","SS1613098735934","trial","","40","800","1484.5800000010058","images/stimuli/spore_stims/complex_18_A_c.gif","images/stimuli/spore_stims/complex_18_B_c.gif","","","","","5","complex_similar","images/stimuli/spore_stims/complex_18_B_c.gif","right","","","","",""
"","null","html-keyboard-response","104","460891","0.0-23.0-0.3","SS1613098735934","","","null","","","","","<p><img src= images/blank.png width =""200"" height = ""200"" style = ""float:right""></p><p><img src=images/blank.png width =""800"" height = ""200""></p>","","","","","","","","","","","",""
"","361.7049999302253","sequential-stimulus-presentation","105","462057","0.0-23.0-1.3","SS1613098735934","trial","","40","800","1161.7049999302253","images/stimuli/spore_stims/complex_18_A_c.gif","images/stimuli/spore_stims/complex_18_B_c.gif","","","","","5","complex_similar","images/stimuli/spore_stims/complex_18_B_c.gif","right","","","","",""
"","null","html-keyboard-response","106","463132","0.0-23.0-0.4","SS1613098735934","","","null","","","","","<p><img src= images/blank.png width =""200"" height = ""200"" style = ""float:right""></p><p><img src=images/blank.png width =""800"" height = ""200""></p>","","","","","","","","","","","",""
"","2376.6900000628084","sequential-stimulus-presentation","107","466313","0.0-23.0-1.4","SS1613098735934","trial","","40","800","3176.6900000628084","images/stimuli/spore_stims/complex_18_A_c.gif","images/stimuli/spore_stims/complex_18_B_c.gif","","","","","5","complex_similar","images/stimuli/spore_stims/complex_18_A_c.gif","middle","","","","",""
"","null","html-keyboard-response","108","467323","0.0-23.0-0.5","SS1613098735934","","","null","","","","","<p><img src= images/blank.png width =""200"" height = ""200"" style = ""float:right""></p><p><img src=images/blank.png width =""800"" height = ""200""></p>","","","","","","","","","","","",""
"","582.3950000340119","sequential-stimulus-presentation","109","468713","0.0-23.0-1.5","SS1613098735934","trial","","40","800","1382.395000034012","images/stimuli/spore_stims/complex_18_A_c.gif","images/stimuli/spore_stims/complex_18_B_c.gif","","","","","5","complex_similar","images/stimuli/spore_stims/complex_18_B_c.gif","right","","","","",""
"","null","html-keyboard-response","110","469720","0.0-23.0-0.6","SS1613098735934","","","null","","","","","<p><img src= images/blank.png width =""200"" height = ""200"" style = ""float:right""></p><p><img src=images/blank.png width =""800"" height = ""200""></p>","","","","","","","","","","","",""
"","394.54000000841916","sequential-stimulus-presentation","111","470921","0.0-23.0-1.6","SS1613098735934","trial","","40","800","1194.5400000084192","images/stimuli/spore_stims/complex_18_A_c.gif","images/stimuli/spore_stims/complex_18_B_c.gif","","","","","5","complex_similar","images/stimuli/spore_stims/complex_18_B_c.gif","right","","","","",""
"","null","html-keyboard-response","112","472185","0.0-23.0-0.7","SS1613098735934","","","null","","","","","<p><img src= images/blank.png width =""200"" height = ""200"" style = ""float:right""></p><p><img src=images/blank.png width =""800"" height = ""200""></p>","","","","","","","","","","","",""
"","524.7800000943244","sequential-stimulus-presentation","113","473513","0.0-23.0-1.7","SS1613098735934","trial","","40","800","1324.7800000943244","images/stimuli/spore_stims/complex_18_A_c.gif","images/stimuli/spore_stims/complex_18_B_c.gif","","","","","5","complex_similar","images/stimuli/spore_stims/complex_18_B_c.gif","right","","","","",""
"","1931.899999966845","html-keyboard-response","114","475449","0.0-24.0","SS1613098735934","pref_question","","50","","","","","<video width ='960' height = '540' style='padding-top:8%' autoplay muted><source src='images/stimuli/wall_pref.mp4' type='video/mp4'></video>","2","middle","45%","5","","","","","","","",""
"","1564.269999973476","sequential-stimulus-presentation","115","477817","0.0-25.0","SS1613098735934","pref_reveal","","40","800","2364.269999973476","null","null","","","","","5","","","","deviant","","","",""
"","null","html-keyboard-response","116","479003","0.0-26.0-0.0","SS1613098735934","","","null","","","","","<p><img src= images/blank.png width =""200"" height = ""200"" style = ""float:right""></p><p><img src=images/blank.png width =""800"" height = ""200""></p>","","","","","","","","","","","",""
"","3866.3350000279024","sequential-stimulus-presentation","117","483673","0.0-26.0-1.0","SS1613098735934","trial","","40","800","4666.335000027902","images/stimuli/spore_stims/complex_20_B_c.gif","images/stimuli/spore_stims/complex_20_A_c.gif","","","","","6","complex_similar","images/stimuli/spore_stims/complex_20_A_c.gif","left","","","","",""
"","null","html-keyboard-response","118","484667","0.0-26.0-0.1","SS1613098735934","","","null","","","","","<p><img src= images/blank.png width =""200"" height = ""200"" style = ""float:right""></p><p><img src=images/blank.png width =""800"" height = ""200""></p>","","","","","","","","","","","",""
"","635.3749999543652","sequential-stimulus-presentation","119","486121","0.0-26.0-1.1","SS1613098735934","trial","","40","800","1435.3749999543652","images/stimuli/spore_stims/complex_20_B_c.gif","images/stimuli/spore_stims/complex_20_A_c.gif","","","","","6","complex_similar","images/stimuli/spore_stims/complex_20_A_c.gif","left","","","","",""
"","null","html-keyboard-response","120","487023","0.0-26.0-0.2","SS1613098735934","","","null","","","","","<p><img src= images/blank.png width =""200"" height = ""200"" style = ""float:right""></p><p><img src=images/blank.png width =""800"" height = ""200""></p>","","","","","","","","","","","",""
"","1317.4550000112504","sequential-stimulus-presentation","121","489145","0.0-26.0-1.2","SS1613098735934","trial","","40","800","2117.4550000112504","images/stimuli/spore_stims/complex_20_B_c.gif","images/stimuli/spore_stims/complex_20_A_c.gif","","","","","6","complex_similar","images/stimuli/spore_stims/complex_20_A_c.gif","left","","","","",""
"","null","html-keyboard-response","122","490366","0.0-26.0-0.3","SS1613098735934","","","null","","","","","<p><img src= images/blank.png width =""200"" height = ""200"" style = ""float:right""></p><p><img src=images/blank.png width =""800"" height = ""200""></p>","","","","","","","","","","","",""
"","3382.9749999567866","sequential-stimulus-presentation","123","494553","0.0-26.0-1.3","SS1613098735934","trial","","40","800","4182.974999956787","images/stimuli/spore_stims/complex_20_B_c.gif","images/stimuli/spore_stims/complex_20_A_c.gif","","","","","6","complex_similar","images/stimuli/spore_stims/complex_20_B_c.gif","right","","","","",""
"","null","html-keyboard-response","124","495727","0.0-26.0-0.4","SS1613098735934","","","null","","","","","<p><img src= images/blank.png width =""200"" height = ""200"" style = ""float:right""></p><p><img src=images/blank.png width =""800"" height = ""200""></p>","","","","","","","","","","","",""
"","684.4699999783188","sequential-stimulus-presentation","125","497225","0.0-26.0-1.4","SS1613098735934","trial","","40","800","1484.4699999783188","images/stimuli/spore_stims/complex_20_B_c.gif","images/stimuli/spore_stims/complex_20_A_c.gif","","","","","6","complex_similar","images/stimuli/spore_stims/complex_20_A_c.gif","left","","","","",""
"","null","html-keyboard-response","126","498268","0.0-26.0-0.5","SS1613098735934","","","null","","","","","<p><img src= images/blank.png width =""200"" height = ""200"" style = ""float:right""></p><p><img src=images/blank.png width =""800"" height = ""200""></p>","","","","","","","","","","","",""
"","568.3150000404567","sequential-stimulus-presentation","127","499641","0.0-26.0-1.5","SS1613098735934","trial","","40","800","1368.3150000404567","images/stimuli/spore_stims/complex_20_B_c.gif","images/stimuli/spore_stims/complex_20_A_c.gif","","","","","6","complex_similar","images/stimuli/spore_stims/complex_20_A_c.gif","left","","","","",""
"","null","html-keyboard-response","128","500809","0.0-26.0-0.6","SS1613098735934","","","null","","","","","<p><img src= images/blank.png width =""200"" height = ""200"" style = ""float:right""></p><p><img src=images/blank.png width =""800"" height = ""200""></p>","","","","","","","","","","","",""
"","491.2150000454858","sequential-stimulus-presentation","129","502105","0.0-26.0-1.6","SS1613098735934","trial","","40","800","1291.2150000454858","images/stimuli/spore_stims/complex_20_B_c.gif","images/stimuli/spore_stims/complex_20_A_c.gif","","","","","6","complex_similar","images/stimuli/spore_stims/complex_20_A_c.gif","left","","","","",""
"","null","html-keyboard-response","130","503342","0.0-26.0-0.7","SS1613098735934","","","null","","","","","<p><img src= images/blank.png width =""200"" height = ""200"" style = ""float:right""></p><p><img src=images/blank.png width =""800"" height = ""200""></p>","","","","","","","","","","","",""
"","463.5850000195205","sequential-stimulus-presentation","131","504617","0.0-26.0-1.7","SS1613098735934","trial","","40","800","1263.5850000195205","images/stimuli/spore_stims/complex_20_B_c.gif","images/stimuli/spore_stims/complex_20_A_c.gif","","","","","6","complex_similar","images/stimuli/spore_stims/complex_20_A_c.gif","left","","","","",""
"","2397.0749999862164","html-keyboard-response","132","507017","0.0-27.0","SS1613098735934","pref_question","","49","","","","","<video width ='960' height = '540' style='padding-top:8%' autoplay muted><source src='images/stimuli/wall_pref.mp4' type='video/mp4'></video>","1","left","25%","6","","","","","","","",""
"","876.505000051111","sequential-stimulus-presentation","133","508697","0.0-28.0","SS1613098735934","pref_reveal","","40","800","1676.505000051111","null","null","","","","","6","","","","background","","","",""
"","null","html-keyboard-response","134","509827","0.0-29.0-0.0","SS1613098735934","","","null","","","","","<p><img src= images/blank.png width =""200"" height = ""200"" style = ""float:right""></p><p><img src=images/blank.png width =""800"" height = ""200""></p>","","","","","","","","","","","",""
"","4069.2249999847263","sequential-stimulus-presentation","135","514713","0.0-29.0-1.0","SS1613098735934","trial","","40","800","4869.224999984726","images/stimuli/spore_stims/complex_11_A_c.gif","images/stimuli/spore_stims/complex_12_A_d.gif","","","","","7","complex_dissimilar","images/stimuli/spore_stims/complex_12_A_d.gif","right","","","","",""
"","null","html-keyboard-response","136","515530","0.0-29.0-0.1","SS1613098735934","","","null","","","","","<p><img src= images/blank.png width =""200"" height = ""200"" style = ""float:right""></p><p><img src=images/blank.png width =""800"" height = ""200""></p>","","","","","","","","","","","",""
"","362.5499999616295","sequential-stimulus-presentation","137","516697","0.0-29.0-1.1","SS1613098735934","trial","","40","800","1162.5499999616295","images/stimuli/spore_stims/complex_11_A_c.gif","images/stimuli/spore_stims/complex_12_A_d.gif","","","","","7","complex_dissimilar","images/stimuli/spore_stims/complex_12_A_d.gif","right","","","","",""
"","null","html-keyboard-response","138","517576","0.0-29.0-0.2","SS1613098735934","","","null","","","","","<p><img src= images/blank.png width =""200"" height = ""200"" style = ""float:right""></p><p><img src=images/blank.png width =""800"" height = ""200""></p>","","","","","","","","","","","",""
"","1346.030000015162","sequential-stimulus-presentation","139","519737","0.0-29.0-1.2","SS1613098735934","trial","","40","800","2146.030000015162","images/stimuli/spore_stims/complex_11_A_c.gif","images/stimuli/spore_stims/complex_12_A_d.gif","","","","","7","complex_dissimilar","images/stimuli/spore_stims/complex_12_A_d.gif","right","","","","",""
"","null","html-keyboard-response","140","520861","0.0-29.0-0.3","SS1613098735934","","","null","","","","","<p><img src= images/blank.png width =""200"" height = ""200"" style = ""float:right""></p><p><img src=images/blank.png width =""800"" height = ""200""></p>","","","","","","","","","","","",""
"","471.04000009130687","sequential-stimulus-presentation","141","522137","0.0-29.0-1.3","SS1613098735934","trial","","40","800","1271.0400000913069","images/stimuli/spore_stims/complex_11_A_c.gif","images/stimuli/spore_stims/complex_12_A_d.gif","","","","","7","complex_dissimilar","images/stimuli/spore_stims/complex_12_A_d.gif","right","","","","",""
"","null","html-keyboard-response","142","523343","0.0-29.0-0.4","SS1613098735934","","","null","","","","","<p><img src= images/blank.png width =""200"" height = ""200"" style = ""float:right""></p><p><img src=images/blank.png width =""800"" height = ""200""></p>","","","","","","","","","","","",""
"","3862.584999995306","sequential-stimulus-presentation","143","528009","0.0-29.0-1.4","SS1613098735934","trial","","40","800","4662.584999995306","images/stimuli/spore_stims/complex_11_A_c.gif","images/stimuli/spore_stims/complex_12_A_d.gif","","","","","7","complex_dissimilar","images/stimuli/spore_stims/complex_11_A_c.gif","middle","","","","",""
"","null","html-keyboard-response","144","529103","0.0-29.0-0.5","SS1613098735934","","","null","","","","","<p><img src= images/blank.png width =""200"" height = ""200"" style = ""float:right""></p><p><img src=images/blank.png width =""800"" height = ""200""></p>","","","","","","","","","","","",""
"","1117.8749999962747","sequential-stimulus-presentation","145","531033","0.0-29.0-1.5","SS1613098735934","trial","","40","800","1917.8749999962747","images/stimuli/spore_stims/complex_11_A_c.gif","images/stimuli/spore_stims/complex_12_A_d.gif","","","","","7","complex_dissimilar","images/stimuli/spore_stims/complex_12_A_d.gif","right","","","","",""
"","null","html-keyboard-response","146","532120","0.0-29.0-0.6","SS1613098735934","","","null","","","","","<p><img src= images/blank.png width =""200"" height = ""200"" style = ""float:right""></p><p><img src=images/blank.png width =""800"" height = ""200""></p>","","","","","","","","","","","",""
"","1351.494999951683","sequential-stimulus-presentation","147","534281","0.0-29.0-1.6","SS1613098735934","trial","","40","800","2151.494999951683","images/stimuli/spore_stims/complex_11_A_c.gif","images/stimuli/spore_stims/complex_12_A_d.gif","","","","","7","complex_dissimilar","images/stimuli/spore_stims/complex_12_A_d.gif","right","","","","",""
"","null","html-keyboard-response","148","535320","0.0-29.0-0.7","SS1613098735934","","","null","","","","","<p><img src= images/blank.png width =""200"" height = ""200"" style = ""float:right""></p><p><img src=images/blank.png width =""800"" height = ""200""></p>","","","","","","","","","","","",""
"","803.3350000623614","sequential-stimulus-presentation","149","536936","0.0-29.0-1.7","SS1613098735934","trial","","40","800","1603.3350000623614","images/stimuli/spore_stims/complex_11_A_c.gif","images/stimuli/spore_stims/complex_12_A_d.gif","","","","","7","complex_dissimilar","images/stimuli/spore_stims/complex_12_A_d.gif","right","","","","",""
"","3229.230000055395","html-keyboard-response","150","540169","0.0-30.0","SS1613098735934","pref_question","","49","","","","","<video width ='960' height = '540' style='padding-top:8%' autoplay muted><source src='images/stimuli/wall_pref.mp4' type='video/mp4'></video>","1","left","25%","7","","","","","","","",""
"","1627.9149999609217","sequential-stimulus-presentation","151","542601","0.0-31.0","SS1613098735934","pref_reveal","","40","800","2427.9149999609217","null","null","","","","","7","","","","novel","","","",""
"","null","html-keyboard-response","152","543903","0.0-32.0-0.0","SS1613098735934","","","null","","","","","<p><img src= images/blank.png width =""200"" height = ""200"" style = ""float:right""></p><p><img src=images/blank.png width =""800"" height = ""200""></p>","","","","","","","","","","","",""
"","4517.029999988154","sequential-stimulus-presentation","153","549225","0.0-32.0-1.0","SS1613098735934","trial","","40","800","5317.029999988154","images/stimuli/spore_stims/simple_10_A_b.gif","images/stimuli/spore_stims/simple_06_B_b.gif","","","","","8","simple_dissimilar","images/stimuli/spore_stims/simple_06_B_b.gif","left","","","","",""
"","null","html-keyboard-response","154","550030","0.0-32.0-0.1","SS1613098735934","","","null","","","","","<p><img src= images/blank.png width =""200"" height = ""200"" style = ""float:right""></p><p><img src=images/blank.png width =""800"" height = ""200""></p>","","","","","","","","","","","",""
"","806.6950000356883","sequential-stimulus-presentation","155","551641","0.0-32.0-1.1","SS1613098735934","trial","","40","800","1606.6950000356883","images/stimuli/spore_stims/simple_10_A_b.gif","images/stimuli/spore_stims/simple_06_B_b.gif","","","","","8","simple_dissimilar","images/stimuli/spore_stims/simple_06_B_b.gif","left","","","","",""
"","null","html-keyboard-response","156","552460","0.0-32.0-0.2","SS1613098735934","","","null","","","","","<p><img src= images/blank.png width =""200"" height = ""200"" style = ""float:right""></p><p><img src=images/blank.png width =""800"" height = ""200""></p>","","","","","","","","","","","",""
"","4136.1250000773","sequential-stimulus-presentation","157","557400","0.0-32.0-1.2","SS1613098735934","trial","","40","800","4936.1250000773","images/stimuli/spore_stims/simple_10_A_b.gif","images/stimuli/spore_stims/simple_06_B_b.gif","","","","","8","simple_dissimilar","images/stimuli/spore_stims/simple_10_A_b.gif","right","","","","",""
"","null","html-keyboard-response","158","558653","0.0-32.0-0.3","SS1613098735934","","","null","","","","","<p><img src= images/blank.png width =""200"" height = ""200"" style = ""float:right""></p><p><img src=images/blank.png width =""800"" height = ""200""></p>","","","","","","","","","","","",""
"","1734.679999994114","sequential-stimulus-presentation","159","561193","0.0-32.0-1.3","SS1613098735934","trial","","40","800","2534.679999994114","images/stimuli/spore_stims/simple_10_A_b.gif","images/stimuli/spore_stims/simple_06_B_b.gif","","","","","8","simple_dissimilar","images/stimuli/spore_stims/simple_06_B_b.gif","left","","","","",""
"","null","html-keyboard-response","160","562074","0.0-32.0-0.4","SS1613098735934","","","null","","","","","<p><img src= images/blank.png width =""200"" height = ""200"" style = ""float:right""></p><p><img src=images/blank.png width =""800"" height = ""200""></p>","","","","","","","","","","","",""
"","724.3000000016764","sequential-stimulus-presentation","161","563609","0.0-32.0-1.4","SS1613098735934","trial","","40","800","1524.3000000016764","images/stimuli/spore_stims/simple_10_A_b.gif","images/stimuli/spore_stims/simple_06_B_b.gif","","","","","8","simple_dissimilar","images/stimuli/spore_stims/simple_06_B_b.gif","left","","","","",""
"","null","html-keyboard-response","162","564502","0.0-32.0-0.5","SS1613098735934","","","null","","","","","<p><img src= images/blank.png width =""200"" height = ""200"" style = ""float:right""></p><p><img src=images/blank.png width =""800"" height = ""200""></p>","","","","","","","","","","","",""
"","520.5449999775738","sequential-stimulus-presentation","163","565833","0.0-32.0-1.5","SS1613098735934","trial","","40","800","1320.5449999775738","images/stimuli/spore_stims/simple_10_A_b.gif","images/stimuli/spore_stims/simple_06_B_b.gif","","","","","8","simple_dissimilar","images/stimuli/spore_stims/simple_06_B_b.gif","left","","","","",""
"","null","html-keyboard-response","164","566962","0.0-32.0-0.6","SS1613098735934","","","null","","","","","<p><img src= images/blank.png width =""200"" height = ""200"" style = ""float:right""></p><p><img src=images/blank.png width =""800"" height = ""200""></p>","","","","","","","","","","","",""
"","1163.4199999971315","sequential-stimulus-presentation","165","568937","0.0-32.0-1.6","SS1613098735934","trial","","40","800","1963.4199999971315","images/stimuli/spore_stims/simple_10_A_b.gif","images/stimuli/spore_stims/simple_06_B_b.gif","","","","","8","simple_dissimilar","images/stimuli/spore_stims/simple_06_B_b.gif","left","","","","",""
"","null","html-keyboard-response","166","570175","0.0-32.0-0.7","SS1613098735934","","","null","","","","","<p><img src= images/blank.png width =""200"" height = ""200"" style = ""float:right""></p><p><img src=images/blank.png width =""800"" height = ""200""></p>","","","","","","","","","","","",""
"","1069.2999999737367","sequential-stimulus-presentation","167","572057","0.0-32.0-1.7","SS1613098735934","trial","","40","800","1869.2999999737367","images/stimuli/spore_stims/simple_10_A_b.gif","images/stimuli/spore_stims/simple_06_B_b.gif","","","","","8","simple_dissimilar","images/stimuli/spore_stims/simple_06_B_b.gif","left","","","","",""
"","2509.2400000430644","html-keyboard-response","168","574569","0.0-33.0","SS1613098735934","pref_question","","51","","","","","<video width ='960' height = '540' style='padding-top:8%' autoplay muted><source src='images/stimuli/wall_pref.mp4' type='video/mp4'></video>","3","right","66%","8","","","","","","","",""
"","2139.0850000316277","sequential-stimulus-presentation","169","577513","0.0-34.0","SS1613098735934","pref_reveal","","40","800","2939.0850000316277","null","null","","","","","8","","","","deviant","","","",""
"","null","html-keyboard-response","170","578323","0.0-35.0-0.0","SS1613098735934","","","null","","","","","<p><img src= images/blank.png width =""200"" height = ""200"" style = ""float:right""></p><p><img src=images/blank.png width =""800"" height = ""200""></p>","","","","","","","","","","","",""
"","3345.039999927394","sequential-stimulus-presentation","171","582473","0.0-35.0-1.0","SS1613098735934","trial","","40","800","4145.039999927394","images/stimuli/spore_stims/simple_06_A_c.gif","images/stimuli/spore_stims/simple_15_B_c.gif","","","","","9","simple_dissimilar","images/stimuli/spore_stims/simple_15_B_c.gif","right","","","","",""
"","null","html-keyboard-response","172","583444","0.0-35.0-0.1","SS1613098735934","","","null","","","","","<p><img src= images/blank.png width =""200"" height = ""200"" style = ""float:right""></p><p><img src=images/blank.png width =""800"" height = ""200""></p>","","","","","","","","","","","",""
"","704.7800000291318","sequential-stimulus-presentation","173","584953","0.0-35.0-1.1","SS1613098735934","trial","","40","800","1504.7800000291318","images/stimuli/spore_stims/simple_06_A_c.gif","images/stimuli/spore_stims/simple_15_B_c.gif","","","","","9","simple_dissimilar","images/stimuli/spore_stims/simple_15_B_c.gif","right","","","","",""
"","null","html-keyboard-response","174","585885","0.0-35.0-0.2","SS1613098735934","","","null","","","","","<p><img src= images/blank.png width =""200"" height = ""200"" style = ""float:right""></p><p><img src=images/blank.png width =""800"" height = ""200""></p>","","","","","","","","","","","",""
"","551.9700000295416","sequential-stimulus-presentation","175","587241","0.0-35.0-1.2","SS1613098735934","trial","","40","800","1351.9700000295416","images/stimuli/spore_stims/simple_06_A_c.gif","images/stimuli/spore_stims/simple_15_B_c.gif","","","","","9","simple_dissimilar","images/stimuli/spore_stims/simple_15_B_c.gif","right","","","","",""
"","null","html-keyboard-response","176","588068","0.0-35.0-0.3","SS1613098735934","","","null","","","","","<p><img src= images/blank.png width =""200"" height = ""200"" style = ""float:right""></p><p><img src=images/blank.png width =""800"" height = ""200""></p>","","","","","","","","","","","",""
"","3088.6300000129268","sequential-stimulus-presentation","177","591961","0.0-35.0-1.3","SS1613098735934","trial","","40","800","3888.6300000129268","images/stimuli/spore_stims/simple_06_A_c.gif","images/stimuli/spore_stims/simple_15_B_c.gif","","","","","9","simple_dissimilar","images/stimuli/spore_stims/simple_06_A_c.gif","left","","","","",""
"","null","html-keyboard-response","178","592920","0.0-35.0-0.4","SS1613098735934","","","null","","","","","<p><img src= images/blank.png width =""200"" height = ""200"" style = ""float:right""></p><p><img src=images/blank.png width =""800"" height = ""200""></p>","","","","","","","","","","","",""
"","1308.6449999827892","sequential-stimulus-presentation","179","595033","0.0-35.0-1.4","SS1613098735934","trial","","40","800","2108.644999982789","images/stimuli/spore_stims/simple_06_A_c.gif","images/stimuli/spore_stims/simple_15_B_c.gif","","","","","9","simple_dissimilar","images/stimuli/spore_stims/simple_15_B_c.gif","right","","","","",""
"","null","html-keyboard-response","180","596084","0.0-35.0-0.5","SS1613098735934","","","null","","","","","<p><img src= images/blank.png width =""200"" height = ""200"" style = ""float:right""></p><p><img src=images/blank.png width =""800"" height = ""200""></p>","","","","","","","","","","","",""
"","703.8399999728426","sequential-stimulus-presentation","181","597593","0.0-35.0-1.5","SS1613098735934","trial","","40","800","1503.8399999728426","images/stimuli/spore_stims/simple_06_A_c.gif","images/stimuli/spore_stims/simple_15_B_c.gif","","","","","9","simple_dissimilar","images/stimuli/spore_stims/simple_15_B_c.gif","right","","","","",""
"","null","html-keyboard-response","182","598597","0.0-35.0-0.6","SS1613098735934","","","null","","","","","<p><img src= images/blank.png width =""200"" height = ""200"" style = ""float:right""></p><p><img src=images/blank.png width =""800"" height = ""200""></p>","","","","","","","","","","","",""
"","682.4749999213964","sequential-stimulus-presentation","183","600089","0.0-35.0-1.6","SS1613098735934","trial","","40","800","1482.4749999213964","images/stimuli/spore_stims/simple_06_A_c.gif","images/stimuli/spore_stims/simple_15_B_c.gif","","","","","9","simple_dissimilar","images/stimuli/spore_stims/simple_15_B_c.gif","right","","","","",""
"","null","html-keyboard-response","184","601217","0.0-35.0-0.7","SS1613098735934","","","null","","","","","<p><img src= images/blank.png width =""200"" height = ""200"" style = ""float:right""></p><p><img src=images/blank.png width =""800"" height = ""200""></p>","","","","","","","","","","","",""
"","371.2750000413507","sequential-stimulus-presentation","185","602393","0.0-35.0-1.7","SS1613098735934","trial","","40","800","1171.2750000413507","images/stimuli/spore_stims/simple_06_A_c.gif","images/stimuli/spore_stims/simple_15_B_c.gif","","","","","9","simple_dissimilar","images/stimuli/spore_stims/simple_15_B_c.gif","right","","","","",""
"","2204.6400000108406","html-keyboard-response","186","604601","0.0-36.0","SS1613098735934","pref_question","","50","","","","","<video width ='960' height = '540' style='padding-top:8%' autoplay muted><source src='images/stimuli/wall_pref.mp4' type='video/mp4'></video>","2","middle","45%","9","","","","","","","",""
"","2523.894999991171","sequential-stimulus-presentation","187","607930","0.0-37.0","SS1613098735934","pref_reveal","","40","800","3323.894999991171","null","null","","","","","9","","","","novel","","","",""
"","null","html-keyboard-response","188","609187","0.0-38.0-0.0","SS1613098735934","","","null","","","","","<p><img src= images/blank.png width =""200"" height = ""200"" style = ""float:right""></p><p><img src=images/blank.png width =""800"" height = ""200""></p>","","","","","","","","","","","",""
"","2720.545000047423","sequential-stimulus-presentation","189","612713","0.0-38.0-1.0","SS1613098735934","trial","","40","800","3520.545000047423","images/stimuli/spore_stims/simple_04_A_c.gif","images/stimuli/spore_stims/simple_10_B_a.gif","","","","","10","simple_dissimilar","images/stimuli/spore_stims/simple_10_B_a.gif","middle","","","","",""
"","null","html-keyboard-response","190","613700","0.0-38.0-0.1","SS1613098735934","","","null","","","","","<p><img src= images/blank.png width =""200"" height = ""200"" style = ""float:right""></p><p><img src=images/blank.png width =""800"" height = ""200""></p>","","","","","","","","","","","",""
"","576.5849999152124","sequential-stimulus-presentation","191","615081","0.0-38.0-1.1","SS1613098735934","trial","","40","800","1376.5849999152124","images/stimuli/spore_stims/simple_04_A_c.gif","images/stimuli/spore_stims/simple_10_B_a.gif","","","","","10","simple_dissimilar","images/stimuli/spore_stims/simple_10_B_a.gif","middle","","","","",""
"","null","html-keyboard-response","192","616380","0.0-38.0-0.2","SS1613098735934","","","null","","","","","<p><img src= images/blank.png width =""200"" height = ""200"" style = ""float:right""></p><p><img src=images/blank.png width =""800"" height = ""200""></p>","","","","","","","","","","","",""
"","455.19500004593283","sequential-stimulus-presentation","193","617641","0.0-38.0-1.2","SS1613098735934","trial","","40","800","1255.1950000459328","images/stimuli/spore_stims/simple_04_A_c.gif","images/stimuli/spore_stims/simple_10_B_a.gif","","","","","10","simple_dissimilar","images/stimuli/spore_stims/simple_10_B_a.gif","middle","","","","",""
"","null","html-keyboard-response","194","618543","0.0-38.0-0.3","SS1613098735934","","","null","","","","","<p><img src= images/blank.png width =""200"" height = ""200"" style = ""float:right""></p><p><img src=images/blank.png width =""800"" height = ""200""></p>","","","","","","","","","","","",""
"","502.00500001665205","sequential-stimulus-presentation","195","619849","0.0-38.0-1.3","SS1613098735934","trial","","40","800","1302.005000016652","images/stimuli/spore_stims/simple_04_A_c.gif","images/stimuli/spore_stims/simple_10_B_a.gif","","","","","10","simple_dissimilar","images/stimuli/spore_stims/simple_10_B_a.gif","middle","","","","",""
"","null","html-keyboard-response","196","620825","0.0-38.0-0.4","SS1613098735934","","","null","","","","","<p><img src= images/blank.png width =""200"" height = ""200"" style = ""float:right""></p><p><img src=images/blank.png width =""800"" height = ""200""></p>","","","","","","","","","","","",""
"","2774.820000049658","sequential-stimulus-presentation","197","624409","0.0-38.0-1.4","SS1613098735934","trial","","40","800","3574.820000049658","images/stimuli/spore_stims/simple_04_A_c.gif","images/stimuli/spore_stims/simple_10_B_a.gif","","","","","10","simple_dissimilar","images/stimuli/spore_stims/simple_04_A_c.gif","right","","","","",""
"","null","html-keyboard-response","198","625332","0.0-38.0-0.5","SS1613098735934","","","null","","","","","<p><img src= images/blank.png width =""200"" height = ""200"" style = ""float:right""></p><p><img src=images/blank.png width =""800"" height = ""200""></p>","","","","","","","","","","","",""
"","1071.929999976419","sequential-stimulus-presentation","199","627209","0.0-38.0-1.5","SS1613098735934","trial","","40","800","1871.929999976419","images/stimuli/spore_stims/simple_04_A_c.gif","images/stimuli/spore_stims/simple_10_B_a.gif","","","","","10","simple_dissimilar","images/stimuli/spore_stims/simple_10_B_a.gif","middle","","","","",""
"","null","html-keyboard-response","200","628398","0.0-38.0-0.6","SS1613098735934","","","null","","","","","<p><img src= images/blank.png width =""200"" height = ""200"" style = ""float:right""></p><p><img src=images/blank.png width =""800"" height = ""200""></p>","","","","","","","","","","","",""
"","518.4900000458583","sequential-stimulus-presentation","201","629721","0.0-38.0-1.6","SS1613098735934","trial","","40","800","1318.4900000458583","images/stimuli/spore_stims/simple_04_A_c.gif","images/stimuli/spore_stims/simple_10_B_a.gif","","","","","10","simple_dissimilar","images/stimuli/spore_stims/simple_10_B_a.gif","middle","","","","",""
"","null","html-keyboard-response","202","630819","0.0-38.0-0.7","SS1613098735934","","","null","","","","","<p><img src= images/blank.png width =""200"" height = ""200"" style = ""float:right""></p><p><img src=images/blank.png width =""800"" height = ""200""></p>","","","","","","","","","","","",""
"","385.5599999660626","sequential-stimulus-presentation","203","632009","0.0-38.0-1.7","SS1613098735934","trial","","40","800","1185.5599999660626","images/stimuli/spore_stims/simple_04_A_c.gif","images/stimuli/spore_stims/simple_10_B_a.gif","","","","","10","simple_dissimilar","images/stimuli/spore_stims/simple_10_B_a.gif","middle","","","","",""
"","2214.1699999338016","html-keyboard-response","204","634233","0.0-39.0","SS1613098735934","pref_question","","49","","","","","<video width ='960' height = '540' style='padding-top:8%' autoplay muted><source src='images/stimuli/wall_pref.mp4' type='video/mp4'></video>","1","left","25%","10","","","","","","","",""
"","3611.4550000056624","sequential-stimulus-presentation","205","638649","0.0-40.0","SS1613098735934","pref_reveal","","40","800","4411.455000005662","null","null","","","","","10","","","","novel","","","",""
"","null","html-keyboard-response","206","639659","0.0-41.0-0.0","SS1613098735934","","","null","","","","","<p><img src= images/blank.png width =""200"" height = ""200"" style = ""float:right""></p><p><img src=images/blank.png width =""800"" height = ""200""></p>","","","","","","","","","","","",""
"","4073.394999955781","sequential-stimulus-presentation","207","644537","0.0-41.0-1.0","SS1613098735934","trial","","40","800","4873.394999955781","images/stimuli/spore_stims/complex_17_B_a.gif","images/stimuli/spore_stims/complex_17_A_a.gif","","","","","11","complex_similar","images/stimuli/spore_stims/complex_17_A_a.gif","middle","","","","",""
"","null","html-keyboard-response","208","645635","0.0-41.0-0.1","SS1613098735934","","","null","","","","","<p><img src= images/blank.png width =""200"" height = ""200"" style = ""float:right""></p><p><img src=images/blank.png width =""800"" height = ""200""></p>","","","","","","","","","","","",""
"","2657.325000036508","sequential-stimulus-presentation","209","649097","0.0-41.0-1.1","SS1613098735934","trial","","40","800","3457.325000036508","images/stimuli/spore_stims/complex_17_B_a.gif","images/stimuli/spore_stims/complex_17_A_a.gif","","","","","11","complex_similar","images/stimuli/spore_stims/complex_17_A_a.gif","middle","","","","",""
"","null","html-keyboard-response","210","649927","0.0-41.0-0.2","SS1613098735934","","","null","","","","","<p><img src= images/blank.png width =""200"" height = ""200"" style = ""float:right""></p><p><img src=images/blank.png width =""800"" height = ""200""></p>","","","","","","","","","","","",""
"","2044.759999960661","sequential-stimulus-presentation","211","652777","0.0-41.0-1.2","SS1613098735934","trial","","40","800","2844.759999960661","images/stimuli/spore_stims/complex_17_B_a.gif","images/stimuli/spore_stims/complex_17_A_a.gif","","","","","11","complex_similar","images/stimuli/spore_stims/complex_17_A_a.gif","middle","","","","",""
"","null","html-keyboard-response","212","654013","0.0-41.0-0.3","SS1613098735934","","","null","","","","","<p><img src= images/blank.png width =""200"" height = ""200"" style = ""float:right""></p><p><img src=images/blank.png width =""800"" height = ""200""></p>","","","","","","","","","","","",""
"","584.415000048466","sequential-stimulus-presentation","213","655401","0.0-41.0-1.3","SS1613098735934","trial","","40","800","1384.415000048466","images/stimuli/spore_stims/complex_17_B_a.gif","images/stimuli/spore_stims/complex_17_A_a.gif","","","","","11","complex_similar","images/stimuli/spore_stims/complex_17_A_a.gif","middle","","","","",""
"","null","html-keyboard-response","214","656667","0.0-41.0-0.4","SS1613098735934","","","null","","","","","<p><img src= images/blank.png width =""200"" height = ""200"" style = ""float:right""></p><p><img src=images/blank.png width =""800"" height = ""200""></p>","","","","","","","","","","","",""
"","886.0299999359995","sequential-stimulus-presentation","215","658360","0.0-41.0-1.4","SS1613098735934","trial","","40","800","1686.0299999359995","images/stimuli/spore_stims/complex_17_B_a.gif","images/stimuli/spore_stims/complex_17_A_a.gif","","","","","11","complex_similar","images/stimuli/spore_stims/complex_17_A_a.gif","middle","","","","",""
"","null","html-keyboard-response","216","659245","0.0-41.0-0.5","SS1613098735934","","","null","","","","","<p><img src= images/blank.png width =""200"" height = ""200"" style = ""float:right""></p><p><img src=images/blank.png width =""800"" height = ""200""></p>","","","","","","","","","","","",""
"","470.3250000020489","sequential-stimulus-presentation","217","660520","0.0-41.0-1.5","SS1613098735934","trial","","40","800","1270.325000002049","images/stimuli/spore_stims/complex_17_B_a.gif","images/stimuli/spore_stims/complex_17_A_a.gif","","","","","11","complex_similar","images/stimuli/spore_stims/complex_17_A_a.gif","middle","","","","",""
"","null","html-keyboard-response","218","661373","0.0-41.0-0.6","SS1613098735934","","","null","","","","","<p><img src= images/blank.png width =""200"" height = ""200"" style = ""float:right""></p><p><img src=images/blank.png width =""800"" height = ""200""></p>","","","","","","","","","","","",""
"","470.2749999705702","sequential-stimulus-presentation","219","662648","0.0-41.0-1.6","SS1613098735934","trial","","40","800","1270.2749999705702","images/stimuli/spore_stims/complex_17_B_a.gif","images/stimuli/spore_stims/complex_17_A_a.gif","","","","","11","complex_similar","images/stimuli/spore_stims/complex_17_A_a.gif","middle","","","","",""
"","null","html-keyboard-response","220","663682","0.0-41.0-0.7","SS1613098735934","","","null","","","","","<p><img src= images/blank.png width =""200"" height = ""200"" style = ""float:right""></p><p><img src=images/blank.png width =""800"" height = ""200""></p>","","","","","","","","","","","",""
"","3501.1800000211224","sequential-stimulus-presentation","221","667993","0.0-41.0-1.7","SS1613098735934","trial","","40","800","4301.180000021122","images/stimuli/spore_stims/complex_17_B_a.gif","images/stimuli/spore_stims/complex_17_A_a.gif","","","","","11","complex_similar","images/stimuli/spore_stims/complex_17_B_a.gif","left","","","","",""
"","4122.884999960661","html-keyboard-response","222","672120","0.0-42.0","SS1613098735934","pref_question","","51","","","","","<video width ='960' height = '540' style='padding-top:8%' autoplay muted><source src='images/stimuli/wall_pref.mp4' type='video/mp4'></video>","3","right","66%","11","","","","","","","",""
"","5998.649999964982","sequential-stimulus-presentation","223","678936","0.0-43.0","SS1613098735934","pref_reveal","","40","800","6798.649999964982","null","null","","","","","11","","","","novel","","","",""
"","null","html-keyboard-response","224","680109","0.0-44.0-0.0","SS1613098735934","","","null","","","","","<p><img src= images/blank.png width =""200"" height = ""200"" style = ""float:right""></p><p><img src=images/blank.png width =""800"" height = ""200""></p>","","","","","","","","","","","",""
"","3782.275000005029","sequential-stimulus-presentation","225","684696","0.0-44.0-1.0","SS1613098735934","trial","","40","800","4582.275000005029","images/stimuli/spore_stims/simple_15_A_a.gif","images/stimuli/spore_stims/simple_03_A_c.gif","","","","","12","simple_dissimilar","images/stimuli/spore_stims/simple_03_A_c.gif","right","","","","",""
"","null","html-keyboard-response","226","685678","0.0-44.0-0.1","SS1613098735934","","","null","","","","","<p><img src= images/blank.png width =""200"" height = ""200"" style = ""float:right""></p><p><img src=images/blank.png width =""800"" height = ""200""></p>","","","","","","","","","","","",""
"","607.2050000075251","sequential-stimulus-presentation","227","687096","0.0-44.0-1.1","SS1613098735934","trial","","40","800","1407.205000007525","images/stimuli/spore_stims/simple_15_A_a.gif","images/stimuli/spore_stims/simple_03_A_c.gif","","","","","12","simple_dissimilar","images/stimuli/spore_stims/simple_03_A_c.gif","right","","","","",""
"","null","html-keyboard-response","228","688393","0.0-44.0-0.2","SS1613098735934","","","null","","","","","<p><img src= images/blank.png width =""200"" height = ""200"" style = ""float:right""></p><p><img src=images/blank.png width =""800"" height = ""200""></p>","","","","","","","","","","","",""
"","890.0900000007823","sequential-stimulus-presentation","229","690089","0.0-44.0-1.2","SS1613098735934","trial","","40","800","1690.0900000007823","images/stimuli/spore_stims/simple_15_A_a.gif","images/stimuli/spore_stims/simple_03_A_c.gif","","","","","12","simple_dissimilar","images/stimuli/spore_stims/simple_03_A_c.gif","right","","","","",""
"","null","html-keyboard-response","230","691367","0.0-44.0-0.3","SS1613098735934","","","null","","","","","<p><img src= images/blank.png width =""200"" height = ""200"" style = ""float:right""></p><p><img src=images/blank.png width =""800"" height = ""200""></p>","","","","","","","","","","","",""
"","3404.3499999679625","sequential-stimulus-presentation","231","695576","0.0-44.0-1.3","SS1613098735934","trial","","40","800","4204.3499999679625","images/stimuli/spore_stims/simple_15_A_a.gif","images/stimuli/spore_stims/simple_03_A_c.gif","","","","","12","simple_dissimilar","images/stimuli/spore_stims/simple_15_A_a.gif","left","","","","",""
"","null","html-keyboard-response","232","696710","0.0-44.0-0.4","SS1613098735934","","","null","","","","","<p><img src= images/blank.png width =""200"" height = ""200"" style = ""float:right""></p><p><img src=images/blank.png width =""800"" height = ""200""></p>","","","","","","","","","","","",""
"","2332.89999992121","sequential-stimulus-presentation","233","699848","0.0-44.0-1.4","SS1613098735934","trial","","40","800","3132.89999992121","images/stimuli/spore_stims/simple_15_A_a.gif","images/stimuli/spore_stims/simple_03_A_c.gif","","","","","12","simple_dissimilar","images/stimuli/spore_stims/simple_03_A_c.gif","right","","","","",""
"","null","html-keyboard-response","234","700865","0.0-44.0-0.5","SS1613098735934","","","null","","","","","<p><img src= images/blank.png width =""200"" height = ""200"" style = ""float:right""></p><p><img src=images/blank.png width =""800"" height = ""200""></p>","","","","","","","","","","","",""
"","1334.6550000132993","sequential-stimulus-presentation","235","703016","0.0-44.0-1.5","SS1613098735934","trial","","40","800","2134.6550000132993","images/stimuli/spore_stims/simple_15_A_a.gif","images/stimuli/spore_stims/simple_03_A_c.gif","","","","","12","simple_dissimilar","images/stimuli/spore_stims/simple_03_A_c.gif","right","","","","",""
"","null","html-keyboard-response","236","704067","0.0-44.0-0.6","SS1613098735934","","","null","","","","","<p><img src= images/blank.png width =""200"" height = ""200"" style = ""float:right""></p><p><img src=images/blank.png width =""800"" height = ""200""></p>","","","","","","","","","","","",""
"","912.1799999848008","sequential-stimulus-presentation","237","705784","0.0-44.0-1.6","SS1613098735934","trial","","40","800","1712.1799999848008","images/stimuli/spore_stims/simple_15_A_a.gif","images/stimuli/spore_stims/simple_03_A_c.gif","","","","","12","simple_dissimilar","images/stimuli/spore_stims/simple_03_A_c.gif","right","","","","",""
"","null","html-keyboard-response","238","707037","0.0-44.0-0.7","SS1613098735934","","","null","","","","","<p><img src= images/blank.png width =""200"" height = ""200"" style = ""float:right""></p><p><img src=images/blank.png width =""800"" height = ""200""></p>","","","","","","","","","","","",""
"","933.8700000662357","sequential-stimulus-presentation","239","708776","0.0-44.0-1.7","SS1613098735934","trial","","40","800","1733.8700000662357","images/stimuli/spore_stims/simple_15_A_a.gif","images/stimuli/spore_stims/simple_03_A_c.gif","","","","","12","simple_dissimilar","images/stimuli/spore_stims/simple_03_A_c.gif","right","","","","",""
"","2091.714999987744","html-keyboard-response","240","710872","0.0-45.0","SS1613098735934","pref_question","","50","","","","","<video width ='960' height = '540' style='padding-top:8%' autoplay muted><source src='images/stimuli/wall_pref.mp4' type='video/mp4'></video>","2","middle","45%","12","","","","","","","",""
"","2827.874999959022","sequential-stimulus-presentation","241","714505","0.0-46.0","SS1613098735934","pref_reveal","","40","800","3627.874999959022","null","null","","","","","12","","","","novel","","","",""
"","null","html-keyboard-response","242","715784","0.0-47.0-0.0","SS1613098735934","","","null","","","","","<p><img src= images/blank.png width =""200"" height = ""200"" style = ""float:right""></p><p><img src=images/blank.png width =""800"" height = ""200""></p>","","","","","","","","","","","",""
"","3630.1750000566244","sequential-stimulus-presentation","243","720233","0.0-47.0-1.0","SS1613098735934","trial","","40","800","4430.175000056624","images/stimuli/spore_stims/complex_06_B_b.gif","images/stimuli/spore_stims/complex_13_B_a.gif","","","","","13","complex_dissimilar","images/stimuli/spore_stims/complex_13_B_a.gif","left","","","","",""
"","null","html-keyboard-response","244","721456","0.0-47.0-0.1","SS1613098735934","","","null","","","","","<p><img src= images/blank.png width =""200"" height = ""200"" style = ""float:right""></p><p><img src=images/blank.png width =""800"" height = ""200""></p>","","","","","","","","","","","",""
"","1170.2750000404194","sequential-stimulus-presentation","245","723433","0.0-47.0-1.1","SS1613098735934","trial","","40","800","1970.2750000404194","images/stimuli/spore_stims/complex_06_B_b.gif","images/stimuli/spore_stims/complex_13_B_a.gif","","","","","13","complex_dissimilar","images/stimuli/spore_stims/complex_13_B_a.gif","left","","","","",""
"","null","html-keyboard-response","246","724536","0.0-47.0-0.2","SS1613098735934","","","null","","","","","<p><img src= images/blank.png width =""200"" height = ""200"" style = ""float:right""></p><p><img src=images/blank.png width =""800"" height = ""200""></p>","","","","","","","","","","","",""
"","3917.3500000033528","sequential-stimulus-presentation","247","729257","0.0-47.0-1.2","SS1613098735934","trial","","40","800","4717.350000003353","images/stimuli/spore_stims/complex_06_B_b.gif","images/stimuli/spore_stims/complex_13_B_a.gif","","","","","13","complex_dissimilar","images/stimuli/spore_stims/complex_06_B_b.gif","middle","","","","",""
"","null","html-keyboard-response","248","730125","0.0-47.0-0.3","SS1613098735934","","","null","","","","","<p><img src= images/blank.png width =""200"" height = ""200"" style = ""float:right""></p><p><img src=images/blank.png width =""800"" height = ""200""></p>","","","","","","","","","","","",""
"","4955.650000018068","sequential-stimulus-presentation","249","735897","0.0-47.0-1.3","SS1613098735934","trial","","40","800","5755.650000018068","images/stimuli/spore_stims/complex_06_B_b.gif","images/stimuli/spore_stims/complex_13_B_a.gif","","","","","13","complex_dissimilar","images/stimuli/spore_stims/complex_13_B_a.gif","left","","","","",""
"","null","html-keyboard-response","250","737054","0.0-47.0-0.4","SS1613098735934","","","null","","","","","<p><img src= images/blank.png width =""200"" height = ""200"" style = ""float:right""></p><p><img src=images/blank.png width =""800"" height = ""200""></p>","","","","","","","","","","","",""
"","3386.2450000597164","sequential-stimulus-presentation","251","741257","0.0-47.0-1.4","SS1613098735934","trial","","40","800","4186.245000059716","images/stimuli/spore_stims/complex_06_B_b.gif","images/stimuli/spore_stims/complex_13_B_a.gif","","","","","13","complex_dissimilar","images/stimuli/spore_stims/complex_13_B_a.gif","left","","","","",""
"","null","html-keyboard-response","252","742109","0.0-47.0-0.5","SS1613098735934","","","null","","","","","<p><img src= images/blank.png width =""200"" height = ""200"" style = ""float:right""></p><p><img src=images/blank.png width =""800"" height = ""200""></p>","","","","","","","","","","","",""
"","2230.4149999981746","sequential-stimulus-presentation","253","745161","0.0-47.0-1.5","SS1613098735934","trial","","40","800","3030.4149999981746","images/stimuli/spore_stims/complex_06_B_b.gif","images/stimuli/spore_stims/complex_13_B_a.gif","","","","","13","complex_dissimilar","images/stimuli/spore_stims/complex_13_B_a.gif","left","","","","",""
"","null","html-keyboard-response","254","746003","0.0-47.0-0.6","SS1613098735934","","","null","","","","","<p><img src= images/blank.png width =""200"" height = ""200"" style = ""float:right""></p><p><img src=images/blank.png width =""800"" height = ""200""></p>","","","","","","","","","","","",""
"","1105.4000000003725","sequential-stimulus-presentation","255","747913","0.0-47.0-1.6","SS1613098735934","trial","","40","800","1905.4000000003725","images/stimuli/spore_stims/complex_06_B_b.gif","images/stimuli/spore_stims/complex_13_B_a.gif","","","","","13","complex_dissimilar","images/stimuli/spore_stims/complex_13_B_a.gif","left","","","","",""
"","null","html-keyboard-response","256","748930","0.0-47.0-0.7","SS1613098735934","","","null","","","","","<p><img src= images/blank.png width =""200"" height = ""200"" style = ""float:right""></p><p><img src=images/blank.png width =""800"" height = ""200""></p>","","","","","","","","","","","",""
"","746.3749999878928","sequential-stimulus-presentation","257","750489","0.0-47.0-1.7","SS1613098735934","trial","","40","800","1546.3749999878928","images/stimuli/spore_stims/complex_06_B_b.gif","images/stimuli/spore_stims/complex_13_B_a.gif","","","","","13","complex_dissimilar","images/stimuli/spore_stims/complex_13_B_a.gif","left","","","","",""
"","2156.330000027083","html-keyboard-response","258","752649","0.0-48.0","SS1613098735934","pref_question","","49","","","","","<video width ='960' height = '540' style='padding-top:8%' autoplay muted><source src='images/stimuli/wall_pref.mp4' type='video/mp4'></video>","1","left","25%","13","","","","","","","",""
"","2314.449999947101","sequential-stimulus-presentation","259","755769","0.0-49.0","SS1613098735934","pref_reveal","","40","800","3114.449999947101","null","null","","","","","13","","","","background","","","",""
"","null","html-keyboard-response","260","757040","0.0-50.0-0.0","SS1613098735934","","","null","","","","","<p><img src= images/blank.png width =""200"" height = ""200"" style = ""float:right""></p><p><img src=images/blank.png width =""800"" height = ""200""></p>","","","","","","","","","","","",""
"","3187.0949999429286","sequential-stimulus-presentation","261","761033","0.0-50.0-1.0","SS1613098735934","trial","","40","800","3987.0949999429286","images/stimuli/spore_stims/simple_09_B_c.gif","images/stimuli/spore_stims/simple_09_A_c.gif","","","","","14","simple_similar","images/stimuli/spore_stims/simple_09_A_c.gif","middle","","","","",""
"","null","html-keyboard-response","262","762280","0.0-50.0-0.1","SS1613098735934","","","null","","","","","<p><img src= images/blank.png width =""200"" height = ""200"" style = ""float:right""></p><p><img src=images/blank.png width =""800"" height = ""200""></p>","","","","","","","","","","","",""
"","4651.414999971166","sequential-stimulus-presentation","263","767737","0.0-50.0-1.1","SS1613098735934","trial","","40","800","5451.414999971166","images/stimuli/spore_stims/simple_09_B_c.gif","images/stimuli/spore_stims/simple_09_A_c.gif","","","","","14","simple_similar","images/stimuli/spore_stims/simple_09_A_c.gif","middle","","","","",""
"","null","html-keyboard-response","264","768570","0.0-50.0-0.2","SS1613098735934","","","null","","","","","<p><img src= images/blank.png width =""200"" height = ""200"" style = ""float:right""></p><p><img src=images/blank.png width =""800"" height = ""200""></p>","","","","","","","","","","","",""
"","3513.290000031702","sequential-stimulus-presentation","265","772889","0.0-50.0-1.2","SS1613098735934","trial","","40","800","4313.290000031702","images/stimuli/spore_stims/simple_09_B_c.gif","images/stimuli/spore_stims/simple_09_A_c.gif","","","","","14","simple_similar","images/stimuli/spore_stims/simple_09_B_c.gif","right","","","","",""
"","null","html-keyboard-response","266","774068","0.0-50.0-0.3","SS1613098735934","","","null","","","","","<p><img src= images/blank.png width =""200"" height = ""200"" style = ""float:right""></p><p><img src=images/blank.png width =""800"" height = ""200""></p>","","","","","","","","","","","",""
"","974.904999951832","sequential-stimulus-presentation","267","775849","0.0-50.0-1.3","SS1613098735934","trial","","40","800","1774.904999951832","images/stimuli/spore_stims/simple_09_B_c.gif","images/stimuli/spore_stims/simple_09_A_c.gif","","","","","14","simple_similar","images/stimuli/spore_stims/simple_09_A_c.gif","middle","","","","",""
"","null","html-keyboard-response","268","776747","0.0-50.0-0.4","SS1613098735934","","","null","","","","","<p><img src= images/blank.png width =""200"" height = ""200"" style = ""float:right""></p><p><img src=images/blank.png width =""800"" height = ""200""></p>","","","","","","","","","","","",""
"","1304.8200000775978","sequential-stimulus-presentation","269","778857","0.0-50.0-1.4","SS1613098735934","trial","","40","800","2104.820000077598","images/stimuli/spore_stims/simple_09_B_c.gif","images/stimuli/spore_stims/simple_09_A_c.gif","","","","","14","simple_similar","images/stimuli/spore_stims/simple_09_A_c.gif","middle","","","","",""
"","null","html-keyboard-response","270","779833","0.0-50.0-0.5","SS1613098735934","","","null","","","","","<p><img src= images/blank.png width =""200"" height = ""200"" style = ""float:right""></p><p><img src=images/blank.png width =""800"" height = ""200""></p>","","","","","","","","","","","",""
"","570.7649999530986","sequential-stimulus-presentation","271","781209","0.0-50.0-1.5","SS1613098735934","trial","","40","800","1370.7649999530986","images/stimuli/spore_stims/simple_09_B_c.gif","images/stimuli/spore_stims/simple_09_A_c.gif","","","","","14","simple_similar","images/stimuli/spore_stims/simple_09_A_c.gif","middle","","","","",""
"","null","html-keyboard-response","272","782512","0.0-50.0-0.6","SS1613098735934","","","null","","","","","<p><img src= images/blank.png width =""200"" height = ""200"" style = ""float:right""></p><p><img src=images/blank.png width =""800"" height = ""200""></p>","","","","","","","","","","","",""
"","574.7650000266731","sequential-stimulus-presentation","273","783898","0.0-50.0-1.6","SS1613098735934","trial","","40","800","1374.765000026673","images/stimuli/spore_stims/simple_09_B_c.gif","images/stimuli/spore_stims/simple_09_A_c.gif","","","","","14","simple_similar","images/stimuli/spore_stims/simple_09_A_c.gif","middle","","","","",""
"","null","html-keyboard-response","274","785115","0.0-50.0-0.7","SS1613098735934","","","null","","","","","<p><img src= images/blank.png width =""200"" height = ""200"" style = ""float:right""></p><p><img src=images/blank.png width =""800"" height = ""200""></p>","","","","","","","","","","","",""
"","5433.264999999665","sequential-stimulus-presentation","275","791353","0.0-50.0-1.7","SS1613098735934","trial","","40","800","6233.264999999665","images/stimuli/spore_stims/simple_09_B_c.gif","images/stimuli/spore_stims/simple_09_A_c.gif","","","","","14","simple_similar","images/stimuli/spore_stims/simple_09_A_c.gif","middle","","","","",""
"","2588.0550000583753","html-keyboard-response","276","793945","0.0-51.0","SS1613098735934","pref_question","","51","","","","","<video width ='960' height = '540' style='padding-top:8%' autoplay muted><source src='images/stimuli/wall_pref.mp4' type='video/mp4'></video>","3","right","66%","14","","","","","","","",""
"","2170.449999975972","sequential-stimulus-presentation","277","796921","0.0-52.0","SS1613098735934","pref_reveal","","40","800","2970.449999975972","null","null","","","","","14","","","","deviant","","","",""
"","null","html-keyboard-response","278","798046","0.0-53.0-0.0","SS1613098735934","","","null","","","","","<p><img src= images/blank.png width =""200"" height = ""200"" style = ""float:right""></p><p><img src=images/blank.png width =""800"" height = ""200""></p>","","","","","","","","","","","",""
"","6689.864999963902","sequential-stimulus-presentation","279","805545","0.0-53.0-1.0","SS1613098735934","trial","","40","800","7489.864999963902","images/stimuli/spore_stims/complex_01_A_a.gif","images/stimuli/spore_stims/complex_01_B_a.gif","","","","","15","complex_similar","images/stimuli/spore_stims/complex_01_B_a.gif","right","","","","",""
"","null","html-keyboard-response","280","806759","0.0-53.0-0.1","SS1613098735934","","","null","","","","","<p><img src= images/blank.png width =""200"" height = ""200"" style = ""float:right""></p><p><img src=images/blank.png width =""800"" height = ""200""></p>","","","","","","","","","","","",""
"","5082.595000043511","sequential-stimulus-presentation","281","812649","0.0-53.0-1.1","SS1613098735934","trial","","40","800","5882.595000043511","images/stimuli/spore_stims/complex_01_A_a.gif","images/stimuli/spore_stims/complex_01_B_a.gif","","","","","15","complex_similar","images/stimuli/spore_stims/complex_01_B_a.gif","right","","","","",""
"","null","html-keyboard-response","282","813801","0.0-53.0-0.2","SS1613098735934","","","null","","","","","<p><img src= images/blank.png width =""200"" height = ""200"" style = ""float:right""></p><p><img src=images/blank.png width =""800"" height = ""200""></p>","","","","","","","","","","","",""
"","3403.3900001086295","sequential-stimulus-presentation","283","818009","0.0-53.0-1.2","SS1613098735934","trial","","40","800","4203.3900001086295","images/stimuli/spore_stims/complex_01_A_a.gif","images/stimuli/spore_stims/complex_01_B_a.gif","","","","","15","complex_similar","images/stimuli/spore_stims/complex_01_B_a.gif","right","","","","",""
"","null","html-keyboard-response","284","819185","0.0-53.0-0.3","SS1613098735934","","","null","","","","","<p><img src= images/blank.png width =""200"" height = ""200"" style = ""float:right""></p><p><img src=images/blank.png width =""800"" height = ""200""></p>","","","","","","","","","","","",""
"","1059.1349999886006","sequential-stimulus-presentation","285","821049","0.0-53.0-1.3","SS1613098735934","trial","","40","800","1859.1349999886006","images/stimuli/spore_stims/complex_01_A_a.gif","images/stimuli/spore_stims/complex_01_B_a.gif","","","","","15","complex_similar","images/stimuli/spore_stims/complex_01_B_a.gif","right","","","","",""
"","null","html-keyboard-response","286","822238","0.0-53.0-0.4","SS1613098735934","","","null","","","","","<p><img src= images/blank.png width =""200"" height = ""200"" style = ""float:right""></p><p><img src=images/blank.png width =""800"" height = ""200""></p>","","","","","","","","","","","",""
"","693.8650000374764","sequential-stimulus-presentation","287","823737","0.0-53.0-1.4","SS1613098735934","trial","","40","800","1493.8650000374764","images/stimuli/spore_stims/complex_01_A_a.gif","images/stimuli/spore_stims/complex_01_B_a.gif","","","","","15","complex_similar","images/stimuli/spore_stims/complex_01_B_a.gif","right","","","","",""
"","null","html-keyboard-response","288","824631","0.0-53.0-0.5","SS1613098735934","","","null","","","","","<p><img src= images/blank.png width =""200"" height = ""200"" style = ""float:right""></p><p><img src=images/blank.png width =""800"" height = ""200""></p>","","","","","","","","","","","",""
"","895.8650000859052","sequential-stimulus-presentation","289","826345","0.0-53.0-1.5","SS1613098735934","trial","","40","800","1695.8650000859052","images/stimuli/spore_stims/complex_01_A_a.gif","images/stimuli/spore_stims/complex_01_B_a.gif","","","","","15","complex_similar","images/stimuli/spore_stims/complex_01_B_a.gif","right","","","","",""
"","null","html-keyboard-response","290","827206","0.0-53.0-0.6","SS1613098735934","","","null","","","","","<p><img src= images/blank.png width =""200"" height = ""200"" style = ""float:right""></p><p><img src=images/blank.png width =""800"" height = ""200""></p>","","","","","","","","","","","",""
"","1245.4399999696761","sequential-stimulus-presentation","291","829258","0.0-53.0-1.6","SS1613098735934","trial","","40","800","2045.4399999696761","images/stimuli/spore_stims/complex_01_A_a.gif","images/stimuli/spore_stims/complex_01_B_a.gif","","","","","15","complex_similar","images/stimuli/spore_stims/complex_01_B_a.gif","right","","","","",""
"","null","html-keyboard-response","292","830204","0.0-53.0-0.7","SS1613098735934","","","null","","","","","<p><img src= images/blank.png width =""200"" height = ""200"" style = ""float:right""></p><p><img src=images/blank.png width =""800"" height = ""200""></p>","","","","","","","","","","","",""
"","4856.634999974631","sequential-stimulus-presentation","293","835864","0.0-53.0-1.7","SS1613098735934","trial","","40","800","5656.634999974631","images/stimuli/spore_stims/complex_01_A_a.gif","images/stimuli/spore_stims/complex_01_B_a.gif","","","","","15","complex_similar","images/stimuli/spore_stims/complex_01_A_a.gif","middle","","","","",""
"","2763.3200000273064","html-keyboard-response","294","838632","0.0-54.0","SS1613098735934","pref_question","","49","","","","","<video width ='960' height = '540' style='padding-top:8%' autoplay muted><source src='images/stimuli/wall_pref.mp4' type='video/mp4'></video>","1","left","25%","15","","","","","","","",""
"","3620.340000023134","sequential-stimulus-presentation","295","843065","0.0-55.0","SS1613098735934","pref_reveal","","40","800","4420.340000023134","null","null","","","","","15","","","","novel","","","",""
"","null","html-keyboard-response","296","844279","0.0-56.0-0.0","SS1613098735934","","","null","","","","","<p><img src= images/blank.png width =""200"" height = ""200"" style = ""float:right""></p><p><img src=images/blank.png width =""800"" height = ""200""></p>","","","","","","","","","","","",""
"","3019.845000002533","sequential-stimulus-presentation","297","848104","0.0-56.0-1.0","SS1613098735934","trial","","40","800","3819.845000002533","images/stimuli/spore_stims/simple_12_A_b.gif","images/stimuli/spore_stims/simple_12_B_b.gif","","","","","16","simple_similar","images/stimuli/spore_stims/simple_12_B_b.gif","left","","","","",""
"","null","html-keyboard-response","298","849357","0.0-56.0-0.1","SS1613098735934","","","null","","","","","<p><img src= images/blank.png width =""200"" height = ""200"" style = ""float:right""></p><p><img src=images/blank.png width =""800"" height = ""200""></p>","","","","","","","","","","","",""
"","1204.9699999624863","sequential-stimulus-presentation","299","851368","0.0-56.0-1.1","SS1613098735934","trial","","40","800","2004.9699999624863","images/stimuli/spore_stims/simple_12_A_b.gif","images/stimuli/spore_stims/simple_12_B_b.gif","","","","","16","simple_similar","images/stimuli/spore_stims/simple_12_B_b.gif","left","","","","",""
"","null","html-keyboard-response","300","852476","0.0-56.0-0.2","SS1613098735934","","","null","","","","","<p><img src= images/blank.png width =""200"" height = ""200"" style = ""float:right""></p><p><img src=images/blank.png width =""800"" height = ""200""></p>","","","","","","","","","","","",""
"","561.9250000454485","sequential-stimulus-presentation","301","853849","0.0-56.0-1.2","SS1613098735934","trial","","40","800","1361.9250000454485","images/stimuli/spore_stims/simple_12_A_b.gif","images/stimuli/spore_stims/simple_12_B_b.gif","","","","","16","simple_similar","images/stimuli/spore_stims/simple_12_B_b.gif","left","","","","",""
"","null","html-keyboard-response","302","854749","0.0-56.0-0.3","SS1613098735934","","","null","","","","","<p><img src= images/blank.png width =""200"" height = ""200"" style = ""float:right""></p><p><img src=images/blank.png width =""800"" height = ""200""></p>","","","","","","","","","","","",""
"","580.5699999909848","sequential-stimulus-presentation","303","856136","0.0-56.0-1.3","SS1613098735934","trial","","40","800","1380.5699999909848","images/stimuli/spore_stims/simple_12_A_b.gif","images/stimuli/spore_stims/simple_12_B_b.gif","","","","","16","simple_similar","images/stimuli/spore_stims/simple_12_B_b.gif","left","","","","",""
"","null","html-keyboard-response","304","857058","0.0-56.0-0.4","SS1613098735934","","","null","","","","","<p><img src= images/blank.png width =""200"" height = ""200"" style = ""float:right""></p><p><img src=images/blank.png width =""800"" height = ""200""></p>","","","","","","","","","","","",""
"","816.6049999417737","sequential-stimulus-presentation","305","858681","0.0-56.0-1.4","SS1613098735934","trial","","40","800","1616.6049999417737","images/stimuli/spore_stims/simple_12_A_b.gif","images/stimuli/spore_stims/simple_12_B_b.gif","","","","","16","simple_similar","images/stimuli/spore_stims/simple_12_B_b.gif","left","","","","",""
"","null","html-keyboard-response","306","859785","0.0-56.0-0.5","SS1613098735934","","","null","","","","","<p><img src= images/blank.png width =""200"" height = ""200"" style = ""float:right""></p><p><img src=images/blank.png width =""800"" height = ""200""></p>","","","","","","","","","","","",""
"","3210.014999960549","sequential-stimulus-presentation","307","863800","0.0-56.0-1.5","SS1613098735934","trial","","40","800","4010.014999960549","images/stimuli/spore_stims/simple_12_A_b.gif","images/stimuli/spore_stims/simple_12_B_b.gif","","","","","16","simple_similar","images/stimuli/spore_stims/simple_12_A_b.gif","middle","","","","",""
"","null","html-keyboard-response","308","864780","0.0-56.0-0.6","SS1613098735934","","","null","","","","","<p><img src= images/blank.png width =""200"" height = ""200"" style = ""float:right""></p><p><img src=images/blank.png width =""800"" height = ""200""></p>","","","","","","","","","","","",""
"","1936.104999971576","sequential-stimulus-presentation","309","867529","0.0-56.0-1.6","SS1613098735934","trial","","40","800","2736.104999971576","images/stimuli/spore_stims/simple_12_A_b.gif","images/stimuli/spore_stims/simple_12_B_b.gif","","","","","16","simple_similar","images/stimuli/spore_stims/simple_12_B_b.gif","left","","","","",""
"","null","html-keyboard-response","310","868610","0.0-56.0-0.7","SS1613098735934","","","null","","","","","<p><img src= images/blank.png width =""200"" height = ""200"" style = ""float:right""></p><p><img src=images/blank.png width =""800"" height = ""200""></p>","","","","","","","","","","","",""
"","1169.6199999423698","sequential-stimulus-presentation","311","870585","0.0-56.0-1.7","SS1613098735934","trial","","40","800","1969.6199999423698","images/stimuli/spore_stims/simple_12_A_b.gif","images/stimuli/spore_stims/simple_12_B_b.gif","","","","","16","simple_similar","images/stimuli/spore_stims/simple_12_B_b.gif","left","","","","",""
"","2603.6150000290945","html-keyboard-response","312","873193","0.0-57.0","SS1613098735934","pref_question","","50","","","","","<video width ='960' height = '540' style='padding-top:8%' autoplay muted><source src='images/stimuli/wall_pref.mp4' type='video/mp4'></video>","2","middle","45%","16","","","","","","","",""
