"view_history","rt","trial_type","trial_index","time_elapsed","internal_node_id","subject","stimulus_type","trial_stimulus","key_press","minimum_viewing_duration","trial_looking_time","block_deviant","block_background","stimulus","wall_pref","location","location_percent","block_number","block_type","stimulus_displayed","position_displayed","stim_type_selected","responses","question_order","stimulus_left","stimulus_right"
"[{""page_index"":0,""viewing_time"":9388.16499998211}]","9388.65499998792","instructions","0","9392","0.0-0.0","SS1613169597636","","","","","","","","","","","","","","","","","","","",""
"[{""page_index"":0,""viewing_time"":14688.950000010664},{""page_index"":1,""viewing_time"":9194.19999999809}]","23883.505000005243","instructions","1","35279","0.0-1.0","SS1613169597636","instructions","","","","","","","","","","","","","","","","","","",""
"","9149.270000023535","sequential-stimulus-presentation","2","45243","0.0-2.0","SS1613169597636","","","40","800","9949.270000023535","null","null","","","","","","","","","","","","",""
"","1911.5699999965727","sequential-stimulus-presentation","3","47964","0.0-3.0","SS1613169597636","","","40","800","2711.5699999965727","null","null","","","","","","","","","","","","",""
"[{""page_index"":0,""viewing_time"":7552.539999975124}]","7552.809999993769","instructions","4","55519","0.0-4.0","SS1613169597636","instructions","","","","","","","","","","","","","","","","","","",""
"","12791.09499999322","html-keyboard-response","5","68313","0.0-5.0","SS1613169597636","instructions","","97","","","","","<video width ='960' height = '540' autoplay muted><source src='images/stimuli/wall_pref.mp4' type='video/mp4'></video>","1","left","25%","","","","","","","","",""
"","6391.345000010915","sequential-stimulus-presentation","6","75511","0.0-6.0","SS1613169597636","pref_reveal","","40","800","7191.345000010915","null","null","","","","","","","","","","","","",""
"[{""page_index"":0,""viewing_time"":9271.804999996675},{""page_index"":1,""viewing_time"":6111.59499999485},{""page_index"":2,""viewing_time"":1816.3300000014715},{""page_index"":3,""viewing_time"":1419.8050000122748}]","18619.839999999385","instructions","7","94132","0.0-7.0","SS1613169597636","instructions","","","","","","","","","","","","","","","","","","",""
"","null","html-keyboard-response","8","95267","0.0-8.0-0.0","SS1613169597636","","","null","","","","","<p><img src= images/blank.png width =""200"" height = ""200"" style = ""float:right""></p><p><img src=images/blank.png width =""800"" height = ""200""></p>","","","","","","","","","","","",""
"","3085.3799999749754","sequential-stimulus-presentation","9","99161","0.0-8.0-1.0","SS1613169597636","trial","","40","800","3885.3799999749754","images/stimuli/spore_stims/simple_15_B_a.gif","images/stimuli/spore_stims/simple_15_A_a.gif","","","","","0","simple_similar","images/stimuli/spore_stims/simple_15_A_a.gif","left","","","","",""
"","null","html-keyboard-response","10","100022","0.0-8.0-0.1","SS1613169597636","","","null","","","","","<p><img src= images/blank.png width =""200"" height = ""200"" style = ""float:right""></p><p><img src=images/blank.png width =""800"" height = ""200""></p>","","","","","","","","","","","",""
"","2540.290000004461","sequential-stimulus-presentation","11","103370","0.0-8.0-1.1","SS1613169597636","trial","","40","800","3340.290000004461","images/stimuli/spore_stims/simple_15_B_a.gif","images/stimuli/spore_stims/simple_15_A_a.gif","","","","","0","simple_similar","images/stimuli/spore_stims/simple_15_A_a.gif","left","","","","",""
"","null","html-keyboard-response","12","104423","0.0-8.0-0.2","SS1613169597636","","","null","","","","","<p><img src= images/blank.png width =""200"" height = ""200"" style = ""float:right""></p><p><img src=images/blank.png width =""800"" height = ""200""></p>","","","","","","","","","","","",""
"","2895.140000007814","sequential-stimulus-presentation","13","108132","0.0-8.0-1.2","SS1613169597636","trial","","40","800","3695.140000007814","images/stimuli/spore_stims/simple_15_B_a.gif","images/stimuli/spore_stims/simple_15_A_a.gif","","","","","0","simple_similar","images/stimuli/spore_stims/simple_15_A_a.gif","left","","","","",""
"","null","html-keyboard-response","14","109386","0.0-8.0-0.3","SS1613169597636","","","null","","","","","<p><img src= images/blank.png width =""200"" height = ""200"" style = ""float:right""></p><p><img src=images/blank.png width =""800"" height = ""200""></p>","","","","","","","","","","","",""
"","1379.5550000213552","sequential-stimulus-presentation","15","111584","0.0-8.0-1.3","SS1613169597636","trial","","40","800","2179.555000021355","images/stimuli/spore_stims/simple_15_B_a.gif","images/stimuli/spore_stims/simple_15_A_a.gif","","","","","0","simple_similar","images/stimuli/spore_stims/simple_15_A_a.gif","left","","","","",""
"","null","html-keyboard-response","16","112535","0.0-8.0-0.4","SS1613169597636","","","null","","","","","<p><img src= images/blank.png width =""200"" height = ""200"" style = ""float:right""></p><p><img src=images/blank.png width =""800"" height = ""200""></p>","","","","","","","","","","","",""
"","2482.594999979483","sequential-stimulus-presentation","17","115825","0.0-8.0-1.4","SS1613169597636","trial","","40","800","3282.594999979483","images/stimuli/spore_stims/simple_15_B_a.gif","images/stimuli/spore_stims/simple_15_A_a.gif","","","","","0","simple_similar","images/stimuli/spore_stims/simple_15_A_a.gif","left","","","","",""
"","null","html-keyboard-response","18","117127","0.0-8.0-0.5","SS1613169597636","","","null","","","","","<p><img src= images/blank.png width =""200"" height = ""200"" style = ""float:right""></p><p><img src=images/blank.png width =""800"" height = ""200""></p>","","","","","","","","","","","",""
"","3771.1699999927077","sequential-stimulus-presentation","19","121704","0.0-8.0-1.5","SS1613169597636","trial","","40","800","4571.169999992708","images/stimuli/spore_stims/simple_15_B_a.gif","images/stimuli/spore_stims/simple_15_A_a.gif","","","","","0","simple_similar","images/stimuli/spore_stims/simple_15_A_a.gif","left","","","","",""
"","null","html-keyboard-response","20","122564","0.0-8.0-0.6","SS1613169597636","","","null","","","","","<p><img src= images/blank.png width =""200"" height = ""200"" style = ""float:right""></p><p><img src=images/blank.png width =""800"" height = ""200""></p>","","","","","","","","","","","",""
"","2151.3400000112597","sequential-stimulus-presentation","21","125528","0.0-8.0-1.6","SS1613169597636","trial","","40","800","2951.3400000112597","images/stimuli/spore_stims/simple_15_B_a.gif","images/stimuli/spore_stims/simple_15_A_a.gif","","","","","0","simple_similar","images/stimuli/spore_stims/simple_15_B_a.gif","right","","","","",""
"","null","html-keyboard-response","22","126751","0.0-8.0-0.7","SS1613169597636","","","null","","","","","<p><img src= images/blank.png width =""200"" height = ""200"" style = ""float:right""></p><p><img src=images/blank.png width =""800"" height = ""200""></p>","","","","","","","","","","","",""
"","2232.289999985369","sequential-stimulus-presentation","23","129792","0.0-8.0-1.7","SS1613169597636","trial","","40","800","3032.289999985369","images/stimuli/spore_stims/simple_15_B_a.gif","images/stimuli/spore_stims/simple_15_A_a.gif","","","","","0","simple_similar","images/stimuli/spore_stims/simple_15_A_a.gif","left","","","","",""
"","1932.6050000090618","html-keyboard-response","24","131729","0.0-9.0","SS1613169597636","pref_question","","98","","","","","<video width ='960' height = '540' style='padding-top:8%' autoplay muted><source src='images/stimuli/wall_pref.mp4' type='video/mp4'></video>","2","middle","45%","0","","","","","","","",""
"","5935.119999980088","sequential-stimulus-presentation","25","138472","0.0-10.0","SS1613169597636","pref_reveal","","40","800","6735.119999980088","null","null","","","","","0","","","","novel","","","",""
"","null","html-keyboard-response","26","139484","0.0-11.0-0.0","SS1613169597636","","","null","","","","","<p><img src= images/blank.png width =""200"" height = ""200"" style = ""float:right""></p><p><img src=images/blank.png width =""800"" height = ""200""></p>","","","","","","","","","","","",""
"","2686.794999986887","sequential-stimulus-presentation","27","142992","0.0-11.0-1.0","SS1613169597636","trial","","40","800","3486.794999986887","images/stimuli/spore_stims/simple_01_B_c.gif","images/stimuli/spore_stims/simple_01_A_c.gif","","","","","1","simple_similar","images/stimuli/spore_stims/simple_01_A_c.gif","middle","","","","",""
"","null","html-keyboard-response","28","143814","0.0-11.0-0.1","SS1613169597636","","","null","","","","","<p><img src= images/blank.png width =""200"" height = ""200"" style = ""float:right""></p><p><img src=images/blank.png width =""800"" height = ""200""></p>","","","","","","","","","","","",""
"","671.2650000117719","sequential-stimulus-presentation","29","145296","0.0-11.0-1.1","SS1613169597636","trial","","40","800","1471.265000011772","images/stimuli/spore_stims/simple_01_B_c.gif","images/stimuli/spore_stims/simple_01_A_c.gif","","","","","1","simple_similar","images/stimuli/spore_stims/simple_01_A_c.gif","middle","","","","",""
"","null","html-keyboard-response","30","146519","0.0-11.0-0.2","SS1613169597636","","","null","","","","","<p><img src= images/blank.png width =""200"" height = ""200"" style = ""float:right""></p><p><img src=images/blank.png width =""800"" height = ""200""></p>","","","","","","","","","","","",""
"","1401.639999996405","sequential-stimulus-presentation","31","148728","0.0-11.0-1.2","SS1613169597636","trial","","40","800","2201.639999996405","images/stimuli/spore_stims/simple_01_B_c.gif","images/stimuli/spore_stims/simple_01_A_c.gif","","","","","1","simple_similar","images/stimuli/spore_stims/simple_01_A_c.gif","middle","","","","",""
"","null","html-keyboard-response","32","149680","0.0-11.0-0.3","SS1613169597636","","","null","","","","","<p><img src= images/blank.png width =""200"" height = ""200"" style = ""float:right""></p><p><img src=images/blank.png width =""800"" height = ""200""></p>","","","","","","","","","","","",""
"","3224.3449999950826","sequential-stimulus-presentation","33","153728","0.0-11.0-1.3","SS1613169597636","trial","","40","800","4024.3449999950826","images/stimuli/spore_stims/simple_01_B_c.gif","images/stimuli/spore_stims/simple_01_A_c.gif","","","","","1","simple_similar","images/stimuli/spore_stims/simple_01_B_c.gif","right","","","","",""
"","null","html-keyboard-response","34","154751","0.0-11.0-0.4","SS1613169597636","","","null","","","","","<p><img src= images/blank.png width =""200"" height = ""200"" style = ""float:right""></p><p><img src=images/blank.png width =""800"" height = ""200""></p>","","","","","","","","","","","",""
"","2959.5749999862164","sequential-stimulus-presentation","35","158527","0.0-11.0-1.4","SS1613169597636","trial","","40","800","3759.5749999862164","images/stimuli/spore_stims/simple_01_B_c.gif","images/stimuli/spore_stims/simple_01_A_c.gif","","","","","1","simple_similar","images/stimuli/spore_stims/simple_01_A_c.gif","middle","","","","",""
"","null","html-keyboard-response","36","159655","0.0-11.0-0.5","SS1613169597636","","","null","","","","","<p><img src= images/blank.png width =""200"" height = ""200"" style = ""float:right""></p><p><img src=images/blank.png width =""800"" height = ""200""></p>","","","","","","","","","","","",""
"","6095.0900000170805","sequential-stimulus-presentation","37","166559","0.0-11.0-1.5","SS1613169597636","trial","","40","800","6895.0900000170805","images/stimuli/spore_stims/simple_01_B_c.gif","images/stimuli/spore_stims/simple_01_A_c.gif","","","","","1","simple_similar","images/stimuli/spore_stims/simple_01_A_c.gif","middle","","","","",""
"","null","html-keyboard-response","38","167642","0.0-11.0-0.6","SS1613169597636","","","null","","","","","<p><img src= images/blank.png width =""200"" height = ""200"" style = ""float:right""></p><p><img src=images/blank.png width =""800"" height = ""200""></p>","","","","","","","","","","","",""
"","1507.1750000061002","sequential-stimulus-presentation","39","169959","0.0-11.0-1.6","SS1613169597636","trial","","40","800","2307.1750000061","images/stimuli/spore_stims/simple_01_B_c.gif","images/stimuli/spore_stims/simple_01_A_c.gif","","","","","1","simple_similar","images/stimuli/spore_stims/simple_01_A_c.gif","middle","","","","",""
"","null","html-keyboard-response","40","170794","0.0-11.0-0.7","SS1613169597636","","","null","","","","","<p><img src= images/blank.png width =""200"" height = ""200"" style = ""float:right""></p><p><img src=images/blank.png width =""800"" height = ""200""></p>","","","","","","","","","","","",""
"","1570.2300000120886","sequential-stimulus-presentation","41","173175","0.0-11.0-1.7","SS1613169597636","trial","","40","800","2370.2300000120886","images/stimuli/spore_stims/simple_01_B_c.gif","images/stimuli/spore_stims/simple_01_A_c.gif","","","","","1","simple_similar","images/stimuli/spore_stims/simple_01_A_c.gif","middle","","","","",""
"","1874.6249999967404","html-keyboard-response","42","175054","0.0-12.0","SS1613169597636","pref_question","","97","","","","","<video width ='960' height = '540' style='padding-top:8%' autoplay muted><source src='images/stimuli/wall_pref.mp4' type='video/mp4'></video>","1","left","25%","1","","","","","","","",""
"","2835.7299999915995","sequential-stimulus-presentation","43","178695","0.0-13.0","SS1613169597636","pref_reveal","","40","800","3635.7299999915995","null","null","","","","","1","","","","novel","","","",""
"","null","html-keyboard-response","44","179888","0.0-14.0-0.0","SS1613169597636","","","null","","","","","<p><img src= images/blank.png width =""200"" height = ""200"" style = ""float:right""></p><p><img src=images/blank.png width =""800"" height = ""200""></p>","","","","","","","","","","","",""
"","3724.640000000363","sequential-stimulus-presentation","45","184423","0.0-14.0-1.0","SS1613169597636","trial","","40","800","4524.640000000363","images/stimuli/spore_stims/complex_15_A_b.gif","images/stimuli/spore_stims/complex_05_A_d.gif","","","","","2","complex_dissimilar","images/stimuli/spore_stims/complex_05_A_d.gif","right","","","","",""
"","null","html-keyboard-response","46","185486","0.0-14.0-0.1","SS1613169597636","","","null","","","","","<p><img src= images/blank.png width =""200"" height = ""200"" style = ""float:right""></p><p><img src=images/blank.png width =""800"" height = ""200""></p>","","","","","","","","","","","",""
"","4732.290000014473","sequential-stimulus-presentation","47","191039","0.0-14.0-1.1","SS1613169597636","trial","","40","800","5532.290000014473","images/stimuli/spore_stims/complex_15_A_b.gif","images/stimuli/spore_stims/complex_05_A_d.gif","","","","","2","complex_dissimilar","images/stimuli/spore_stims/complex_05_A_d.gif","right","","","","",""
"","null","html-keyboard-response","48","192236","0.0-14.0-0.2","SS1613169597636","","","null","","","","","<p><img src= images/blank.png width =""200"" height = ""200"" style = ""float:right""></p><p><img src=images/blank.png width =""800"" height = ""200""></p>","","","","","","","","","","","",""
"","642.3100000247359","sequential-stimulus-presentation","49","193697","0.0-14.0-1.2","SS1613169597636","trial","","40","800","1442.310000024736","images/stimuli/spore_stims/complex_15_A_b.gif","images/stimuli/spore_stims/complex_05_A_d.gif","","","","","2","complex_dissimilar","images/stimuli/spore_stims/complex_05_A_d.gif","right","","","","",""
"","null","html-keyboard-response","50","194701","0.0-14.0-0.3","SS1613169597636","","","null","","","","","<p><img src= images/blank.png width =""200"" height = ""200"" style = ""float:right""></p><p><img src=images/blank.png width =""800"" height = ""200""></p>","","","","","","","","","","","",""
"","440.5949999927543","sequential-stimulus-presentation","51","195952","0.0-14.0-1.3","SS1613169597636","trial","","40","800","1240.5949999927543","images/stimuli/spore_stims/complex_15_A_b.gif","images/stimuli/spore_stims/complex_05_A_d.gif","","","","","2","complex_dissimilar","images/stimuli/spore_stims/complex_05_A_d.gif","right","","","","",""
"","null","html-keyboard-response","52","197113","0.0-14.0-0.4","SS1613169597636","","","null","","","","","<p><img src= images/blank.png width =""200"" height = ""200"" style = ""float:right""></p><p><img src=images/blank.png width =""800"" height = ""200""></p>","","","","","","","","","","","",""
"","3338.4599999990314","sequential-stimulus-presentation","53","201264","0.0-14.0-1.4","SS1613169597636","trial","","40","800","4138.459999999031","images/stimuli/spore_stims/complex_15_A_b.gif","images/stimuli/spore_stims/complex_05_A_d.gif","","","","","2","complex_dissimilar","images/stimuli/spore_stims/complex_15_A_b.gif","middle","","","","",""
"","null","html-keyboard-response","54","202216","0.0-14.0-0.5","SS1613169597636","","","null","","","","","<p><img src= images/blank.png width =""200"" height = ""200"" style = ""float:right""></p><p><img src=images/blank.png width =""800"" height = ""200""></p>","","","","","","","","","","","",""
"","1573.034999979427","sequential-stimulus-presentation","55","204607","0.0-14.0-1.5","SS1613169597636","trial","","40","800","2373.034999979427","images/stimuli/spore_stims/complex_15_A_b.gif","images/stimuli/spore_stims/complex_05_A_d.gif","","","","","2","complex_dissimilar","images/stimuli/spore_stims/complex_05_A_d.gif","right","","","","",""
"","null","html-keyboard-response","56","205850","0.0-14.0-0.6","SS1613169597636","","","null","","","","","<p><img src= images/blank.png width =""200"" height = ""200"" style = ""float:right""></p><p><img src=images/blank.png width =""800"" height = ""200""></p>","","","","","","","","","","","",""
"","1024.5749999885447","sequential-stimulus-presentation","57","207695","0.0-14.0-1.6","SS1613169597636","trial","","40","800","1824.5749999885447","images/stimuli/spore_stims/complex_15_A_b.gif","images/stimuli/spore_stims/complex_05_A_d.gif","","","","","2","complex_dissimilar","images/stimuli/spore_stims/complex_05_A_d.gif","right","","","","",""
"","null","html-keyboard-response","58","208952","0.0-14.0-0.7","SS1613169597636","","","null","","","","","<p><img src= images/blank.png width =""200"" height = ""200"" style = ""float:right""></p><p><img src=images/blank.png width =""800"" height = ""200""></p>","","","","","","","","","","","",""
"","759.7149999928661","sequential-stimulus-presentation","59","210535","0.0-14.0-1.7","SS1613169597636","trial","","40","800","1559.714999992866","images/stimuli/spore_stims/complex_15_A_b.gif","images/stimuli/spore_stims/complex_05_A_d.gif","","","","","2","complex_dissimilar","images/stimuli/spore_stims/complex_05_A_d.gif","right","","","","",""
"","1469.569999986561","html-keyboard-response","60","212009","0.0-15.0","SS1613169597636","pref_question","","97","","","","","<video width ='960' height = '540' style='padding-top:8%' autoplay muted><source src='images/stimuli/wall_pref.mp4' type='video/mp4'></video>","1","left","25%","2","","","","","","","",""
"","4058.4099999978207","sequential-stimulus-presentation","61","216888","0.0-16.0","SS1613169597636","pref_reveal","","40","800","4858.409999997821","null","null","","","","","2","","","","novel","","","",""
"","null","html-keyboard-response","62","218089","0.0-17.0-0.0","SS1613169597636","","","null","","","","","<p><img src= images/blank.png width =""200"" height = ""200"" style = ""float:right""></p><p><img src=images/blank.png width =""800"" height = ""200""></p>","","","","","","","","","","","",""
"","598.855000018375","sequential-stimulus-presentation","63","219503","0.0-17.0-1.0","SS1613169597636","trial","","40","800","1398.855000018375","images/stimuli/spore_stims/simple_19_B_d.gif","images/stimuli/spore_stims/simple_02_A_a.gif","","","","","3","simple_dissimilar","images/stimuli/spore_stims/simple_02_A_a.gif","left","","","","",""
"","null","html-keyboard-response","64","220332","0.0-17.0-0.1","SS1613169597636","","","null","","","","","<p><img src= images/blank.png width =""200"" height = ""200"" style = ""float:right""></p><p><img src=images/blank.png width =""800"" height = ""200""></p>","","","","","","","","","","","",""
"","1548.4949999954551","sequential-stimulus-presentation","65","222696","0.0-17.0-1.1","SS1613169597636","trial","","40","800","2348.494999995455","images/stimuli/spore_stims/simple_19_B_d.gif","images/stimuli/spore_stims/simple_02_A_a.gif","","","","","3","simple_dissimilar","images/stimuli/spore_stims/simple_02_A_a.gif","left","","","","",""
"","null","html-keyboard-response","66","223973","0.0-17.0-0.2","SS1613169597636","","","null","","","","","<p><img src= images/blank.png width =""200"" height = ""200"" style = ""float:right""></p><p><img src=images/blank.png width =""800"" height = ""200""></p>","","","","","","","","","","","",""
"","1510.2850000257604","sequential-stimulus-presentation","67","226287","0.0-17.0-1.2","SS1613169597636","trial","","40","800","2310.2850000257604","images/stimuli/spore_stims/simple_19_B_d.gif","images/stimuli/spore_stims/simple_02_A_a.gif","","","","","3","simple_dissimilar","images/stimuli/spore_stims/simple_02_A_a.gif","left","","","","",""
"","null","html-keyboard-response","68","227564","0.0-17.0-0.3","SS1613169597636","","","null","","","","","<p><img src= images/blank.png width =""200"" height = ""200"" style = ""float:right""></p><p><img src=images/blank.png width =""800"" height = ""200""></p>","","","","","","","","","","","",""
"","3191.0900000075344","sequential-stimulus-presentation","69","231561","0.0-17.0-1.3","SS1613169597636","trial","","40","800","3991.0900000075344","images/stimuli/spore_stims/simple_19_B_d.gif","images/stimuli/spore_stims/simple_02_A_a.gif","","","","","3","simple_dissimilar","images/stimuli/spore_stims/simple_19_B_d.gif","right","","","","",""
"","null","html-keyboard-response","70","232661","0.0-17.0-0.4","SS1613169597636","","","null","","","","","<p><img src= images/blank.png width =""200"" height = ""200"" style = ""float:right""></p><p><img src=images/blank.png width =""800"" height = ""200""></p>","","","","","","","","","","","",""
"","1577.5550000253133","sequential-stimulus-presentation","71","235055","0.0-17.0-1.4","SS1613169597636","trial","","40","800","2377.5550000253133","images/stimuli/spore_stims/simple_19_B_d.gif","images/stimuli/spore_stims/simple_02_A_a.gif","","","","","3","simple_dissimilar","images/stimuli/spore_stims/simple_02_A_a.gif","left","","","","",""
"","null","html-keyboard-response","72","236284","0.0-17.0-0.5","SS1613169597636","","","null","","","","","<p><img src= images/blank.png width =""200"" height = ""200"" style = ""float:right""></p><p><img src=images/blank.png width =""800"" height = ""200""></p>","","","","","","","","","","","",""
"","2523.0050000245683","sequential-stimulus-presentation","73","239624","0.0-17.0-1.5","SS1613169597636","trial","","40","800","3323.0050000245683","images/stimuli/spore_stims/simple_19_B_d.gif","images/stimuli/spore_stims/simple_02_A_a.gif","","","","","3","simple_dissimilar","images/stimuli/spore_stims/simple_02_A_a.gif","left","","","","",""
"","null","html-keyboard-response","74","240649","0.0-17.0-0.6","SS1613169597636","","","null","","","","","<p><img src= images/blank.png width =""200"" height = ""200"" style = ""float:right""></p><p><img src=images/blank.png width =""800"" height = ""200""></p>","","","","","","","","","","","",""
"","1263.119999988703","sequential-stimulus-presentation","75","242727","0.0-17.0-1.6","SS1613169597636","trial","","40","800","2063.119999988703","images/stimuli/spore_stims/simple_19_B_d.gif","images/stimuli/spore_stims/simple_02_A_a.gif","","","","","3","simple_dissimilar","images/stimuli/spore_stims/simple_02_A_a.gif","left","","","","",""
"","null","html-keyboard-response","76","243880","0.0-17.0-0.7","SS1613169597636","","","null","","","","","<p><img src= images/blank.png width =""200"" height = ""200"" style = ""float:right""></p><p><img src=images/blank.png width =""800"" height = ""200""></p>","","","","","","","","","","","",""
"","2928.55499999132","sequential-stimulus-presentation","77","247623","0.0-17.0-1.7","SS1613169597636","trial","","40","800","3728.55499999132","images/stimuli/spore_stims/simple_19_B_d.gif","images/stimuli/spore_stims/simple_02_A_a.gif","","","","","3","simple_dissimilar","images/stimuli/spore_stims/simple_02_A_a.gif","left","","","","",""
"","1692.4199999775738","html-keyboard-response","78","249319","0.0-18.0","SS1613169597636","pref_question","","98","","","","","<video width ='960' height = '540' style='padding-top:8%' autoplay muted><source src='images/stimuli/wall_pref.mp4' type='video/mp4'></video>","2","middle","45%","3","","","","","","","",""
"","4922.14999999851","sequential-stimulus-presentation","79","255055","0.0-19.0","SS1613169597636","pref_reveal","","40","800","5722.14999999851","null","null","","","","","3","","","","novel","","","",""
"","null","html-keyboard-response","80","256238","0.0-20.0-0.0","SS1613169597636","","","null","","","","","<p><img src= images/blank.png width =""200"" height = ""200"" style = ""float:right""></p><p><img src=images/blank.png width =""800"" height = ""200""></p>","","","","","","","","","","","",""
"","2173.9250000100583","sequential-stimulus-presentation","81","259223","0.0-20.0-1.0","SS1613169597636","trial","","40","800","2973.9250000100583","images/stimuli/spore_stims/complex_13_A_d.gif","images/stimuli/spore_stims/complex_10_B_c.gif","","","","","4","complex_dissimilar","images/stimuli/spore_stims/complex_10_B_c.gif","right","","","","",""
"","null","html-keyboard-response","82","260290","0.0-20.0-0.1","SS1613169597636","","","null","","","","","<p><img src= images/blank.png width =""200"" height = ""200"" style = ""float:right""></p><p><img src=images/blank.png width =""800"" height = ""200""></p>","","","","","","","","","","","",""
"","849.3650000018533","sequential-stimulus-presentation","83","261951","0.0-20.0-1.1","SS1613169597636","trial","","40","800","1649.3650000018533","images/stimuli/spore_stims/complex_13_A_d.gif","images/stimuli/spore_stims/complex_10_B_c.gif","","","","","4","complex_dissimilar","images/stimuli/spore_stims/complex_10_B_c.gif","right","","","","",""
"","null","html-keyboard-response","84","262952","0.0-20.0-0.2","SS1613169597636","","","null","","","","","<p><img src= images/blank.png width =""200"" height = ""200"" style = ""float:right""></p><p><img src=images/blank.png width =""800"" height = ""200""></p>","","","","","","","","","","","",""
"","722.6949999749195","sequential-stimulus-presentation","85","264487","0.0-20.0-1.2","SS1613169597636","trial","","40","800","1522.6949999749195","images/stimuli/spore_stims/complex_13_A_d.gif","images/stimuli/spore_stims/complex_10_B_c.gif","","","","","4","complex_dissimilar","images/stimuli/spore_stims/complex_10_B_c.gif","right","","","","",""
"","null","html-keyboard-response","86","265615","0.0-20.0-0.3","SS1613169597636","","","null","","","","","<p><img src= images/blank.png width =""200"" height = ""200"" style = ""float:right""></p><p><img src=images/blank.png width =""800"" height = ""200""></p>","","","","","","","","","","","",""
"","423.4099999885075","sequential-stimulus-presentation","87","266847","0.0-20.0-1.3","SS1613169597636","trial","","40","800","1223.4099999885075","images/stimuli/spore_stims/complex_13_A_d.gif","images/stimuli/spore_stims/complex_10_B_c.gif","","","","","4","complex_dissimilar","images/stimuli/spore_stims/complex_10_B_c.gif","right","","","","",""
"","null","html-keyboard-response","88","268126","0.0-20.0-0.4","SS1613169597636","","","null","","","","","<p><img src= images/blank.png width =""200"" height = ""200"" style = ""float:right""></p><p><img src=images/blank.png width =""800"" height = ""200""></p>","","","","","","","","","","","",""
"","365.9449999977369","sequential-stimulus-presentation","89","269302","0.0-20.0-1.4","SS1613169597636","trial","","40","800","1165.9449999977369","images/stimuli/spore_stims/complex_13_A_d.gif","images/stimuli/spore_stims/complex_10_B_c.gif","","","","","4","complex_dissimilar","images/stimuli/spore_stims/complex_10_B_c.gif","right","","","","",""
"","null","html-keyboard-response","90","270426","0.0-20.0-0.5","SS1613169597636","","","null","","","","","<p><img src= images/blank.png width =""200"" height = ""200"" style = ""float:right""></p><p><img src=images/blank.png width =""800"" height = ""200""></p>","","","","","","","","","","","",""
"","496.89500001841225","sequential-stimulus-presentation","91","271734","0.0-20.0-1.5","SS1613169597636","trial","","40","800","1296.8950000184122","images/stimuli/spore_stims/complex_13_A_d.gif","images/stimuli/spore_stims/complex_10_B_c.gif","","","","","4","complex_dissimilar","images/stimuli/spore_stims/complex_10_B_c.gif","right","","","","",""
"","null","html-keyboard-response","92","272594","0.0-20.0-0.6","SS1613169597636","","","null","","","","","<p><img src= images/blank.png width =""200"" height = ""200"" style = ""float:right""></p><p><img src=images/blank.png width =""800"" height = ""200""></p>","","","","","","","","","","","",""
"","525.259999994887","sequential-stimulus-presentation","93","273935","0.0-20.0-1.6","SS1613169597636","trial","","40","800","1325.259999994887","images/stimuli/spore_stims/complex_13_A_d.gif","images/stimuli/spore_stims/complex_10_B_c.gif","","","","","4","complex_dissimilar","images/stimuli/spore_stims/complex_10_B_c.gif","right","","","","",""
"","null","html-keyboard-response","94","274941","0.0-20.0-0.7","SS1613169597636","","","null","","","","","<p><img src= images/blank.png width =""200"" height = ""200"" style = ""float:right""></p><p><img src=images/blank.png width =""800"" height = ""200""></p>","","","","","","","","","","","",""
"","4550.805000006221","sequential-stimulus-presentation","95","280307","0.0-20.0-1.7","SS1613169597636","trial","","40","800","5350.805000006221","images/stimuli/spore_stims/complex_13_A_d.gif","images/stimuli/spore_stims/complex_10_B_c.gif","","","","","4","complex_dissimilar","images/stimuli/spore_stims/complex_13_A_d.gif","middle","","","","",""
"","1928.7999999942258","html-keyboard-response","96","282239","0.0-21.0","SS1613169597636","pref_question","","97","","","","","<video width ='960' height = '540' style='padding-top:8%' autoplay muted><source src='images/stimuli/wall_pref.mp4' type='video/mp4'></video>","1","left","25%","4","","","","","","","",""
"","3785.2399999974295","sequential-stimulus-presentation","97","286846","0.0-22.0","SS1613169597636","pref_reveal","","40","800","4585.23999999743","null","null","","","","","4","","","","novel","","","",""
"","null","html-keyboard-response","98","287832","0.0-23.0-0.0","SS1613169597636","","","null","","","","","<p><img src= images/blank.png width =""200"" height = ""200"" style = ""float:right""></p><p><img src=images/blank.png width =""800"" height = ""200""></p>","","","","","","","","","","","",""
"","1858.6650000070222","sequential-stimulus-presentation","99","290503","0.0-23.0-1.0","SS1613169597636","trial","","40","800","2658.665000007022","images/stimuli/spore_stims/complex_11_A_d.gif","images/stimuli/spore_stims/complex_04_A_c.gif","","","","","5","complex_dissimilar","images/stimuli/spore_stims/complex_04_A_c.gif","right","","","","",""
"","null","html-keyboard-response","100","291597","0.0-23.0-0.1","SS1613169597636","","","null","","","","","<p><img src= images/blank.png width =""200"" height = ""200"" style = ""float:right""></p><p><img src=images/blank.png width =""800"" height = ""200""></p>","","","","","","","","","","","",""
"","747.2450000059325","sequential-stimulus-presentation","101","293158","0.0-23.0-1.1","SS1613169597636","trial","","40","800","1547.2450000059325","images/stimuli/spore_stims/complex_11_A_d.gif","images/stimuli/spore_stims/complex_04_A_c.gif","","","","","5","complex_dissimilar","images/stimuli/spore_stims/complex_04_A_c.gif","right","","","","",""
"","null","html-keyboard-response","102","294303","0.0-23.0-0.2","SS1613169597636","","","null","","","","","<p><img src= images/blank.png width =""200"" height = ""200"" style = ""float:right""></p><p><img src=images/blank.png width =""800"" height = ""200""></p>","","","","","","","","","","","",""
"","1842.6949999993667","sequential-stimulus-presentation","103","296966","0.0-23.0-1.2","SS1613169597636","trial","","40","800","2642.6949999993667","images/stimuli/spore_stims/complex_11_A_d.gif","images/stimuli/spore_stims/complex_04_A_c.gif","","","","","5","complex_dissimilar","images/stimuli/spore_stims/complex_11_A_d.gif","left","","","","",""
"","null","html-keyboard-response","104","298083","0.0-23.0-0.3","SS1613169597636","","","null","","","","","<p><img src= images/blank.png width =""200"" height = ""200"" style = ""float:right""></p><p><img src=images/blank.png width =""800"" height = ""200""></p>","","","","","","","","","","","",""
"","840.1299999968614","sequential-stimulus-presentation","105","299734","0.0-23.0-1.3","SS1613169597636","trial","","40","800","1640.1299999968614","images/stimuli/spore_stims/complex_11_A_d.gif","images/stimuli/spore_stims/complex_04_A_c.gif","","","","","5","complex_dissimilar","images/stimuli/spore_stims/complex_04_A_c.gif","right","","","","",""
"","null","html-keyboard-response","106","300817","0.0-23.0-0.4","SS1613169597636","","","null","","","","","<p><img src= images/blank.png width =""200"" height = ""200"" style = ""float:right""></p><p><img src=images/blank.png width =""800"" height = ""200""></p>","","","","","","","","","","","",""
"","592.1700000180863","sequential-stimulus-presentation","107","302221","0.0-23.0-1.4","SS1613169597636","trial","","40","800","1392.1700000180863","images/stimuli/spore_stims/complex_11_A_d.gif","images/stimuli/spore_stims/complex_04_A_c.gif","","","","","5","complex_dissimilar","images/stimuli/spore_stims/complex_04_A_c.gif","right","","","","",""
"","null","html-keyboard-response","108","303364","0.0-23.0-0.5","SS1613169597636","","","null","","","","","<p><img src= images/blank.png width =""200"" height = ""200"" style = ""float:right""></p><p><img src=images/blank.png width =""800"" height = ""200""></p>","","","","","","","","","","","",""
"","901.7500000190921","sequential-stimulus-presentation","109","305085","0.0-23.0-1.5","SS1613169597636","trial","","40","800","1701.750000019092","images/stimuli/spore_stims/complex_11_A_d.gif","images/stimuli/spore_stims/complex_04_A_c.gif","","","","","5","complex_dissimilar","images/stimuli/spore_stims/complex_04_A_c.gif","right","","","","",""
"","null","html-keyboard-response","110","306124","0.0-23.0-0.6","SS1613169597636","","","null","","","","","<p><img src= images/blank.png width =""200"" height = ""200"" style = ""float:right""></p><p><img src=images/blank.png width =""800"" height = ""200""></p>","","","","","","","","","","","",""
"","424.1500000061933","sequential-stimulus-presentation","111","307357","0.0-23.0-1.6","SS1613169597636","trial","","40","800","1224.1500000061933","images/stimuli/spore_stims/complex_11_A_d.gif","images/stimuli/spore_stims/complex_04_A_c.gif","","","","","5","complex_dissimilar","images/stimuli/spore_stims/complex_04_A_c.gif","right","","","","",""
"","null","html-keyboard-response","112","308619","0.0-23.0-0.7","SS1613169597636","","","null","","","","","<p><img src= images/blank.png width =""200"" height = ""200"" style = ""float:right""></p><p><img src=images/blank.png width =""800"" height = ""200""></p>","","","","","","","","","","","",""
"","491.3200000009965","sequential-stimulus-presentation","113","309925","0.0-23.0-1.7","SS1613169597636","trial","","40","800","1291.3200000009965","images/stimuli/spore_stims/complex_11_A_d.gif","images/stimuli/spore_stims/complex_04_A_c.gif","","","","","5","complex_dissimilar","images/stimuli/spore_stims/complex_04_A_c.gif","right","","","","",""
"","1678.4899999911431","html-keyboard-response","114","311608","0.0-24.0","SS1613169597636","pref_question","","98","","","","","<video width ='960' height = '540' style='padding-top:8%' autoplay muted><source src='images/stimuli/wall_pref.mp4' type='video/mp4'></video>","2","middle","45%","5","","","","","","","",""
"","2811.1799999896903","sequential-stimulus-presentation","115","315229","0.0-25.0","SS1613169597636","pref_reveal","","40","800","3611.1799999896903","null","null","","","","","5","","","","novel","","","",""
"","null","html-keyboard-response","116","316394","0.0-26.0-0.0","SS1613169597636","","","null","","","","","<p><img src= images/blank.png width =""200"" height = ""200"" style = ""float:right""></p><p><img src=images/blank.png width =""800"" height = ""200""></p>","","","","","","","","","","","",""
"","1781.7100000102073","sequential-stimulus-presentation","117","318989","0.0-26.0-1.0","SS1613169597636","trial","","40","800","2581.7100000102073","images/stimuli/spore_stims/simple_14_A_c.gif","images/stimuli/spore_stims/simple_17_B_a.gif","","","","","6","simple_dissimilar","images/stimuli/spore_stims/simple_17_B_a.gif","left","","","","",""
"","null","html-keyboard-response","118","320081","0.0-26.0-0.1","SS1613169597636","","","null","","","","","<p><img src= images/blank.png width =""200"" height = ""200"" style = ""float:right""></p><p><img src=images/blank.png width =""800"" height = ""200""></p>","","","","","","","","","","","",""
"","1398.1649999914225","sequential-stimulus-presentation","119","322293","0.0-26.0-1.1","SS1613169597636","trial","","40","800","2198.1649999914225","images/stimuli/spore_stims/simple_14_A_c.gif","images/stimuli/spore_stims/simple_17_B_a.gif","","","","","6","simple_dissimilar","images/stimuli/spore_stims/simple_17_B_a.gif","left","","","","",""
"","null","html-keyboard-response","120","323144","0.0-26.0-0.2","SS1613169597636","","","null","","","","","<p><img src= images/blank.png width =""200"" height = ""200"" style = ""float:right""></p><p><img src=images/blank.png width =""800"" height = ""200""></p>","","","","","","","","","","","",""
"","3559.3949999893084","sequential-stimulus-presentation","121","327518","0.0-26.0-1.2","SS1613169597636","trial","","40","800","4359.394999989308","images/stimuli/spore_stims/simple_14_A_c.gif","images/stimuli/spore_stims/simple_17_B_a.gif","","","","","6","simple_dissimilar","images/stimuli/spore_stims/simple_17_B_a.gif","left","","","","",""
"","null","html-keyboard-response","122","328396","0.0-26.0-0.3","SS1613169597636","","","null","","","","","<p><img src= images/blank.png width =""200"" height = ""200"" style = ""float:right""></p><p><img src=images/blank.png width =""800"" height = ""200""></p>","","","","","","","","","","","",""
"","2865.2300000248943","sequential-stimulus-presentation","123","332078","0.0-26.0-1.3","SS1613169597636","trial","","40","800","3665.2300000248943","images/stimuli/spore_stims/simple_14_A_c.gif","images/stimuli/spore_stims/simple_17_B_a.gif","","","","","6","simple_dissimilar","images/stimuli/spore_stims/simple_14_A_c.gif","right","","","","",""
"","null","html-keyboard-response","124","332986","0.0-26.0-0.4","SS1613169597636","","","null","","","","","<p><img src= images/blank.png width =""200"" height = ""200"" style = ""float:right""></p><p><img src=images/blank.png width =""800"" height = ""200""></p>","","","","","","","","","","","",""
"","1341.6650000144728","sequential-stimulus-presentation","125","335133","0.0-26.0-1.4","SS1613169597636","trial","","40","800","2141.6650000144728","images/stimuli/spore_stims/simple_14_A_c.gif","images/stimuli/spore_stims/simple_17_B_a.gif","","","","","6","simple_dissimilar","images/stimuli/spore_stims/simple_17_B_a.gif","left","","","","",""
"","null","html-keyboard-response","126","336173","0.0-26.0-0.5","SS1613169597636","","","null","","","","","<p><img src= images/blank.png width =""200"" height = ""200"" style = ""float:right""></p><p><img src=images/blank.png width =""800"" height = ""200""></p>","","","","","","","","","","","",""
"","708.5099999967497","sequential-stimulus-presentation","127","337701","0.0-26.0-1.5","SS1613169597636","trial","","40","800","1508.5099999967497","images/stimuli/spore_stims/simple_14_A_c.gif","images/stimuli/spore_stims/simple_17_B_a.gif","","","","","6","simple_dissimilar","images/stimuli/spore_stims/simple_17_B_a.gif","left","","","","",""
"","null","html-keyboard-response","128","338916","0.0-26.0-0.6","SS1613169597636","","","null","","","","","<p><img src= images/blank.png width =""200"" height = ""200"" style = ""float:right""></p><p><img src=images/blank.png width =""800"" height = ""200""></p>","","","","","","","","","","","",""
"","495.1850000070408","sequential-stimulus-presentation","129","340217","0.0-26.0-1.6","SS1613169597636","trial","","40","800","1295.1850000070408","images/stimuli/spore_stims/simple_14_A_c.gif","images/stimuli/spore_stims/simple_17_B_a.gif","","","","","6","simple_dissimilar","images/stimuli/spore_stims/simple_17_B_a.gif","left","","","","",""
"","null","html-keyboard-response","130","341524","0.0-26.0-0.7","SS1613169597636","","","null","","","","","<p><img src= images/blank.png width =""200"" height = ""200"" style = ""float:right""></p><p><img src=images/blank.png width =""800"" height = ""200""></p>","","","","","","","","","","","",""
"","408.31999998772517","sequential-stimulus-presentation","131","342746","0.0-26.0-1.7","SS1613169597636","trial","","40","800","1208.3199999877252","images/stimuli/spore_stims/simple_14_A_c.gif","images/stimuli/spore_stims/simple_17_B_a.gif","","","","","6","simple_dissimilar","images/stimuli/spore_stims/simple_17_B_a.gif","left","","","","",""
"","1965.7249999872874","html-keyboard-response","132","344719","0.0-27.0","SS1613169597636","pref_question","","98","","","","","<video width ='960' height = '540' style='padding-top:8%' autoplay muted><source src='images/stimuli/wall_pref.mp4' type='video/mp4'></video>","2","middle","45%","6","","","","","","","",""
"","5460.560000006808","sequential-stimulus-presentation","133","350990","0.0-28.0","SS1613169597636","pref_reveal","","40","800","6260.560000006808","null","null","","","","","6","","","","novel","","","",""
"","null","html-keyboard-response","134","352098","0.0-29.0-0.0","SS1613169597636","","","null","","","","","<p><img src= images/blank.png width =""200"" height = ""200"" style = ""float:right""></p><p><img src=images/blank.png width =""800"" height = ""200""></p>","","","","","","","","","","","",""
"","1240.3050000139046","sequential-stimulus-presentation","135","354158","0.0-29.0-1.0","SS1613169597636","trial","","40","800","2040.3050000139046","images/stimuli/spore_stims/complex_15_B_d.gif","images/stimuli/spore_stims/complex_06_B_a.gif","","","","","7","complex_dissimilar","images/stimuli/spore_stims/complex_06_B_a.gif","middle","","","","",""
"","null","html-keyboard-response","136","355053","0.0-29.0-0.1","SS1613169597636","","","null","","","","","<p><img src= images/blank.png width =""200"" height = ""200"" style = ""float:right""></p><p><img src=images/blank.png width =""800"" height = ""200""></p>","","","","","","","","","","","",""
"","940.8650000113994","sequential-stimulus-presentation","137","356812","0.0-29.0-1.1","SS1613169597636","trial","","40","800","1740.8650000113994","images/stimuli/spore_stims/complex_15_B_d.gif","images/stimuli/spore_stims/complex_06_B_a.gif","","","","","7","complex_dissimilar","images/stimuli/spore_stims/complex_06_B_a.gif","middle","","","","",""
"","null","html-keyboard-response","138","358023","0.0-29.0-0.2","SS1613169597636","","","null","","","","","<p><img src= images/blank.png width =""200"" height = ""200"" style = ""float:right""></p><p><img src=images/blank.png width =""800"" height = ""200""></p>","","","","","","","","","","","",""
"","973.969999991823","sequential-stimulus-presentation","139","359813","0.0-29.0-1.2","SS1613169597636","trial","","40","800","1773.969999991823","images/stimuli/spore_stims/complex_15_B_d.gif","images/stimuli/spore_stims/complex_06_B_a.gif","","","","","7","complex_dissimilar","images/stimuli/spore_stims/complex_06_B_a.gif","middle","","","","",""
"","null","html-keyboard-response","140","360913","0.0-29.0-0.3","SS1613169597636","","","null","","","","","<p><img src= images/blank.png width =""200"" height = ""200"" style = ""float:right""></p><p><img src=images/blank.png width =""800"" height = ""200""></p>","","","","","","","","","","","",""
"","1959.2249999986961","sequential-stimulus-presentation","141","363686","0.0-29.0-1.3","SS1613169597636","trial","","40","800","2759.224999998696","images/stimuli/spore_stims/complex_15_B_d.gif","images/stimuli/spore_stims/complex_06_B_a.gif","","","","","7","complex_dissimilar","images/stimuli/spore_stims/complex_15_B_d.gif","right","","","","",""
"","null","html-keyboard-response","142","364631","0.0-29.0-0.4","SS1613169597636","","","null","","","","","<p><img src= images/blank.png width =""200"" height = ""200"" style = ""float:right""></p><p><img src=images/blank.png width =""800"" height = ""200""></p>","","","","","","","","","","","",""
"","931.3000000256579","sequential-stimulus-presentation","143","366381","0.0-29.0-1.4","SS1613169597636","trial","","40","800","1731.300000025658","images/stimuli/spore_stims/complex_15_B_d.gif","images/stimuli/spore_stims/complex_06_B_a.gif","","","","","7","complex_dissimilar","images/stimuli/spore_stims/complex_06_B_a.gif","middle","","","","",""
"","null","html-keyboard-response","144","367333","0.0-29.0-0.5","SS1613169597636","","","null","","","","","<p><img src= images/blank.png width =""200"" height = ""200"" style = ""float:right""></p><p><img src=images/blank.png width =""800"" height = ""200""></p>","","","","","","","","","","","",""
"","982.2550000099","sequential-stimulus-presentation","145","369126","0.0-29.0-1.5","SS1613169597636","trial","","40","800","1782.2550000099","images/stimuli/spore_stims/complex_15_B_d.gif","images/stimuli/spore_stims/complex_06_B_a.gif","","","","","7","complex_dissimilar","images/stimuli/spore_stims/complex_06_B_a.gif","middle","","","","",""
"","null","html-keyboard-response","146","370347","0.0-29.0-0.6","SS1613169597636","","","null","","","","","<p><img src= images/blank.png width =""200"" height = ""200"" style = ""float:right""></p><p><img src=images/blank.png width =""800"" height = ""200""></p>","","","","","","","","","","","",""
"","815.5099999858066","sequential-stimulus-presentation","147","371981","0.0-29.0-1.6","SS1613169597636","trial","","40","800","1615.5099999858066","images/stimuli/spore_stims/complex_15_B_d.gif","images/stimuli/spore_stims/complex_06_B_a.gif","","","","","7","complex_dissimilar","images/stimuli/spore_stims/complex_06_B_a.gif","middle","","","","",""
"","null","html-keyboard-response","148","373063","0.0-29.0-0.7","SS1613169597636","","","null","","","","","<p><img src= images/blank.png width =""200"" height = ""200"" style = ""float:right""></p><p><img src=images/blank.png width =""800"" height = ""200""></p>","","","","","","","","","","","",""
"","595.2999999863096","sequential-stimulus-presentation","149","374469","0.0-29.0-1.7","SS1613169597636","trial","","40","800","1395.2999999863096","images/stimuli/spore_stims/complex_15_B_d.gif","images/stimuli/spore_stims/complex_06_B_a.gif","","","","","7","complex_dissimilar","images/stimuli/spore_stims/complex_06_B_a.gif","middle","","","","",""
"","1148.1599999824539","html-keyboard-response","150","375622","0.0-30.0","SS1613169597636","pref_question","","97","","","","","<video width ='960' height = '540' style='padding-top:8%' autoplay muted><source src='images/stimuli/wall_pref.mp4' type='video/mp4'></video>","1","left","25%","7","","","","","","","",""
"","8032.600000005914","sequential-stimulus-presentation","151","384469","0.0-31.0","SS1613169597636","pref_reveal","","40","800","8832.600000005914","null","null","","","","","7","","","","novel","","","",""
"","null","html-keyboard-response","152","385726","0.0-32.0-0.0","SS1613169597636","","","null","","","","","<p><img src= images/blank.png width =""200"" height = ""200"" style = ""float:right""></p><p><img src=images/blank.png width =""800"" height = ""200""></p>","","","","","","","","","","","",""
"","955.8900000120047","sequential-stimulus-presentation","153","387493","0.0-32.0-1.0","SS1613169597636","trial","","40","800","1755.8900000120047","images/stimuli/spore_stims/simple_18_A_b.gif","images/stimuli/spore_stims/simple_18_B_b.gif","","","","","8","simple_similar","images/stimuli/spore_stims/simple_18_B_b.gif","middle","","","","",""
"","null","html-keyboard-response","154","388776","0.0-32.0-0.1","SS1613169597636","","","null","","","","","<p><img src= images/blank.png width =""200"" height = ""200"" style = ""float:right""></p><p><img src=images/blank.png width =""800"" height = ""200""></p>","","","","","","","","","","","",""
"","1164.2900000151712","sequential-stimulus-presentation","155","390758","0.0-32.0-1.1","SS1613169597636","trial","","40","800","1964.2900000151712","images/stimuli/spore_stims/simple_18_A_b.gif","images/stimuli/spore_stims/simple_18_B_b.gif","","","","","8","simple_similar","images/stimuli/spore_stims/simple_18_B_b.gif","middle","","","","",""
"","null","html-keyboard-response","156","391692","0.0-32.0-0.2","SS1613169597636","","","null","","","","","<p><img src= images/blank.png width =""200"" height = ""200"" style = ""float:right""></p><p><img src=images/blank.png width =""800"" height = ""200""></p>","","","","","","","","","","","",""
"","1126.8449999915902","sequential-stimulus-presentation","157","393637","0.0-32.0-1.2","SS1613169597636","trial","","40","800","1926.8449999915902","images/stimuli/spore_stims/simple_18_A_b.gif","images/stimuli/spore_stims/simple_18_B_b.gif","","","","","8","simple_similar","images/stimuli/spore_stims/simple_18_B_b.gif","middle","","","","",""
"","null","html-keyboard-response","158","394791","0.0-32.0-0.3","SS1613169597636","","","null","","","","","<p><img src= images/blank.png width =""200"" height = ""200"" style = ""float:right""></p><p><img src=images/blank.png width =""800"" height = ""200""></p>","","","","","","","","","","","",""
"","1433.950000006007","sequential-stimulus-presentation","159","397039","0.0-32.0-1.3","SS1613169597636","trial","","40","800","2233.950000006007","images/stimuli/spore_stims/simple_18_A_b.gif","images/stimuli/spore_stims/simple_18_B_b.gif","","","","","8","simple_similar","images/stimuli/spore_stims/simple_18_A_b.gif","left","","","","",""
"","null","html-keyboard-response","160","398187","0.0-32.0-0.4","SS1613169597636","","","null","","","","","<p><img src= images/blank.png width =""200"" height = ""200"" style = ""float:right""></p><p><img src=images/blank.png width =""800"" height = ""200""></p>","","","","","","","","","","","",""
"","1108.364999992773","sequential-stimulus-presentation","161","400104","0.0-32.0-1.4","SS1613169597636","trial","","40","800","1908.364999992773","images/stimuli/spore_stims/simple_18_A_b.gif","images/stimuli/spore_stims/simple_18_B_b.gif","","","","","8","simple_similar","images/stimuli/spore_stims/simple_18_B_b.gif","middle","","","","",""
"","null","html-keyboard-response","162","401114","0.0-32.0-0.5","SS1613169597636","","","null","","","","","<p><img src= images/blank.png width =""200"" height = ""200"" style = ""float:right""></p><p><img src=images/blank.png width =""800"" height = ""200""></p>","","","","","","","","","","","",""
"","468.28499998082407","sequential-stimulus-presentation","163","402389","0.0-32.0-1.5","SS1613169597636","trial","","40","800","1268.284999980824","images/stimuli/spore_stims/simple_18_A_b.gif","images/stimuli/spore_stims/simple_18_B_b.gif","","","","","8","simple_similar","images/stimuli/spore_stims/simple_18_B_b.gif","middle","","","","",""
"","null","html-keyboard-response","164","403348","0.0-32.0-0.6","SS1613169597636","","","null","","","","","<p><img src= images/blank.png width =""200"" height = ""200"" style = ""float:right""></p><p><img src=images/blank.png width =""800"" height = ""200""></p>","","","","","","","","","","","",""
"","560.765000001993","sequential-stimulus-presentation","165","404717","0.0-32.0-1.6","SS1613169597636","trial","","40","800","1360.765000001993","images/stimuli/spore_stims/simple_18_A_b.gif","images/stimuli/spore_stims/simple_18_B_b.gif","","","","","8","simple_similar","images/stimuli/spore_stims/simple_18_B_b.gif","middle","","","","",""
"","null","html-keyboard-response","166","405896","0.0-32.0-0.7","SS1613169597636","","","null","","","","","<p><img src= images/blank.png width =""200"" height = ""200"" style = ""float:right""></p><p><img src=images/blank.png width =""800"" height = ""200""></p>","","","","","","","","","","","",""
"","501.1850000009872","sequential-stimulus-presentation","167","407207","0.0-32.0-1.7","SS1613169597636","trial","","40","800","1301.1850000009872","images/stimuli/spore_stims/simple_18_A_b.gif","images/stimuli/spore_stims/simple_18_B_b.gif","","","","","8","simple_similar","images/stimuli/spore_stims/simple_18_B_b.gif","middle","","","","",""
"","1367.8199999849312","html-keyboard-response","168","408589","0.0-33.0","SS1613169597636","pref_question","","99","","","","","<video width ='960' height = '540' style='padding-top:8%' autoplay muted><source src='images/stimuli/wall_pref.mp4' type='video/mp4'></video>","3","right","66%","8","","","","","","","",""
"","2021.775000001071","sequential-stimulus-presentation","169","411421","0.0-34.0","SS1613169597636","pref_reveal","","40","800","2821.775000001071","null","null","","","","","8","","","","novel","","","",""
"","null","html-keyboard-response","170","412573","0.0-35.0-0.0","SS1613169597636","","","null","","","","","<p><img src= images/blank.png width =""200"" height = ""200"" style = ""float:right""></p><p><img src=images/blank.png width =""800"" height = ""200""></p>","","","","","","","","","","","",""
"","970.5449999892153","sequential-stimulus-presentation","171","414356","0.0-35.0-1.0","SS1613169597636","trial","","40","800","1770.5449999892153","images/stimuli/spore_stims/simple_04_A_b.gif","images/stimuli/spore_stims/simple_02_B_d.gif","","","","","9","simple_dissimilar","images/stimuli/spore_stims/simple_02_B_d.gif","left","","","","",""
"","null","html-keyboard-response","172","415595","0.0-35.0-0.1","SS1613169597636","","","null","","","","","<p><img src= images/blank.png width =""200"" height = ""200"" style = ""float:right""></p><p><img src=images/blank.png width =""800"" height = ""200""></p>","","","","","","","","","","","",""
"","453.63499998347834","sequential-stimulus-presentation","173","416862","0.0-35.0-1.1","SS1613169597636","trial","","40","800","1253.6349999834783","images/stimuli/spore_stims/simple_04_A_b.gif","images/stimuli/spore_stims/simple_02_B_d.gif","","","","","9","simple_dissimilar","images/stimuli/spore_stims/simple_02_B_d.gif","left","","","","",""
"","null","html-keyboard-response","174","417897","0.0-35.0-0.2","SS1613169597636","","","null","","","","","<p><img src= images/blank.png width =""200"" height = ""200"" style = ""float:right""></p><p><img src=images/blank.png width =""800"" height = ""200""></p>","","","","","","","","","","","",""
"","386.10000000335276","sequential-stimulus-presentation","175","419094","0.0-35.0-1.2","SS1613169597636","trial","","40","800","1186.1000000033528","images/stimuli/spore_stims/simple_04_A_b.gif","images/stimuli/spore_stims/simple_02_B_d.gif","","","","","9","simple_dissimilar","images/stimuli/spore_stims/simple_02_B_d.gif","left","","","","",""
"","null","html-keyboard-response","176","420178","0.0-35.0-0.3","SS1613169597636","","","null","","","","","<p><img src= images/blank.png width =""200"" height = ""200"" style = ""float:right""></p><p><img src=images/blank.png width =""800"" height = ""200""></p>","","","","","","","","","","","",""
"","431.7600000067614","sequential-stimulus-presentation","177","421429","0.0-35.0-1.3","SS1613169597636","trial","","40","800","1231.7600000067614","images/stimuli/spore_stims/simple_04_A_b.gif","images/stimuli/spore_stims/simple_02_B_d.gif","","","","","9","simple_dissimilar","images/stimuli/spore_stims/simple_02_B_d.gif","left","","","","",""
"","null","html-keyboard-response","178","422539","0.0-35.0-0.4","SS1613169597636","","","null","","","","","<p><img src= images/blank.png width =""200"" height = ""200"" style = ""float:right""></p><p><img src=images/blank.png width =""800"" height = ""200""></p>","","","","","","","","","","","",""
"","502.97000000136904","sequential-stimulus-presentation","179","423861","0.0-35.0-1.4","SS1613169597636","trial","","40","800","1302.970000001369","images/stimuli/spore_stims/simple_04_A_b.gif","images/stimuli/spore_stims/simple_02_B_d.gif","","","","","9","simple_dissimilar","images/stimuli/spore_stims/simple_02_B_d.gif","left","","","","",""
"","null","html-keyboard-response","180","425070","0.0-35.0-0.5","SS1613169597636","","","null","","","","","<p><img src= images/blank.png width =""200"" height = ""200"" style = ""float:right""></p><p><img src=images/blank.png width =""800"" height = ""200""></p>","","","","","","","","","","","",""
"","461.5449999982957","sequential-stimulus-presentation","181","426353","0.0-35.0-1.5","SS1613169597636","trial","","40","800","1261.5449999982957","images/stimuli/spore_stims/simple_04_A_b.gif","images/stimuli/spore_stims/simple_02_B_d.gif","","","","","9","simple_dissimilar","images/stimuli/spore_stims/simple_02_B_d.gif","left","","","","",""
"","null","html-keyboard-response","182","427602","0.0-35.0-0.6","SS1613169597636","","","null","","","","","<p><img src= images/blank.png width =""200"" height = ""200"" style = ""float:right""></p><p><img src=images/blank.png width =""800"" height = ""200""></p>","","","","","","","","","","","",""
"","427.45499999728054","sequential-stimulus-presentation","183","428852","0.0-35.0-1.6","SS1613169597636","trial","","40","800","1227.4549999972805","images/stimuli/spore_stims/simple_04_A_b.gif","images/stimuli/spore_stims/simple_02_B_d.gif","","","","","9","simple_dissimilar","images/stimuli/spore_stims/simple_02_B_d.gif","left","","","","",""
"","null","html-keyboard-response","184","429929","0.0-35.0-0.7","SS1613169597636","","","null","","","","","<p><img src= images/blank.png width =""200"" height = ""200"" style = ""float:right""></p><p><img src=images/blank.png width =""800"" height = ""200""></p>","","","","","","","","","","","",""
"","3156.009999976959","sequential-stimulus-presentation","185","433900","0.0-35.0-1.7","SS1613169597636","trial","","40","800","3956.009999976959","images/stimuli/spore_stims/simple_04_A_b.gif","images/stimuli/spore_stims/simple_02_B_d.gif","","","","","9","simple_dissimilar","images/stimuli/spore_stims/simple_04_A_b.gif","middle","","","","",""
"","772.0499999995809","html-keyboard-response","186","434677","0.0-36.0","SS1613169597636","pref_question","","99","","","","","<video width ='960' height = '540' style='padding-top:8%' autoplay muted><source src='images/stimuli/wall_pref.mp4' type='video/mp4'></video>","3","right","66%","9","","","","","","","",""
"","2282.0150000043213","sequential-stimulus-presentation","187","437773","0.0-37.0","SS1613169597636","pref_reveal","","40","800","3082.0150000043213","null","null","","","","","9","","","","novel","","","",""
"","null","html-keyboard-response","188","439007","0.0-38.0-0.0","SS1613169597636","","","null","","","","","<p><img src= images/blank.png width =""200"" height = ""200"" style = ""float:right""></p><p><img src=images/blank.png width =""800"" height = ""200""></p>","","","","","","","","","","","",""
"","852.2900000098161","sequential-stimulus-presentation","189","440672","0.0-38.0-1.0","SS1613169597636","trial","","40","800","1652.2900000098161","images/stimuli/spore_stims/simple_12_A_b.gif","images/stimuli/spore_stims/simple_12_B_b.gif","","","","","10","simple_similar","images/stimuli/spore_stims/simple_12_B_b.gif","middle","","","","",""
"","null","html-keyboard-response","190","441912","0.0-38.0-0.1","SS1613169597636","","","null","","","","","<p><img src= images/blank.png width =""200"" height = ""200"" style = ""float:right""></p><p><img src=images/blank.png width =""800"" height = ""200""></p>","","","","","","","","","","","",""
"","769.7399999888148","sequential-stimulus-presentation","191","443492","0.0-38.0-1.1","SS1613169597636","trial","","40","800","1569.7399999888148","images/stimuli/spore_stims/simple_12_A_b.gif","images/stimuli/spore_stims/simple_12_B_b.gif","","","","","10","simple_similar","images/stimuli/spore_stims/simple_12_B_b.gif","middle","","","","",""
"","null","html-keyboard-response","192","444430","0.0-38.0-0.2","SS1613169597636","","","null","","","","","<p><img src= images/blank.png width =""200"" height = ""200"" style = ""float:right""></p><p><img src=images/blank.png width =""800"" height = ""200""></p>","","","","","","","","","","","",""
"","530.4250000044703","sequential-stimulus-presentation","193","445770","0.0-38.0-1.2","SS1613169597636","trial","","40","800","1330.4250000044703","images/stimuli/spore_stims/simple_12_A_b.gif","images/stimuli/spore_stims/simple_12_B_b.gif","","","","","10","simple_similar","images/stimuli/spore_stims/simple_12_B_b.gif","middle","","","","",""
"","null","html-keyboard-response","194","446895","0.0-38.0-0.3","SS1613169597636","","","null","","","","","<p><img src= images/blank.png width =""200"" height = ""200"" style = ""float:right""></p><p><img src=images/blank.png width =""800"" height = ""200""></p>","","","","","","","","","","","",""
"","359.6700000052806","sequential-stimulus-presentation","195","448068","0.0-38.0-1.3","SS1613169597636","trial","","40","800","1159.6700000052806","images/stimuli/spore_stims/simple_12_A_b.gif","images/stimuli/spore_stims/simple_12_B_b.gif","","","","","10","simple_similar","images/stimuli/spore_stims/simple_12_B_b.gif","middle","","","","",""
"","null","html-keyboard-response","196","449260","0.0-38.0-0.4","SS1613169597636","","","null","","","","","<p><img src= images/blank.png width =""200"" height = ""200"" style = ""float:right""></p><p><img src=images/blank.png width =""800"" height = ""200""></p>","","","","","","","","","","","",""
"","499.34499998926185","sequential-stimulus-presentation","197","450572","0.0-38.0-1.4","SS1613169597636","trial","","40","800","1299.3449999892619","images/stimuli/spore_stims/simple_12_A_b.gif","images/stimuli/spore_stims/simple_12_B_b.gif","","","","","10","simple_similar","images/stimuli/spore_stims/simple_12_B_b.gif","middle","","","","",""
"","null","html-keyboard-response","198","451733","0.0-38.0-0.5","SS1613169597636","","","null","","","","","<p><img src= images/blank.png width =""200"" height = ""200"" style = ""float:right""></p><p><img src=images/blank.png width =""800"" height = ""200""></p>","","","","","","","","","","","",""
"","532.7849999885075","sequential-stimulus-presentation","199","453084","0.0-38.0-1.5","SS1613169597636","trial","","40","800","1332.7849999885075","images/stimuli/spore_stims/simple_12_A_b.gif","images/stimuli/spore_stims/simple_12_B_b.gif","","","","","10","simple_similar","images/stimuli/spore_stims/simple_12_B_b.gif","middle","","","","",""
"","null","html-keyboard-response","200","453912","0.0-38.0-0.6","SS1613169597636","","","null","","","","","<p><img src= images/blank.png width =""200"" height = ""200"" style = ""float:right""></p><p><img src=images/blank.png width =""800"" height = ""200""></p>","","","","","","","","","","","",""
"","1240.829999995185","sequential-stimulus-presentation","201","455973","0.0-38.0-1.6","SS1613169597636","trial","","40","800","2040.829999995185","images/stimuli/spore_stims/simple_12_A_b.gif","images/stimuli/spore_stims/simple_12_B_b.gif","","","","","10","simple_similar","images/stimuli/spore_stims/simple_12_A_b.gif","right","","","","",""
"","null","html-keyboard-response","202","456958","0.0-38.0-0.7","SS1613169597636","","","null","","","","","<p><img src= images/blank.png width =""200"" height = ""200"" style = ""float:right""></p><p><img src=images/blank.png width =""800"" height = ""200""></p>","","","","","","","","","","","",""
"","482.51500001060776","sequential-stimulus-presentation","203","458252","0.0-38.0-1.7","SS1613169597636","trial","","40","800","1282.5150000106078","images/stimuli/spore_stims/simple_12_A_b.gif","images/stimuli/spore_stims/simple_12_B_b.gif","","","","","10","simple_similar","images/stimuli/spore_stims/simple_12_B_b.gif","middle","","","","",""
"","1323.5850000055507","html-keyboard-response","204","459581","0.0-39.0","SS1613169597636","pref_question","","97","","","","","<video width ='960' height = '540' style='padding-top:8%' autoplay muted><source src='images/stimuli/wall_pref.mp4' type='video/mp4'></video>","1","left","25%","10","","","","","","","",""
"","1178.474999993341","sequential-stimulus-presentation","205","461581","0.0-40.0","SS1613169597636","pref_reveal","","40","800","1978.474999993341","null","null","","","","","10","","","","novel","","","",""
"","null","html-keyboard-response","206","462868","0.0-41.0-0.0","SS1613169597636","","","null","","","","","<p><img src= images/blank.png width =""200"" height = ""200"" style = ""float:right""></p><p><img src=images/blank.png width =""800"" height = ""200""></p>","","","","","","","","","","","",""
"","1102.1349999937229","sequential-stimulus-presentation","207","464788","0.0-41.0-1.0","SS1613169597636","trial","","40","800","1902.1349999937229","images/stimuli/spore_stims/complex_09_B_c.gif","images/stimuli/spore_stims/complex_09_A_c.gif","","","","","11","complex_similar","images/stimuli/spore_stims/complex_09_A_c.gif","left","","","","",""
"","null","html-keyboard-response","208","465990","0.0-41.0-0.1","SS1613169597636","","","null","","","","","<p><img src= images/blank.png width =""200"" height = ""200"" style = ""float:right""></p><p><img src=images/blank.png width =""800"" height = ""200""></p>","","","","","","","","","","","",""
"","962.7400000172202","sequential-stimulus-presentation","209","467765","0.0-41.0-1.1","SS1613169597636","trial","","40","800","1762.7400000172202","images/stimuli/spore_stims/complex_09_B_c.gif","images/stimuli/spore_stims/complex_09_A_c.gif","","","","","11","complex_similar","images/stimuli/spore_stims/complex_09_A_c.gif","left","","","","",""
"","null","html-keyboard-response","210","468980","0.0-41.0-0.2","SS1613169597636","","","null","","","","","<p><img src= images/blank.png width =""200"" height = ""200"" style = ""float:right""></p><p><img src=images/blank.png width =""800"" height = ""200""></p>","","","","","","","","","","","",""
"","996.4200000104029","sequential-stimulus-presentation","211","470788","0.0-41.0-1.2","SS1613169597636","trial","","40","800","1796.4200000104029","images/stimuli/spore_stims/complex_09_B_c.gif","images/stimuli/spore_stims/complex_09_A_c.gif","","","","","11","complex_similar","images/stimuli/spore_stims/complex_09_A_c.gif","left","","","","",""
"","null","html-keyboard-response","212","471767","0.0-41.0-0.3","SS1613169597636","","","null","","","","","<p><img src= images/blank.png width =""200"" height = ""200"" style = ""float:right""></p><p><img src=images/blank.png width =""800"" height = ""200""></p>","","","","","","","","","","","",""
"","867.2800000058487","sequential-stimulus-presentation","213","473452","0.0-41.0-1.3","SS1613169597636","trial","","40","800","1667.2800000058487","images/stimuli/spore_stims/complex_09_B_c.gif","images/stimuli/spore_stims/complex_09_A_c.gif","","","","","11","complex_similar","images/stimuli/spore_stims/complex_09_A_c.gif","left","","","","",""
"","null","html-keyboard-response","214","474582","0.0-41.0-0.4","SS1613169597636","","","null","","","","","<p><img src= images/blank.png width =""200"" height = ""200"" style = ""float:right""></p><p><img src=images/blank.png width =""800"" height = ""200""></p>","","","","","","","","","","","",""
"","1123.7550000078045","sequential-stimulus-presentation","215","476517","0.0-41.0-1.4","SS1613169597636","trial","","40","800","1923.7550000078045","images/stimuli/spore_stims/complex_09_B_c.gif","images/stimuli/spore_stims/complex_09_A_c.gif","","","","","11","complex_similar","images/stimuli/spore_stims/complex_09_B_c.gif","right","","","","",""
"","null","html-keyboard-response","216","477710","0.0-41.0-0.5","SS1613169597636","","","null","","","","","<p><img src= images/blank.png width =""200"" height = ""200"" style = ""float:right""></p><p><img src=images/blank.png width =""800"" height = ""200""></p>","","","","","","","","","","","",""
"","997.8800000099","sequential-stimulus-presentation","217","479524","0.0-41.0-1.5","SS1613169597636","trial","","40","800","1797.8800000099","images/stimuli/spore_stims/complex_09_B_c.gif","images/stimuli/spore_stims/complex_09_A_c.gif","","","","","11","complex_similar","images/stimuli/spore_stims/complex_09_A_c.gif","left","","","","",""
"","null","html-keyboard-response","218","480789","0.0-41.0-0.6","SS1613169597636","","","null","","","","","<p><img src= images/blank.png width =""200"" height = ""200"" style = ""float:right""></p><p><img src=images/blank.png width =""800"" height = ""200""></p>","","","","","","","","","","","",""
"","877.6850000140257","sequential-stimulus-presentation","219","482476","0.0-41.0-1.6","SS1613169597636","trial","","40","800","1677.6850000140257","images/stimuli/spore_stims/complex_09_B_c.gif","images/stimuli/spore_stims/complex_09_A_c.gif","","","","","11","complex_similar","images/stimuli/spore_stims/complex_09_A_c.gif","left","","","","",""
"","null","html-keyboard-response","220","483634","0.0-41.0-0.7","SS1613169597636","","","null","","","","","<p><img src= images/blank.png width =""200"" height = ""200"" style = ""float:right""></p><p><img src=images/blank.png width =""800"" height = ""200""></p>","","","","","","","","","","","",""
"","934.5099999918602","sequential-stimulus-presentation","221","485380","0.0-41.0-1.7","SS1613169597636","trial","","40","800","1734.5099999918602","images/stimuli/spore_stims/complex_09_B_c.gif","images/stimuli/spore_stims/complex_09_A_c.gif","","","","","11","complex_similar","images/stimuli/spore_stims/complex_09_A_c.gif","left","","","","",""
"","566.7050000047311","html-keyboard-response","222","485957","0.0-42.0","SS1613169597636","pref_question","","98","","","","","<video width ='960' height = '540' style='padding-top:8%' autoplay muted><source src='images/stimuli/wall_pref.mp4' type='video/mp4'></video>","2","middle","45%","11","","","","","","","",""
"","1636.625000013737","sequential-stimulus-presentation","223","488404","0.0-43.0","SS1613169597636","pref_reveal","","40","800","2436.625000013737","null","null","","","","","11","","","","novel","","","",""
"","null","html-keyboard-response","224","489440","0.0-44.0-0.0","SS1613169597636","","","null","","","","","<p><img src= images/blank.png width =""200"" height = ""200"" style = ""float:right""></p><p><img src=images/blank.png width =""800"" height = ""200""></p>","","","","","","","","","","","",""
"","960.3899999929126","sequential-stimulus-presentation","225","491220","0.0-44.0-1.0","SS1613169597636","trial","","40","800","1760.3899999929126","images/stimuli/spore_stims/complex_08_A_b.gif","images/stimuli/spore_stims/complex_08_B_b.gif","","","","","12","complex_similar","images/stimuli/spore_stims/complex_08_B_b.gif","right","","","","",""
"","null","html-keyboard-response","226","492476","0.0-44.0-0.1","SS1613169597636","","","null","","","","","<p><img src= images/blank.png width =""200"" height = ""200"" style = ""float:right""></p><p><img src=images/blank.png width =""800"" height = ""200""></p>","","","","","","","","","","","",""
"","485.4300000006333","sequential-stimulus-presentation","227","493772","0.0-44.0-1.1","SS1613169597636","trial","","40","800","1285.4300000006333","images/stimuli/spore_stims/complex_08_A_b.gif","images/stimuli/spore_stims/complex_08_B_b.gif","","","","","12","complex_similar","images/stimuli/spore_stims/complex_08_B_b.gif","right","","","","",""
"","null","html-keyboard-response","228","494804","0.0-44.0-0.2","SS1613169597636","","","null","","","","","<p><img src= images/blank.png width =""200"" height = ""200"" style = ""float:right""></p><p><img src=images/blank.png width =""800"" height = ""200""></p>","","","","","","","","","","","",""
"","936.7399999755435","sequential-stimulus-presentation","229","496549","0.0-44.0-1.2","SS1613169597636","trial","","40","800","1736.7399999755435","images/stimuli/spore_stims/complex_08_A_b.gif","images/stimuli/spore_stims/complex_08_B_b.gif","","","","","12","complex_similar","images/stimuli/spore_stims/complex_08_B_b.gif","right","","","","",""
"","null","html-keyboard-response","230","497602","0.0-44.0-0.3","SS1613169597636","","","null","","","","","<p><img src= images/blank.png width =""200"" height = ""200"" style = ""float:right""></p><p><img src=images/blank.png width =""800"" height = ""200""></p>","","","","","","","","","","","",""
"","370.0900000112597","sequential-stimulus-presentation","231","498779","0.0-44.0-1.3","SS1613169597636","trial","","40","800","1170.0900000112597","images/stimuli/spore_stims/complex_08_A_b.gif","images/stimuli/spore_stims/complex_08_B_b.gif","","","","","12","complex_similar","images/stimuli/spore_stims/complex_08_B_b.gif","right","","","","",""
"","null","html-keyboard-response","232","499672","0.0-44.0-0.4","SS1613169597636","","","null","","","","","<p><img src= images/blank.png width =""200"" height = ""200"" style = ""float:right""></p><p><img src=images/blank.png width =""800"" height = ""200""></p>","","","","","","","","","","","",""
"","483.03000000305474","sequential-stimulus-presentation","233","500964","0.0-44.0-1.4","SS1613169597636","trial","","40","800","1283.0300000030547","images/stimuli/spore_stims/complex_08_A_b.gif","images/stimuli/spore_stims/complex_08_B_b.gif","","","","","12","complex_similar","images/stimuli/spore_stims/complex_08_B_b.gif","right","","","","",""
"","null","html-keyboard-response","234","502271","0.0-44.0-0.5","SS1613169597636","","","null","","","","","<p><img src= images/blank.png width =""200"" height = ""200"" style = ""float:right""></p><p><img src=images/blank.png width =""800"" height = ""200""></p>","","","","","","","","","","","",""
"","825.764999986859","sequential-stimulus-presentation","235","503916","0.0-44.0-1.5","SS1613169597636","trial","","40","800","1625.764999986859","images/stimuli/spore_stims/complex_08_A_b.gif","images/stimuli/spore_stims/complex_08_B_b.gif","","","","","12","complex_similar","images/stimuli/spore_stims/complex_08_A_b.gif","middle","","","","",""
"","null","html-keyboard-response","236","505209","0.0-44.0-0.6","SS1613169597636","","","null","","","","","<p><img src= images/blank.png width =""200"" height = ""200"" style = ""float:right""></p><p><img src=images/blank.png width =""800"" height = ""200""></p>","","","","","","","","","","","",""
"","662.4250000168104","sequential-stimulus-presentation","237","506684","0.0-44.0-1.6","SS1613169597636","trial","","40","800","1462.4250000168104","images/stimuli/spore_stims/complex_08_A_b.gif","images/stimuli/spore_stims/complex_08_B_b.gif","","","","","12","complex_similar","images/stimuli/spore_stims/complex_08_B_b.gif","right","","","","",""
"","null","html-keyboard-response","238","507618","0.0-44.0-0.7","SS1613169597636","","","null","","","","","<p><img src= images/blank.png width =""200"" height = ""200"" style = ""float:right""></p><p><img src=images/blank.png width =""800"" height = ""200""></p>","","","","","","","","","","","",""
"","47.18499997397885","sequential-stimulus-presentation","239","508476","0.0-44.0-1.7","SS1613169597636","trial","","40","800","847.1849999739788","images/stimuli/spore_stims/complex_08_A_b.gif","images/stimuli/spore_stims/complex_08_B_b.gif","","","","","12","complex_similar","images/stimuli/spore_stims/complex_08_B_b.gif","right","","","","",""
"","714.7050000203308","html-keyboard-response","240","509196","0.0-45.0","SS1613169597636","pref_question","","97","","","","","<video width ='960' height = '540' style='padding-top:8%' autoplay muted><source src='images/stimuli/wall_pref.mp4' type='video/mp4'></video>","1","left","25%","12","","","","","","","",""
"","554.0800000017043","sequential-stimulus-presentation","241","510574","0.0-46.0","SS1613169597636","pref_reveal","","40","800","1354.0800000017043","null","null","","","","","12","","","","novel","","","",""
"","null","html-keyboard-response","242","511633","0.0-47.0-0.0","SS1613169597636","","","null","","","","","<p><img src= images/blank.png width =""200"" height = ""200"" style = ""float:right""></p><p><img src=images/blank.png width =""800"" height = ""200""></p>","","","","","","","","","","","",""
"","1063.6299999896437","sequential-stimulus-presentation","243","513516","0.0-47.0-1.0","SS1613169597636","trial","","40","800","1863.6299999896437","images/stimuli/spore_stims/complex_01_B_d.gif","images/stimuli/spore_stims/complex_01_A_d.gif","","","","","13","complex_similar","images/stimuli/spore_stims/complex_01_A_d.gif","left","","","","",""
"","null","html-keyboard-response","244","514348","0.0-47.0-0.1","SS1613169597636","","","null","","","","","<p><img src= images/blank.png width =""200"" height = ""200"" style = ""float:right""></p><p><img src=images/blank.png width =""800"" height = ""200""></p>","","","","","","","","","","","",""
"","1251.0800000163727","sequential-stimulus-presentation","245","516415","0.0-47.0-1.1","SS1613169597636","trial","","40","800","2051.0800000163727","images/stimuli/spore_stims/complex_01_B_d.gif","images/stimuli/spore_stims/complex_01_A_d.gif","","","","","13","complex_similar","images/stimuli/spore_stims/complex_01_A_d.gif","left","","","","",""
"","null","html-keyboard-response","246","517644","0.0-47.0-0.2","SS1613169597636","","","null","","","","","<p><img src= images/blank.png width =""200"" height = ""200"" style = ""float:right""></p><p><img src=images/blank.png width =""800"" height = ""200""></p>","","","","","","","","","","","",""
"","1532.4449999898206","sequential-stimulus-presentation","247","519986","0.0-47.0-1.2","SS1613169597636","trial","","40","800","2332.4449999898206","images/stimuli/spore_stims/complex_01_B_d.gif","images/stimuli/spore_stims/complex_01_A_d.gif","","","","","13","complex_similar","images/stimuli/spore_stims/complex_01_A_d.gif","left","","","","",""
"","null","html-keyboard-response","248","521007","0.0-47.0-0.3","SS1613169597636","","","null","","","","","<p><img src= images/blank.png width =""200"" height = ""200"" style = ""float:right""></p><p><img src=images/blank.png width =""800"" height = ""200""></p>","","","","","","","","","","","",""
"","823.9299999841023","sequential-stimulus-presentation","249","522667","0.0-47.0-1.3","SS1613169597636","trial","","40","800","1623.9299999841023","images/stimuli/spore_stims/complex_01_B_d.gif","images/stimuli/spore_stims/complex_01_A_d.gif","","","","","13","complex_similar","images/stimuli/spore_stims/complex_01_A_d.gif","left","","","","",""
"","null","html-keyboard-response","250","523676","0.0-47.0-0.4","SS1613169597636","","","null","","","","","<p><img src= images/blank.png width =""200"" height = ""200"" style = ""float:right""></p><p><img src=images/blank.png width =""800"" height = ""200""></p>","","","","","","","","","","","",""
"","1013.8199999928474","sequential-stimulus-presentation","251","525504","0.0-47.0-1.4","SS1613169597636","trial","","40","800","1813.8199999928474","images/stimuli/spore_stims/complex_01_B_d.gif","images/stimuli/spore_stims/complex_01_A_d.gif","","","","","13","complex_similar","images/stimuli/spore_stims/complex_01_B_d.gif","right","","","","",""
"","null","html-keyboard-response","252","526769","0.0-47.0-0.5","SS1613169597636","","","null","","","","","<p><img src= images/blank.png width =""200"" height = ""200"" style = ""float:right""></p><p><img src=images/blank.png width =""800"" height = ""200""></p>","","","","","","","","","","","",""
"","933.1149999925401","sequential-stimulus-presentation","253","528513","0.0-47.0-1.5","SS1613169597636","trial","","40","800","1733.11499999254","images/stimuli/spore_stims/complex_01_B_d.gif","images/stimuli/spore_stims/complex_01_A_d.gif","","","","","13","complex_similar","images/stimuli/spore_stims/complex_01_A_d.gif","left","","","","",""
"","null","html-keyboard-response","254","529723","0.0-47.0-0.6","SS1613169597636","","","null","","","","","<p><img src= images/blank.png width =""200"" height = ""200"" style = ""float:right""></p><p><img src=images/blank.png width =""800"" height = ""200""></p>","","","","","","","","","","","",""
"","946.0850000032224","sequential-stimulus-presentation","255","531483","0.0-47.0-1.6","SS1613169597636","trial","","40","800","1746.0850000032224","images/stimuli/spore_stims/complex_01_B_d.gif","images/stimuli/spore_stims/complex_01_A_d.gif","","","","","13","complex_similar","images/stimuli/spore_stims/complex_01_A_d.gif","left","","","","",""
"","null","html-keyboard-response","256","532771","0.0-47.0-0.7","SS1613169597636","","","null","","","","","<p><img src= images/blank.png width =""200"" height = ""200"" style = ""float:right""></p><p><img src=images/blank.png width =""800"" height = ""200""></p>","","","","","","","","","","","",""
"","1971.6699999989942","sequential-stimulus-presentation","257","535555","0.0-47.0-1.7","SS1613169597636","trial","","40","800","2771.669999998994","images/stimuli/spore_stims/complex_01_B_d.gif","images/stimuli/spore_stims/complex_01_A_d.gif","","","","","13","complex_similar","images/stimuli/spore_stims/complex_01_A_d.gif","left","","","","",""
"","615.4000000096858","html-keyboard-response","258","536177","0.0-48.0","SS1613169597636","pref_question","","98","","","","","<video width ='960' height = '540' style='padding-top:8%' autoplay muted><source src='images/stimuli/wall_pref.mp4' type='video/mp4'></video>","2","middle","45%","13","","","","","","","",""
"","1195.2499999897555","sequential-stimulus-presentation","259","538188","0.0-49.0","SS1613169597636","pref_reveal","","40","800","1995.2499999897555","null","null","","","","","13","","","","novel","","","",""
"","null","html-keyboard-response","260","539242","0.0-50.0-0.0","SS1613169597636","","","null","","","","","<p><img src= images/blank.png width =""200"" height = ""200"" style = ""float:right""></p><p><img src=images/blank.png width =""800"" height = ""200""></p>","","","","","","","","","","","",""
"","1810.844999999972","sequential-stimulus-presentation","261","541873","0.0-50.0-1.0","SS1613169597636","trial","","40","800","2610.844999999972","images/stimuli/spore_stims/complex_12_B_d.gif","images/stimuli/spore_stims/complex_12_A_d.gif","","","","","14","complex_similar","images/stimuli/spore_stims/complex_12_A_d.gif","middle","","","","",""
"","null","html-keyboard-response","262","542835","0.0-50.0-0.1","SS1613169597636","","","null","","","","","<p><img src= images/blank.png width =""200"" height = ""200"" style = ""float:right""></p><p><img src=images/blank.png width =""800"" height = ""200""></p>","","","","","","","","","","","",""
"","1015.2700000035111","sequential-stimulus-presentation","263","544659","0.0-50.0-1.1","SS1613169597636","trial","","40","800","1815.270000003511","images/stimuli/spore_stims/complex_12_B_d.gif","images/stimuli/spore_stims/complex_12_A_d.gif","","","","","14","complex_similar","images/stimuli/spore_stims/complex_12_A_d.gif","middle","","","","",""
"","null","html-keyboard-response","264","545805","0.0-50.0-0.2","SS1613169597636","","","null","","","","","<p><img src= images/blank.png width =""200"" height = ""200"" style = ""float:right""></p><p><img src=images/blank.png width =""800"" height = ""200""></p>","","","","","","","","","","","",""
"","2472.745000006398","sequential-stimulus-presentation","265","549099","0.0-50.0-1.2","SS1613169597636","trial","","40","800","3272.745000006398","images/stimuli/spore_stims/complex_12_B_d.gif","images/stimuli/spore_stims/complex_12_A_d.gif","","","","","14","complex_similar","images/stimuli/spore_stims/complex_12_B_d.gif","left","","","","",""
"","null","html-keyboard-response","266","549994","0.0-50.0-0.3","SS1613169597636","","","null","","","","","<p><img src= images/blank.png width =""200"" height = ""200"" style = ""float:right""></p><p><img src=images/blank.png width =""800"" height = ""200""></p>","","","","","","","","","","","",""
"","678.2799999928102","sequential-stimulus-presentation","267","551492","0.0-50.0-1.3","SS1613169597636","trial","","40","800","1478.2799999928102","images/stimuli/spore_stims/complex_12_B_d.gif","images/stimuli/spore_stims/complex_12_A_d.gif","","","","","14","complex_similar","images/stimuli/spore_stims/complex_12_A_d.gif","middle","","","","",""
"","null","html-keyboard-response","268","552651","0.0-50.0-0.4","SS1613169597636","","","null","","","","","<p><img src= images/blank.png width =""200"" height = ""200"" style = ""float:right""></p><p><img src=images/blank.png width =""800"" height = ""200""></p>","","","","","","","","","","","",""
"","1032.1399999957066","sequential-stimulus-presentation","269","554491","0.0-50.0-1.4","SS1613169597636","trial","","40","800","1832.1399999957066","images/stimuli/spore_stims/complex_12_B_d.gif","images/stimuli/spore_stims/complex_12_A_d.gif","","","","","14","complex_similar","images/stimuli/spore_stims/complex_12_A_d.gif","middle","","","","",""
"","null","html-keyboard-response","270","555587","0.0-50.0-0.5","SS1613169597636","","","null","","","","","<p><img src= images/blank.png width =""200"" height = ""200"" style = ""float:right""></p><p><img src=images/blank.png width =""800"" height = ""200""></p>","","","","","","","","","","","",""
"","889.7049999795854","sequential-stimulus-presentation","271","557291","0.0-50.0-1.5","SS1613169597636","trial","","40","800","1689.7049999795854","images/stimuli/spore_stims/complex_12_B_d.gif","images/stimuli/spore_stims/complex_12_A_d.gif","","","","","14","complex_similar","images/stimuli/spore_stims/complex_12_A_d.gif","middle","","","","",""
"","null","html-keyboard-response","272","558261","0.0-50.0-0.6","SS1613169597636","","","null","","","","","<p><img src= images/blank.png width =""200"" height = ""200"" style = ""float:right""></p><p><img src=images/blank.png width =""800"" height = ""200""></p>","","","","","","","","","","","",""
"","866.699999984121","sequential-stimulus-presentation","273","559946","0.0-50.0-1.6","SS1613169597636","trial","","40","800","1666.699999984121","images/stimuli/spore_stims/complex_12_B_d.gif","images/stimuli/spore_stims/complex_12_A_d.gif","","","","","14","complex_similar","images/stimuli/spore_stims/complex_12_A_d.gif","middle","","","","",""
"","null","html-keyboard-response","274","561229","0.0-50.0-0.7","SS1613169597636","","","null","","","","","<p><img src= images/blank.png width =""200"" height = ""200"" style = ""float:right""></p><p><img src=images/blank.png width =""800"" height = ""200""></p>","","","","","","","","","","","",""
"","320.7350000157021","sequential-stimulus-presentation","275","562363","0.0-50.0-1.7","SS1613169597636","trial","","40","800","1120.735000015702","images/stimuli/spore_stims/complex_12_B_d.gif","images/stimuli/spore_stims/complex_12_A_d.gif","","","","","14","complex_similar","images/stimuli/spore_stims/complex_12_A_d.gif","middle","","","","",""
"","843.3749999967404","html-keyboard-response","276","563212","0.0-51.0","SS1613169597636","pref_question","","99","","","","","<video width ='960' height = '540' style='padding-top:8%' autoplay muted><source src='images/stimuli/wall_pref.mp4' type='video/mp4'></video>","3","right","66%","14","","","","","","","",""
"","3947.6750000030734","sequential-stimulus-presentation","277","567979","0.0-52.0","SS1613169597636","pref_reveal","","40","800","4747.675000003073","null","null","","","","","14","","","","novel","","","",""
"","null","html-keyboard-response","278","569201","0.0-53.0-0.0","SS1613169597636","","","null","","","","","<p><img src= images/blank.png width =""200"" height = ""200"" style = ""float:right""></p><p><img src=images/blank.png width =""800"" height = ""200""></p>","","","","","","","","","","","",""
"","557.8399999940302","sequential-stimulus-presentation","279","570571","0.0-53.0-1.0","SS1613169597636","trial","","40","800","1357.8399999940302","images/stimuli/spore_stims/complex_05_B_c.gif","images/stimuli/spore_stims/complex_09_B_c.gif","","","","","15","complex_dissimilar","images/stimuli/spore_stims/complex_09_B_c.gif","right","","","","",""
"","null","html-keyboard-response","280","571810","0.0-53.0-0.1","SS1613169597636","","","null","","","","","<p><img src= images/blank.png width =""200"" height = ""200"" style = ""float:right""></p><p><img src=images/blank.png width =""800"" height = ""200""></p>","","","","","","","","","","","",""
"","829.8099999956321","sequential-stimulus-presentation","281","573452","0.0-53.0-1.1","SS1613169597636","trial","","40","800","1629.809999995632","images/stimuli/spore_stims/complex_05_B_c.gif","images/stimuli/spore_stims/complex_09_B_c.gif","","","","","15","complex_dissimilar","images/stimuli/spore_stims/complex_09_B_c.gif","right","","","","",""
"","null","html-keyboard-response","282","574723","0.0-53.0-0.2","SS1613169597636","","","null","","","","","<p><img src= images/blank.png width =""200"" height = ""200"" style = ""float:right""></p><p><img src=images/blank.png width =""800"" height = ""200""></p>","","","","","","","","","","","",""
"","716.6649999853689","sequential-stimulus-presentation","283","576250","0.0-53.0-1.2","SS1613169597636","trial","","40","800","1516.664999985369","images/stimuli/spore_stims/complex_05_B_c.gif","images/stimuli/spore_stims/complex_09_B_c.gif","","","","","15","complex_dissimilar","images/stimuli/spore_stims/complex_09_B_c.gif","right","","","","",""
"","null","html-keyboard-response","284","577552","0.0-53.0-0.3","SS1613169597636","","","null","","","","","<p><img src= images/blank.png width =""200"" height = ""200"" style = ""float:right""></p><p><img src=images/blank.png width =""800"" height = ""200""></p>","","","","","","","","","","","",""
"","430.7299999927636","sequential-stimulus-presentation","285","578794","0.0-53.0-1.3","SS1613169597636","trial","","40","800","1230.7299999927636","images/stimuli/spore_stims/complex_05_B_c.gif","images/stimuli/spore_stims/complex_09_B_c.gif","","","","","15","complex_dissimilar","images/stimuli/spore_stims/complex_09_B_c.gif","right","","","","",""
"","null","html-keyboard-response","286","579923","0.0-53.0-0.4","SS1613169597636","","","null","","","","","<p><img src= images/blank.png width =""200"" height = ""200"" style = ""float:right""></p><p><img src=images/blank.png width =""800"" height = ""200""></p>","","","","","","","","","","","",""
"","908.9549999916926","sequential-stimulus-presentation","287","581643","0.0-53.0-1.4","SS1613169597636","trial","","40","800","1708.9549999916926","images/stimuli/spore_stims/complex_05_B_c.gif","images/stimuli/spore_stims/complex_09_B_c.gif","","","","","15","complex_dissimilar","images/stimuli/spore_stims/complex_09_B_c.gif","right","","","","",""
"","null","html-keyboard-response","288","582621","0.0-53.0-0.5","SS1613169597636","","","null","","","","","<p><img src= images/blank.png width =""200"" height = ""200"" style = ""float:right""></p><p><img src=images/blank.png width =""800"" height = ""200""></p>","","","","","","","","","","","",""
"","462.91000000201166","sequential-stimulus-presentation","289","583898","0.0-53.0-1.5","SS1613169597636","trial","","40","800","1262.9100000020117","images/stimuli/spore_stims/complex_05_B_c.gif","images/stimuli/spore_stims/complex_09_B_c.gif","","","","","15","complex_dissimilar","images/stimuli/spore_stims/complex_09_B_c.gif","right","","","","",""
"","null","html-keyboard-response","290","584899","0.0-53.0-0.6","SS1613169597636","","","null","","","","","<p><img src= images/blank.png width =""200"" height = ""200"" style = ""float:right""></p><p><img src=images/blank.png width =""800"" height = ""200""></p>","","","","","","","","","","","",""
"","1275.034999998752","sequential-stimulus-presentation","291","586986","0.0-53.0-1.6","SS1613169597636","trial","","40","800","2075.034999998752","images/stimuli/spore_stims/complex_05_B_c.gif","images/stimuli/spore_stims/complex_09_B_c.gif","","","","","15","complex_dissimilar","images/stimuli/spore_stims/complex_05_B_c.gif","left","","","","",""
"","null","html-keyboard-response","292","588081","0.0-53.0-0.7","SS1613169597636","","","null","","","","","<p><img src= images/blank.png width =""200"" height = ""200"" style = ""float:right""></p><p><img src=images/blank.png width =""800"" height = ""200""></p>","","","","","","","","","","","",""
"","1363.565000006929","sequential-stimulus-presentation","293","590258","0.0-53.0-1.7","SS1613169597636","trial","","40","800","2163.565000006929","images/stimuli/spore_stims/complex_05_B_c.gif","images/stimuli/spore_stims/complex_09_B_c.gif","","","","","15","complex_dissimilar","images/stimuli/spore_stims/complex_09_B_c.gif","right","","","","",""
"","633.0899999884423","html-keyboard-response","294","590899","0.0-54.0","SS1613169597636","pref_question","","98","","","","","<video width ='960' height = '540' style='padding-top:8%' autoplay muted><source src='images/stimuli/wall_pref.mp4' type='video/mp4'></video>","2","middle","45%","15","","","","","","","",""
"","1264.0850000025239","sequential-stimulus-presentation","295","592979","0.0-55.0","SS1613169597636","pref_reveal","","40","800","2064.085000002524","null","null","","","","","15","","","","novel","","","",""
"","null","html-keyboard-response","296","593870","0.0-56.0-0.0","SS1613169597636","","","null","","","","","<p><img src= images/blank.png width =""200"" height = ""200"" style = ""float:right""></p><p><img src=images/blank.png width =""800"" height = ""200""></p>","","","","","","","","","","","",""
"","2758.315000013681","sequential-stimulus-presentation","297","597451","0.0-56.0-1.0","SS1613169597636","trial","","40","800","3558.315000013681","images/stimuli/spore_stims/simple_20_A_b.gif","images/stimuli/spore_stims/simple_04_B_a.gif","","","","","16","simple_dissimilar","images/stimuli/spore_stims/simple_04_B_a.gif","left","","","","",""
"","null","html-keyboard-response","298","598481","0.0-56.0-0.1","SS1613169597636","","","null","","","","","<p><img src= images/blank.png width =""200"" height = ""200"" style = ""float:right""></p><p><img src=images/blank.png width =""800"" height = ""200""></p>","","","","","","","","","","","",""
"","937.1349999855738","sequential-stimulus-presentation","299","600235","0.0-56.0-1.1","SS1613169597636","trial","","40","800","1737.1349999855738","images/stimuli/spore_stims/simple_20_A_b.gif","images/stimuli/spore_stims/simple_04_B_a.gif","","","","","16","simple_dissimilar","images/stimuli/spore_stims/simple_04_B_a.gif","left","","","","",""
"","null","html-keyboard-response","300","601314","0.0-56.0-0.2","SS1613169597636","","","null","","","","","<p><img src= images/blank.png width =""200"" height = ""200"" style = ""float:right""></p><p><img src=images/blank.png width =""800"" height = ""200""></p>","","","","","","","","","","","",""
"","398.30000000074506","sequential-stimulus-presentation","301","602539","0.0-56.0-1.2","SS1613169597636","trial","","40","800","1198.300000000745","images/stimuli/spore_stims/simple_20_A_b.gif","images/stimuli/spore_stims/simple_04_B_a.gif","","","","","16","simple_dissimilar","images/stimuli/spore_stims/simple_04_B_a.gif","left","","","","",""
"","null","html-keyboard-response","302","603781","0.0-56.0-0.3","SS1613169597636","","","null","","","","","<p><img src= images/blank.png width =""200"" height = ""200"" style = ""float:right""></p><p><img src=images/blank.png width =""800"" height = ""200""></p>","","","","","","","","","","","",""
"","397.44999998947605","sequential-stimulus-presentation","303","604990","0.0-56.0-1.3","SS1613169597636","trial","","40","800","1197.449999989476","images/stimuli/spore_stims/simple_20_A_b.gif","images/stimuli/spore_stims/simple_04_B_a.gif","","","","","16","simple_dissimilar","images/stimuli/spore_stims/simple_04_B_a.gif","left","","","","",""
"","null","html-keyboard-response","304","606103","0.0-56.0-0.4","SS1613169597636","","","null","","","","","<p><img src= images/blank.png width =""200"" height = ""200"" style = ""float:right""></p><p><img src=images/blank.png width =""800"" height = ""200""></p>","","","","","","","","","","","",""
"","487.08500000066124","sequential-stimulus-presentation","305","607411","0.0-56.0-1.4","SS1613169597636","trial","","40","800","1287.0850000006612","images/stimuli/spore_stims/simple_20_A_b.gif","images/stimuli/spore_stims/simple_04_B_a.gif","","","","","16","simple_dissimilar","images/stimuli/spore_stims/simple_04_B_a.gif","left","","","","",""
"","null","html-keyboard-response","306","608447","0.0-56.0-0.5","SS1613169597636","","","null","","","","","<p><img src= images/blank.png width =""200"" height = ""200"" style = ""float:right""></p><p><img src=images/blank.png width =""800"" height = ""200""></p>","","","","","","","","","","","",""
"","388.94999999320135","sequential-stimulus-presentation","307","609651","0.0-56.0-1.5","SS1613169597636","trial","","40","800","1188.9499999932013","images/stimuli/spore_stims/simple_20_A_b.gif","images/stimuli/spore_stims/simple_04_B_a.gif","","","","","16","simple_dissimilar","images/stimuli/spore_stims/simple_04_B_a.gif","left","","","","",""
"","null","html-keyboard-response","308","610948","0.0-56.0-0.6","SS1613169597636","","","null","","","","","<p><img src= images/blank.png width =""200"" height = ""200"" style = ""float:right""></p><p><img src=images/blank.png width =""800"" height = ""200""></p>","","","","","","","","","","","",""
"","340.87499999441206","sequential-stimulus-presentation","309","612098","0.0-56.0-1.6","SS1613169597636","trial","","40","800","1140.874999994412","images/stimuli/spore_stims/simple_20_A_b.gif","images/stimuli/spore_stims/simple_04_B_a.gif","","","","","16","simple_dissimilar","images/stimuli/spore_stims/simple_04_B_a.gif","left","","","","",""
"","null","html-keyboard-response","310","613027","0.0-56.0-0.7","SS1613169597636","","","null","","","","","<p><img src= images/blank.png width =""200"" height = ""200"" style = ""float:right""></p><p><img src=images/blank.png width =""800"" height = ""200""></p>","","","","","","","","","","","",""
"","1612.859999993816","sequential-stimulus-presentation","311","615451","0.0-56.0-1.7","SS1613169597636","trial","","40","800","2412.859999993816","images/stimuli/spore_stims/simple_20_A_b.gif","images/stimuli/spore_stims/simple_04_B_a.gif","","","","","16","simple_dissimilar","images/stimuli/spore_stims/simple_20_A_b.gif","right","","","","",""
"","654.739999998128","html-keyboard-response","312","616115","0.0-57.0","SS1613169597636","pref_question","","98","","","","","<video width ='960' height = '540' style='padding-top:8%' autoplay muted><source src='images/stimuli/wall_pref.mp4' type='video/mp4'></video>","2","middle","45%","16","","","","","","","",""
