"view_history","rt","trial_type","trial_index","time_elapsed","internal_node_id","subject","stimulus_type","trial_stimulus","key_press","minimum_viewing_duration","trial_looking_time","block_deviant","block_background","stimulus","wall_pref","location","location_percent","block_number","block_type","stimulus_displayed","position_displayed","stim_type_selected","responses","question_order","stimulus_left","stimulus_right"
"[{""page_index"":0,""viewing_time"":1750.3599999981816}]","1750.5999999993946","instructions","0","1751","0.0-0.0","SS1613098763094","","","","","","","","","","","","","","","","","","","",""
"[{""page_index"":0,""viewing_time"":4004.945000000589},{""page_index"":1,""viewing_time"":2921.990000002552}]","6927.175000004354","instructions","1","10680","0.0-1.0","SS1613098763094","instructions","","","","","","","","","","","","","","","","","","",""
"","4313.1349999966915","sequential-stimulus-presentation","2","15796","0.0-2.0","SS1613098763094","","","40","800","5113.1349999966915","null","null","","","","","","","","","","","","",""
"","3737.314999998489","sequential-stimulus-presentation","3","20349","0.0-3.0","SS1613098763094","","","40","800","4537.314999998489","null","null","","","","","","","","","","","","",""
"[{""page_index"":0,""viewing_time"":2283.4900000016205}]","2283.6999999999534","instructions","4","22633","0.0-4.0","SS1613098763094","instructions","","","","","","","","","","","","","","","","","","",""
"","5144.91999999882","html-keyboard-response","5","27780","0.0-5.0","SS1613098763094","instructions","","51","","","","","<video width ='960' height = '540' autoplay muted><source src='images/stimuli/wall_pref.mp4' type='video/mp4'></video>","3","right","66%","","","","","","","","",""
"","1509.0950000012526","sequential-stimulus-presentation","6","30092","0.0-6.0","SS1613098763094","pref_reveal","","40","800","2309.0950000012526","null","null","","","","","","","","","","","","",""
"[{""page_index"":0,""viewing_time"":4097.164999999222},{""page_index"":1,""viewing_time"":4097.024999995483},{""page_index"":2,""viewing_time"":1067.9650000020047},{""page_index"":3,""viewing_time"":786.2749999985681}]","10048.604999996314","instructions","7","40141","0.0-7.0","SS1613098763094","instructions","","","","","","","","","","","","","","","","","","",""
"","null","html-keyboard-response","8","41405","0.0-8.0-0.0","SS1613098763094","","","null","","","","","<p><img src= images/blank.png width =""200"" height = ""200"" style = ""float:right""></p><p><img src=images/blank.png width =""800"" height = ""200""></p>","","","","","","","","","","","",""
"","3983.7049999987357","sequential-stimulus-presentation","9","46196","0.0-8.0-1.0","SS1613098763094","trial","","40","800","4783.704999998736","images/stimuli/spore_stims/simple_13_B_d.gif","images/stimuli/spore_stims/simple_06_A_d.gif","","","","","0","simple_dissimilar","images/stimuli/spore_stims/simple_06_A_d.gif","middle","","","","",""
"","null","html-keyboard-response","10","47269","0.0-8.0-0.1","SS1613098763094","","","null","","","","","<p><img src= images/blank.png width =""200"" height = ""200"" style = ""float:right""></p><p><img src=images/blank.png width =""800"" height = ""200""></p>","","","","","","","","","","","",""
"","2009.780000000319","sequential-stimulus-presentation","11","50084","0.0-8.0-1.1","SS1613098763094","trial","","40","800","2809.780000000319","images/stimuli/spore_stims/simple_13_B_d.gif","images/stimuli/spore_stims/simple_06_A_d.gif","","","","","0","simple_dissimilar","images/stimuli/spore_stims/simple_06_A_d.gif","middle","","","","",""
"","null","html-keyboard-response","12","50945","0.0-8.0-0.2","SS1613098763094","","","null","","","","","<p><img src= images/blank.png width =""200"" height = ""200"" style = ""float:right""></p><p><img src=images/blank.png width =""800"" height = ""200""></p>","","","","","","","","","","","",""
"","2000.0399999989895","sequential-stimulus-presentation","13","53748","0.0-8.0-1.2","SS1613098763094","trial","","40","800","2800.0399999989895","images/stimuli/spore_stims/simple_13_B_d.gif","images/stimuli/spore_stims/simple_06_A_d.gif","","","","","0","simple_dissimilar","images/stimuli/spore_stims/simple_13_B_d.gif","right","","","","",""
"","null","html-keyboard-response","14","54768","0.0-8.0-0.3","SS1613098763094","","","null","","","","","<p><img src= images/blank.png width =""200"" height = ""200"" style = ""float:right""></p><p><img src=images/blank.png width =""800"" height = ""200""></p>","","","","","","","","","","","",""
"","801.9399999975576","sequential-stimulus-presentation","15","56373","0.0-8.0-1.3","SS1613098763094","trial","","40","800","1601.9399999975576","images/stimuli/spore_stims/simple_13_B_d.gif","images/stimuli/spore_stims/simple_06_A_d.gif","","","","","0","simple_dissimilar","images/stimuli/spore_stims/simple_06_A_d.gif","middle","","","","",""
"","null","html-keyboard-response","16","57296","0.0-8.0-0.4","SS1613098763094","","","null","","","","","<p><img src= images/blank.png width =""200"" height = ""200"" style = ""float:right""></p><p><img src=images/blank.png width =""800"" height = ""200""></p>","","","","","","","","","","","",""
"","394.0249999941443","sequential-stimulus-presentation","17","58492","0.0-8.0-1.4","SS1613098763094","trial","","40","800","1194.0249999941443","images/stimuli/spore_stims/simple_13_B_d.gif","images/stimuli/spore_stims/simple_06_A_d.gif","","","","","0","simple_dissimilar","images/stimuli/spore_stims/simple_06_A_d.gif","middle","","","","",""
"","null","html-keyboard-response","18","59623","0.0-8.0-0.5","SS1613098763094","","","null","","","","","<p><img src= images/blank.png width =""200"" height = ""200"" style = ""float:right""></p><p><img src=images/blank.png width =""800"" height = ""200""></p>","","","","","","","","","","","",""
"","410.06999999808613","sequential-stimulus-presentation","19","60836","0.0-8.0-1.5","SS1613098763094","trial","","40","800","1210.0699999980861","images/stimuli/spore_stims/simple_13_B_d.gif","images/stimuli/spore_stims/simple_06_A_d.gif","","","","","0","simple_dissimilar","images/stimuli/spore_stims/simple_06_A_d.gif","middle","","","","",""
"","null","html-keyboard-response","20","61824","0.0-8.0-0.6","SS1613098763094","","","null","","","","","<p><img src= images/blank.png width =""200"" height = ""200"" style = ""float:right""></p><p><img src=images/blank.png width =""800"" height = ""200""></p>","","","","","","","","","","","",""
"","346.0750000012922","sequential-stimulus-presentation","21","62972","0.0-8.0-1.6","SS1613098763094","trial","","40","800","1146.0750000012922","images/stimuli/spore_stims/simple_13_B_d.gif","images/stimuli/spore_stims/simple_06_A_d.gif","","","","","0","simple_dissimilar","images/stimuli/spore_stims/simple_06_A_d.gif","middle","","","","",""
"","null","html-keyboard-response","22","64084","0.0-8.0-0.7","SS1613098763094","","","null","","","","","<p><img src= images/blank.png width =""200"" height = ""200"" style = ""float:right""></p><p><img src=images/blank.png width =""800"" height = ""200""></p>","","","","","","","","","","","",""
"","437.11500000063097","sequential-stimulus-presentation","23","65324","0.0-8.0-1.7","SS1613098763094","trial","","40","800","1237.115000000631","images/stimuli/spore_stims/simple_13_B_d.gif","images/stimuli/spore_stims/simple_06_A_d.gif","","","","","0","simple_dissimilar","images/stimuli/spore_stims/simple_06_A_d.gif","middle","","","","",""
"","1399.2050000015297","html-keyboard-response","24","66725","0.0-9.0","SS1613098763094","pref_question","","49","","","","","<video width ='960' height = '540' style='padding-top:8%' autoplay muted><source src='images/stimuli/wall_pref.mp4' type='video/mp4'></video>","1","left","25%","0","","","","","","","",""
"","4441.745000003721","sequential-stimulus-presentation","25","71972","0.0-10.0","SS1613098763094","pref_reveal","","40","800","5241.745000003721","null","null","","","","","0","","","","novel","","","",""
"","null","html-keyboard-response","26","72937","0.0-11.0-0.0","SS1613098763094","","","null","","","","","<p><img src= images/blank.png width =""200"" height = ""200"" style = ""float:right""></p><p><img src=images/blank.png width =""800"" height = ""200""></p>","","","","","","","","","","","",""
"","327.22999999532476","sequential-stimulus-presentation","27","74068","0.0-11.0-1.0","SS1613098763094","trial","","40","800","1127.2299999953248","images/stimuli/spore_stims/complex_04_B_d.gif","images/stimuli/spore_stims/complex_04_A_d.gif","","","","","1","complex_similar","images/stimuli/spore_stims/complex_04_A_d.gif","middle","","","","",""
"","null","html-keyboard-response","28","75273","0.0-11.0-0.1","SS1613098763094","","","null","","","","","<p><img src= images/blank.png width =""200"" height = ""200"" style = ""float:right""></p><p><img src=images/blank.png width =""800"" height = ""200""></p>","","","","","","","","","","","",""
"","1368.8199999960489","sequential-stimulus-presentation","29","77445","0.0-11.0-1.1","SS1613098763094","trial","","40","800","2168.819999996049","images/stimuli/spore_stims/complex_04_B_d.gif","images/stimuli/spore_stims/complex_04_A_d.gif","","","","","1","complex_similar","images/stimuli/spore_stims/complex_04_A_d.gif","middle","","","","",""
"","null","html-keyboard-response","30","78502","0.0-11.0-0.2","SS1613098763094","","","null","","","","","<p><img src= images/blank.png width =""200"" height = ""200"" style = ""float:right""></p><p><img src=images/blank.png width =""800"" height = ""200""></p>","","","","","","","","","","","",""
"","467.04000000318047","sequential-stimulus-presentation","31","79772","0.0-11.0-1.2","SS1613098763094","trial","","40","800","1267.0400000031805","images/stimuli/spore_stims/complex_04_B_d.gif","images/stimuli/spore_stims/complex_04_A_d.gif","","","","","1","complex_similar","images/stimuli/spore_stims/complex_04_A_d.gif","middle","","","","",""
"","null","html-keyboard-response","32","81042","0.0-11.0-0.3","SS1613098763094","","","null","","","","","<p><img src= images/blank.png width =""200"" height = ""200"" style = ""float:right""></p><p><img src=images/blank.png width =""800"" height = ""200""></p>","","","","","","","","","","","",""
"","350.42499999690335","sequential-stimulus-presentation","33","82196","0.0-11.0-1.3","SS1613098763094","trial","","40","800","1150.4249999969034","images/stimuli/spore_stims/complex_04_B_d.gif","images/stimuli/spore_stims/complex_04_A_d.gif","","","","","1","complex_similar","images/stimuli/spore_stims/complex_04_A_d.gif","middle","","","","",""
"","null","html-keyboard-response","34","83390","0.0-11.0-0.4","SS1613098763094","","","null","","","","","<p><img src= images/blank.png width =""200"" height = ""200"" style = ""float:right""></p><p><img src=images/blank.png width =""800"" height = ""200""></p>","","","","","","","","","","","",""
"","532.2850000011385","sequential-stimulus-presentation","35","84724","0.0-11.0-1.4","SS1613098763094","trial","","40","800","1332.2850000011385","images/stimuli/spore_stims/complex_04_B_d.gif","images/stimuli/spore_stims/complex_04_A_d.gif","","","","","1","complex_similar","images/stimuli/spore_stims/complex_04_A_d.gif","middle","","","","",""
"","null","html-keyboard-response","36","85556","0.0-11.0-0.5","SS1613098763094","","","null","","","","","<p><img src= images/blank.png width =""200"" height = ""200"" style = ""float:right""></p><p><img src=images/blank.png width =""800"" height = ""200""></p>","","","","","","","","","","","",""
"","428.57999999978347","sequential-stimulus-presentation","37","86788","0.0-11.0-1.5","SS1613098763094","trial","","40","800","1228.5799999997835","images/stimuli/spore_stims/complex_04_B_d.gif","images/stimuli/spore_stims/complex_04_A_d.gif","","","","","1","complex_similar","images/stimuli/spore_stims/complex_04_A_d.gif","middle","","","","",""
"","null","html-keyboard-response","38","87950","0.0-11.0-0.6","SS1613098763094","","","null","","","","","<p><img src= images/blank.png width =""200"" height = ""200"" style = ""float:right""></p><p><img src=images/blank.png width =""800"" height = ""200""></p>","","","","","","","","","","","",""
"","324.18000000325264","sequential-stimulus-presentation","39","89076","0.0-11.0-1.6","SS1613098763094","trial","","40","800","1124.1800000032526","images/stimuli/spore_stims/complex_04_B_d.gif","images/stimuli/spore_stims/complex_04_A_d.gif","","","","","1","complex_similar","images/stimuli/spore_stims/complex_04_A_d.gif","middle","","","","",""
"","null","html-keyboard-response","40","90260","0.0-11.0-0.7","SS1613098763094","","","null","","","","","<p><img src= images/blank.png width =""200"" height = ""200"" style = ""float:right""></p><p><img src=images/blank.png width =""800"" height = ""200""></p>","","","","","","","","","","","",""
"","1547.4300000059884","sequential-stimulus-presentation","41","92612","0.0-11.0-1.7","SS1613098763094","trial","","40","800","2347.4300000059884","images/stimuli/spore_stims/complex_04_B_d.gif","images/stimuli/spore_stims/complex_04_A_d.gif","","","","","1","complex_similar","images/stimuli/spore_stims/complex_04_B_d.gif","left","","","","",""
"","1326.3650000008056","html-keyboard-response","42","93940","0.0-12.0","SS1613098763094","pref_question","","51","","","","","<video width ='960' height = '540' style='padding-top:8%' autoplay muted><source src='images/stimuli/wall_pref.mp4' type='video/mp4'></video>","3","right","66%","1","","","","","","","",""
"","2315.6699999963166","sequential-stimulus-presentation","43","97068","0.0-13.0","SS1613098763094","pref_reveal","","40","800","3115.6699999963166","null","null","","","","","1","","","","novel","","","",""
"","null","html-keyboard-response","44","98119","0.0-14.0-0.0","SS1613098763094","","","null","","","","","<p><img src= images/blank.png width =""200"" height = ""200"" style = ""float:right""></p><p><img src=images/blank.png width =""800"" height = ""200""></p>","","","","","","","","","","","",""
"","1227.2199999933946","sequential-stimulus-presentation","45","100149","0.0-14.0-1.0","SS1613098763094","trial","","40","800","2027.2199999933946","images/stimuli/spore_stims/complex_05_A_a.gif","images/stimuli/spore_stims/complex_05_B_a.gif","","","","","2","complex_similar","images/stimuli/spore_stims/complex_05_B_a.gif","left","","","","",""
"","null","html-keyboard-response","46","101080","0.0-14.0-0.1","SS1613098763094","","","null","","","","","<p><img src= images/blank.png width =""200"" height = ""200"" style = ""float:right""></p><p><img src=images/blank.png width =""800"" height = ""200""></p>","","","","","","","","","","","",""
"","230.0249999971129","sequential-stimulus-presentation","47","102124","0.0-14.0-1.1","SS1613098763094","trial","","40","800","1030.024999997113","images/stimuli/spore_stims/complex_05_A_a.gif","images/stimuli/spore_stims/complex_05_B_a.gif","","","","","2","complex_similar","images/stimuli/spore_stims/complex_05_B_a.gif","left","","","","",""
"","null","html-keyboard-response","48","103136","0.0-14.0-0.2","SS1613098763094","","","null","","","","","<p><img src= images/blank.png width =""200"" height = ""200"" style = ""float:right""></p><p><img src=images/blank.png width =""800"" height = ""200""></p>","","","","","","","","","","","",""
"","241.97999999887543","sequential-stimulus-presentation","49","104180","0.0-14.0-1.2","SS1613098763094","trial","","40","800","1041.9799999988754","images/stimuli/spore_stims/complex_05_A_a.gif","images/stimuli/spore_stims/complex_05_B_a.gif","","","","","2","complex_similar","images/stimuli/spore_stims/complex_05_B_a.gif","left","","","","",""
"","null","html-keyboard-response","50","105219","0.0-14.0-0.3","SS1613098763094","","","null","","","","","<p><img src= images/blank.png width =""200"" height = ""200"" style = ""float:right""></p><p><img src=images/blank.png width =""800"" height = ""200""></p>","","","","","","","","","","","",""
"","341.5000000022701","sequential-stimulus-presentation","51","106373","0.0-14.0-1.3","SS1613098763094","trial","","40","800","1141.50000000227","images/stimuli/spore_stims/complex_05_A_a.gif","images/stimuli/spore_stims/complex_05_B_a.gif","","","","","2","complex_similar","images/stimuli/spore_stims/complex_05_B_a.gif","left","","","","",""
"","null","html-keyboard-response","52","107218","0.0-14.0-0.4","SS1613098763094","","","null","","","","","<p><img src= images/blank.png width =""200"" height = ""200"" style = ""float:right""></p><p><img src=images/blank.png width =""800"" height = ""200""></p>","","","","","","","","","","","",""
"","367.68499999743653","sequential-stimulus-presentation","53","108388","0.0-14.0-1.4","SS1613098763094","trial","","40","800","1167.6849999974365","images/stimuli/spore_stims/complex_05_A_a.gif","images/stimuli/spore_stims/complex_05_B_a.gif","","","","","2","complex_similar","images/stimuli/spore_stims/complex_05_A_a.gif","middle","","","","",""
"","null","html-keyboard-response","54","109610","0.0-14.0-0.5","SS1613098763094","","","null","","","","","<p><img src= images/blank.png width =""200"" height = ""200"" style = ""float:right""></p><p><img src=images/blank.png width =""800"" height = ""200""></p>","","","","","","","","","","","",""
"","265.69500000186963","sequential-stimulus-presentation","55","110685","0.0-14.0-1.5","SS1613098763094","trial","","40","800","1065.6950000018696","images/stimuli/spore_stims/complex_05_A_a.gif","images/stimuli/spore_stims/complex_05_B_a.gif","","","","","2","complex_similar","images/stimuli/spore_stims/complex_05_B_a.gif","left","","","","",""
"","null","html-keyboard-response","56","111802","0.0-14.0-0.6","SS1613098763094","","","null","","","","","<p><img src= images/blank.png width =""200"" height = ""200"" style = ""float:right""></p><p><img src=images/blank.png width =""800"" height = ""200""></p>","","","","","","","","","","","",""
"","244.63500000274507","sequential-stimulus-presentation","57","112852","0.0-14.0-1.6","SS1613098763094","trial","","40","800","1044.635000002745","images/stimuli/spore_stims/complex_05_A_a.gif","images/stimuli/spore_stims/complex_05_B_a.gif","","","","","2","complex_similar","images/stimuli/spore_stims/complex_05_B_a.gif","left","","","","",""
"","null","html-keyboard-response","58","113885","0.0-14.0-0.7","SS1613098763094","","","null","","","","","<p><img src= images/blank.png width =""200"" height = ""200"" style = ""float:right""></p><p><img src=images/blank.png width =""800"" height = ""200""></p>","","","","","","","","","","","",""
"","226.52499999821885","sequential-stimulus-presentation","59","114924","0.0-14.0-1.7","SS1613098763094","trial","","40","800","1026.5249999982188","images/stimuli/spore_stims/complex_05_A_a.gif","images/stimuli/spore_stims/complex_05_B_a.gif","","","","","2","complex_similar","images/stimuli/spore_stims/complex_05_B_a.gif","left","","","","",""
"","805.9500000017579","html-keyboard-response","60","115732","0.0-15.0","SS1613098763094","pref_question","","51","","","","","<video width ='960' height = '540' style='padding-top:8%' autoplay muted><source src='images/stimuli/wall_pref.mp4' type='video/mp4'></video>","3","right","66%","2","","","","","","","",""
"","2103.6149999999907","sequential-stimulus-presentation","61","118652","0.0-16.0","SS1613098763094","pref_reveal","","40","800","2903.6149999999907","null","null","","","","","2","","","","novel","","","",""
"","null","html-keyboard-response","62","119885","0.0-17.0-0.0","SS1613098763094","","","null","","","","","<p><img src= images/blank.png width =""200"" height = ""200"" style = ""float:right""></p><p><img src=images/blank.png width =""800"" height = ""200""></p>","","","","","","","","","","","",""
"","698.1549999982235","sequential-stimulus-presentation","63","121397","0.0-17.0-1.0","SS1613098763094","trial","","40","800","1498.1549999982235","images/stimuli/spore_stims/simple_11_A_a.gif","images/stimuli/spore_stims/simple_20_A_b.gif","","","","","3","simple_dissimilar","images/stimuli/spore_stims/simple_20_A_b.gif","right","","","","",""
"","null","html-keyboard-response","64","122447","0.0-17.0-0.1","SS1613098763094","","","null","","","","","<p><img src= images/blank.png width =""200"" height = ""200"" style = ""float:right""></p><p><img src=images/blank.png width =""800"" height = ""200""></p>","","","","","","","","","","","",""
"","307.0349999979953","sequential-stimulus-presentation","65","123572","0.0-17.0-1.1","SS1613098763094","trial","","40","800","1107.0349999979953","images/stimuli/spore_stims/simple_11_A_a.gif","images/stimuli/spore_stims/simple_20_A_b.gif","","","","","3","simple_dissimilar","images/stimuli/spore_stims/simple_20_A_b.gif","right","","","","",""
"","null","html-keyboard-response","66","124694","0.0-17.0-0.2","SS1613098763094","","","null","","","","","<p><img src= images/blank.png width =""200"" height = ""200"" style = ""float:right""></p><p><img src=images/blank.png width =""800"" height = ""200""></p>","","","","","","","","","","","",""
"","366.9900000022608","sequential-stimulus-presentation","67","125869","0.0-17.0-1.2","SS1613098763094","trial","","40","800","1166.9900000022608","images/stimuli/spore_stims/simple_11_A_a.gif","images/stimuli/spore_stims/simple_20_A_b.gif","","","","","3","simple_dissimilar","images/stimuli/spore_stims/simple_20_A_b.gif","right","","","","",""
"","null","html-keyboard-response","68","126996","0.0-17.0-0.3","SS1613098763094","","","null","","","","","<p><img src= images/blank.png width =""200"" height = ""200"" style = ""float:right""></p><p><img src=images/blank.png width =""800"" height = ""200""></p>","","","","","","","","","","","",""
"","633.5999999937485","sequential-stimulus-presentation","69","128436","0.0-17.0-1.3","SS1613098763094","trial","","40","800","1433.5999999937485","images/stimuli/spore_stims/simple_11_A_a.gif","images/stimuli/spore_stims/simple_20_A_b.gif","","","","","3","simple_dissimilar","images/stimuli/spore_stims/simple_20_A_b.gif","right","","","","",""
"","null","html-keyboard-response","70","129256","0.0-17.0-0.4","SS1613098763094","","","null","","","","","<p><img src= images/blank.png width =""200"" height = ""200"" style = ""float:right""></p><p><img src=images/blank.png width =""800"" height = ""200""></p>","","","","","","","","","","","",""
"","397.225000000617","sequential-stimulus-presentation","71","130468","0.0-17.0-1.4","SS1613098763094","trial","","40","800","1197.225000000617","images/stimuli/spore_stims/simple_11_A_a.gif","images/stimuli/spore_stims/simple_20_A_b.gif","","","","","3","simple_dissimilar","images/stimuli/spore_stims/simple_20_A_b.gif","right","","","","",""
"","null","html-keyboard-response","72","131643","0.0-17.0-0.5","SS1613098763094","","","null","","","","","<p><img src= images/blank.png width =""200"" height = ""200"" style = ""float:right""></p><p><img src=images/blank.png width =""800"" height = ""200""></p>","","","","","","","","","","","",""
"","378.114999999525","sequential-stimulus-presentation","73","132829","0.0-17.0-1.5","SS1613098763094","trial","","40","800","1178.114999999525","images/stimuli/spore_stims/simple_11_A_a.gif","images/stimuli/spore_stims/simple_20_A_b.gif","","","","","3","simple_dissimilar","images/stimuli/spore_stims/simple_20_A_b.gif","right","","","","",""
"","null","html-keyboard-response","74","134056","0.0-17.0-0.6","SS1613098763094","","","null","","","","","<p><img src= images/blank.png width =""200"" height = ""200"" style = ""float:right""></p><p><img src=images/blank.png width =""800"" height = ""200""></p>","","","","","","","","","","","",""
"","314.02499999967404","sequential-stimulus-presentation","75","135172","0.0-17.0-1.6","SS1613098763094","trial","","40","800","1114.024999999674","images/stimuli/spore_stims/simple_11_A_a.gif","images/stimuli/spore_stims/simple_20_A_b.gif","","","","","3","simple_dissimilar","images/stimuli/spore_stims/simple_20_A_b.gif","right","","","","",""
"","null","html-keyboard-response","76","136359","0.0-17.0-0.7","SS1613098763094","","","null","","","","","<p><img src= images/blank.png width =""200"" height = ""200"" style = ""float:right""></p><p><img src=images/blank.png width =""800"" height = ""200""></p>","","","","","","","","","","","",""
"","738.5449999928824","sequential-stimulus-presentation","77","137901","0.0-17.0-1.7","SS1613098763094","trial","","40","800","1538.5449999928824","images/stimuli/spore_stims/simple_11_A_a.gif","images/stimuli/spore_stims/simple_20_A_b.gif","","","","","3","simple_dissimilar","images/stimuli/spore_stims/simple_11_A_a.gif","middle","","","","",""
"","1965.1799999992363","html-keyboard-response","78","139869","0.0-18.0","SS1613098763094","pref_question","","49","","","","","<video width ='960' height = '540' style='padding-top:8%' autoplay muted><source src='images/stimuli/wall_pref.mp4' type='video/mp4'></video>","1","left","25%","3","","","","","","","",""
"","4199.039999999513","sequential-stimulus-presentation","79","144877","0.0-19.0","SS1613098763094","pref_reveal","","40","800","4999.039999999513","null","null","","","","","3","","","","novel","","","",""
"","null","html-keyboard-response","80","145773","0.0-20.0-0.0","SS1613098763094","","","null","","","","","<p><img src= images/blank.png width =""200"" height = ""200"" style = ""float:right""></p><p><img src=images/blank.png width =""800"" height = ""200""></p>","","","","","","","","","","","",""
"","3250.4450000051293","sequential-stimulus-presentation","81","149828","0.0-20.0-1.0","SS1613098763094","trial","","40","800","4050.4450000051293","images/stimuli/spore_stims/complex_01_A_a.gif","images/stimuli/spore_stims/complex_12_B_c.gif","","","","","4","complex_dissimilar","images/stimuli/spore_stims/complex_12_B_c.gif","middle","","","","",""
"","null","html-keyboard-response","82","150775","0.0-20.0-0.1","SS1613098763094","","","null","","","","","<p><img src= images/blank.png width =""200"" height = ""200"" style = ""float:right""></p><p><img src=images/blank.png width =""800"" height = ""200""></p>","","","","","","","","","","","",""
"","1002.5400000013178","sequential-stimulus-presentation","83","152581","0.0-20.0-1.1","SS1613098763094","trial","","40","800","1802.5400000013178","images/stimuli/spore_stims/complex_01_A_a.gif","images/stimuli/spore_stims/complex_12_B_c.gif","","","","","4","complex_dissimilar","images/stimuli/spore_stims/complex_12_B_c.gif","middle","","","","",""
"","null","html-keyboard-response","84","153617","0.0-20.0-0.2","SS1613098763094","","","null","","","","","<p><img src= images/blank.png width =""200"" height = ""200"" style = ""float:right""></p><p><img src=images/blank.png width =""800"" height = ""200""></p>","","","","","","","","","","","",""
"","655.4299999988871","sequential-stimulus-presentation","85","155077","0.0-20.0-1.2","SS1613098763094","trial","","40","800","1455.429999998887","images/stimuli/spore_stims/complex_01_A_a.gif","images/stimuli/spore_stims/complex_12_B_c.gif","","","","","4","complex_dissimilar","images/stimuli/spore_stims/complex_12_B_c.gif","middle","","","","",""
"","null","html-keyboard-response","86","156373","0.0-20.0-0.3","SS1613098763094","","","null","","","","","<p><img src= images/blank.png width =""200"" height = ""200"" style = ""float:right""></p><p><img src=images/blank.png width =""800"" height = ""200""></p>","","","","","","","","","","","",""
"","595.2049999978044","sequential-stimulus-presentation","87","157772","0.0-20.0-1.3","SS1613098763094","trial","","40","800","1395.2049999978044","images/stimuli/spore_stims/complex_01_A_a.gif","images/stimuli/spore_stims/complex_12_B_c.gif","","","","","4","complex_dissimilar","images/stimuli/spore_stims/complex_12_B_c.gif","middle","","","","",""
"","null","html-keyboard-response","88","158830","0.0-20.0-0.4","SS1613098763094","","","null","","","","","<p><img src= images/blank.png width =""200"" height = ""200"" style = ""float:right""></p><p><img src=images/blank.png width =""800"" height = ""200""></p>","","","","","","","","","","","",""
"","809.5749999993131","sequential-stimulus-presentation","89","160444","0.0-20.0-1.4","SS1613098763094","trial","","40","800","1609.5749999993131","images/stimuli/spore_stims/complex_01_A_a.gif","images/stimuli/spore_stims/complex_12_B_c.gif","","","","","4","complex_dissimilar","images/stimuli/spore_stims/complex_12_B_c.gif","middle","","","","",""
"","null","html-keyboard-response","90","161528","0.0-20.0-0.5","SS1613098763094","","","null","","","","","<p><img src= images/blank.png width =""200"" height = ""200"" style = ""float:right""></p><p><img src=images/blank.png width =""800"" height = ""200""></p>","","","","","","","","","","","",""
"","890.0849999990896","sequential-stimulus-presentation","91","163221","0.0-20.0-1.5","SS1613098763094","trial","","40","800","1690.0849999990896","images/stimuli/spore_stims/complex_01_A_a.gif","images/stimuli/spore_stims/complex_12_B_c.gif","","","","","4","complex_dissimilar","images/stimuli/spore_stims/complex_12_B_c.gif","middle","","","","",""
"","null","html-keyboard-response","92","164338","0.0-20.0-0.6","SS1613098763094","","","null","","","","","<p><img src= images/blank.png width =""200"" height = ""200"" style = ""float:right""></p><p><img src=images/blank.png width =""800"" height = ""200""></p>","","","","","","","","","","","",""
"","1991.264999996929","sequential-stimulus-presentation","93","167134","0.0-20.0-1.6","SS1613098763094","trial","","40","800","2791.264999996929","images/stimuli/spore_stims/complex_01_A_a.gif","images/stimuli/spore_stims/complex_12_B_c.gif","","","","","4","complex_dissimilar","images/stimuli/spore_stims/complex_01_A_a.gif","right","","","","",""
"","null","html-keyboard-response","94","168125","0.0-20.0-0.7","SS1613098763094","","","null","","","","","<p><img src= images/blank.png width =""200"" height = ""200"" style = ""float:right""></p><p><img src=images/blank.png width =""800"" height = ""200""></p>","","","","","","","","","","","",""
"","1282.5799999991432","sequential-stimulus-presentation","95","170221","0.0-20.0-1.7","SS1613098763094","trial","","40","800","2082.579999999143","images/stimuli/spore_stims/complex_01_A_a.gif","images/stimuli/spore_stims/complex_12_B_c.gif","","","","","4","complex_dissimilar","images/stimuli/spore_stims/complex_12_B_c.gif","middle","","","","",""
"","595.5099999991944","html-keyboard-response","96","170821","0.0-21.0","SS1613098763094","pref_question","","49","","","","","<video width ='960' height = '540' style='padding-top:8%' autoplay muted><source src='images/stimuli/wall_pref.mp4' type='video/mp4'></video>","1","left","25%","4","","","","","","","",""
"","4321.060000002035","sequential-stimulus-presentation","97","175949","0.0-22.0","SS1613098763094","pref_reveal","","40","800","5121.060000002035","null","null","","","","","4","","","","novel","","","",""
"","null","html-keyboard-response","98","177110","0.0-23.0-0.0","SS1613098763094","","","null","","","","","<p><img src= images/blank.png width =""200"" height = ""200"" style = ""float:right""></p><p><img src=images/blank.png width =""800"" height = ""200""></p>","","","","","","","","","","","",""
"","1354.3100000024424","sequential-stimulus-presentation","99","179270","0.0-23.0-1.0","SS1613098763094","trial","","40","800","2154.3100000024424","images/stimuli/spore_stims/simple_05_B_c.gif","images/stimuli/spore_stims/simple_05_A_c.gif","","","","","5","simple_similar","images/stimuli/spore_stims/simple_05_A_c.gif","left","","","","",""
"","null","html-keyboard-response","100","180300","0.0-23.0-0.1","SS1613098763094","","","null","","","","","<p><img src= images/blank.png width =""200"" height = ""200"" style = ""float:right""></p><p><img src=images/blank.png width =""800"" height = ""200""></p>","","","","","","","","","","","",""
"","972.9949999964447","sequential-stimulus-presentation","101","182085","0.0-23.0-1.1","SS1613098763094","trial","","40","800","1772.9949999964447","images/stimuli/spore_stims/simple_05_B_c.gif","images/stimuli/spore_stims/simple_05_A_c.gif","","","","","5","simple_similar","images/stimuli/spore_stims/simple_05_A_c.gif","left","","","","",""
"","null","html-keyboard-response","102","183245","0.0-23.0-0.2","SS1613098763094","","","null","","","","","<p><img src= images/blank.png width =""200"" height = ""200"" style = ""float:right""></p><p><img src=images/blank.png width =""800"" height = ""200""></p>","","","","","","","","","","","",""
"","725.3550000023097","sequential-stimulus-presentation","103","184773","0.0-23.0-1.2","SS1613098763094","trial","","40","800","1525.3550000023097","images/stimuli/spore_stims/simple_05_B_c.gif","images/stimuli/spore_stims/simple_05_A_c.gif","","","","","5","simple_similar","images/stimuli/spore_stims/simple_05_A_c.gif","left","","","","",""
"","null","html-keyboard-response","104","185872","0.0-23.0-0.3","SS1613098763094","","","null","","","","","<p><img src= images/blank.png width =""200"" height = ""200"" style = ""float:right""></p><p><img src=images/blank.png width =""800"" height = ""200""></p>","","","","","","","","","","","",""
"","390.01499999722","sequential-stimulus-presentation","105","187077","0.0-23.0-1.3","SS1613098763094","trial","","40","800","1190.01499999722","images/stimuli/spore_stims/simple_05_B_c.gif","images/stimuli/spore_stims/simple_05_A_c.gif","","","","","5","simple_similar","images/stimuli/spore_stims/simple_05_A_c.gif","left","","","","",""
"","null","html-keyboard-response","106","188299","0.0-23.0-0.4","SS1613098763094","","","null","","","","","<p><img src= images/blank.png width =""200"" height = ""200"" style = ""float:right""></p><p><img src=images/blank.png width =""800"" height = ""200""></p>","","","","","","","","","","","",""
"","366.82000000291737","sequential-stimulus-presentation","107","189470","0.0-23.0-1.4","SS1613098763094","trial","","40","800","1166.8200000029174","images/stimuli/spore_stims/simple_05_B_c.gif","images/stimuli/spore_stims/simple_05_A_c.gif","","","","","5","simple_similar","images/stimuli/spore_stims/simple_05_A_c.gif","left","","","","",""
"","null","html-keyboard-response","108","190383","0.0-23.0-0.5","SS1613098763094","","","null","","","","","<p><img src= images/blank.png width =""200"" height = ""200"" style = ""float:right""></p><p><img src=images/blank.png width =""800"" height = ""200""></p>","","","","","","","","","","","",""
"","386.8849999998929","sequential-stimulus-presentation","109","191573","0.0-23.0-1.5","SS1613098763094","trial","","40","800","1186.884999999893","images/stimuli/spore_stims/simple_05_B_c.gif","images/stimuli/spore_stims/simple_05_A_c.gif","","","","","5","simple_similar","images/stimuli/spore_stims/simple_05_B_c.gif","middle","","","","",""
"","null","html-keyboard-response","110","192704","0.0-23.0-0.6","SS1613098763094","","","null","","","","","<p><img src= images/blank.png width =""200"" height = ""200"" style = ""float:right""></p><p><img src=images/blank.png width =""800"" height = ""200""></p>","","","","","","","","","","","",""
"","274.25500000390457","sequential-stimulus-presentation","111","193797","0.0-23.0-1.6","SS1613098763094","trial","","40","800","1074.2550000039046","images/stimuli/spore_stims/simple_05_B_c.gif","images/stimuli/spore_stims/simple_05_A_c.gif","","","","","5","simple_similar","images/stimuli/spore_stims/simple_05_A_c.gif","left","","","","",""
"","null","html-keyboard-response","112","194600","0.0-23.0-0.7","SS1613098763094","","","null","","","","","<p><img src= images/blank.png width =""200"" height = ""200"" style = ""float:right""></p><p><img src=images/blank.png width =""800"" height = ""200""></p>","","","","","","","","","","","",""
"","177.77499999647262","sequential-stimulus-presentation","113","195581","0.0-23.0-1.7","SS1613098763094","trial","","40","800","977.7749999964726","images/stimuli/spore_stims/simple_05_B_c.gif","images/stimuli/spore_stims/simple_05_A_c.gif","","","","","5","simple_similar","images/stimuli/spore_stims/simple_05_A_c.gif","left","","","","",""
"","683.854999995674","html-keyboard-response","114","196269","0.0-24.0","SS1613098763094","pref_question","","51","","","","","<video width ='960' height = '540' style='padding-top:8%' autoplay muted><source src='images/stimuli/wall_pref.mp4' type='video/mp4'></video>","3","right","66%","5","","","","","","","",""
"","1076.630000003206","sequential-stimulus-presentation","115","198149","0.0-25.0","SS1613098763094","pref_reveal","","40","800","1876.630000003206","null","null","","","","","5","","","","novel","","","",""
"","null","html-keyboard-response","116","199232","0.0-26.0-0.0","SS1613098763094","","","null","","","","","<p><img src= images/blank.png width =""200"" height = ""200"" style = ""float:right""></p><p><img src=images/blank.png width =""800"" height = ""200""></p>","","","","","","","","","","","",""
"","1034.4200000035926","sequential-stimulus-presentation","117","201070","0.0-26.0-1.0","SS1613098763094","trial","","40","800","1834.4200000035926","images/stimuli/spore_stims/simple_19_A_a.gif","images/stimuli/spore_stims/simple_07_B_a.gif","","","","","6","simple_dissimilar","images/stimuli/spore_stims/simple_07_B_a.gif","right","","","","",""
"","null","html-keyboard-response","118","202121","0.0-26.0-0.1","SS1613098763094","","","null","","","","","<p><img src= images/blank.png width =""200"" height = ""200"" style = ""float:right""></p><p><img src=images/blank.png width =""800"" height = ""200""></p>","","","","","","","","","","","",""
"","248.87999999918975","sequential-stimulus-presentation","119","203174","0.0-26.0-1.1","SS1613098763094","trial","","40","800","1048.8799999991897","images/stimuli/spore_stims/simple_19_A_a.gif","images/stimuli/spore_stims/simple_07_B_a.gif","","","","","6","simple_dissimilar","images/stimuli/spore_stims/simple_07_B_a.gif","right","","","","",""
"","null","html-keyboard-response","120","204378","0.0-26.0-0.2","SS1613098763094","","","null","","","","","<p><img src= images/blank.png width =""200"" height = ""200"" style = ""float:right""></p><p><img src=images/blank.png width =""800"" height = ""200""></p>","","","","","","","","","","","",""
"","311.8199999953504","sequential-stimulus-presentation","121","205493","0.0-26.0-1.2","SS1613098763094","trial","","40","800","1111.8199999953504","images/stimuli/spore_stims/simple_19_A_a.gif","images/stimuli/spore_stims/simple_07_B_a.gif","","","","","6","simple_dissimilar","images/stimuli/spore_stims/simple_19_A_a.gif","middle","","","","",""
"","null","html-keyboard-response","122","206411","0.0-26.0-0.3","SS1613098763094","","","null","","","","","<p><img src= images/blank.png width =""200"" height = ""200"" style = ""float:right""></p><p><img src=images/blank.png width =""800"" height = ""200""></p>","","","","","","","","","","","",""
"","200.1899999959278","sequential-stimulus-presentation","123","207421","0.0-26.0-1.3","SS1613098763094","trial","","40","800","1000.1899999959278","images/stimuli/spore_stims/simple_19_A_a.gif","images/stimuli/spore_stims/simple_07_B_a.gif","","","","","6","simple_dissimilar","images/stimuli/spore_stims/simple_07_B_a.gif","right","","","","",""
"","null","html-keyboard-response","124","208521","0.0-26.0-0.4","SS1613098763094","","","null","","","","","<p><img src= images/blank.png width =""200"" height = ""200"" style = ""float:right""></p><p><img src=images/blank.png width =""800"" height = ""200""></p>","","","","","","","","","","","",""
"","242.70999999862397","sequential-stimulus-presentation","125","209573","0.0-26.0-1.4","SS1613098763094","trial","","40","800","1042.709999998624","images/stimuli/spore_stims/simple_19_A_a.gif","images/stimuli/spore_stims/simple_07_B_a.gif","","","","","6","simple_dissimilar","images/stimuli/spore_stims/simple_07_B_a.gif","right","","","","",""
"","null","html-keyboard-response","126","210690","0.0-26.0-0.5","SS1613098763094","","","null","","","","","<p><img src= images/blank.png width =""200"" height = ""200"" style = ""float:right""></p><p><img src=images/blank.png width =""800"" height = ""200""></p>","","","","","","","","","","","",""
"","256.1149999964982","sequential-stimulus-presentation","127","211750","0.0-26.0-1.5","SS1613098763094","trial","","40","800","1056.1149999964982","images/stimuli/spore_stims/simple_19_A_a.gif","images/stimuli/spore_stims/simple_07_B_a.gif","","","","","6","simple_dissimilar","images/stimuli/spore_stims/simple_07_B_a.gif","right","","","","",""
"","null","html-keyboard-response","128","213028","0.0-26.0-0.6","SS1613098763094","","","null","","","","","<p><img src= images/blank.png width =""200"" height = ""200"" style = ""float:right""></p><p><img src=images/blank.png width =""800"" height = ""200""></p>","","","","","","","","","","","",""
"","579.8500000018976","sequential-stimulus-presentation","129","214421","0.0-26.0-1.6","SS1613098763094","trial","","40","800","1379.8500000018976","images/stimuli/spore_stims/simple_19_A_a.gif","images/stimuli/spore_stims/simple_07_B_a.gif","","","","","6","simple_dissimilar","images/stimuli/spore_stims/simple_07_B_a.gif","right","","","","",""
"","null","html-keyboard-response","130","215494","0.0-26.0-0.7","SS1613098763094","","","null","","","","","<p><img src= images/blank.png width =""200"" height = ""200"" style = ""float:right""></p><p><img src=images/blank.png width =""800"" height = ""200""></p>","","","","","","","","","","","",""
"","690.4100000028848","sequential-stimulus-presentation","131","216989","0.0-26.0-1.7","SS1613098763094","trial","","40","800","1490.4100000028848","images/stimuli/spore_stims/simple_19_A_a.gif","images/stimuli/spore_stims/simple_07_B_a.gif","","","","","6","simple_dissimilar","images/stimuli/spore_stims/simple_07_B_a.gif","right","","","","",""
"","781.9650000019465","html-keyboard-response","132","217773","0.0-27.0","SS1613098763094","pref_question","","49","","","","","<video width ='960' height = '540' style='padding-top:8%' autoplay muted><source src='images/stimuli/wall_pref.mp4' type='video/mp4'></video>","1","left","25%","6","","","","","","","",""
"","2237.844999996014","sequential-stimulus-presentation","133","220821","0.0-28.0","SS1613098763094","pref_reveal","","40","800","3037.844999996014","null","null","","","","","6","","","","novel","","","",""
"","null","html-keyboard-response","134","222030","0.0-29.0-0.0","SS1613098763094","","","null","","","","","<p><img src= images/blank.png width =""200"" height = ""200"" style = ""float:right""></p><p><img src=images/blank.png width =""800"" height = ""200""></p>","","","","","","","","","","","",""
"","396.6000000000349","sequential-stimulus-presentation","135","223230","0.0-29.0-1.0","SS1613098763094","trial","","40","800","1196.600000000035","images/stimuli/spore_stims/complex_20_B_c.gif","images/stimuli/spore_stims/complex_20_A_c.gif","","","","","7","complex_similar","images/stimuli/spore_stims/complex_20_A_c.gif","middle","","","","",""
"","null","html-keyboard-response","136","224452","0.0-29.0-0.1","SS1613098763094","","","null","","","","","<p><img src= images/blank.png width =""200"" height = ""200"" style = ""float:right""></p><p><img src=images/blank.png width =""800"" height = ""200""></p>","","","","","","","","","","","",""
"","281.36499999527587","sequential-stimulus-presentation","137","225549","0.0-29.0-1.1","SS1613098763094","trial","","40","800","1081.3649999952759","images/stimuli/spore_stims/complex_20_B_c.gif","images/stimuli/spore_stims/complex_20_A_c.gif","","","","","7","complex_similar","images/stimuli/spore_stims/complex_20_A_c.gif","middle","","","","",""
"","null","html-keyboard-response","138","226417","0.0-29.0-0.2","SS1613098763094","","","null","","","","","<p><img src= images/blank.png width =""200"" height = ""200"" style = ""float:right""></p><p><img src=images/blank.png width =""800"" height = ""200""></p>","","","","","","","","","","","",""
"","753.100000001723","sequential-stimulus-presentation","139","227973","0.0-29.0-1.2","SS1613098763094","trial","","40","800","1553.100000001723","images/stimuli/spore_stims/complex_20_B_c.gif","images/stimuli/spore_stims/complex_20_A_c.gif","","","","","7","complex_similar","images/stimuli/spore_stims/complex_20_B_c.gif","left","","","","",""
"","null","html-keyboard-response","140","229212","0.0-29.0-0.3","SS1613098763094","","","null","","","","","<p><img src= images/blank.png width =""200"" height = ""200"" style = ""float:right""></p><p><img src=images/blank.png width =""800"" height = ""200""></p>","","","","","","","","","","","",""
"","420.5999999976484","sequential-stimulus-presentation","141","230437","0.0-29.0-1.3","SS1613098763094","trial","","40","800","1220.5999999976484","images/stimuli/spore_stims/complex_20_B_c.gif","images/stimuli/spore_stims/complex_20_A_c.gif","","","","","7","complex_similar","images/stimuli/spore_stims/complex_20_A_c.gif","middle","","","","",""
"","null","html-keyboard-response","142","231422","0.0-29.0-0.4","SS1613098763094","","","null","","","","","<p><img src= images/blank.png width =""200"" height = ""200"" style = ""float:right""></p><p><img src=images/blank.png width =""800"" height = ""200""></p>","","","","","","","","","","","",""
"","272.33999999589287","sequential-stimulus-presentation","143","232501","0.0-29.0-1.4","SS1613098763094","trial","","40","800","1072.3399999958929","images/stimuli/spore_stims/complex_20_B_c.gif","images/stimuli/spore_stims/complex_20_A_c.gif","","","","","7","complex_similar","images/stimuli/spore_stims/complex_20_A_c.gif","middle","","","","",""
"","null","html-keyboard-response","144","233359","0.0-29.0-0.5","SS1613098763094","","","null","","","","","<p><img src= images/blank.png width =""200"" height = ""200"" style = ""float:right""></p><p><img src=images/blank.png width =""800"" height = ""200""></p>","","","","","","","","","","","",""
"","281.39000000373926","sequential-stimulus-presentation","145","234446","0.0-29.0-1.5","SS1613098763094","trial","","40","800","1081.3900000037393","images/stimuli/spore_stims/complex_20_B_c.gif","images/stimuli/spore_stims/complex_20_A_c.gif","","","","","7","complex_similar","images/stimuli/spore_stims/complex_20_A_c.gif","middle","","","","",""
"","null","html-keyboard-response","146","235588","0.0-29.0-0.6","SS1613098763094","","","null","","","","","<p><img src= images/blank.png width =""200"" height = ""200"" style = ""float:right""></p><p><img src=images/blank.png width =""800"" height = ""200""></p>","","","","","","","","","","","",""
"","230.4199999998673","sequential-stimulus-presentation","147","236621","0.0-29.0-1.6","SS1613098763094","trial","","40","800","1030.4199999998673","images/stimuli/spore_stims/complex_20_B_c.gif","images/stimuli/spore_stims/complex_20_A_c.gif","","","","","7","complex_similar","images/stimuli/spore_stims/complex_20_A_c.gif","middle","","","","",""
"","null","html-keyboard-response","148","237568","0.0-29.0-0.7","SS1613098763094","","","null","","","","","<p><img src= images/blank.png width =""200"" height = ""200"" style = ""float:right""></p><p><img src=images/blank.png width =""800"" height = ""200""></p>","","","","","","","","","","","",""
"","410.1250000021537","sequential-stimulus-presentation","149","238782","0.0-29.0-1.7","SS1613098763094","trial","","40","800","1210.1250000021537","images/stimuli/spore_stims/complex_20_B_c.gif","images/stimuli/spore_stims/complex_20_A_c.gif","","","","","7","complex_similar","images/stimuli/spore_stims/complex_20_A_c.gif","middle","","","","",""
"","1363.5549999962677","html-keyboard-response","150","240149","0.0-30.0","SS1613098763094","pref_question","","51","","","","","<video width ='960' height = '540' style='padding-top:8%' autoplay muted><source src='images/stimuli/wall_pref.mp4' type='video/mp4'></video>","3","right","66%","7","","","","","","","",""
"","3134.2450000011013","sequential-stimulus-presentation","151","244101","0.0-31.0","SS1613098763094","pref_reveal","","40","800","3934.2450000011013","null","null","","","","","7","","","","novel","","","",""
"","null","html-keyboard-response","152","245268","0.0-32.0-0.0","SS1613098763094","","","null","","","","","<p><img src= images/blank.png width =""200"" height = ""200"" style = ""float:right""></p><p><img src=images/blank.png width =""800"" height = ""200""></p>","","","","","","","","","","","",""
"","1085.4350000008708","sequential-stimulus-presentation","153","247166","0.0-32.0-1.0","SS1613098763094","trial","","40","800","1885.4350000008708","images/stimuli/spore_stims/simple_19_B_d.gif","images/stimuli/spore_stims/simple_09_A_d.gif","","","","","8","simple_dissimilar","images/stimuli/spore_stims/simple_09_A_d.gif","left","","","","",""
"","null","html-keyboard-response","154","248335","0.0-32.0-0.1","SS1613098763094","","","null","","","","","<p><img src= images/blank.png width =""200"" height = ""200"" style = ""float:right""></p><p><img src=images/blank.png width =""800"" height = ""200""></p>","","","","","","","","","","","",""
"","1095.9599999987404","sequential-stimulus-presentation","155","250245","0.0-32.0-1.1","SS1613098763094","trial","","40","800","1895.9599999987404","images/stimuli/spore_stims/simple_19_B_d.gif","images/stimuli/spore_stims/simple_09_A_d.gif","","","","","8","simple_dissimilar","images/stimuli/spore_stims/simple_09_A_d.gif","left","","","","",""
"","null","html-keyboard-response","156","251185","0.0-32.0-0.2","SS1613098763094","","","null","","","","","<p><img src= images/blank.png width =""200"" height = ""200"" style = ""float:right""></p><p><img src=images/blank.png width =""800"" height = ""200""></p>","","","","","","","","","","","",""
"","1480.9900000036578","sequential-stimulus-presentation","157","253470","0.0-32.0-1.2","SS1613098763094","trial","","40","800","2280.9900000036578","images/stimuli/spore_stims/simple_19_B_d.gif","images/stimuli/spore_stims/simple_09_A_d.gif","","","","","8","simple_dissimilar","images/stimuli/spore_stims/simple_19_B_d.gif","middle","","","","",""
"","null","html-keyboard-response","158","254524","0.0-32.0-0.3","SS1613098763094","","","null","","","","","<p><img src= images/blank.png width =""200"" height = ""200"" style = ""float:right""></p><p><img src=images/blank.png width =""800"" height = ""200""></p>","","","","","","","","","","","",""
"","1235.8600000006845","sequential-stimulus-presentation","159","256565","0.0-32.0-1.3","SS1613098763094","trial","","40","800","2035.8600000006845","images/stimuli/spore_stims/simple_19_B_d.gif","images/stimuli/spore_stims/simple_09_A_d.gif","","","","","8","simple_dissimilar","images/stimuli/spore_stims/simple_09_A_d.gif","left","","","","",""
"","null","html-keyboard-response","160","257473","0.0-32.0-0.4","SS1613098763094","","","null","","","","","<p><img src= images/blank.png width =""200"" height = ""200"" style = ""float:right""></p><p><img src=images/blank.png width =""800"" height = ""200""></p>","","","","","","","","","","","",""
"","650.6250000020373","sequential-stimulus-presentation","161","258934","0.0-32.0-1.4","SS1613098763094","trial","","40","800","1450.6250000020373","images/stimuli/spore_stims/simple_19_B_d.gif","images/stimuli/spore_stims/simple_09_A_d.gif","","","","","8","simple_dissimilar","images/stimuli/spore_stims/simple_09_A_d.gif","left","","","","",""
"","null","html-keyboard-response","162","259841","0.0-32.0-0.5","SS1613098763094","","","null","","","","","<p><img src= images/blank.png width =""200"" height = ""200"" style = ""float:right""></p><p><img src=images/blank.png width =""800"" height = ""200""></p>","","","","","","","","","","","",""
"","1117.4400000018068","sequential-stimulus-presentation","163","261773","0.0-32.0-1.5","SS1613098763094","trial","","40","800","1917.4400000018068","images/stimuli/spore_stims/simple_19_B_d.gif","images/stimuli/spore_stims/simple_09_A_d.gif","","","","","8","simple_dissimilar","images/stimuli/spore_stims/simple_09_A_d.gif","left","","","","",""
"","null","html-keyboard-response","164","262711","0.0-32.0-0.6","SS1613098763094","","","null","","","","","<p><img src= images/blank.png width =""200"" height = ""200"" style = ""float:right""></p><p><img src=images/blank.png width =""800"" height = ""200""></p>","","","","","","","","","","","",""
"","1007.3300000003655","sequential-stimulus-presentation","165","264526","0.0-32.0-1.6","SS1613098763094","trial","","40","800","1807.3300000003655","images/stimuli/spore_stims/simple_19_B_d.gif","images/stimuli/spore_stims/simple_09_A_d.gif","","","","","8","simple_dissimilar","images/stimuli/spore_stims/simple_09_A_d.gif","left","","","","",""
"","null","html-keyboard-response","166","265792","0.0-32.0-0.7","SS1613098763094","","","null","","","","","<p><img src= images/blank.png width =""200"" height = ""200"" style = ""float:right""></p><p><img src=images/blank.png width =""800"" height = ""200""></p>","","","","","","","","","","","",""
"","694.2849999977625","sequential-stimulus-presentation","167","267293","0.0-32.0-1.7","SS1613098763094","trial","","40","800","1494.2849999977625","images/stimuli/spore_stims/simple_19_B_d.gif","images/stimuli/spore_stims/simple_09_A_d.gif","","","","","8","simple_dissimilar","images/stimuli/spore_stims/simple_09_A_d.gif","left","","","","",""
"","1077.4949999977252","html-keyboard-response","168","268373","0.0-33.0","SS1613098763094","pref_question","","51","","","","","<video width ='960' height = '540' style='padding-top:8%' autoplay muted><source src='images/stimuli/wall_pref.mp4' type='video/mp4'></video>","3","right","66%","8","","","","","","","",""
"","3046.5100000001257","sequential-stimulus-presentation","169","272230","0.0-34.0","SS1613098763094","pref_reveal","","40","800","3846.5100000001257","null","null","","","","","8","","","","novel","","","",""
"","null","html-keyboard-response","170","273052","0.0-35.0-0.0","SS1613098763094","","","null","","","","","<p><img src= images/blank.png width =""200"" height = ""200"" style = ""float:right""></p><p><img src=images/blank.png width =""800"" height = ""200""></p>","","","","","","","","","","","",""
"","491.82500000461005","sequential-stimulus-presentation","171","274349","0.0-35.0-1.0","SS1613098763094","trial","","40","800","1291.82500000461","images/stimuli/spore_stims/simple_03_A_c.gif","images/stimuli/spore_stims/simple_03_B_c.gif","","","","","9","simple_similar","images/stimuli/spore_stims/simple_03_B_c.gif","middle","","","","",""
"","null","html-keyboard-response","172","275345","0.0-35.0-0.1","SS1613098763094","","","null","","","","","<p><img src= images/blank.png width =""200"" height = ""200"" style = ""float:right""></p><p><img src=images/blank.png width =""800"" height = ""200""></p>","","","","","","","","","","","",""
"","321.32499999715947","sequential-stimulus-presentation","173","276469","0.0-35.0-1.1","SS1613098763094","trial","","40","800","1121.3249999971595","images/stimuli/spore_stims/simple_03_A_c.gif","images/stimuli/spore_stims/simple_03_B_c.gif","","","","","9","simple_similar","images/stimuli/spore_stims/simple_03_B_c.gif","middle","","","","",""
"","null","html-keyboard-response","174","277730","0.0-35.0-0.2","SS1613098763094","","","null","","","","","<p><img src= images/blank.png width =""200"" height = ""200"" style = ""float:right""></p><p><img src=images/blank.png width =""800"" height = ""200""></p>","","","","","","","","","","","",""
"","239.8800000009942","sequential-stimulus-presentation","175","278773","0.0-35.0-1.2","SS1613098763094","trial","","40","800","1039.8800000009942","images/stimuli/spore_stims/simple_03_A_c.gif","images/stimuli/spore_stims/simple_03_B_c.gif","","","","","9","simple_similar","images/stimuli/spore_stims/simple_03_B_c.gif","middle","","","","",""
"","null","html-keyboard-response","176","280053","0.0-35.0-0.3","SS1613098763094","","","null","","","","","<p><img src= images/blank.png width =""200"" height = ""200"" style = ""float:right""></p><p><img src=images/blank.png width =""800"" height = ""200""></p>","","","","","","","","","","","",""
"","228.05499999958556","sequential-stimulus-presentation","177","281085","0.0-35.0-1.3","SS1613098763094","trial","","40","800","1028.0549999995856","images/stimuli/spore_stims/simple_03_A_c.gif","images/stimuli/spore_stims/simple_03_B_c.gif","","","","","9","simple_similar","images/stimuli/spore_stims/simple_03_B_c.gif","middle","","","","",""
"","null","html-keyboard-response","178","282353","0.0-35.0-0.4","SS1613098763094","","","null","","","","","<p><img src= images/blank.png width =""200"" height = ""200"" style = ""float:right""></p><p><img src=images/blank.png width =""800"" height = ""200""></p>","","","","","","","","","","","",""
"","404.3850000016391","sequential-stimulus-presentation","179","283574","0.0-35.0-1.4","SS1613098763094","trial","","40","800","1204.3850000016391","images/stimuli/spore_stims/simple_03_A_c.gif","images/stimuli/spore_stims/simple_03_B_c.gif","","","","","9","simple_similar","images/stimuli/spore_stims/simple_03_A_c.gif","left","","","","",""
"","null","html-keyboard-response","180","284731","0.0-35.0-0.5","SS1613098763094","","","null","","","","","<p><img src= images/blank.png width =""200"" height = ""200"" style = ""float:right""></p><p><img src=images/blank.png width =""800"" height = ""200""></p>","","","","","","","","","","","",""
"","110.24999999790452","sequential-stimulus-presentation","181","285645","0.0-35.0-1.5","SS1613098763094","trial","","40","800","910.2499999979045","images/stimuli/spore_stims/simple_03_A_c.gif","images/stimuli/spore_stims/simple_03_B_c.gif","","","","","9","simple_similar","images/stimuli/spore_stims/simple_03_B_c.gif","middle","","","","",""
"","null","html-keyboard-response","182","286653","0.0-35.0-0.6","SS1613098763094","","","null","","","","","<p><img src= images/blank.png width =""200"" height = ""200"" style = ""float:right""></p><p><img src=images/blank.png width =""800"" height = ""200""></p>","","","","","","","","","","","",""
"","1198604.8949999968","sequential-stimulus-presentation","183","1486062","0.0-35.0-1.6","SS1613098763094","trial","","40","800","1199404.8949999968","images/stimuli/spore_stims/simple_03_A_c.gif","images/stimuli/spore_stims/simple_03_B_c.gif","","","","","9","simple_similar","images/stimuli/spore_stims/simple_03_B_c.gif","middle","","","","",""
"","null","html-keyboard-response","184","1487108","0.0-35.0-0.7","SS1613098763094","","","null","","","","","<p><img src= images/blank.png width =""200"" height = ""200"" style = ""float:right""></p><p><img src=images/blank.png width =""800"" height = ""200""></p>","","","","","","","","","","","",""
"","85.34499999927357","sequential-stimulus-presentation","185","1487998","0.0-35.0-1.7","SS1613098763094","trial","","40","800","885.3449999992736","images/stimuli/spore_stims/simple_03_A_c.gif","images/stimuli/spore_stims/simple_03_B_c.gif","","","","","9","simple_similar","images/stimuli/spore_stims/simple_03_B_c.gif","middle","","","","",""
"","1330.099999991944","html-keyboard-response","186","1489334","0.0-36.0","SS1613098763094","pref_question","","51","","","","","<video width ='960' height = '540' style='padding-top:8%' autoplay muted><source src='images/stimuli/wall_pref.mp4' type='video/mp4'></video>","3","right","66%","9","","","","","","","",""
"","184.68500000005588","sequential-stimulus-presentation","187","1490335","0.0-37.0","SS1613098763094","pref_reveal","","40","800","984.6850000000559","null","null","","","","","9","","","","novel","","","",""
"","null","html-keyboard-response","188","1491493","0.0-38.0-0.0","SS1613098763094","","","null","","","","","<p><img src= images/blank.png width =""200"" height = ""200"" style = ""float:right""></p><p><img src=images/blank.png width =""800"" height = ""200""></p>","","","","","","","","","","","",""
"","6.109999987762421","sequential-stimulus-presentation","189","1492302","0.0-38.0-1.0","SS1613098763094","trial","","40","800","806.1099999877624","images/stimuli/spore_stims/simple_08_A_b.gif","images/stimuli/spore_stims/simple_04_B_b.gif","","","","","10","simple_dissimilar","images/stimuli/spore_stims/simple_04_B_b.gif","middle","","","","",""
"","null","html-keyboard-response","190","1493437","0.0-38.0-0.1","SS1613098763094","","","null","","","","","<p><img src= images/blank.png width =""200"" height = ""200"" style = ""float:right""></p><p><img src=images/blank.png width =""800"" height = ""200""></p>","","","","","","","","","","","",""
"","340.3800000087358","sequential-stimulus-presentation","191","1494582","0.0-38.0-1.1","SS1613098763094","trial","","40","800","1140.3800000087358","images/stimuli/spore_stims/simple_08_A_b.gif","images/stimuli/spore_stims/simple_04_B_b.gif","","","","","10","simple_dissimilar","images/stimuli/spore_stims/simple_04_B_b.gif","middle","","","","",""
"","null","html-keyboard-response","192","1495854","0.0-38.0-0.2","SS1613098763094","","","null","","","","","<p><img src= images/blank.png width =""200"" height = ""200"" style = ""float:right""></p><p><img src=images/blank.png width =""800"" height = ""200""></p>","","","","","","","","","","","",""
"","131.09000001009554","sequential-stimulus-presentation","193","1496790","0.0-38.0-1.2","SS1613098763094","trial","","40","800","931.0900000100955","images/stimuli/spore_stims/simple_08_A_b.gif","images/stimuli/spore_stims/simple_04_B_b.gif","","","","","10","simple_dissimilar","images/stimuli/spore_stims/simple_04_B_b.gif","middle","","","","",""
"","null","html-keyboard-response","194","1497604","0.0-38.0-0.3","SS1613098763094","","","null","","","","","<p><img src= images/blank.png width =""200"" height = ""200"" style = ""float:right""></p><p><img src=images/blank.png width =""800"" height = ""200""></p>","","","","","","","","","","","",""
"","20.48000000650063","sequential-stimulus-presentation","195","1498438","0.0-38.0-1.3","SS1613098763094","trial","","40","800","820.4800000065006","images/stimuli/spore_stims/simple_08_A_b.gif","images/stimuli/spore_stims/simple_04_B_b.gif","","","","","10","simple_dissimilar","images/stimuli/spore_stims/simple_08_A_b.gif","right","","","","",""
"","null","html-keyboard-response","196","1499617","0.0-38.0-0.4","SS1613098763094","","","null","","","","","<p><img src= images/blank.png width =""200"" height = ""200"" style = ""float:right""></p><p><img src=images/blank.png width =""800"" height = ""200""></p>","","","","","","","","","","","",""
"","89.61999999871477","sequential-stimulus-presentation","197","1500511","0.0-38.0-1.4","SS1613098763094","trial","","40","800","889.6199999987148","images/stimuli/spore_stims/simple_08_A_b.gif","images/stimuli/spore_stims/simple_04_B_b.gif","","","","","10","simple_dissimilar","images/stimuli/spore_stims/simple_04_B_b.gif","middle","","","","",""
"","null","html-keyboard-response","198","1501683","0.0-38.0-0.5","SS1613098763094","","","null","","","","","<p><img src= images/blank.png width =""200"" height = ""200"" style = ""float:right""></p><p><img src=images/blank.png width =""800"" height = ""200""></p>","","","","","","","","","","","",""
"","223.4100000062026","sequential-stimulus-presentation","199","1502710","0.0-38.0-1.5","SS1613098763094","trial","","40","800","1023.4100000062026","images/stimuli/spore_stims/simple_08_A_b.gif","images/stimuli/spore_stims/simple_04_B_b.gif","","","","","10","simple_dissimilar","images/stimuli/spore_stims/simple_04_B_b.gif","middle","","","","",""
"","null","html-keyboard-response","200","1503799","0.0-38.0-0.6","SS1613098763094","","","null","","","","","<p><img src= images/blank.png width =""200"" height = ""200"" style = ""float:right""></p><p><img src=images/blank.png width =""800"" height = ""200""></p>","","","","","","","","","","","",""
"","259.2399999992922","sequential-stimulus-presentation","201","1504863","0.0-38.0-1.6","SS1613098763094","trial","","40","800","1059.2399999992922","images/stimuli/spore_stims/simple_08_A_b.gif","images/stimuli/spore_stims/simple_04_B_b.gif","","","","","10","simple_dissimilar","images/stimuli/spore_stims/simple_04_B_b.gif","middle","","","","",""
"","null","html-keyboard-response","202","1505847","0.0-38.0-0.7","SS1613098763094","","","null","","","","","<p><img src= images/blank.png width =""200"" height = ""200"" style = ""float:right""></p><p><img src=images/blank.png width =""800"" height = ""200""></p>","","","","","","","","","","","",""
"","287.3050000052899","sequential-stimulus-presentation","203","1506950","0.0-38.0-1.7","SS1613098763094","trial","","40","800","1087.30500000529","images/stimuli/spore_stims/simple_08_A_b.gif","images/stimuli/spore_stims/simple_04_B_b.gif","","","","","10","simple_dissimilar","images/stimuli/spore_stims/simple_04_B_b.gif","middle","","","","",""
"","1257.979999994859","html-keyboard-response","204","1508215","0.0-39.0","SS1613098763094","pref_question","","49","","","","","<video width ='960' height = '540' style='padding-top:8%' autoplay muted><source src='images/stimuli/wall_pref.mp4' type='video/mp4'></video>","1","left","25%","10","","","","","","","",""
"","1490.8500000019558","sequential-stimulus-presentation","205","1510510","0.0-40.0","SS1613098763094","pref_reveal","","40","800","2290.850000001956","null","null","","","","","10","","","","novel","","","",""
"","null","html-keyboard-response","206","1511457","0.0-41.0-0.0","SS1613098763094","","","null","","","","","<p><img src= images/blank.png width =""200"" height = ""200"" style = ""float:right""></p><p><img src=images/blank.png width =""800"" height = ""200""></p>","","","","","","","","","","","",""
"","250.58000000705943","sequential-stimulus-presentation","207","1512511","0.0-41.0-1.0","SS1613098763094","trial","","40","800","1050.5800000070594","images/stimuli/spore_stims/simple_18_B_d.gif","images/stimuli/spore_stims/simple_18_A_d.gif","","","","","11","simple_similar","images/stimuli/spore_stims/simple_18_A_d.gif","right","","","","",""
"","null","html-keyboard-response","208","1513783","0.0-41.0-0.1","SS1613098763094","","","null","","","","","<p><img src= images/blank.png width =""200"" height = ""200"" style = ""float:right""></p><p><img src=images/blank.png width =""800"" height = ""200""></p>","","","","","","","","","","","",""
"","148.13499999558553","sequential-stimulus-presentation","209","1514734","0.0-41.0-1.1","SS1613098763094","trial","","40","800","948.1349999955855","images/stimuli/spore_stims/simple_18_B_d.gif","images/stimuli/spore_stims/simple_18_A_d.gif","","","","","11","simple_similar","images/stimuli/spore_stims/simple_18_A_d.gif","right","","","","",""
"","null","html-keyboard-response","210","1516021","0.0-41.0-0.2","SS1613098763094","","","null","","","","","<p><img src= images/blank.png width =""200"" height = ""200"" style = ""float:right""></p><p><img src=images/blank.png width =""800"" height = ""200""></p>","","","","","","","","","","","",""
"","247.11499999114312","sequential-stimulus-presentation","211","1517078","0.0-41.0-1.2","SS1613098763094","trial","","40","800","1047.1149999911431","images/stimuli/spore_stims/simple_18_B_d.gif","images/stimuli/spore_stims/simple_18_A_d.gif","","","","","11","simple_similar","images/stimuli/spore_stims/simple_18_A_d.gif","right","","","","",""
"","null","html-keyboard-response","212","1518257","0.0-41.0-0.3","SS1613098763094","","","null","","","","","<p><img src= images/blank.png width =""200"" height = ""200"" style = ""float:right""></p><p><img src=images/blank.png width =""800"" height = ""200""></p>","","","","","","","","","","","",""
"","296.6000000014901","sequential-stimulus-presentation","213","1519358","0.0-41.0-1.3","SS1613098763094","trial","","40","800","1096.6000000014901","images/stimuli/spore_stims/simple_18_B_d.gif","images/stimuli/spore_stims/simple_18_A_d.gif","","","","","11","simple_similar","images/stimuli/spore_stims/simple_18_B_d.gif","left","","","","",""
"","null","html-keyboard-response","214","1520206","0.0-41.0-0.4","SS1613098763094","","","null","","","","","<p><img src= images/blank.png width =""200"" height = ""200"" style = ""float:right""></p><p><img src=images/blank.png width =""800"" height = ""200""></p>","","","","","","","","","","","",""
"","348.2649999933783","sequential-stimulus-presentation","215","1521358","0.0-41.0-1.4","SS1613098763094","trial","","40","800","1148.2649999933783","images/stimuli/spore_stims/simple_18_B_d.gif","images/stimuli/spore_stims/simple_18_A_d.gif","","","","","11","simple_similar","images/stimuli/spore_stims/simple_18_A_d.gif","right","","","","",""
"","null","html-keyboard-response","216","1522520","0.0-41.0-0.5","SS1613098763094","","","null","","","","","<p><img src= images/blank.png width =""200"" height = ""200"" style = ""float:right""></p><p><img src=images/blank.png width =""800"" height = ""200""></p>","","","","","","","","","","","",""
"","356.2749999985099","sequential-stimulus-presentation","217","1523687","0.0-41.0-1.5","SS1613098763094","trial","","40","800","1156.2749999985099","images/stimuli/spore_stims/simple_18_B_d.gif","images/stimuli/spore_stims/simple_18_A_d.gif","","","","","11","simple_similar","images/stimuli/spore_stims/simple_18_A_d.gif","right","","","","",""
"","null","html-keyboard-response","218","1524690","0.0-41.0-0.6","SS1613098763094","","","null","","","","","<p><img src= images/blank.png width =""200"" height = ""200"" style = ""float:right""></p><p><img src=images/blank.png width =""800"" height = ""200""></p>","","","","","","","","","","","",""
"","279.2699999990873","sequential-stimulus-presentation","219","1525782","0.0-41.0-1.6","SS1613098763094","trial","","40","800","1079.2699999990873","images/stimuli/spore_stims/simple_18_B_d.gif","images/stimuli/spore_stims/simple_18_A_d.gif","","","","","11","simple_similar","images/stimuli/spore_stims/simple_18_A_d.gif","right","","","","",""
"","null","html-keyboard-response","220","1526909","0.0-41.0-0.7","SS1613098763094","","","null","","","","","<p><img src= images/blank.png width =""200"" height = ""200"" style = ""float:right""></p><p><img src=images/blank.png width =""800"" height = ""200""></p>","","","","","","","","","","","",""
"","222.01500000664964","sequential-stimulus-presentation","221","1527934","0.0-41.0-1.7","SS1613098763094","trial","","40","800","1022.0150000066496","images/stimuli/spore_stims/simple_18_B_d.gif","images/stimuli/spore_stims/simple_18_A_d.gif","","","","","11","simple_similar","images/stimuli/spore_stims/simple_18_A_d.gif","right","","","","",""
"","1538.1699999999255","html-keyboard-response","222","1529479","0.0-42.0","SS1613098763094","pref_question","","50","","","","","<video width ='960' height = '540' style='padding-top:8%' autoplay muted><source src='images/stimuli/wall_pref.mp4' type='video/mp4'></video>","2","middle","45%","11","","","","","","","",""
"","1755.9449999972712","sequential-stimulus-presentation","223","1532039","0.0-43.0","SS1613098763094","pref_reveal","","40","800","2555.944999997271","null","null","","","","","11","","","","novel","","","",""
"","null","html-keyboard-response","224","1532856","0.0-44.0-0.0","SS1613098763094","","","null","","","","","<p><img src= images/blank.png width =""200"" height = ""200"" style = ""float:right""></p><p><img src=images/blank.png width =""800"" height = ""200""></p>","","","","","","","","","","","",""
"","309.6150000055786","sequential-stimulus-presentation","225","1533983","0.0-44.0-1.0","SS1613098763094","trial","","40","800","1109.6150000055786","images/stimuli/spore_stims/complex_14_A_c.gif","images/stimuli/spore_stims/complex_06_A_a.gif","","","","","12","complex_dissimilar","images/stimuli/spore_stims/complex_06_A_a.gif","right","","","","",""
"","null","html-keyboard-response","226","1535134","0.0-44.0-0.1","SS1613098763094","","","null","","","","","<p><img src= images/blank.png width =""200"" height = ""200"" style = ""float:right""></p><p><img src=images/blank.png width =""800"" height = ""200""></p>","","","","","","","","","","","",""
"","196.4650000007823","sequential-stimulus-presentation","227","1536134","0.0-44.0-1.1","SS1613098763094","trial","","40","800","996.4650000007823","images/stimuli/spore_stims/complex_14_A_c.gif","images/stimuli/spore_stims/complex_06_A_a.gif","","","","","12","complex_dissimilar","images/stimuli/spore_stims/complex_06_A_a.gif","right","","","","",""
"","null","html-keyboard-response","228","1537183","0.0-44.0-0.2","SS1613098763094","","","null","","","","","<p><img src= images/blank.png width =""200"" height = ""200"" style = ""float:right""></p><p><img src=images/blank.png width =""800"" height = ""200""></p>","","","","","","","","","","","",""
"","773.1099999945145","sequential-stimulus-presentation","229","1538766","0.0-44.0-1.2","SS1613098763094","trial","","40","800","1573.1099999945145","images/stimuli/spore_stims/complex_14_A_c.gif","images/stimuli/spore_stims/complex_06_A_a.gif","","","","","12","complex_dissimilar","images/stimuli/spore_stims/complex_06_A_a.gif","right","","","","",""
"","null","html-keyboard-response","230","1540049","0.0-44.0-0.3","SS1613098763094","","","null","","","","","<p><img src= images/blank.png width =""200"" height = ""200"" style = ""float:right""></p><p><img src=images/blank.png width =""800"" height = ""200""></p>","","","","","","","","","","","",""
"","337.5899999954272","sequential-stimulus-presentation","231","1541191","0.0-44.0-1.3","SS1613098763094","trial","","40","800","1137.5899999954272","images/stimuli/spore_stims/complex_14_A_c.gif","images/stimuli/spore_stims/complex_06_A_a.gif","","","","","12","complex_dissimilar","images/stimuli/spore_stims/complex_06_A_a.gif","right","","","","",""
"","null","html-keyboard-response","232","1542229","0.0-44.0-0.4","SS1613098763094","","","null","","","","","<p><img src= images/blank.png width =""200"" height = ""200"" style = ""float:right""></p><p><img src=images/blank.png width =""800"" height = ""200""></p>","","","","","","","","","","","",""
"","773.1499999938533","sequential-stimulus-presentation","233","1543815","0.0-44.0-1.4","SS1613098763094","trial","","40","800","1573.1499999938533","images/stimuli/spore_stims/complex_14_A_c.gif","images/stimuli/spore_stims/complex_06_A_a.gif","","","","","12","complex_dissimilar","images/stimuli/spore_stims/complex_06_A_a.gif","right","","","","",""
"","null","html-keyboard-response","234","1544974","0.0-44.0-0.5","SS1613098763094","","","null","","","","","<p><img src= images/blank.png width =""200"" height = ""200"" style = ""float:right""></p><p><img src=images/blank.png width =""800"" height = ""200""></p>","","","","","","","","","","","",""
"","156.26499999780208","sequential-stimulus-presentation","235","1545935","0.0-44.0-1.5","SS1613098763094","trial","","40","800","956.2649999978021","images/stimuli/spore_stims/complex_14_A_c.gif","images/stimuli/spore_stims/complex_06_A_a.gif","","","","","12","complex_dissimilar","images/stimuli/spore_stims/complex_06_A_a.gif","right","","","","",""
"","null","html-keyboard-response","236","1547088","0.0-44.0-0.6","SS1613098763094","","","null","","","","","<p><img src= images/blank.png width =""200"" height = ""200"" style = ""float:right""></p><p><img src=images/blank.png width =""800"" height = ""200""></p>","","","","","","","","","","","",""
"","81.52499998686835","sequential-stimulus-presentation","237","1547983","0.0-44.0-1.6","SS1613098763094","trial","","40","800","881.5249999868684","images/stimuli/spore_stims/complex_14_A_c.gif","images/stimuli/spore_stims/complex_06_A_a.gif","","","","","12","complex_dissimilar","images/stimuli/spore_stims/complex_06_A_a.gif","right","","","","",""
"","null","html-keyboard-response","238","1549221","0.0-44.0-0.7","SS1613098763094","","","null","","","","","<p><img src= images/blank.png width =""200"" height = ""200"" style = ""float:right""></p><p><img src=images/blank.png width =""800"" height = ""200""></p>","","","","","","","","","","","",""
"","117.25999999907799","sequential-stimulus-presentation","239","1550143","0.0-44.0-1.7","SS1613098763094","trial","","40","800","917.259999999078","images/stimuli/spore_stims/complex_14_A_c.gif","images/stimuli/spore_stims/complex_06_A_a.gif","","","","","12","complex_dissimilar","images/stimuli/spore_stims/complex_14_A_c.gif","left","","","","",""
"","1338.4599999990314","html-keyboard-response","240","1551487","0.0-45.0","SS1613098763094","pref_question","","50","","","","","<video width ='960' height = '540' style='padding-top:8%' autoplay muted><source src='images/stimuli/wall_pref.mp4' type='video/mp4'></video>","2","middle","45%","12","","","","","","","",""
"","586.7799999979325","sequential-stimulus-presentation","241","1552879","0.0-46.0","SS1613098763094","pref_reveal","","40","800","1386.7799999979325","null","null","","","","","12","","","","novel","","","",""
"","null","html-keyboard-response","242","1553976","0.0-47.0-0.0","SS1613098763094","","","null","","","","","<p><img src= images/blank.png width =""200"" height = ""200"" style = ""float:right""></p><p><img src=images/blank.png width =""800"" height = ""200""></p>","","","","","","","","","","","",""
"","56.26500000664964","sequential-stimulus-presentation","243","1554839","0.0-47.0-1.0","SS1613098763094","trial","","40","800","856.2650000066496","images/stimuli/spore_stims/complex_19_B_d.gif","images/stimuli/spore_stims/complex_19_A_d.gif","","","","","13","complex_similar","images/stimuli/spore_stims/complex_19_A_d.gif","left","","","","",""
"","null","html-keyboard-response","244","1555820","0.0-47.0-0.1","SS1613098763094","","","null","","","","","<p><img src= images/blank.png width =""200"" height = ""200"" style = ""float:right""></p><p><img src=images/blank.png width =""800"" height = ""200""></p>","","","","","","","","","","","",""
"","61.06999999610707","sequential-stimulus-presentation","245","1556695","0.0-47.0-1.1","SS1613098763094","trial","","40","800","861.0699999961071","images/stimuli/spore_stims/complex_19_B_d.gif","images/stimuli/spore_stims/complex_19_A_d.gif","","","","","13","complex_similar","images/stimuli/spore_stims/complex_19_A_d.gif","left","","","","",""
"","null","html-keyboard-response","246","1557728","0.0-47.0-0.2","SS1613098763094","","","null","","","","","<p><img src= images/blank.png width =""200"" height = ""200"" style = ""float:right""></p><p><img src=images/blank.png width =""800"" height = ""200""></p>","","","","","","","","","","","",""
"","33.42500000167638","sequential-stimulus-presentation","247","1558567","0.0-47.0-1.2","SS1613098763094","trial","","40","800","833.4250000016764","images/stimuli/spore_stims/complex_19_B_d.gif","images/stimuli/spore_stims/complex_19_A_d.gif","","","","","13","complex_similar","images/stimuli/spore_stims/complex_19_A_d.gif","left","","","","",""
"","null","html-keyboard-response","248","1559459","0.0-47.0-0.3","SS1613098763094","","","null","","","","","<p><img src= images/blank.png width =""200"" height = ""200"" style = ""float:right""></p><p><img src=images/blank.png width =""800"" height = ""200""></p>","","","","","","","","","","","",""
"","48.04500000318512","sequential-stimulus-presentation","249","1560319","0.0-47.0-1.3","SS1613098763094","trial","","40","800","848.0450000031851","images/stimuli/spore_stims/complex_19_B_d.gif","images/stimuli/spore_stims/complex_19_A_d.gif","","","","","13","complex_similar","images/stimuli/spore_stims/complex_19_A_d.gif","left","","","","",""
"","null","html-keyboard-response","250","1561572","0.0-47.0-0.4","SS1613098763094","","","null","","","","","<p><img src= images/blank.png width =""200"" height = ""200"" style = ""float:right""></p><p><img src=images/blank.png width =""800"" height = ""200""></p>","","","","","","","","","","","",""
"","159.654999995837","sequential-stimulus-presentation","251","1562535","0.0-47.0-1.4","SS1613098763094","trial","","40","800","959.654999995837","images/stimuli/spore_stims/complex_19_B_d.gif","images/stimuli/spore_stims/complex_19_A_d.gif","","","","","13","complex_similar","images/stimuli/spore_stims/complex_19_B_d.gif","middle","","","","",""
"","null","html-keyboard-response","252","1563365","0.0-47.0-0.5","SS1613098763094","","","null","","","","","<p><img src= images/blank.png width =""200"" height = ""200"" style = ""float:right""></p><p><img src=images/blank.png width =""800"" height = ""200""></p>","","","","","","","","","","","",""
"","188.02499999594875","sequential-stimulus-presentation","253","1564367","0.0-47.0-1.5","SS1613098763094","trial","","40","800","988.0249999959487","images/stimuli/spore_stims/complex_19_B_d.gif","images/stimuli/spore_stims/complex_19_A_d.gif","","","","","13","complex_similar","images/stimuli/spore_stims/complex_19_A_d.gif","left","","","","",""
"","null","html-keyboard-response","254","1565372","0.0-47.0-0.6","SS1613098763094","","","null","","","","","<p><img src= images/blank.png width =""200"" height = ""200"" style = ""float:right""></p><p><img src=images/blank.png width =""800"" height = ""200""></p>","","","","","","","","","","","",""
"","134.6249999916181","sequential-stimulus-presentation","255","1566311","0.0-47.0-1.6","SS1613098763094","trial","","40","800","934.6249999916181","images/stimuli/spore_stims/complex_19_B_d.gif","images/stimuli/spore_stims/complex_19_A_d.gif","","","","","13","complex_similar","images/stimuli/spore_stims/complex_19_A_d.gif","left","","","","",""
"","null","html-keyboard-response","256","1567217","0.0-47.0-0.7","SS1613098763094","","","null","","","","","<p><img src= images/blank.png width =""200"" height = ""200"" style = ""float:right""></p><p><img src=images/blank.png width =""800"" height = ""200""></p>","","","","","","","","","","","",""
"","169.54999999143183","sequential-stimulus-presentation","257","1568191","0.0-47.0-1.7","SS1613098763094","trial","","40","800","969.5499999914318","images/stimuli/spore_stims/complex_19_B_d.gif","images/stimuli/spore_stims/complex_19_A_d.gif","","","","","13","complex_similar","images/stimuli/spore_stims/complex_19_A_d.gif","left","","","","",""
"","1460.0050000008196","html-keyboard-response","258","1569655","0.0-48.0","SS1613098763094","pref_question","","51","","","","","<video width ='960' height = '540' style='padding-top:8%' autoplay muted><source src='images/stimuli/wall_pref.mp4' type='video/mp4'></video>","3","right","66%","13","","","","","","","",""
"","827.9849999961443","sequential-stimulus-presentation","259","1571287","0.0-49.0","SS1613098763094","pref_reveal","","40","800","1627.9849999961443","null","null","","","","","13","","","","novel","","","",""
"","null","html-keyboard-response","260","1572335","0.0-50.0-0.0","SS1613098763094","","","null","","","","","<p><img src= images/blank.png width =""200"" height = ""200"" style = ""float:right""></p><p><img src=images/blank.png width =""800"" height = ""200""></p>","","","","","","","","","","","",""
"","363.83499999623746","sequential-stimulus-presentation","261","1573503","0.0-50.0-1.0","SS1613098763094","trial","","40","800","1163.8349999962375","images/stimuli/spore_stims/simple_17_A_c.gif","images/stimuli/spore_stims/simple_17_B_c.gif","","","","","14","simple_similar","images/stimuli/spore_stims/simple_17_B_c.gif","middle","","","","",""
"","null","html-keyboard-response","262","1574310","0.0-50.0-0.1","SS1613098763094","","","null","","","","","<p><img src= images/blank.png width =""200"" height = ""200"" style = ""float:right""></p><p><img src=images/blank.png width =""800"" height = ""200""></p>","","","","","","","","","","","",""
"","228.5649999976158","sequential-stimulus-presentation","263","1575343","0.0-50.0-1.1","SS1613098763094","trial","","40","800","1028.5649999976158","images/stimuli/spore_stims/simple_17_A_c.gif","images/stimuli/spore_stims/simple_17_B_c.gif","","","","","14","simple_similar","images/stimuli/spore_stims/simple_17_B_c.gif","middle","","","","",""
"","null","html-keyboard-response","264","1576277","0.0-50.0-0.2","SS1613098763094","","","null","","","","","<p><img src= images/blank.png width =""200"" height = ""200"" style = ""float:right""></p><p><img src=images/blank.png width =""800"" height = ""200""></p>","","","","","","","","","","","",""
"","270.2000000134576","sequential-stimulus-presentation","265","1577352","0.0-50.0-1.2","SS1613098763094","trial","","40","800","1070.2000000134576","images/stimuli/spore_stims/simple_17_A_c.gif","images/stimuli/spore_stims/simple_17_B_c.gif","","","","","14","simple_similar","images/stimuli/spore_stims/simple_17_A_c.gif","left","","","","",""
"","null","html-keyboard-response","266","1578283","0.0-50.0-0.3","SS1613098763094","","","null","","","","","<p><img src= images/blank.png width =""200"" height = ""200"" style = ""float:right""></p><p><img src=images/blank.png width =""800"" height = ""200""></p>","","","","","","","","","","","",""
"","255.6600000099279","sequential-stimulus-presentation","267","1579343","0.0-50.0-1.3","SS1613098763094","trial","","40","800","1055.660000009928","images/stimuli/spore_stims/simple_17_A_c.gif","images/stimuli/spore_stims/simple_17_B_c.gif","","","","","14","simple_similar","images/stimuli/spore_stims/simple_17_B_c.gif","middle","","","","",""
"","null","html-keyboard-response","268","1580338","0.0-50.0-0.4","SS1613098763094","","","null","","","","","<p><img src= images/blank.png width =""200"" height = ""200"" style = ""float:right""></p><p><img src=images/blank.png width =""800"" height = ""200""></p>","","","","","","","","","","","",""
"","256.85999999404885","sequential-stimulus-presentation","269","1581399","0.0-50.0-1.4","SS1613098763094","trial","","40","800","1056.8599999940488","images/stimuli/spore_stims/simple_17_A_c.gif","images/stimuli/spore_stims/simple_17_B_c.gif","","","","","14","simple_similar","images/stimuli/spore_stims/simple_17_B_c.gif","middle","","","","",""
"","null","html-keyboard-response","270","1582521","0.0-50.0-0.5","SS1613098763094","","","null","","","","","<p><img src= images/blank.png width =""200"" height = ""200"" style = ""float:right""></p><p><img src=images/blank.png width =""800"" height = ""200""></p>","","","","","","","","","","","",""
"","376.86000000406057","sequential-stimulus-presentation","271","1583703","0.0-50.0-1.5","SS1613098763094","trial","","40","800","1176.8600000040606","images/stimuli/spore_stims/simple_17_A_c.gif","images/stimuli/spore_stims/simple_17_B_c.gif","","","","","14","simple_similar","images/stimuli/spore_stims/simple_17_B_c.gif","middle","","","","",""
"","null","html-keyboard-response","272","1584723","0.0-50.0-0.6","SS1613098763094","","","null","","","","","<p><img src= images/blank.png width =""200"" height = ""200"" style = ""float:right""></p><p><img src=images/blank.png width =""800"" height = ""200""></p>","","","","","","","","","","","",""
"","323.28500000573695","sequential-stimulus-presentation","273","1585863","0.0-50.0-1.6","SS1613098763094","trial","","40","800","1123.285000005737","images/stimuli/spore_stims/simple_17_A_c.gif","images/stimuli/spore_stims/simple_17_B_c.gif","","","","","14","simple_similar","images/stimuli/spore_stims/simple_17_B_c.gif","middle","","","","",""
"","null","html-keyboard-response","274","1586838","0.0-50.0-0.7","SS1613098763094","","","null","","","","","<p><img src= images/blank.png width =""200"" height = ""200"" style = ""float:right""></p><p><img src=images/blank.png width =""800"" height = ""200""></p>","","","","","","","","","","","",""
"","181.98999999719672","sequential-stimulus-presentation","275","1587831","0.0-50.0-1.7","SS1613098763094","trial","","40","800","981.9899999971967","images/stimuli/spore_stims/simple_17_A_c.gif","images/stimuli/spore_stims/simple_17_B_c.gif","","","","","14","simple_similar","images/stimuli/spore_stims/simple_17_B_c.gif","middle","","","","",""
"","1282.9750000089407","html-keyboard-response","276","1589119","0.0-51.0","SS1613098763094","pref_question","","51","","","","","<video width ='960' height = '540' style='padding-top:8%' autoplay muted><source src='images/stimuli/wall_pref.mp4' type='video/mp4'></video>","3","right","66%","14","","","","","","","",""
"","795.6849999900442","sequential-stimulus-presentation","277","1590719","0.0-52.0","SS1613098763094","pref_reveal","","40","800","1595.6849999900442","null","null","","","","","14","","","","novel","","","",""
"","null","html-keyboard-response","278","1591643","0.0-53.0-0.0","SS1613098763094","","","null","","","","","<p><img src= images/blank.png width =""200"" height = ""200"" style = ""float:right""></p><p><img src=images/blank.png width =""800"" height = ""200""></p>","","","","","","","","","","","",""
"","343.1350000030361","sequential-stimulus-presentation","279","1592791","0.0-53.0-1.0","SS1613098763094","trial","","40","800","1143.135000003036","images/stimuli/spore_stims/simple_14_A_c.gif","images/stimuli/spore_stims/simple_14_B_c.gif","","","","","15","simple_similar","images/stimuli/spore_stims/simple_14_B_c.gif","middle","","","","",""
"","null","html-keyboard-response","280","1593986","0.0-53.0-0.1","SS1613098763094","","","null","","","","","<p><img src= images/blank.png width =""200"" height = ""200"" style = ""float:right""></p><p><img src=images/blank.png width =""800"" height = ""200""></p>","","","","","","","","","","","",""
"","176.1450000051409","sequential-stimulus-presentation","281","1594967","0.0-53.0-1.1","SS1613098763094","trial","","40","800","976.1450000051409","images/stimuli/spore_stims/simple_14_A_c.gif","images/stimuli/spore_stims/simple_14_B_c.gif","","","","","15","simple_similar","images/stimuli/spore_stims/simple_14_B_c.gif","middle","","","","",""
"","null","html-keyboard-response","282","1595988","0.0-53.0-0.2","SS1613098763094","","","null","","","","","<p><img src= images/blank.png width =""200"" height = ""200"" style = ""float:right""></p><p><img src=images/blank.png width =""800"" height = ""200""></p>","","","","","","","","","","","",""
"","190.83999999566004","sequential-stimulus-presentation","283","1596983","0.0-53.0-1.2","SS1613098763094","trial","","40","800","990.83999999566","images/stimuli/spore_stims/simple_14_A_c.gif","images/stimuli/spore_stims/simple_14_B_c.gif","","","","","15","simple_similar","images/stimuli/spore_stims/simple_14_B_c.gif","middle","","","","",""
"","null","html-keyboard-response","284","1598193","0.0-53.0-0.3","SS1613098763094","","","null","","","","","<p><img src= images/blank.png width =""200"" height = ""200"" style = ""float:right""></p><p><img src=images/blank.png width =""800"" height = ""200""></p>","","","","","","","","","","","",""
"","50.4249999942258","sequential-stimulus-presentation","285","1599047","0.0-53.0-1.3","SS1613098763094","trial","","40","800","850.4249999942258","images/stimuli/spore_stims/simple_14_A_c.gif","images/stimuli/spore_stims/simple_14_B_c.gif","","","","","15","simple_similar","images/stimuli/spore_stims/simple_14_A_c.gif","left","","","","",""
"","null","html-keyboard-response","286","1600028","0.0-53.0-0.4","SS1613098763094","","","null","","","","","<p><img src= images/blank.png width =""200"" height = ""200"" style = ""float:right""></p><p><img src=images/blank.png width =""800"" height = ""200""></p>","","","","","","","","","","","",""
"","78.90000000759028","sequential-stimulus-presentation","287","1600911","0.0-53.0-1.4","SS1613098763094","trial","","40","800","878.9000000075903","images/stimuli/spore_stims/simple_14_A_c.gif","images/stimuli/spore_stims/simple_14_B_c.gif","","","","","15","simple_similar","images/stimuli/spore_stims/simple_14_B_c.gif","middle","","","","",""
"","null","html-keyboard-response","288","1602193","0.0-53.0-0.5","SS1613098763094","","","null","","","","","<p><img src= images/blank.png width =""200"" height = ""200"" style = ""float:right""></p><p><img src=images/blank.png width =""800"" height = ""200""></p>","","","","","","","","","","","",""
"","161.4550000084564","sequential-stimulus-presentation","289","1603159","0.0-53.0-1.5","SS1613098763094","trial","","40","800","961.4550000084564","images/stimuli/spore_stims/simple_14_A_c.gif","images/stimuli/spore_stims/simple_14_B_c.gif","","","","","15","simple_similar","images/stimuli/spore_stims/simple_14_B_c.gif","middle","","","","",""
"","null","html-keyboard-response","290","1604434","0.0-53.0-0.6","SS1613098763094","","","null","","","","","<p><img src= images/blank.png width =""200"" height = ""200"" style = ""float:right""></p><p><img src=images/blank.png width =""800"" height = ""200""></p>","","","","","","","","","","","",""
"","160.92500000377186","sequential-stimulus-presentation","291","1605399","0.0-53.0-1.6","SS1613098763094","trial","","40","800","960.9250000037719","images/stimuli/spore_stims/simple_14_A_c.gif","images/stimuli/spore_stims/simple_14_B_c.gif","","","","","15","simple_similar","images/stimuli/spore_stims/simple_14_B_c.gif","middle","","","","",""
"","null","html-keyboard-response","292","1606585","0.0-53.0-0.7","SS1613098763094","","","null","","","","","<p><img src= images/blank.png width =""200"" height = ""200"" style = ""float:right""></p><p><img src=images/blank.png width =""800"" height = ""200""></p>","","","","","","","","","","","",""
"","265.36000000475906","sequential-stimulus-presentation","293","1607655","0.0-53.0-1.7","SS1613098763094","trial","","40","800","1065.360000004759","images/stimuli/spore_stims/simple_14_A_c.gif","images/stimuli/spore_stims/simple_14_B_c.gif","","","","","15","simple_similar","images/stimuli/spore_stims/simple_14_B_c.gif","middle","","","","",""
"","1076.600000000326","html-keyboard-response","294","1608735","0.0-54.0","SS1613098763094","pref_question","","51","","","","","<video width ='960' height = '540' style='padding-top:8%' autoplay muted><source src='images/stimuli/wall_pref.mp4' type='video/mp4'></video>","3","right","66%","15","","","","","","","",""
"","595.509999999078","sequential-stimulus-presentation","295","1610135","0.0-55.0","SS1613098763094","pref_reveal","","40","800","1395.509999999078","null","null","","","","","15","","","","novel","","","",""
"","null","html-keyboard-response","296","1611425","0.0-56.0-0.0","SS1613098763094","","","null","","","","","<p><img src= images/blank.png width =""200"" height = ""200"" style = ""float:right""></p><p><img src=images/blank.png width =""800"" height = ""200""></p>","","","","","","","","","","","",""
"","169.77000000770204","sequential-stimulus-presentation","297","1612399","0.0-56.0-1.0","SS1613098763094","trial","","40","800","969.770000007702","images/stimuli/spore_stims/complex_15_A_c.gif","images/stimuli/spore_stims/complex_07_B_d.gif","","","","","16","complex_dissimilar","images/stimuli/spore_stims/complex_07_B_d.gif","left","","","","",""
"","null","html-keyboard-response","298","1613283","0.0-56.0-0.1","SS1613098763094","","","null","","","","","<p><img src= images/blank.png width =""200"" height = ""200"" style = ""float:right""></p><p><img src=images/blank.png width =""800"" height = ""200""></p>","","","","","","","","","","","",""
"","125.78499999642372","sequential-stimulus-presentation","299","1614215","0.0-56.0-1.1","SS1613098763094","trial","","40","800","925.7849999964237","images/stimuli/spore_stims/complex_15_A_c.gif","images/stimuli/spore_stims/complex_07_B_d.gif","","","","","16","complex_dissimilar","images/stimuli/spore_stims/complex_07_B_d.gif","left","","","","",""
"","null","html-keyboard-response","300","1615088","0.0-56.0-0.2","SS1613098763094","","","null","","","","","<p><img src= images/blank.png width =""200"" height = ""200"" style = ""float:right""></p><p><img src=images/blank.png width =""800"" height = ""200""></p>","","","","","","","","","","","",""
"","145.1099999975413","sequential-stimulus-presentation","301","1616047","0.0-56.0-1.2","SS1613098763094","trial","","40","800","945.1099999975413","images/stimuli/spore_stims/complex_15_A_c.gif","images/stimuli/spore_stims/complex_07_B_d.gif","","","","","16","complex_dissimilar","images/stimuli/spore_stims/complex_07_B_d.gif","left","","","","",""
"","null","html-keyboard-response","302","1616938","0.0-56.0-0.3","SS1613098763094","","","null","","","","","<p><img src= images/blank.png width =""200"" height = ""200"" style = ""float:right""></p><p><img src=images/blank.png width =""800"" height = ""200""></p>","","","","","","","","","","","",""
"","391.8749999864958","sequential-stimulus-presentation","303","1618143","0.0-56.0-1.3","SS1613098763094","trial","","40","800","1191.8749999864958","images/stimuli/spore_stims/complex_15_A_c.gif","images/stimuli/spore_stims/complex_07_B_d.gif","","","","","16","complex_dissimilar","images/stimuli/spore_stims/complex_07_B_d.gif","left","","","","",""
"","null","html-keyboard-response","304","1619084","0.0-56.0-0.4","SS1613098763094","","","null","","","","","<p><img src= images/blank.png width =""200"" height = ""200"" style = ""float:right""></p><p><img src=images/blank.png width =""800"" height = ""200""></p>","","","","","","","","","","","",""
"","141.79000000888482","sequential-stimulus-presentation","305","1620031","0.0-56.0-1.4","SS1613098763094","trial","","40","800","941.7900000088848","images/stimuli/spore_stims/complex_15_A_c.gif","images/stimuli/spore_stims/complex_07_B_d.gif","","","","","16","complex_dissimilar","images/stimuli/spore_stims/complex_07_B_d.gif","left","","","","",""
"","null","html-keyboard-response","306","1621317","0.0-56.0-0.5","SS1613098763094","","","null","","","","","<p><img src= images/blank.png width =""200"" height = ""200"" style = ""float:right""></p><p><img src=images/blank.png width =""800"" height = ""200""></p>","","","","","","","","","","","",""
"","332.81000000727363","sequential-stimulus-presentation","307","1622455","0.0-56.0-1.5","SS1613098763094","trial","","40","800","1132.8100000072736","images/stimuli/spore_stims/complex_15_A_c.gif","images/stimuli/spore_stims/complex_07_B_d.gif","","","","","16","complex_dissimilar","images/stimuli/spore_stims/complex_15_A_c.gif","right","","","","",""
"","null","html-keyboard-response","308","1623578","0.0-56.0-0.6","SS1613098763094","","","null","","","","","<p><img src= images/blank.png width =""200"" height = ""200"" style = ""float:right""></p><p><img src=images/blank.png width =""800"" height = ""200""></p>","","","","","","","","","","","",""
"","176.37000000104308","sequential-stimulus-presentation","309","1624559","0.0-56.0-1.6","SS1613098763094","trial","","40","800","976.3700000010431","images/stimuli/spore_stims/complex_15_A_c.gif","images/stimuli/spore_stims/complex_07_B_d.gif","","","","","16","complex_dissimilar","images/stimuli/spore_stims/complex_07_B_d.gif","left","","","","",""
"","null","html-keyboard-response","310","1625573","0.0-56.0-0.7","SS1613098763094","","","null","","","","","<p><img src= images/blank.png width =""200"" height = ""200"" style = ""float:right""></p><p><img src=images/blank.png width =""800"" height = ""200""></p>","","","","","","","","","","","",""
"","212.98000001115724","sequential-stimulus-presentation","311","1626591","0.0-56.0-1.7","SS1613098763094","trial","","40","800","1012.9800000111572","images/stimuli/spore_stims/complex_15_A_c.gif","images/stimuli/spore_stims/complex_07_B_d.gif","","","","","16","complex_dissimilar","images/stimuli/spore_stims/complex_07_B_d.gif","left","","","","",""
