"view_history","rt","trial_type","trial_index","time_elapsed","internal_node_id","subject","stimulus_type","trial_stimulus","key_press","minimum_viewing_duration","trial_looking_time","block_deviant","block_background","stimulus","wall_pref","location","location_percent","block_number","block_type","stimulus_displayed","position_displayed","stim_type_selected","responses","question_order","stimulus_left","stimulus_right"
"[{""page_index"":0,""viewing_time"":1463.610000006156}]","1463.9999999999418","instructions","0","1466","0.0-0.0","SS1613081787879","","","","","","","","","","","","","","","","","","","",""
"[{""page_index"":0,""viewing_time"":7632.499999999709},{""page_index"":1,""viewing_time"":5037.804999999935}]","12670.545000000857","instructions","1","16139","0.0-1.0","SS1613081787879","instructions","","","","","","","","","","","","","","","","","","",""
"","4522.825000000012","sequential-stimulus-presentation","2","21467","0.0-2.0","SS1613081787879","","","40","800","5322.825000000012","null","null","","","","","","","","","","","","",""
"","779.1099999958533","sequential-stimulus-presentation","3","23050","0.0-3.0","SS1613081787879","","","40","800","1579.1099999958533","null","null","","","","","","","","","","","","",""
"[{""page_index"":0,""viewing_time"":2863.949999999022}]","2864.2150000014226","instructions","4","25915","0.0-4.0","SS1613081787879","instructions","","","","","","","","","","","","","","","","","","",""
"","4852.770000004966","html-keyboard-response","5","30770","0.0-5.0","SS1613081787879","instructions","","49","","","","","<video width ='960' height = '540' autoplay muted><source src='images/stimuli/wall_pref.mp4' type='video/mp4'></video>","1","left","25%","","","","","","","","",""
"","350.1650000034715","sequential-stimulus-presentation","6","31926","0.0-6.0","SS1613081787879","pref_reveal","","40","800","1150.1650000034715","null","null","","","","","","","","","","","","",""
"[{""page_index"":0,""viewing_time"":7725.2299999963725},{""page_index"":1,""viewing_time"":3367.080000003625},{""page_index"":2,""viewing_time"":1011.9500000000698},{""page_index"":3,""viewing_time"":1084.9949999974342}]","13189.509999996517","instructions","7","45116","0.0-7.0","SS1613081787879","instructions","","","","","","","","","","","","","","","","","","",""
"","null","html-keyboard-response","8","46186","0.0-8.0-0.0","SS1613081787879","","","null","","","","","<p><img src= images/blank.png width =""200"" height = ""200"" style = ""float:right""></p><p><img src=images/blank.png width =""800"" height = ""200""></p>","","","","","","","","","","","",""
"","2857.9399999944144","sequential-stimulus-presentation","9","49861","0.0-8.0-1.0","SS1613081787879","trial","","40","800","3657.9399999944144","images/stimuli/spore_stims/complex_12_B_a.gif","images/stimuli/spore_stims/complex_12_A_a.gif","","","","","0","complex_similar","images/stimuli/spore_stims/complex_12_A_a.gif","right","","","","",""
"","null","html-keyboard-response","10","50981","0.0-8.0-0.1","SS1613081787879","","","null","","","","","<p><img src= images/blank.png width =""200"" height = ""200"" style = ""float:right""></p><p><img src=images/blank.png width =""800"" height = ""200""></p>","","","","","","","","","","","",""
"","1334.5300000000861","sequential-stimulus-presentation","11","53134","0.0-8.0-1.1","SS1613081787879","trial","","40","800","2134.530000000086","images/stimuli/spore_stims/complex_12_B_a.gif","images/stimuli/spore_stims/complex_12_A_a.gif","","","","","0","complex_similar","images/stimuli/spore_stims/complex_12_A_a.gif","right","","","","",""
"","null","html-keyboard-response","12","54271","0.0-8.0-0.2","SS1613081787879","","","null","","","","","<p><img src= images/blank.png width =""200"" height = ""200"" style = ""float:right""></p><p><img src=images/blank.png width =""800"" height = ""200""></p>","","","","","","","","","","","",""
"","2702.919999996084","sequential-stimulus-presentation","13","57789","0.0-8.0-1.2","SS1613081787879","trial","","40","800","3502.919999996084","images/stimuli/spore_stims/complex_12_B_a.gif","images/stimuli/spore_stims/complex_12_A_a.gif","","","","","0","complex_similar","images/stimuli/spore_stims/complex_12_A_a.gif","right","","","","",""
"","null","html-keyboard-response","14","58978","0.0-8.0-0.3","SS1613081787879","","","null","","","","","<p><img src= images/blank.png width =""200"" height = ""200"" style = ""float:right""></p><p><img src=images/blank.png width =""800"" height = ""200""></p>","","","","","","","","","","","",""
"","3303.744999997434","sequential-stimulus-presentation","15","63097","0.0-8.0-1.3","SS1613081787879","trial","","40","800","4103.744999997434","images/stimuli/spore_stims/complex_12_B_a.gif","images/stimuli/spore_stims/complex_12_A_a.gif","","","","","0","complex_similar","images/stimuli/spore_stims/complex_12_B_a.gif","left","","","","",""
"","null","html-keyboard-response","16","63992","0.0-8.0-0.4","SS1613081787879","","","null","","","","","<p><img src= images/blank.png width =""200"" height = ""200"" style = ""float:right""></p><p><img src=images/blank.png width =""800"" height = ""200""></p>","","","","","","","","","","","",""
"","2173.7149999971734","sequential-stimulus-presentation","17","66985","0.0-8.0-1.4","SS1613081787879","trial","","40","800","2973.7149999971734","images/stimuli/spore_stims/complex_12_B_a.gif","images/stimuli/spore_stims/complex_12_A_a.gif","","","","","0","complex_similar","images/stimuli/spore_stims/complex_12_A_a.gif","right","","","","",""
"","null","html-keyboard-response","18","68102","0.0-8.0-0.5","SS1613081787879","","","null","","","","","<p><img src= images/blank.png width =""200"" height = ""200"" style = ""float:right""></p><p><img src=images/blank.png width =""800"" height = ""200""></p>","","","","","","","","","","","",""
"","3569.899999994959","sequential-stimulus-presentation","19","72490","0.0-8.0-1.5","SS1613081787879","trial","","40","800","4369.899999994959","images/stimuli/spore_stims/complex_12_B_a.gif","images/stimuli/spore_stims/complex_12_A_a.gif","","","","","0","complex_similar","images/stimuli/spore_stims/complex_12_A_a.gif","right","","","","",""
"","null","html-keyboard-response","20","73789","0.0-8.0-0.6","SS1613081787879","","","null","","","","","<p><img src= images/blank.png width =""200"" height = ""200"" style = ""float:right""></p><p><img src=images/blank.png width =""800"" height = ""200""></p>","","","","","","","","","","","",""
"","4825.284999998985","sequential-stimulus-presentation","21","79433","0.0-8.0-1.6","SS1613081787879","trial","","40","800","5625.284999998985","images/stimuli/spore_stims/complex_12_B_a.gif","images/stimuli/spore_stims/complex_12_A_a.gif","","","","","0","complex_similar","images/stimuli/spore_stims/complex_12_A_a.gif","right","","","","",""
"","null","html-keyboard-response","22","80607","0.0-8.0-0.7","SS1613081787879","","","null","","","","","<p><img src= images/blank.png width =""200"" height = ""200"" style = ""float:right""></p><p><img src=images/blank.png width =""800"" height = ""200""></p>","","","","","","","","","","","",""
"","5824.289999996836","sequential-stimulus-presentation","23","87242","0.0-8.0-1.7","SS1613081787879","trial","","40","800","6624.289999996836","images/stimuli/spore_stims/complex_12_B_a.gif","images/stimuli/spore_stims/complex_12_A_a.gif","","","","","0","complex_similar","images/stimuli/spore_stims/complex_12_A_a.gif","right","","","","",""
"","274.955000000773","html-keyboard-response","24","87521","0.0-9.0","SS1613081787879","pref_question","","50","","","","","<video width ='960' height = '540' style='padding-top:8%' autoplay muted><source src='images/stimuli/wall_pref.mp4' type='video/mp4'></video>","2","middle","45%","0","","","","","","","",""
"","3434.815000000526","sequential-stimulus-presentation","25","91770","0.0-10.0","SS1613081787879","pref_reveal","","40","800","4234.815000000526","null","null","","","","","0","","","","novel","","","",""
"","null","html-keyboard-response","26","92855","0.0-11.0-0.0","SS1613081787879","","","null","","","","","<p><img src= images/blank.png width =""200"" height = ""200"" style = ""float:right""></p><p><img src=images/blank.png width =""800"" height = ""200""></p>","","","","","","","","","","","",""
"","2768.400000000838","sequential-stimulus-presentation","27","96437","0.0-11.0-1.0","SS1613081787879","trial","","40","800","3568.400000000838","images/stimuli/spore_stims/complex_18_A_a.gif","images/stimuli/spore_stims/complex_05_A_c.gif","","","","","1","complex_dissimilar","images/stimuli/spore_stims/complex_05_A_c.gif","right","","","","",""
"","null","html-keyboard-response","28","97313","0.0-11.0-0.1","SS1613081787879","","","null","","","","","<p><img src= images/blank.png width =""200"" height = ""200"" style = ""float:right""></p><p><img src=images/blank.png width =""800"" height = ""200""></p>","","","","","","","","","","","",""
"","1117.8750000035507","sequential-stimulus-presentation","29","99245","0.0-11.0-1.1","SS1613081787879","trial","","40","800","1917.8750000035507","images/stimuli/spore_stims/complex_18_A_a.gif","images/stimuli/spore_stims/complex_05_A_c.gif","","","","","1","complex_dissimilar","images/stimuli/spore_stims/complex_05_A_c.gif","right","","","","",""
"","null","html-keyboard-response","30","100324","0.0-11.0-0.2","SS1613081787879","","","null","","","","","<p><img src= images/blank.png width =""200"" height = ""200"" style = ""float:right""></p><p><img src=images/blank.png width =""800"" height = ""200""></p>","","","","","","","","","","","",""
"","111.04499999783002","sequential-stimulus-presentation","31","101253","0.0-11.0-1.2","SS1613081787879","trial","","40","800","911.04499999783","images/stimuli/spore_stims/complex_18_A_a.gif","images/stimuli/spore_stims/complex_05_A_c.gif","","","","","1","complex_dissimilar","images/stimuli/spore_stims/complex_05_A_c.gif","right","","","","",""
"","null","html-keyboard-response","32","102118","0.0-11.0-0.3","SS1613081787879","","","null","","","","","<p><img src= images/blank.png width =""200"" height = ""200"" style = ""float:right""></p><p><img src=images/blank.png width =""800"" height = ""200""></p>","","","","","","","","","","","",""
"","3665.5549999995856","sequential-stimulus-presentation","33","106597","0.0-11.0-1.3","SS1613081787879","trial","","40","800","4465.554999999586","images/stimuli/spore_stims/complex_18_A_a.gif","images/stimuli/spore_stims/complex_05_A_c.gif","","","","","1","complex_dissimilar","images/stimuli/spore_stims/complex_18_A_a.gif","left","","","","",""
"","null","html-keyboard-response","34","107500","0.0-11.0-0.4","SS1613081787879","","","null","","","","","<p><img src= images/blank.png width =""200"" height = ""200"" style = ""float:right""></p><p><img src=images/blank.png width =""800"" height = ""200""></p>","","","","","","","","","","","",""
"","957.2150000021793","sequential-stimulus-presentation","35","109269","0.0-11.0-1.4","SS1613081787879","trial","","40","800","1757.2150000021793","images/stimuli/spore_stims/complex_18_A_a.gif","images/stimuli/spore_stims/complex_05_A_c.gif","","","","","1","complex_dissimilar","images/stimuli/spore_stims/complex_05_A_c.gif","right","","","","",""
"","null","html-keyboard-response","36","110297","0.0-11.0-0.5","SS1613081787879","","","null","","","","","<p><img src= images/blank.png width =""200"" height = ""200"" style = ""float:right""></p><p><img src=images/blank.png width =""800"" height = ""200""></p>","","","","","","","","","","","",""
"","746.5899999951944","sequential-stimulus-presentation","37","111861","0.0-11.0-1.5","SS1613081787879","trial","","40","800","1546.5899999951944","images/stimuli/spore_stims/complex_18_A_a.gif","images/stimuli/spore_stims/complex_05_A_c.gif","","","","","1","complex_dissimilar","images/stimuli/spore_stims/complex_05_A_c.gif","right","","","","",""
"","null","html-keyboard-response","38","112674","0.0-11.0-0.6","SS1613081787879","","","null","","","","","<p><img src= images/blank.png width =""200"" height = ""200"" style = ""float:right""></p><p><img src=images/blank.png width =""800"" height = ""200""></p>","","","","","","","","","","","",""
"","706.3550000020768","sequential-stimulus-presentation","39","114189","0.0-11.0-1.6","SS1613081787879","trial","","40","800","1506.3550000020768","images/stimuli/spore_stims/complex_18_A_a.gif","images/stimuli/spore_stims/complex_05_A_c.gif","","","","","1","complex_dissimilar","images/stimuli/spore_stims/complex_05_A_c.gif","right","","","","",""
"","null","html-keyboard-response","40","115385","0.0-11.0-0.7","SS1613081787879","","","null","","","","","<p><img src= images/blank.png width =""200"" height = ""200"" style = ""float:right""></p><p><img src=images/blank.png width =""800"" height = ""200""></p>","","","","","","","","","","","",""
"","477.5200000003679","sequential-stimulus-presentation","41","116677","0.0-11.0-1.7","SS1613081787879","trial","","40","800","1277.5200000003679","images/stimuli/spore_stims/complex_18_A_a.gif","images/stimuli/spore_stims/complex_05_A_c.gif","","","","","1","complex_dissimilar","images/stimuli/spore_stims/complex_05_A_c.gif","right","","","","",""
"","2493.1349999969825","html-keyboard-response","42","119173","0.0-12.0","SS1613081787879","pref_question","","51","","","","","<video width ='960' height = '540' style='padding-top:8%' autoplay muted><source src='images/stimuli/wall_pref.mp4' type='video/mp4'></video>","3","right","66%","1","","","","","","","",""
"","3189.3400000044494","sequential-stimulus-presentation","43","123177","0.0-13.0","SS1613081787879","pref_reveal","","40","800","3989.3400000044494","null","null","","","","","1","","","","background","","","",""
"","null","html-keyboard-response","44","124235","0.0-14.0-0.0","SS1613081787879","","","null","","","","","<p><img src= images/blank.png width =""200"" height = ""200"" style = ""float:right""></p><p><img src=images/blank.png width =""800"" height = ""200""></p>","","","","","","","","","","","",""
"","2190.1450000004843","sequential-stimulus-presentation","45","127241","0.0-14.0-1.0","SS1613081787879","trial","","40","800","2990.1450000004843","images/stimuli/spore_stims/simple_16_A_b.gif","images/stimuli/spore_stims/simple_16_B_b.gif","","","","","2","simple_similar","images/stimuli/spore_stims/simple_16_B_b.gif","right","","","","",""
"","null","html-keyboard-response","46","128186","0.0-14.0-0.1","SS1613081787879","","","null","","","","","<p><img src= images/blank.png width =""200"" height = ""200"" style = ""float:right""></p><p><img src=images/blank.png width =""800"" height = ""200""></p>","","","","","","","","","","","",""
"","3669.2150000017136","sequential-stimulus-presentation","47","132673","0.0-14.0-1.1","SS1613081787879","trial","","40","800","4469.215000001714","images/stimuli/spore_stims/simple_16_A_b.gif","images/stimuli/spore_stims/simple_16_B_b.gif","","","","","2","simple_similar","images/stimuli/spore_stims/simple_16_B_b.gif","right","","","","",""
"","null","html-keyboard-response","48","133566","0.0-14.0-0.2","SS1613081787879","","","null","","","","","<p><img src= images/blank.png width =""200"" height = ""200"" style = ""float:right""></p><p><img src=images/blank.png width =""800"" height = ""200""></p>","","","","","","","","","","","",""
"","2874.7500000026776","sequential-stimulus-presentation","49","137257","0.0-14.0-1.2","SS1613081787879","trial","","40","800","3674.7500000026776","images/stimuli/spore_stims/simple_16_A_b.gif","images/stimuli/spore_stims/simple_16_B_b.gif","","","","","2","simple_similar","images/stimuli/spore_stims/simple_16_B_b.gif","right","","","","",""
"","null","html-keyboard-response","50","138345","0.0-14.0-0.3","SS1613081787879","","","null","","","","","<p><img src= images/blank.png width =""200"" height = ""200"" style = ""float:right""></p><p><img src=images/blank.png width =""800"" height = ""200""></p>","","","","","","","","","","","",""
"","89.97999999701278","sequential-stimulus-presentation","51","139248","0.0-14.0-1.3","SS1613081787879","trial","","40","800","889.9799999970128","images/stimuli/spore_stims/simple_16_A_b.gif","images/stimuli/spore_stims/simple_16_B_b.gif","","","","","2","simple_similar","images/stimuli/spore_stims/simple_16_B_b.gif","right","","","","",""
"","null","html-keyboard-response","52","140168","0.0-14.0-0.4","SS1613081787879","","","null","","","","","<p><img src= images/blank.png width =""200"" height = ""200"" style = ""float:right""></p><p><img src=images/blank.png width =""800"" height = ""200""></p>","","","","","","","","","","","",""
"","800.3050000043004","sequential-stimulus-presentation","53","141785","0.0-14.0-1.4","SS1613081787879","trial","","40","800","1600.3050000043004","images/stimuli/spore_stims/simple_16_A_b.gif","images/stimuli/spore_stims/simple_16_B_b.gif","","","","","2","simple_similar","images/stimuli/spore_stims/simple_16_B_b.gif","right","","","","",""
"","null","html-keyboard-response","54","142976","0.0-14.0-0.5","SS1613081787879","","","null","","","","","<p><img src= images/blank.png width =""200"" height = ""200"" style = ""float:right""></p><p><img src=images/blank.png width =""800"" height = ""200""></p>","","","","","","","","","","","",""
"","1284.7949999995762","sequential-stimulus-presentation","55","145081","0.0-14.0-1.5","SS1613081787879","trial","","40","800","2084.7949999995762","images/stimuli/spore_stims/simple_16_A_b.gif","images/stimuli/spore_stims/simple_16_B_b.gif","","","","","2","simple_similar","images/stimuli/spore_stims/simple_16_B_b.gif","right","","","","",""
"","null","html-keyboard-response","56","146143","0.0-14.0-0.6","SS1613081787879","","","null","","","","","<p><img src= images/blank.png width =""200"" height = ""200"" style = ""float:right""></p><p><img src=images/blank.png width =""800"" height = ""200""></p>","","","","","","","","","","","",""
"","3982.219999998051","sequential-stimulus-presentation","57","150933","0.0-14.0-1.6","SS1613081787879","trial","","40","800","4782.219999998051","images/stimuli/spore_stims/simple_16_A_b.gif","images/stimuli/spore_stims/simple_16_B_b.gif","","","","","2","simple_similar","images/stimuli/spore_stims/simple_16_A_b.gif","left","","","","",""
"","null","html-keyboard-response","58","151884","0.0-14.0-0.7","SS1613081787879","","","null","","","","","<p><img src= images/blank.png width =""200"" height = ""200"" style = ""float:right""></p><p><img src=images/blank.png width =""800"" height = ""200""></p>","","","","","","","","","","","",""
"","395.3350000010687","sequential-stimulus-presentation","59","153101","0.0-14.0-1.7","SS1613081787879","trial","","40","800","1195.3350000010687","images/stimuli/spore_stims/simple_16_A_b.gif","images/stimuli/spore_stims/simple_16_B_b.gif","","","","","2","simple_similar","images/stimuli/spore_stims/simple_16_B_b.gif","right","","","","",""
"","1003.8550000026589","html-keyboard-response","60","154109","0.0-15.0","SS1613081787879","pref_question","","50","","","","","<video width ='960' height = '540' style='padding-top:8%' autoplay muted><source src='images/stimuli/wall_pref.mp4' type='video/mp4'></video>","2","middle","45%","2","","","","","","","",""
"","4479.349999994156","sequential-stimulus-presentation","61","159397","0.0-16.0","SS1613081787879","pref_reveal","","40","800","5279.349999994156","null","null","","","","","2","","","","novel","","","",""
"","null","html-keyboard-response","62","160216","0.0-17.0-0.0","SS1613081787879","","","null","","","","","<p><img src= images/blank.png width =""200"" height = ""200"" style = ""float:right""></p><p><img src=images/blank.png width =""800"" height = ""200""></p>","","","","","","","","","","","",""
"","3566.2999999985914","sequential-stimulus-presentation","63","164598","0.0-17.0-1.0","SS1613081787879","trial","","40","800","4366.299999998591","images/stimuli/spore_stims/simple_10_A_c.gif","images/stimuli/spore_stims/simple_10_B_c.gif","","","","","3","simple_similar","images/stimuli/spore_stims/simple_10_B_c.gif","left","","","","",""
"","null","html-keyboard-response","64","165573","0.0-17.0-0.1","SS1613081787879","","","null","","","","","<p><img src= images/blank.png width =""200"" height = ""200"" style = ""float:right""></p><p><img src=images/blank.png width =""800"" height = ""200""></p>","","","","","","","","","","","",""
"","891.459999998915","sequential-stimulus-presentation","65","167285","0.0-17.0-1.1","SS1613081787879","trial","","40","800","1691.459999998915","images/stimuli/spore_stims/simple_10_A_c.gif","images/stimuli/spore_stims/simple_10_B_c.gif","","","","","3","simple_similar","images/stimuli/spore_stims/simple_10_B_c.gif","left","","","","",""
"","null","html-keyboard-response","66","168304","0.0-17.0-0.2","SS1613081787879","","","null","","","","","<p><img src= images/blank.png width =""200"" height = ""200"" style = ""float:right""></p><p><img src=images/blank.png width =""800"" height = ""200""></p>","","","","","","","","","","","",""
"","875.3100000030827","sequential-stimulus-presentation","67","169989","0.0-17.0-1.2","SS1613081787879","trial","","40","800","1675.3100000030827","images/stimuli/spore_stims/simple_10_A_c.gif","images/stimuli/spore_stims/simple_10_B_c.gif","","","","","3","simple_similar","images/stimuli/spore_stims/simple_10_B_c.gif","left","","","","",""
"","null","html-keyboard-response","68","171030","0.0-17.0-0.3","SS1613081787879","","","null","","","","","<p><img src= images/blank.png width =""200"" height = ""200"" style = ""float:right""></p><p><img src=images/blank.png width =""800"" height = ""200""></p>","","","","","","","","","","","",""
"","754.8600000009174","sequential-stimulus-presentation","69","172605","0.0-17.0-1.3","SS1613081787879","trial","","40","800","1554.8600000009174","images/stimuli/spore_stims/simple_10_A_c.gif","images/stimuli/spore_stims/simple_10_B_c.gif","","","","","3","simple_similar","images/stimuli/spore_stims/simple_10_B_c.gif","left","","","","",""
"","null","html-keyboard-response","70","173671","0.0-17.0-0.4","SS1613081787879","","","null","","","","","<p><img src= images/blank.png width =""200"" height = ""200"" style = ""float:right""></p><p><img src=images/blank.png width =""800"" height = ""200""></p>","","","","","","","","","","","",""
"","1309.014999998908","sequential-stimulus-presentation","71","175789","0.0-17.0-1.4","SS1613081787879","trial","","40","800","2109.014999998908","images/stimuli/spore_stims/simple_10_A_c.gif","images/stimuli/spore_stims/simple_10_B_c.gif","","","","","3","simple_similar","images/stimuli/spore_stims/simple_10_A_c.gif","middle","","","","",""
"","null","html-keyboard-response","72","176687","0.0-17.0-0.5","SS1613081787879","","","null","","","","","<p><img src= images/blank.png width =""200"" height = ""200"" style = ""float:right""></p><p><img src=images/blank.png width =""800"" height = ""200""></p>","","","","","","","","","","","",""
"","675.4999999975553","sequential-stimulus-presentation","73","178177","0.0-17.0-1.5","SS1613081787879","trial","","40","800","1475.4999999975553","images/stimuli/spore_stims/simple_10_A_c.gif","images/stimuli/spore_stims/simple_10_B_c.gif","","","","","3","simple_similar","images/stimuli/spore_stims/simple_10_B_c.gif","left","","","","",""
"","null","html-keyboard-response","74","179284","0.0-17.0-0.6","SS1613081787879","","","null","","","","","<p><img src= images/blank.png width =""200"" height = ""200"" style = ""float:right""></p><p><img src=images/blank.png width =""800"" height = ""200""></p>","","","","","","","","","","","",""
"","559.8049999971408","sequential-stimulus-presentation","75","180661","0.0-17.0-1.6","SS1613081787879","trial","","40","800","1359.8049999971408","images/stimuli/spore_stims/simple_10_A_c.gif","images/stimuli/spore_stims/simple_10_B_c.gif","","","","","3","simple_similar","images/stimuli/spore_stims/simple_10_B_c.gif","left","","","","",""
"","null","html-keyboard-response","76","181659","0.0-17.0-0.7","SS1613081787879","","","null","","","","","<p><img src= images/blank.png width =""200"" height = ""200"" style = ""float:right""></p><p><img src=images/blank.png width =""800"" height = ""200""></p>","","","","","","","","","","","",""
"","569.2500000004657","sequential-stimulus-presentation","77","183037","0.0-17.0-1.7","SS1613081787879","trial","","40","800","1369.2500000004657","images/stimuli/spore_stims/simple_10_A_c.gif","images/stimuli/spore_stims/simple_10_B_c.gif","","","","","3","simple_similar","images/stimuli/spore_stims/simple_10_B_c.gif","left","","","","",""
"","2144.509999998263","html-keyboard-response","78","185184","0.0-18.0","SS1613081787879","pref_question","","50","","","","","<video width ='960' height = '540' style='padding-top:8%' autoplay muted><source src='images/stimuli/wall_pref.mp4' type='video/mp4'></video>","2","middle","45%","3","","","","","","","",""
"","3258.4849999984726","sequential-stimulus-presentation","79","189250","0.0-19.0","SS1613081787879","pref_reveal","","40","800","4058.4849999984726","null","null","","","","","3","","","","deviant","","","",""
"","null","html-keyboard-response","80","190375","0.0-20.0-0.0","SS1613081787879","","","null","","","","","<p><img src= images/blank.png width =""200"" height = ""200"" style = ""float:right""></p><p><img src=images/blank.png width =""800"" height = ""200""></p>","","","","","","","","","","","",""
"","112.13000000134343","sequential-stimulus-presentation","81","191305","0.0-20.0-1.0","SS1613081787879","trial","","40","800","912.1300000013434","images/stimuli/spore_stims/simple_02_B_d.gif","images/stimuli/spore_stims/simple_02_A_d.gif","","","","","4","simple_similar","images/stimuli/spore_stims/simple_02_A_d.gif","right","","","","",""
"","null","html-keyboard-response","82","192313","0.0-20.0-0.1","SS1613081787879","","","null","","","","","<p><img src= images/blank.png width =""200"" height = ""200"" style = ""float:right""></p><p><img src=images/blank.png width =""800"" height = ""200""></p>","","","","","","","","","","","",""
"","2546.669999996084","sequential-stimulus-presentation","83","195672","0.0-20.0-1.1","SS1613081787879","trial","","40","800","3346.669999996084","images/stimuli/spore_stims/simple_02_B_d.gif","images/stimuli/spore_stims/simple_02_A_d.gif","","","","","4","simple_similar","images/stimuli/spore_stims/simple_02_A_d.gif","right","","","","",""
"","null","html-keyboard-response","84","196907","0.0-20.0-0.2","SS1613081787879","","","null","","","","","<p><img src= images/blank.png width =""200"" height = ""200"" style = ""float:right""></p><p><img src=images/blank.png width =""800"" height = ""200""></p>","","","","","","","","","","","",""
"","2091.3999999975204","sequential-stimulus-presentation","85","199818","0.0-20.0-1.2","SS1613081787879","trial","","40","800","2891.3999999975204","images/stimuli/spore_stims/simple_02_B_d.gif","images/stimuli/spore_stims/simple_02_A_d.gif","","","","","4","simple_similar","images/stimuli/spore_stims/simple_02_A_d.gif","right","","","","",""
"","null","html-keyboard-response","86","201074","0.0-20.0-0.3","SS1613081787879","","","null","","","","","<p><img src= images/blank.png width =""200"" height = ""200"" style = ""float:right""></p><p><img src=images/blank.png width =""800"" height = ""200""></p>","","","","","","","","","","","",""
"","1441.3199999980861","sequential-stimulus-presentation","87","203320","0.0-20.0-1.3","SS1613081787879","trial","","40","800","2241.319999998086","images/stimuli/spore_stims/simple_02_B_d.gif","images/stimuli/spore_stims/simple_02_A_d.gif","","","","","4","simple_similar","images/stimuli/spore_stims/simple_02_A_d.gif","right","","","","",""
"","null","html-keyboard-response","88","204532","0.0-20.0-0.4","SS1613081787879","","","null","","","","","<p><img src= images/blank.png width =""200"" height = ""200"" style = ""float:right""></p><p><img src=images/blank.png width =""800"" height = ""200""></p>","","","","","","","","","","","",""
"","656.6400000010617","sequential-stimulus-presentation","89","205993","0.0-20.0-1.4","SS1613081787879","trial","","40","800","1456.6400000010617","images/stimuli/spore_stims/simple_02_B_d.gif","images/stimuli/spore_stims/simple_02_A_d.gif","","","","","4","simple_similar","images/stimuli/spore_stims/simple_02_A_d.gif","right","","","","",""
"","null","html-keyboard-response","90","207084","0.0-20.0-0.5","SS1613081787879","","","null","","","","","<p><img src= images/blank.png width =""200"" height = ""200"" style = ""float:right""></p><p><img src=images/blank.png width =""800"" height = ""200""></p>","","","","","","","","","","","",""
"","1154.6949999974458","sequential-stimulus-presentation","91","209056","0.0-20.0-1.5","SS1613081787879","trial","","40","800","1954.6949999974458","images/stimuli/spore_stims/simple_02_B_d.gif","images/stimuli/spore_stims/simple_02_A_d.gif","","","","","4","simple_similar","images/stimuli/spore_stims/simple_02_A_d.gif","right","","","","",""
"","null","html-keyboard-response","92","209903","0.0-20.0-0.6","SS1613081787879","","","null","","","","","<p><img src= images/blank.png width =""200"" height = ""200"" style = ""float:right""></p><p><img src=images/blank.png width =""800"" height = ""200""></p>","","","","","","","","","","","",""
"","3012.125000001106","sequential-stimulus-presentation","93","213733","0.0-20.0-1.6","SS1613081787879","trial","","40","800","3812.125000001106","images/stimuli/spore_stims/simple_02_B_d.gif","images/stimuli/spore_stims/simple_02_A_d.gif","","","","","4","simple_similar","images/stimuli/spore_stims/simple_02_B_d.gif","left","","","","",""
"","null","html-keyboard-response","94","214968","0.0-20.0-0.7","SS1613081787879","","","null","","","","","<p><img src= images/blank.png width =""200"" height = ""200"" style = ""float:right""></p><p><img src=images/blank.png width =""800"" height = ""200""></p>","","","","","","","","","","","",""
"","1346.559999998135","sequential-stimulus-presentation","95","217132","0.0-20.0-1.7","SS1613081787879","trial","","40","800","2146.559999998135","images/stimuli/spore_stims/simple_02_B_d.gif","images/stimuli/spore_stims/simple_02_A_d.gif","","","","","4","simple_similar","images/stimuli/spore_stims/simple_02_A_d.gif","right","","","","",""
"","2405.1150000013877","html-keyboard-response","96","219540","0.0-21.0","SS1613081787879","pref_question","","49","","","","","<video width ='960' height = '540' style='padding-top:8%' autoplay muted><source src='images/stimuli/wall_pref.mp4' type='video/mp4'></video>","1","left","25%","4","","","","","","","",""
"","2355.390000004263","sequential-stimulus-presentation","97","222700","0.0-22.0","SS1613081787879","pref_reveal","","40","800","3155.390000004263","null","null","","","","","4","","","","deviant","","","",""
"","null","html-keyboard-response","98","223511","0.0-23.0-0.0","SS1613081787879","","","null","","","","","<p><img src= images/blank.png width =""200"" height = ""200"" style = ""float:right""></p><p><img src=images/blank.png width =""800"" height = ""200""></p>","","","","","","","","","","","",""
"","5012.76499999949","sequential-stimulus-presentation","99","229332","0.0-23.0-1.0","SS1613081787879","trial","","40","800","5812.76499999949","images/stimuli/spore_stims/simple_12_B_a.gif","images/stimuli/spore_stims/simple_03_B_a.gif","","","","","5","simple_dissimilar","images/stimuli/spore_stims/simple_03_B_a.gif","middle","","","","",""
"","null","html-keyboard-response","100","230456","0.0-23.0-0.1","SS1613081787879","","","null","","","","","<p><img src= images/blank.png width =""200"" height = ""200"" style = ""float:right""></p><p><img src=images/blank.png width =""800"" height = ""200""></p>","","","","","","","","","","","",""
"","1497.1649999934016","sequential-stimulus-presentation","101","232772","0.0-23.0-1.1","SS1613081787879","trial","","40","800","2297.1649999934016","images/stimuli/spore_stims/simple_12_B_a.gif","images/stimuli/spore_stims/simple_03_B_a.gif","","","","","5","simple_dissimilar","images/stimuli/spore_stims/simple_03_B_a.gif","middle","","","","",""
"","null","html-keyboard-response","102","233634","0.0-23.0-0.2","SS1613081787879","","","null","","","","","<p><img src= images/blank.png width =""200"" height = ""200"" style = ""float:right""></p><p><img src=images/blank.png width =""800"" height = ""200""></p>","","","","","","","","","","","",""
"","2522.785000001022","sequential-stimulus-presentation","103","236964","0.0-23.0-1.2","SS1613081787879","trial","","40","800","3322.785000001022","images/stimuli/spore_stims/simple_12_B_a.gif","images/stimuli/spore_stims/simple_03_B_a.gif","","","","","5","simple_dissimilar","images/stimuli/spore_stims/simple_12_B_a.gif","left","","","","",""
"","null","html-keyboard-response","104","238201","0.0-23.0-0.3","SS1613081787879","","","null","","","","","<p><img src= images/blank.png width =""200"" height = ""200"" style = ""float:right""></p><p><img src=images/blank.png width =""800"" height = ""200""></p>","","","","","","","","","","","",""
"","841.3849999997183","sequential-stimulus-presentation","105","239877","0.0-23.0-1.3","SS1613081787879","trial","","40","800","1641.3849999997183","images/stimuli/spore_stims/simple_12_B_a.gif","images/stimuli/spore_stims/simple_03_B_a.gif","","","","","5","simple_dissimilar","images/stimuli/spore_stims/simple_03_B_a.gif","middle","","","","",""
"","null","html-keyboard-response","106","241161","0.0-23.0-0.4","SS1613081787879","","","null","","","","","<p><img src= images/blank.png width =""200"" height = ""200"" style = ""float:right""></p><p><img src=images/blank.png width =""800"" height = ""200""></p>","","","","","","","","","","","",""
"","499.1599999993923","sequential-stimulus-presentation","107","242465","0.0-23.0-1.4","SS1613081787879","trial","","40","800","1299.1599999993923","images/stimuli/spore_stims/simple_12_B_a.gif","images/stimuli/spore_stims/simple_03_B_a.gif","","","","","5","simple_dissimilar","images/stimuli/spore_stims/simple_03_B_a.gif","middle","","","","",""
"","null","html-keyboard-response","108","243287","0.0-23.0-0.5","SS1613081787879","","","null","","","","","<p><img src= images/blank.png width =""200"" height = ""200"" style = ""float:right""></p><p><img src=images/blank.png width =""800"" height = ""200""></p>","","","","","","","","","","","",""
"","73.93500000034692","sequential-stimulus-presentation","109","244176","0.0-23.0-1.5","SS1613081787879","trial","","40","800","873.9350000003469","images/stimuli/spore_stims/simple_12_B_a.gif","images/stimuli/spore_stims/simple_03_B_a.gif","","","","","5","simple_dissimilar","images/stimuli/spore_stims/simple_03_B_a.gif","middle","","","","",""
"","null","html-keyboard-response","110","245335","0.0-23.0-0.6","SS1613081787879","","","null","","","","","<p><img src= images/blank.png width =""200"" height = ""200"" style = ""float:right""></p><p><img src=images/blank.png width =""800"" height = ""200""></p>","","","","","","","","","","","",""
"","743.0249999961234","sequential-stimulus-presentation","111","246888","0.0-23.0-1.6","SS1613081787879","trial","","40","800","1543.0249999961234","images/stimuli/spore_stims/simple_12_B_a.gif","images/stimuli/spore_stims/simple_03_B_a.gif","","","","","5","simple_dissimilar","images/stimuli/spore_stims/simple_03_B_a.gif","middle","","","","",""
"","null","html-keyboard-response","112","247887","0.0-23.0-0.7","SS1613081787879","","","null","","","","","<p><img src= images/blank.png width =""200"" height = ""200"" style = ""float:right""></p><p><img src=images/blank.png width =""800"" height = ""200""></p>","","","","","","","","","","","",""
"","891.6399999943678","sequential-stimulus-presentation","113","249608","0.0-23.0-1.7","SS1613081787879","trial","","40","800","1691.6399999943678","images/stimuli/spore_stims/simple_12_B_a.gif","images/stimuli/spore_stims/simple_03_B_a.gif","","","","","5","simple_dissimilar","images/stimuli/spore_stims/simple_03_B_a.gif","middle","","","","",""
"","2134.59999999759","html-keyboard-response","114","251746","0.0-24.0","SS1613081787879","pref_question","","51","","","","","<video width ='960' height = '540' style='padding-top:8%' autoplay muted><source src='images/stimuli/wall_pref.mp4' type='video/mp4'></video>","3","right","66%","5","","","","","","","",""
"","3334.1849999997066","sequential-stimulus-presentation","115","255904","0.0-25.0","SS1613081787879","pref_reveal","","40","800","4134.184999999707","null","null","","","","","5","","","","novel","","","",""
"","null","html-keyboard-response","116","256884","0.0-26.0-0.0","SS1613081787879","","","null","","","","","<p><img src= images/blank.png width =""200"" height = ""200"" style = ""float:right""></p><p><img src=images/blank.png width =""800"" height = ""200""></p>","","","","","","","","","","","",""
"","3168.9949999999953","sequential-stimulus-presentation","117","260872","0.0-26.0-1.0","SS1613081787879","trial","","40","800","3968.9949999999953","images/stimuli/spore_stims/complex_16_B_c.gif","images/stimuli/spore_stims/complex_16_A_c.gif","","","","","6","complex_similar","images/stimuli/spore_stims/complex_16_A_c.gif","left","","","","",""
"","null","html-keyboard-response","118","261918","0.0-26.0-0.1","SS1613081787879","","","null","","","","","<p><img src= images/blank.png width =""200"" height = ""200"" style = ""float:right""></p><p><img src=images/blank.png width =""800"" height = ""200""></p>","","","","","","","","","","","",""
"","1445.705000005546","sequential-stimulus-presentation","119","264184","0.0-26.0-1.1","SS1613081787879","trial","","40","800","2245.705000005546","images/stimuli/spore_stims/complex_16_B_c.gif","images/stimuli/spore_stims/complex_16_A_c.gif","","","","","6","complex_similar","images/stimuli/spore_stims/complex_16_A_c.gif","left","","","","",""
"","null","html-keyboard-response","120","265137","0.0-26.0-0.2","SS1613081787879","","","null","","","","","<p><img src= images/blank.png width =""200"" height = ""200"" style = ""float:right""></p><p><img src=images/blank.png width =""800"" height = ""200""></p>","","","","","","","","","","","",""
"","1121.305000000575","sequential-stimulus-presentation","121","267068","0.0-26.0-1.2","SS1613081787879","trial","","40","800","1921.305000000575","images/stimuli/spore_stims/complex_16_B_c.gif","images/stimuli/spore_stims/complex_16_A_c.gif","","","","","6","complex_similar","images/stimuli/spore_stims/complex_16_A_c.gif","left","","","","",""
"","null","html-keyboard-response","122","267922","0.0-26.0-0.3","SS1613081787879","","","null","","","","","<p><img src= images/blank.png width =""200"" height = ""200"" style = ""float:right""></p><p><img src=images/blank.png width =""800"" height = ""200""></p>","","","","","","","","","","","",""
"","843.7699999994948","sequential-stimulus-presentation","123","269580","0.0-26.0-1.3","SS1613081787879","trial","","40","800","1643.7699999994948","images/stimuli/spore_stims/complex_16_B_c.gif","images/stimuli/spore_stims/complex_16_A_c.gif","","","","","6","complex_similar","images/stimuli/spore_stims/complex_16_A_c.gif","left","","","","",""
"","null","html-keyboard-response","124","270420","0.0-26.0-0.4","SS1613081787879","","","null","","","","","<p><img src= images/blank.png width =""200"" height = ""200"" style = ""float:right""></p><p><img src=images/blank.png width =""800"" height = ""200""></p>","","","","","","","","","","","",""
"","893.420000000333","sequential-stimulus-presentation","125","272132","0.0-26.0-1.4","SS1613081787879","trial","","40","800","1693.420000000333","images/stimuli/spore_stims/complex_16_B_c.gif","images/stimuli/spore_stims/complex_16_A_c.gif","","","","","6","complex_similar","images/stimuli/spore_stims/complex_16_A_c.gif","left","","","","",""
"","null","html-keyboard-response","126","273363","0.0-26.0-0.5","SS1613081787879","","","null","","","","","<p><img src= images/blank.png width =""200"" height = ""200"" style = ""float:right""></p><p><img src=images/blank.png width =""800"" height = ""200""></p>","","","","","","","","","","","",""
"","1437.9250000056345","sequential-stimulus-presentation","127","275621","0.0-26.0-1.5","SS1613081787879","trial","","40","800","2237.9250000056345","images/stimuli/spore_stims/complex_16_B_c.gif","images/stimuli/spore_stims/complex_16_A_c.gif","","","","","6","complex_similar","images/stimuli/spore_stims/complex_16_B_c.gif","right","","","","",""
"","null","html-keyboard-response","128","276817","0.0-26.0-0.6","SS1613081787879","","","null","","","","","<p><img src= images/blank.png width =""200"" height = ""200"" style = ""float:right""></p><p><img src=images/blank.png width =""800"" height = ""200""></p>","","","","","","","","","","","",""
"","957.1549999964191","sequential-stimulus-presentation","129","278580","0.0-26.0-1.6","SS1613081787879","trial","","40","800","1757.154999996419","images/stimuli/spore_stims/complex_16_B_c.gif","images/stimuli/spore_stims/complex_16_A_c.gif","","","","","6","complex_similar","images/stimuli/spore_stims/complex_16_A_c.gif","left","","","","",""
"","null","html-keyboard-response","130","279564","0.0-26.0-0.7","SS1613081787879","","","null","","","","","<p><img src= images/blank.png width =""200"" height = ""200"" style = ""float:right""></p><p><img src=images/blank.png width =""800"" height = ""200""></p>","","","","","","","","","","","",""
"","7045.655000001716","sequential-stimulus-presentation","131","287428","0.0-26.0-1.7","SS1613081787879","trial","","40","800","7845.655000001716","images/stimuli/spore_stims/complex_16_B_c.gif","images/stimuli/spore_stims/complex_16_A_c.gif","","","","","6","complex_similar","images/stimuli/spore_stims/complex_16_A_c.gif","left","","","","",""
"","4163.280000000668","html-keyboard-response","132","291596","0.0-27.0","SS1613081787879","pref_question","","51","","","","","<video width ='960' height = '540' style='padding-top:8%' autoplay muted><source src='images/stimuli/wall_pref.mp4' type='video/mp4'></video>","3","right","66%","6","","","","","","","",""
"","2742.10000000312","sequential-stimulus-presentation","133","295148","0.0-28.0","SS1613081787879","pref_reveal","","40","800","3542.10000000312","null","null","","","","","6","","","","deviant","","","",""
"","null","html-keyboard-response","134","296312","0.0-29.0-0.0","SS1613081787879","","","null","","","","","<p><img src= images/blank.png width =""200"" height = ""200"" style = ""float:right""></p><p><img src=images/blank.png width =""800"" height = ""200""></p>","","","","","","","","","","","",""
"","1561.7700000002515","sequential-stimulus-presentation","135","298704","0.0-29.0-1.0","SS1613081787879","trial","","40","800","2361.7700000002515","images/stimuli/spore_stims/simple_09_B_c.gif","images/stimuli/spore_stims/simple_14_A_d.gif","","","","","7","simple_dissimilar","images/stimuli/spore_stims/simple_14_A_d.gif","right","","","","",""
"","null","html-keyboard-response","136","299936","0.0-29.0-0.1","SS1613081787879","","","null","","","","","<p><img src= images/blank.png width =""200"" height = ""200"" style = ""float:right""></p><p><img src=images/blank.png width =""800"" height = ""200""></p>","","","","","","","","","","","",""
"","1123.1149999948684","sequential-stimulus-presentation","137","301865","0.0-29.0-1.1","SS1613081787879","trial","","40","800","1923.1149999948684","images/stimuli/spore_stims/simple_09_B_c.gif","images/stimuli/spore_stims/simple_14_A_d.gif","","","","","7","simple_dissimilar","images/stimuli/spore_stims/simple_14_A_d.gif","right","","","","",""
"","null","html-keyboard-response","138","302789","0.0-29.0-0.2","SS1613081787879","","","null","","","","","<p><img src= images/blank.png width =""200"" height = ""200"" style = ""float:right""></p><p><img src=images/blank.png width =""800"" height = ""200""></p>","","","","","","","","","","","",""
"","896.4399999968009","sequential-stimulus-presentation","139","304504","0.0-29.0-1.2","SS1613081787879","trial","","40","800","1696.439999996801","images/stimuli/spore_stims/simple_09_B_c.gif","images/stimuli/spore_stims/simple_14_A_d.gif","","","","","7","simple_dissimilar","images/stimuli/spore_stims/simple_14_A_d.gif","right","","","","",""
"","null","html-keyboard-response","140","305751","0.0-29.0-0.3","SS1613081787879","","","null","","","","","<p><img src= images/blank.png width =""200"" height = ""200"" style = ""float:right""></p><p><img src=images/blank.png width =""800"" height = ""200""></p>","","","","","","","","","","","",""
"","1537.625000004482","sequential-stimulus-presentation","141","308104","0.0-29.0-1.3","SS1613081787879","trial","","40","800","2337.625000004482","images/stimuli/spore_stims/simple_09_B_c.gif","images/stimuli/spore_stims/simple_14_A_d.gif","","","","","7","simple_dissimilar","images/stimuli/spore_stims/simple_09_B_c.gif","left","","","","",""
"","null","html-keyboard-response","142","309232","0.0-29.0-0.4","SS1613081787879","","","null","","","","","<p><img src= images/blank.png width =""200"" height = ""200"" style = ""float:right""></p><p><img src=images/blank.png width =""800"" height = ""200""></p>","","","","","","","","","","","",""
"","687.5050000016927","sequential-stimulus-presentation","143","310736","0.0-29.0-1.4","SS1613081787879","trial","","40","800","1487.5050000016927","images/stimuli/spore_stims/simple_09_B_c.gif","images/stimuli/spore_stims/simple_14_A_d.gif","","","","","7","simple_dissimilar","images/stimuli/spore_stims/simple_14_A_d.gif","right","","","","",""
"","null","html-keyboard-response","144","311824","0.0-29.0-0.5","SS1613081787879","","","null","","","","","<p><img src= images/blank.png width =""200"" height = ""200"" style = ""float:right""></p><p><img src=images/blank.png width =""800"" height = ""200""></p>","","","","","","","","","","","",""
"","2581.6450000056648","sequential-stimulus-presentation","145","315224","0.0-29.0-1.5","SS1613081787879","trial","","40","800","3381.6450000056648","images/stimuli/spore_stims/simple_09_B_c.gif","images/stimuli/spore_stims/simple_14_A_d.gif","","","","","7","simple_dissimilar","images/stimuli/spore_stims/simple_14_A_d.gif","right","","","","",""
"","null","html-keyboard-response","146","316257","0.0-29.0-0.6","SS1613081787879","","","null","","","","","<p><img src= images/blank.png width =""200"" height = ""200"" style = ""float:right""></p><p><img src=images/blank.png width =""800"" height = ""200""></p>","","","","","","","","","","","",""
"","749.2549999951734","sequential-stimulus-presentation","147","317824","0.0-29.0-1.6","SS1613081787879","trial","","40","800","1549.2549999951734","images/stimuli/spore_stims/simple_09_B_c.gif","images/stimuli/spore_stims/simple_14_A_d.gif","","","","","7","simple_dissimilar","images/stimuli/spore_stims/simple_14_A_d.gif","right","","","","",""
"","null","html-keyboard-response","148","319073","0.0-29.0-0.7","SS1613081787879","","","null","","","","","<p><img src= images/blank.png width =""200"" height = ""200"" style = ""float:right""></p><p><img src=images/blank.png width =""800"" height = ""200""></p>","","","","","","","","","","","",""
"","779.6999999991385","sequential-stimulus-presentation","149","320667","0.0-29.0-1.7","SS1613081787879","trial","","40","800","1579.6999999991385","images/stimuli/spore_stims/simple_09_B_c.gif","images/stimuli/spore_stims/simple_14_A_d.gif","","","","","7","simple_dissimilar","images/stimuli/spore_stims/simple_14_A_d.gif","right","","","","",""
"","2121.4449999970384","html-keyboard-response","150","322802","0.0-30.0","SS1613081787879","pref_question","","50","","","","","<video width ='960' height = '540' style='padding-top:8%' autoplay muted><source src='images/stimuli/wall_pref.mp4' type='video/mp4'></video>","2","middle","45%","7","","","","","","","",""
"","4957.249999999476","sequential-stimulus-presentation","151","328580","0.0-31.0","SS1613081787879","pref_reveal","","40","800","5757.249999999476","null","null","","","","","7","","","","novel","","","",""
"","null","html-keyboard-response","152","329735","0.0-32.0-0.0","SS1613081787879","","","null","","","","","<p><img src= images/blank.png width =""200"" height = ""200"" style = ""float:right""></p><p><img src=images/blank.png width =""800"" height = ""200""></p>","","","","","","","","","","","",""
"","3606.0600000055274","sequential-stimulus-presentation","153","334149","0.0-32.0-1.0","SS1613081787879","trial","","40","800","4406.060000005527","images/stimuli/spore_stims/complex_02_A_b.gif","images/stimuli/spore_stims/complex_02_B_b.gif","","","","","8","complex_similar","images/stimuli/spore_stims/complex_02_B_b.gif","middle","","","","",""
"","null","html-keyboard-response","154","335426","0.0-32.0-0.1","SS1613081787879","","","null","","","","","<p><img src= images/blank.png width =""200"" height = ""200"" style = ""float:right""></p><p><img src=images/blank.png width =""800"" height = ""200""></p>","","","","","","","","","","","",""
"","1044.9250000019674","sequential-stimulus-presentation","155","337292","0.0-32.0-1.1","SS1613081787879","trial","","40","800","1844.9250000019674","images/stimuli/spore_stims/complex_02_A_b.gif","images/stimuli/spore_stims/complex_02_B_b.gif","","","","","8","complex_similar","images/stimuli/spore_stims/complex_02_B_b.gif","middle","","","","",""
"","null","html-keyboard-response","156","338293","0.0-32.0-0.2","SS1613081787879","","","null","","","","","<p><img src= images/blank.png width =""200"" height = ""200"" style = ""float:right""></p><p><img src=images/blank.png width =""800"" height = ""200""></p>","","","","","","","","","","","",""
"","510.6900000027963","sequential-stimulus-presentation","157","339636","0.0-32.0-1.2","SS1613081787879","trial","","40","800","1310.6900000027963","images/stimuli/spore_stims/complex_02_A_b.gif","images/stimuli/spore_stims/complex_02_B_b.gif","","","","","8","complex_similar","images/stimuli/spore_stims/complex_02_B_b.gif","middle","","","","",""
"","null","html-keyboard-response","158","340618","0.0-32.0-0.3","SS1613081787879","","","null","","","","","<p><img src= images/blank.png width =""200"" height = ""200"" style = ""float:right""></p><p><img src=images/blank.png width =""800"" height = ""200""></p>","","","","","","","","","","","",""
"","537.1300000042538","sequential-stimulus-presentation","159","341972","0.0-32.0-1.3","SS1613081787879","trial","","40","800","1337.1300000042538","images/stimuli/spore_stims/complex_02_A_b.gif","images/stimuli/spore_stims/complex_02_B_b.gif","","","","","8","complex_similar","images/stimuli/spore_stims/complex_02_B_b.gif","middle","","","","",""
"","null","html-keyboard-response","160","342852","0.0-32.0-0.4","SS1613081787879","","","null","","","","","<p><img src= images/blank.png width =""200"" height = ""200"" style = ""float:right""></p><p><img src=images/blank.png width =""800"" height = ""200""></p>","","","","","","","","","","","",""
"","702.9400000028545","sequential-stimulus-presentation","161","344365","0.0-32.0-1.4","SS1613081787879","trial","","40","800","1502.9400000028545","images/stimuli/spore_stims/complex_02_A_b.gif","images/stimuli/spore_stims/complex_02_B_b.gif","","","","","8","complex_similar","images/stimuli/spore_stims/complex_02_A_b.gif","right","","","","",""
"","null","html-keyboard-response","162","345305","0.0-32.0-0.5","SS1613081787879","","","null","","","","","<p><img src= images/blank.png width =""200"" height = ""200"" style = ""float:right""></p><p><img src=images/blank.png width =""800"" height = ""200""></p>","","","","","","","","","","","",""
"","666.3750000006985","sequential-stimulus-presentation","163","346788","0.0-32.0-1.5","SS1613081787879","trial","","40","800","1466.3750000006985","images/stimuli/spore_stims/complex_02_A_b.gif","images/stimuli/spore_stims/complex_02_B_b.gif","","","","","8","complex_similar","images/stimuli/spore_stims/complex_02_B_b.gif","middle","","","","",""
"","null","html-keyboard-response","164","347628","0.0-32.0-0.6","SS1613081787879","","","null","","","","","<p><img src= images/blank.png width =""200"" height = ""200"" style = ""float:right""></p><p><img src=images/blank.png width =""800"" height = ""200""></p>","","","","","","","","","","","",""
"","998.33000000217","sequential-stimulus-presentation","165","349444","0.0-32.0-1.6","SS1613081787879","trial","","40","800","1798.33000000217","images/stimuli/spore_stims/complex_02_A_b.gif","images/stimuli/spore_stims/complex_02_B_b.gif","","","","","8","complex_similar","images/stimuli/spore_stims/complex_02_B_b.gif","middle","","","","",""
"","null","html-keyboard-response","166","350494","0.0-32.0-0.7","SS1613081787879","","","null","","","","","<p><img src= images/blank.png width =""200"" height = ""200"" style = ""float:right""></p><p><img src=images/blank.png width =""800"" height = ""200""></p>","","","","","","","","","","","",""
"","616.119999998773","sequential-stimulus-presentation","167","351940","0.0-32.0-1.7","SS1613081787879","trial","","40","800","1416.119999998773","images/stimuli/spore_stims/complex_02_A_b.gif","images/stimuli/spore_stims/complex_02_B_b.gif","","","","","8","complex_similar","images/stimuli/spore_stims/complex_02_B_b.gif","middle","","","","",""
"","1851.8800000019837","html-keyboard-response","168","353796","0.0-33.0","SS1613081787879","pref_question","","49","","","","","<video width ='960' height = '540' style='padding-top:8%' autoplay muted><source src='images/stimuli/wall_pref.mp4' type='video/mp4'></video>","1","left","25%","8","","","","","","","",""
"","4037.254999995639","sequential-stimulus-presentation","169","358652","0.0-34.0","SS1613081787879","pref_reveal","","40","800","4837.254999995639","null","null","","","","","8","","","","novel","","","",""
"","null","html-keyboard-response","170","359886","0.0-35.0-0.0","SS1613081787879","","","null","","","","","<p><img src= images/blank.png width =""200"" height = ""200"" style = ""float:right""></p><p><img src=images/blank.png width =""800"" height = ""200""></p>","","","","","","","","","","","",""
"","1801.9199999980628","sequential-stimulus-presentation","171","362504","0.0-35.0-1.0","SS1613081787879","trial","","40","800","2601.919999998063","images/stimuli/spore_stims/simple_14_A_a.gif","images/stimuli/spore_stims/simple_14_B_a.gif","","","","","9","simple_similar","images/stimuli/spore_stims/simple_14_B_a.gif","left","","","","",""
"","null","html-keyboard-response","172","363631","0.0-35.0-0.1","SS1613081787879","","","null","","","","","<p><img src= images/blank.png width =""200"" height = ""200"" style = ""float:right""></p><p><img src=images/blank.png width =""800"" height = ""200""></p>","","","","","","","","","","","",""
"","1045.9149999951478","sequential-stimulus-presentation","173","365496","0.0-35.0-1.1","SS1613081787879","trial","","40","800","1845.9149999951478","images/stimuli/spore_stims/simple_14_A_a.gif","images/stimuli/spore_stims/simple_14_B_a.gif","","","","","9","simple_similar","images/stimuli/spore_stims/simple_14_B_a.gif","left","","","","",""
"","null","html-keyboard-response","174","366337","0.0-35.0-0.2","SS1613081787879","","","null","","","","","<p><img src= images/blank.png width =""200"" height = ""200"" style = ""float:right""></p><p><img src=images/blank.png width =""800"" height = ""200""></p>","","","","","","","","","","","",""
"","860.6149999977788","sequential-stimulus-presentation","175","368024","0.0-35.0-1.2","SS1613081787879","trial","","40","800","1660.6149999977788","images/stimuli/spore_stims/simple_14_A_a.gif","images/stimuli/spore_stims/simple_14_B_a.gif","","","","","9","simple_similar","images/stimuli/spore_stims/simple_14_B_a.gif","left","","","","",""
"","null","html-keyboard-response","176","369250","0.0-35.0-0.3","SS1613081787879","","","null","","","","","<p><img src= images/blank.png width =""200"" height = ""200"" style = ""float:right""></p><p><img src=images/blank.png width =""800"" height = ""200""></p>","","","","","","","","","","","",""
"","594.5899999933317","sequential-stimulus-presentation","177","370665","0.0-35.0-1.3","SS1613081787879","trial","","40","800","1394.5899999933317","images/stimuli/spore_stims/simple_14_A_a.gif","images/stimuli/spore_stims/simple_14_B_a.gif","","","","","9","simple_similar","images/stimuli/spore_stims/simple_14_A_a.gif","right","","","","",""
"","null","html-keyboard-response","178","371714","0.0-35.0-0.4","SS1613081787879","","","null","","","","","<p><img src= images/blank.png width =""200"" height = ""200"" style = ""float:right""></p><p><img src=images/blank.png width =""800"" height = ""200""></p>","","","","","","","","","","","",""
"","810.8449999999721","sequential-stimulus-presentation","179","373344","0.0-35.0-1.4","SS1613081787879","trial","","40","800","1610.844999999972","images/stimuli/spore_stims/simple_14_A_a.gif","images/stimuli/spore_stims/simple_14_B_a.gif","","","","","9","simple_similar","images/stimuli/spore_stims/simple_14_B_a.gif","left","","","","",""
"","null","html-keyboard-response","180","374294","0.0-35.0-0.5","SS1613081787879","","","null","","","","","<p><img src= images/blank.png width =""200"" height = ""200"" style = ""float:right""></p><p><img src=images/blank.png width =""800"" height = ""200""></p>","","","","","","","","","","","",""
"","713.9099999985774","sequential-stimulus-presentation","181","375816","0.0-35.0-1.5","SS1613081787879","trial","","40","800","1513.9099999985774","images/stimuli/spore_stims/simple_14_A_a.gif","images/stimuli/spore_stims/simple_14_B_a.gif","","","","","9","simple_similar","images/stimuli/spore_stims/simple_14_B_a.gif","left","","","","",""
"","null","html-keyboard-response","182","376849","0.0-35.0-0.6","SS1613081787879","","","null","","","","","<p><img src= images/blank.png width =""200"" height = ""200"" style = ""float:right""></p><p><img src=images/blank.png width =""800"" height = ""200""></p>","","","","","","","","","","","",""
"","840.0550000005751","sequential-stimulus-presentation","183","378496","0.0-35.0-1.6","SS1613081787879","trial","","40","800","1640.055000000575","images/stimuli/spore_stims/simple_14_A_a.gif","images/stimuli/spore_stims/simple_14_B_a.gif","","","","","9","simple_similar","images/stimuli/spore_stims/simple_14_B_a.gif","left","","","","",""
"","null","html-keyboard-response","184","379445","0.0-35.0-0.7","SS1613081787879","","","null","","","","","<p><img src= images/blank.png width =""200"" height = ""200"" style = ""float:right""></p><p><img src=images/blank.png width =""800"" height = ""200""></p>","","","","","","","","","","","",""
"","796.3500000041677","sequential-stimulus-presentation","185","381056","0.0-35.0-1.7","SS1613081787879","trial","","40","800","1596.3500000041677","images/stimuli/spore_stims/simple_14_A_a.gif","images/stimuli/spore_stims/simple_14_B_a.gif","","","","","9","simple_similar","images/stimuli/spore_stims/simple_14_B_a.gif","left","","","","",""
"","2274.9750000002678","html-keyboard-response","186","383336","0.0-36.0","SS1613081787879","pref_question","","51","","","","","<video width ='960' height = '540' style='padding-top:8%' autoplay muted><source src='images/stimuli/wall_pref.mp4' type='video/mp4'></video>","3","right","66%","9","","","","","","","",""
"","1241.7700000005425","sequential-stimulus-presentation","187","385392","0.0-37.0","SS1613081787879","pref_reveal","","40","800","2041.7700000005425","null","null","","","","","9","","","","deviant","","","",""
"","null","html-keyboard-response","188","386501","0.0-38.0-0.0","SS1613081787879","","","null","","","","","<p><img src= images/blank.png width =""200"" height = ""200"" style = ""float:right""></p><p><img src=images/blank.png width =""800"" height = ""200""></p>","","","","","","","","","","","",""
"","1606.9750000024214","sequential-stimulus-presentation","189","388935","0.0-38.0-1.0","SS1613081787879","trial","","40","800","2406.9750000024214","images/stimuli/spore_stims/simple_13_A_d.gif","images/stimuli/spore_stims/simple_13_B_d.gif","","","","","10","simple_similar","images/stimuli/spore_stims/simple_13_B_d.gif","left","","","","",""
"","null","html-keyboard-response","190","390072","0.0-38.0-0.1","SS1613081787879","","","null","","","","","<p><img src= images/blank.png width =""200"" height = ""200"" style = ""float:right""></p><p><img src=images/blank.png width =""800"" height = ""200""></p>","","","","","","","","","","","",""
"","4806.085000003804","sequential-stimulus-presentation","191","395692","0.0-38.0-1.1","SS1613081787879","trial","","40","800","5606.085000003804","images/stimuli/spore_stims/simple_13_A_d.gif","images/stimuli/spore_stims/simple_13_B_d.gif","","","","","10","simple_similar","images/stimuli/spore_stims/simple_13_B_d.gif","left","","","","",""
"","null","html-keyboard-response","192","396990","0.0-38.0-0.2","SS1613081787879","","","null","","","","","<p><img src= images/blank.png width =""200"" height = ""200"" style = ""float:right""></p><p><img src=images/blank.png width =""800"" height = ""200""></p>","","","","","","","","","","","",""
"","1026.2150000053225","sequential-stimulus-presentation","193","398837","0.0-38.0-1.2","SS1613081787879","trial","","40","800","1826.2150000053225","images/stimuli/spore_stims/simple_13_A_d.gif","images/stimuli/spore_stims/simple_13_B_d.gif","","","","","10","simple_similar","images/stimuli/spore_stims/simple_13_B_d.gif","left","","","","",""
"","null","html-keyboard-response","194","399715","0.0-38.0-0.3","SS1613081787879","","","null","","","","","<p><img src= images/blank.png width =""200"" height = ""200"" style = ""float:right""></p><p><img src=images/blank.png width =""800"" height = ""200""></p>","","","","","","","","","","","",""
"","1026.8599999981234","sequential-stimulus-presentation","195","401555","0.0-38.0-1.3","SS1613081787879","trial","","40","800","1826.8599999981234","images/stimuli/spore_stims/simple_13_A_d.gif","images/stimuli/spore_stims/simple_13_B_d.gif","","","","","10","simple_similar","images/stimuli/spore_stims/simple_13_B_d.gif","left","","","","",""
"","null","html-keyboard-response","196","402651","0.0-38.0-0.4","SS1613081787879","","","null","","","","","<p><img src= images/blank.png width =""200"" height = ""200"" style = ""float:right""></p><p><img src=images/blank.png width =""800"" height = ""200""></p>","","","","","","","","","","","",""
"","542.7950000012061","sequential-stimulus-presentation","197","404011","0.0-38.0-1.4","SS1613081787879","trial","","40","800","1342.795000001206","images/stimuli/spore_stims/simple_13_A_d.gif","images/stimuli/spore_stims/simple_13_B_d.gif","","","","","10","simple_similar","images/stimuli/spore_stims/simple_13_B_d.gif","left","","","","",""
"","null","html-keyboard-response","198","404839","0.0-38.0-0.5","SS1613081787879","","","null","","","","","<p><img src= images/blank.png width =""200"" height = ""200"" style = ""float:right""></p><p><img src=images/blank.png width =""800"" height = ""200""></p>","","","","","","","","","","","",""
"","2023.6599999989267","sequential-stimulus-presentation","199","407676","0.0-38.0-1.5","SS1613081787879","trial","","40","800","2823.6599999989267","images/stimuli/spore_stims/simple_13_A_d.gif","images/stimuli/spore_stims/simple_13_B_d.gif","","","","","10","simple_similar","images/stimuli/spore_stims/simple_13_A_d.gif","middle","","","","",""
"","null","html-keyboard-response","200","408700","0.0-38.0-0.6","SS1613081787879","","","null","","","","","<p><img src= images/blank.png width =""200"" height = ""200"" style = ""float:right""></p><p><img src=images/blank.png width =""800"" height = ""200""></p>","","","","","","","","","","","",""
"","2761.5699999951175","sequential-stimulus-presentation","201","412284","0.0-38.0-1.6","SS1613081787879","trial","","40","800","3561.5699999951175","images/stimuli/spore_stims/simple_13_A_d.gif","images/stimuli/spore_stims/simple_13_B_d.gif","","","","","10","simple_similar","images/stimuli/spore_stims/simple_13_B_d.gif","left","","","","",""
"","null","html-keyboard-response","202","413249","0.0-38.0-0.7","SS1613081787879","","","null","","","","","<p><img src= images/blank.png width =""200"" height = ""200"" style = ""float:right""></p><p><img src=images/blank.png width =""800"" height = ""200""></p>","","","","","","","","","","","",""
"","1401.2799999982235","sequential-stimulus-presentation","203","415467","0.0-38.0-1.7","SS1613081787879","trial","","40","800","2201.2799999982235","images/stimuli/spore_stims/simple_13_A_d.gif","images/stimuli/spore_stims/simple_13_B_d.gif","","","","","10","simple_similar","images/stimuli/spore_stims/simple_13_B_d.gif","left","","","","",""
"","1434.6850000001723","html-keyboard-response","204","416907","0.0-39.0","SS1613081787879","pref_question","","51","","","","","<video width ='960' height = '540' style='padding-top:8%' autoplay muted><source src='images/stimuli/wall_pref.mp4' type='video/mp4'></video>","3","right","66%","10","","","","","","","",""
"","1488.01999999705","sequential-stimulus-presentation","205","419224","0.0-40.0","SS1613081787879","pref_reveal","","40","800","2288.01999999705","null","null","","","","","10","","","","novel","","","",""
"","null","html-keyboard-response","206","420055","0.0-41.0-0.0","SS1613081787879","","","null","","","","","<p><img src= images/blank.png width =""200"" height = ""200"" style = ""float:right""></p><p><img src=images/blank.png width =""800"" height = ""200""></p>","","","","","","","","","","","",""
"","1043.2800000053248","sequential-stimulus-presentation","207","421919","0.0-41.0-1.0","SS1613081787879","trial","","40","800","1843.2800000053248","images/stimuli/spore_stims/complex_18_B_a.gif","images/stimuli/spore_stims/complex_04_B_b.gif","","","","","11","complex_dissimilar","images/stimuli/spore_stims/complex_04_B_b.gif","left","","","","",""
"","null","html-keyboard-response","208","422869","0.0-41.0-0.1","SS1613081787879","","","null","","","","","<p><img src= images/blank.png width =""200"" height = ""200"" style = ""float:right""></p><p><img src=images/blank.png width =""800"" height = ""200""></p>","","","","","","","","","","","",""
"","1089.2800000001444","sequential-stimulus-presentation","209","424776","0.0-41.0-1.1","SS1613081787879","trial","","40","800","1889.2800000001444","images/stimuli/spore_stims/complex_18_B_a.gif","images/stimuli/spore_stims/complex_04_B_b.gif","","","","","11","complex_dissimilar","images/stimuli/spore_stims/complex_04_B_b.gif","left","","","","",""
"","null","html-keyboard-response","210","425736","0.0-41.0-0.2","SS1613081787879","","","null","","","","","<p><img src= images/blank.png width =""200"" height = ""200"" style = ""float:right""></p><p><img src=images/blank.png width =""800"" height = ""200""></p>","","","","","","","","","","","",""
"","1205.7950000016717","sequential-stimulus-presentation","211","427751","0.0-41.0-1.2","SS1613081787879","trial","","40","800","2005.7950000016717","images/stimuli/spore_stims/complex_18_B_a.gif","images/stimuli/spore_stims/complex_04_B_b.gif","","","","","11","complex_dissimilar","images/stimuli/spore_stims/complex_04_B_b.gif","left","","","","",""
"","null","html-keyboard-response","212","428657","0.0-41.0-0.3","SS1613081787879","","","null","","","","","<p><img src= images/blank.png width =""200"" height = ""200"" style = ""float:right""></p><p><img src=images/blank.png width =""800"" height = ""200""></p>","","","","","","","","","","","",""
"","935.4000000021188","sequential-stimulus-presentation","213","430408","0.0-41.0-1.3","SS1613081787879","trial","","40","800","1735.4000000021188","images/stimuli/spore_stims/complex_18_B_a.gif","images/stimuli/spore_stims/complex_04_B_b.gif","","","","","11","complex_dissimilar","images/stimuli/spore_stims/complex_04_B_b.gif","left","","","","",""
"","null","html-keyboard-response","214","431461","0.0-41.0-0.4","SS1613081787879","","","null","","","","","<p><img src= images/blank.png width =""200"" height = ""200"" style = ""float:right""></p><p><img src=images/blank.png width =""800"" height = ""200""></p>","","","","","","","","","","","",""
"","3637.414999997418","sequential-stimulus-presentation","215","435919","0.0-41.0-1.4","SS1613081787879","trial","","40","800","4437.414999997418","images/stimuli/spore_stims/complex_18_B_a.gif","images/stimuli/spore_stims/complex_04_B_b.gif","","","","","11","complex_dissimilar","images/stimuli/spore_stims/complex_18_B_a.gif","middle","","","","",""
"","null","html-keyboard-response","216","437066","0.0-41.0-0.5","SS1613081787879","","","null","","","","","<p><img src= images/blank.png width =""200"" height = ""200"" style = ""float:right""></p><p><img src=images/blank.png width =""800"" height = ""200""></p>","","","","","","","","","","","",""
"","1042.685000000347","sequential-stimulus-presentation","217","438919","0.0-41.0-1.5","SS1613081787879","trial","","40","800","1842.685000000347","images/stimuli/spore_stims/complex_18_B_a.gif","images/stimuli/spore_stims/complex_04_B_b.gif","","","","","11","complex_dissimilar","images/stimuli/spore_stims/complex_04_B_b.gif","left","","","","",""
"","null","html-keyboard-response","218","439743","0.0-41.0-0.6","SS1613081787879","","","null","","","","","<p><img src= images/blank.png width =""200"" height = ""200"" style = ""float:right""></p><p><img src=images/blank.png width =""800"" height = ""200""></p>","","","","","","","","","","","",""
"","355.9449999956996","sequential-stimulus-presentation","219","440911","0.0-41.0-1.6","SS1613081787879","trial","","40","800","1155.9449999956996","images/stimuli/spore_stims/complex_18_B_a.gif","images/stimuli/spore_stims/complex_04_B_b.gif","","","","","11","complex_dissimilar","images/stimuli/spore_stims/complex_04_B_b.gif","left","","","","",""
"","null","html-keyboard-response","220","442004","0.0-41.0-0.7","SS1613081787879","","","null","","","","","<p><img src= images/blank.png width =""200"" height = ""200"" style = ""float:right""></p><p><img src=images/blank.png width =""800"" height = ""200""></p>","","","","","","","","","","","",""
"","397.8850000057719","sequential-stimulus-presentation","221","443215","0.0-41.0-1.7","SS1613081787879","trial","","40","800","1197.8850000057719","images/stimuli/spore_stims/complex_18_B_a.gif","images/stimuli/spore_stims/complex_04_B_b.gif","","","","","11","complex_dissimilar","images/stimuli/spore_stims/complex_04_B_b.gif","left","","","","",""
"","1651.8050000013318","html-keyboard-response","222","444871","0.0-42.0","SS1613081787879","pref_question","","51","","","","","<video width ='960' height = '540' style='padding-top:8%' autoplay muted><source src='images/stimuli/wall_pref.mp4' type='video/mp4'></video>","3","right","66%","11","","","","","","","",""
"","3241.4950000020326","sequential-stimulus-presentation","223","448923","0.0-43.0","SS1613081787879","pref_reveal","","40","800","4041.4950000020326","null","null","","","","","11","","","","novel","","","",""
"","null","html-keyboard-response","224","449903","0.0-44.0-0.0","SS1613081787879","","","null","","","","","<p><img src= images/blank.png width =""200"" height = ""200"" style = ""float:right""></p><p><img src=images/blank.png width =""800"" height = ""200""></p>","","","","","","","","","","","",""
"","636.0599999970873","sequential-stimulus-presentation","225","451348","0.0-44.0-1.0","SS1613081787879","trial","","40","800","1436.0599999970873","images/stimuli/spore_stims/simple_04_A_b.gif","images/stimuli/spore_stims/simple_17_B_c.gif","","","","","12","simple_dissimilar","images/stimuli/spore_stims/simple_17_B_c.gif","left","","","","",""
"","null","html-keyboard-response","226","452391","0.0-44.0-0.1","SS1613081787879","","","null","","","","","<p><img src= images/blank.png width =""200"" height = ""200"" style = ""float:right""></p><p><img src=images/blank.png width =""800"" height = ""200""></p>","","","","","","","","","","","",""
"","504.1399999972782","sequential-stimulus-presentation","227","453715","0.0-44.0-1.1","SS1613081787879","trial","","40","800","1304.1399999972782","images/stimuli/spore_stims/simple_04_A_b.gif","images/stimuli/spore_stims/simple_17_B_c.gif","","","","","12","simple_dissimilar","images/stimuli/spore_stims/simple_17_B_c.gif","left","","","","",""
"","null","html-keyboard-response","228","454587","0.0-44.0-0.2","SS1613081787879","","","null","","","","","<p><img src= images/blank.png width =""200"" height = ""200"" style = ""float:right""></p><p><img src=images/blank.png width =""800"" height = ""200""></p>","","","","","","","","","","","",""
"","1365.4099999985192","sequential-stimulus-presentation","229","456771","0.0-44.0-1.2","SS1613081787879","trial","","40","800","2165.409999998519","images/stimuli/spore_stims/simple_04_A_b.gif","images/stimuli/spore_stims/simple_17_B_c.gif","","","","","12","simple_dissimilar","images/stimuli/spore_stims/simple_17_B_c.gif","left","","","","",""
"","null","html-keyboard-response","230","457848","0.0-44.0-0.3","SS1613081787879","","","null","","","","","<p><img src= images/blank.png width =""200"" height = ""200"" style = ""float:right""></p><p><img src=images/blank.png width =""800"" height = ""200""></p>","","","","","","","","","","","",""
"","506.4199999978882","sequential-stimulus-presentation","231","459171","0.0-44.0-1.3","SS1613081787879","trial","","40","800","1306.4199999978882","images/stimuli/spore_stims/simple_04_A_b.gif","images/stimuli/spore_stims/simple_17_B_c.gif","","","","","12","simple_dissimilar","images/stimuli/spore_stims/simple_17_B_c.gif","left","","","","",""
"","null","html-keyboard-response","232","460113","0.0-44.0-0.4","SS1613081787879","","","null","","","","","<p><img src= images/blank.png width =""200"" height = ""200"" style = ""float:right""></p><p><img src=images/blank.png width =""800"" height = ""200""></p>","","","","","","","","","","","",""
"","593.3199999999488","sequential-stimulus-presentation","233","461531","0.0-44.0-1.4","SS1613081787879","trial","","40","800","1393.3199999999488","images/stimuli/spore_stims/simple_04_A_b.gif","images/stimuli/spore_stims/simple_17_B_c.gif","","","","","12","simple_dissimilar","images/stimuli/spore_stims/simple_17_B_c.gif","left","","","","",""
"","null","html-keyboard-response","234","462569","0.0-44.0-0.5","SS1613081787879","","","null","","","","","<p><img src= images/blank.png width =""200"" height = ""200"" style = ""float:right""></p><p><img src=images/blank.png width =""800"" height = ""200""></p>","","","","","","","","","","","",""
"","843.2150000007823","sequential-stimulus-presentation","235","464227","0.0-44.0-1.5","SS1613081787879","trial","","40","800","1643.2150000007823","images/stimuli/spore_stims/simple_04_A_b.gif","images/stimuli/spore_stims/simple_17_B_c.gif","","","","","12","simple_dissimilar","images/stimuli/spore_stims/simple_04_A_b.gif","middle","","","","",""
"","null","html-keyboard-response","236","465134","0.0-44.0-0.6","SS1613081787879","","","null","","","","","<p><img src= images/blank.png width =""200"" height = ""200"" style = ""float:right""></p><p><img src=images/blank.png width =""800"" height = ""200""></p>","","","","","","","","","","","",""
"","351.73000000213506","sequential-stimulus-presentation","237","466307","0.0-44.0-1.6","SS1613081787879","trial","","40","800","1151.730000002135","images/stimuli/spore_stims/simple_04_A_b.gif","images/stimuli/spore_stims/simple_17_B_c.gif","","","","","12","simple_dissimilar","images/stimuli/spore_stims/simple_17_B_c.gif","left","","","","",""
"","null","html-keyboard-response","238","467492","0.0-44.0-0.7","SS1613081787879","","","null","","","","","<p><img src= images/blank.png width =""200"" height = ""200"" style = ""float:right""></p><p><img src=images/blank.png width =""800"" height = ""200""></p>","","","","","","","","","","","",""
"","441.1850000033155","sequential-stimulus-presentation","239","468746","0.0-44.0-1.7","SS1613081787879","trial","","40","800","1241.1850000033155","images/stimuli/spore_stims/simple_04_A_b.gif","images/stimuli/spore_stims/simple_17_B_c.gif","","","","","12","simple_dissimilar","images/stimuli/spore_stims/simple_17_B_c.gif","left","","","","",""
"","1715.5899999997928","html-keyboard-response","240","470468","0.0-45.0","SS1613081787879","pref_question","","51","","","","","<video width ='960' height = '540' style='padding-top:8%' autoplay muted><source src='images/stimuli/wall_pref.mp4' type='video/mp4'></video>","3","right","66%","12","","","","","","","",""
"","2256.054999998014","sequential-stimulus-presentation","241","473540","0.0-46.0","SS1613081787879","pref_reveal","","40","800","3056.054999998014","null","null","","","","","12","","","","novel","","","",""
"","null","html-keyboard-response","242","474849","0.0-47.0-0.0","SS1613081787879","","","null","","","","","<p><img src= images/blank.png width =""200"" height = ""200"" style = ""float:right""></p><p><img src=images/blank.png width =""800"" height = ""200""></p>","","","","","","","","","","","",""
"","980.3649999957997","sequential-stimulus-presentation","243","476646","0.0-47.0-1.0","SS1613081787879","trial","","40","800","1780.3649999957997","images/stimuli/spore_stims/complex_01_B_b.gif","images/stimuli/spore_stims/complex_10_A_b.gif","","","","","13","complex_dissimilar","images/stimuli/spore_stims/complex_10_A_b.gif","middle","","","","",""
"","null","html-keyboard-response","244","477590","0.0-47.0-0.1","SS1613081787879","","","null","","","","","<p><img src= images/blank.png width =""200"" height = ""200"" style = ""float:right""></p><p><img src=images/blank.png width =""800"" height = ""200""></p>","","","","","","","","","","","",""
"","810.3499999997439","sequential-stimulus-presentation","245","479223","0.0-47.0-1.1","SS1613081787879","trial","","40","800","1610.3499999997439","images/stimuli/spore_stims/complex_01_B_b.gif","images/stimuli/spore_stims/complex_10_A_b.gif","","","","","13","complex_dissimilar","images/stimuli/spore_stims/complex_10_A_b.gif","middle","","","","",""
"","null","html-keyboard-response","246","480276","0.0-47.0-0.2","SS1613081787879","","","null","","","","","<p><img src= images/blank.png width =""200"" height = ""200"" style = ""float:right""></p><p><img src=images/blank.png width =""800"" height = ""200""></p>","","","","","","","","","","","",""
"","906.9200000012643","sequential-stimulus-presentation","247","482006","0.0-47.0-1.2","SS1613081787879","trial","","40","800","1706.9200000012643","images/stimuli/spore_stims/complex_01_B_b.gif","images/stimuli/spore_stims/complex_10_A_b.gif","","","","","13","complex_dissimilar","images/stimuli/spore_stims/complex_10_A_b.gif","middle","","","","",""
"","null","html-keyboard-response","248","482949","0.0-47.0-0.3","SS1613081787879","","","null","","","","","<p><img src= images/blank.png width =""200"" height = ""200"" style = ""float:right""></p><p><img src=images/blank.png width =""800"" height = ""200""></p>","","","","","","","","","","","",""
"","621.4400000026217","sequential-stimulus-presentation","249","484415","0.0-47.0-1.3","SS1613081787879","trial","","40","800","1421.4400000026217","images/stimuli/spore_stims/complex_01_B_b.gif","images/stimuli/spore_stims/complex_10_A_b.gif","","","","","13","complex_dissimilar","images/stimuli/spore_stims/complex_10_A_b.gif","middle","","","","",""
"","null","html-keyboard-response","250","485721","0.0-47.0-0.4","SS1613081787879","","","null","","","","","<p><img src= images/blank.png width =""200"" height = ""200"" style = ""float:right""></p><p><img src=images/blank.png width =""800"" height = ""200""></p>","","","","","","","","","","","",""
"","592.2900000005029","sequential-stimulus-presentation","251","487134","0.0-47.0-1.4","SS1613081787879","trial","","40","800","1392.290000000503","images/stimuli/spore_stims/complex_01_B_b.gif","images/stimuli/spore_stims/complex_10_A_b.gif","","","","","13","complex_dissimilar","images/stimuli/spore_stims/complex_10_A_b.gif","middle","","","","",""
"","null","html-keyboard-response","252","488146","0.0-47.0-0.5","SS1613081787879","","","null","","","","","<p><img src= images/blank.png width =""200"" height = ""200"" style = ""float:right""></p><p><img src=images/blank.png width =""800"" height = ""200""></p>","","","","","","","","","","","",""
"","305.8900000032736","sequential-stimulus-presentation","253","489270","0.0-47.0-1.5","SS1613081787879","trial","","40","800","1105.8900000032736","images/stimuli/spore_stims/complex_01_B_b.gif","images/stimuli/spore_stims/complex_10_A_b.gif","","","","","13","complex_dissimilar","images/stimuli/spore_stims/complex_10_A_b.gif","middle","","","","",""
"","null","html-keyboard-response","254","490372","0.0-47.0-0.6","SS1613081787879","","","null","","","","","<p><img src= images/blank.png width =""200"" height = ""200"" style = ""float:right""></p><p><img src=images/blank.png width =""800"" height = ""200""></p>","","","","","","","","","","","",""
"","325.19999999931315","sequential-stimulus-presentation","255","491510","0.0-47.0-1.6","SS1613081787879","trial","","40","800","1125.1999999993131","images/stimuli/spore_stims/complex_01_B_b.gif","images/stimuli/spore_stims/complex_10_A_b.gif","","","","","13","complex_dissimilar","images/stimuli/spore_stims/complex_10_A_b.gif","middle","","","","",""
"","null","html-keyboard-response","256","492714","0.0-47.0-0.7","SS1613081787879","","","null","","","","","<p><img src= images/blank.png width =""200"" height = ""200"" style = ""float:right""></p><p><img src=images/blank.png width =""800"" height = ""200""></p>","","","","","","","","","","","",""
"","1893.51500000339","sequential-stimulus-presentation","257","495424","0.0-47.0-1.7","SS1613081787879","trial","","40","800","2693.51500000339","images/stimuli/spore_stims/complex_01_B_b.gif","images/stimuli/spore_stims/complex_10_A_b.gif","","","","","13","complex_dissimilar","images/stimuli/spore_stims/complex_01_B_b.gif","right","","","","",""
"","1535.5600000038976","html-keyboard-response","258","496966","0.0-48.0","SS1613081787879","pref_question","","49","","","","","<video width ='960' height = '540' style='padding-top:8%' autoplay muted><source src='images/stimuli/wall_pref.mp4' type='video/mp4'></video>","1","left","25%","13","","","","","","","",""
"","1669.3450000020675","sequential-stimulus-presentation","259","499455","0.0-49.0","SS1613081787879","pref_reveal","","40","800","2469.3450000020675","null","null","","","","","13","","","","novel","","","",""
"","null","html-keyboard-response","260","500687","0.0-50.0-0.0","SS1613081787879","","","null","","","","","<p><img src= images/blank.png width =""200"" height = ""200"" style = ""float:right""></p><p><img src=images/blank.png width =""800"" height = ""200""></p>","","","","","","","","","","","",""
"","1266.5849999975762","sequential-stimulus-presentation","261","502775","0.0-50.0-1.0","SS1613081787879","trial","","40","800","2066.5849999975762","images/stimuli/spore_stims/complex_14_A_a.gif","images/stimuli/spore_stims/complex_14_B_a.gif","","","","","14","complex_similar","images/stimuli/spore_stims/complex_14_B_a.gif","middle","","","","",""
"","null","html-keyboard-response","262","503624","0.0-50.0-0.1","SS1613081787879","","","null","","","","","<p><img src= images/blank.png width =""200"" height = ""200"" style = ""float:right""></p><p><img src=images/blank.png width =""800"" height = ""200""></p>","","","","","","","","","","","",""
"","1925.710000003106","sequential-stimulus-presentation","263","506367","0.0-50.0-1.1","SS1613081787879","trial","","40","800","2725.710000003106","images/stimuli/spore_stims/complex_14_A_a.gif","images/stimuli/spore_stims/complex_14_B_a.gif","","","","","14","complex_similar","images/stimuli/spore_stims/complex_14_B_a.gif","middle","","","","",""
"","null","html-keyboard-response","264","507383","0.0-50.0-0.2","SS1613081787879","","","null","","","","","<p><img src= images/blank.png width =""200"" height = ""200"" style = ""float:right""></p><p><img src=images/blank.png width =""800"" height = ""200""></p>","","","","","","","","","","","",""
"","203.60000000079162","sequential-stimulus-presentation","265","508403","0.0-50.0-1.2","SS1613081787879","trial","","40","800","1003.6000000007916","images/stimuli/spore_stims/complex_14_A_a.gif","images/stimuli/spore_stims/complex_14_B_a.gif","","","","","14","complex_similar","images/stimuli/spore_stims/complex_14_B_a.gif","middle","","","","",""
"","null","html-keyboard-response","266","509289","0.0-50.0-0.3","SS1613081787879","","","null","","","","","<p><img src= images/blank.png width =""200"" height = ""200"" style = ""float:right""></p><p><img src=images/blank.png width =""800"" height = ""200""></p>","","","","","","","","","","","",""
"","1139.6850000019185","sequential-stimulus-presentation","267","511267","0.0-50.0-1.3","SS1613081787879","trial","","40","800","1939.6850000019185","images/stimuli/spore_stims/complex_14_A_a.gif","images/stimuli/spore_stims/complex_14_B_a.gif","","","","","14","complex_similar","images/stimuli/spore_stims/complex_14_A_a.gif","right","","","","",""
"","null","html-keyboard-response","268","512549","0.0-50.0-0.4","SS1613081787879","","","null","","","","","<p><img src= images/blank.png width =""200"" height = ""200"" style = ""float:right""></p><p><img src=images/blank.png width =""800"" height = ""200""></p>","","","","","","","","","","","",""
"","272.8599999973085","sequential-stimulus-presentation","269","513643","0.0-50.0-1.4","SS1613081787879","trial","","40","800","1072.8599999973085","images/stimuli/spore_stims/complex_14_A_a.gif","images/stimuli/spore_stims/complex_14_B_a.gif","","","","","14","complex_similar","images/stimuli/spore_stims/complex_14_B_a.gif","middle","","","","",""
"","null","html-keyboard-response","270","514521","0.0-50.0-0.5","SS1613081787879","","","null","","","","","<p><img src= images/blank.png width =""200"" height = ""200"" style = ""float:right""></p><p><img src=images/blank.png width =""800"" height = ""200""></p>","","","","","","","","","","","",""
"","211.90499999641906","sequential-stimulus-presentation","271","515555","0.0-50.0-1.5","SS1613081787879","trial","","40","800","1011.9049999964191","images/stimuli/spore_stims/complex_14_A_a.gif","images/stimuli/spore_stims/complex_14_B_a.gif","","","","","14","complex_similar","images/stimuli/spore_stims/complex_14_B_a.gif","middle","","","","",""
"","null","html-keyboard-response","272","516569","0.0-50.0-0.6","SS1613081787879","","","null","","","","","<p><img src= images/blank.png width =""200"" height = ""200"" style = ""float:right""></p><p><img src=images/blank.png width =""800"" height = ""200""></p>","","","","","","","","","","","",""
"","192.53999999631196","sequential-stimulus-presentation","273","517579","0.0-50.0-1.6","SS1613081787879","trial","","40","800","992.539999996312","images/stimuli/spore_stims/complex_14_A_a.gif","images/stimuli/spore_stims/complex_14_B_a.gif","","","","","14","complex_similar","images/stimuli/spore_stims/complex_14_B_a.gif","middle","","","","",""
"","null","html-keyboard-response","274","518804","0.0-50.0-0.7","SS1613081787879","","","null","","","","","<p><img src= images/blank.png width =""200"" height = ""200"" style = ""float:right""></p><p><img src=images/blank.png width =""800"" height = ""200""></p>","","","","","","","","","","","",""
"","187.87000000162516","sequential-stimulus-presentation","275","519803","0.0-50.0-1.7","SS1613081787879","trial","","40","800","987.8700000016252","images/stimuli/spore_stims/complex_14_A_a.gif","images/stimuli/spore_stims/complex_14_B_a.gif","","","","","14","complex_similar","images/stimuli/spore_stims/complex_14_B_a.gif","middle","","","","",""
"","1494.6449999988545","html-keyboard-response","276","521316","0.0-51.0","SS1613081787879","pref_question","","49","","","","","<video width ='960' height = '540' style='padding-top:8%' autoplay muted><source src='images/stimuli/wall_pref.mp4' type='video/mp4'></video>","1","left","25%","14","","","","","","","",""
"","2485.979999997653","sequential-stimulus-presentation","277","524627","0.0-52.0","SS1613081787879","pref_reveal","","40","800","3285.979999997653","null","null","","","","","14","","","","novel","","","",""
"","null","html-keyboard-response","278","525514","0.0-53.0-0.0","SS1613081787879","","","null","","","","","<p><img src= images/blank.png width =""200"" height = ""200"" style = ""float:right""></p><p><img src=images/blank.png width =""800"" height = ""200""></p>","","","","","","","","","","","",""
"","2257.055000001914","sequential-stimulus-presentation","279","528579","0.0-53.0-1.0","SS1613081787879","trial","","40","800","3057.055000001914","images/stimuli/spore_stims/simple_19_B_d.gif","images/stimuli/spore_stims/simple_05_B_a.gif","","","","","15","simple_dissimilar","images/stimuli/spore_stims/simple_05_B_a.gif","middle","","","","",""
"","null","html-keyboard-response","280","529790","0.0-53.0-0.1","SS1613081787879","","","null","","","","","<p><img src= images/blank.png width =""200"" height = ""200"" style = ""float:right""></p><p><img src=images/blank.png width =""800"" height = ""200""></p>","","","","","","","","","","","",""
"","694.1700000024866","sequential-stimulus-presentation","281","531307","0.0-53.0-1.1","SS1613081787879","trial","","40","800","1494.1700000024866","images/stimuli/spore_stims/simple_19_B_d.gif","images/stimuli/spore_stims/simple_05_B_a.gif","","","","","15","simple_dissimilar","images/stimuli/spore_stims/simple_05_B_a.gif","middle","","","","",""
"","null","html-keyboard-response","282","532432","0.0-53.0-0.2","SS1613081787879","","","null","","","","","<p><img src= images/blank.png width =""200"" height = ""200"" style = ""float:right""></p><p><img src=images/blank.png width =""800"" height = ""200""></p>","","","","","","","","","","","",""
"","257.7499999969732","sequential-stimulus-presentation","283","533499","0.0-53.0-1.2","SS1613081787879","trial","","40","800","1057.7499999969732","images/stimuli/spore_stims/simple_19_B_d.gif","images/stimuli/spore_stims/simple_05_B_a.gif","","","","","15","simple_dissimilar","images/stimuli/spore_stims/simple_05_B_a.gif","middle","","","","",""
"","null","html-keyboard-response","284","534808","0.0-53.0-0.3","SS1613081787879","","","null","","","","","<p><img src= images/blank.png width =""200"" height = ""200"" style = ""float:right""></p><p><img src=images/blank.png width =""800"" height = ""200""></p>","","","","","","","","","","","",""
"","368.7900000005029","sequential-stimulus-presentation","285","536003","0.0-53.0-1.3","SS1613081787879","trial","","40","800","1168.790000000503","images/stimuli/spore_stims/simple_19_B_d.gif","images/stimuli/spore_stims/simple_05_B_a.gif","","","","","15","simple_dissimilar","images/stimuli/spore_stims/simple_05_B_a.gif","middle","","","","",""
"","null","html-keyboard-response","286","537025","0.0-53.0-0.4","SS1613081787879","","","null","","","","","<p><img src= images/blank.png width =""200"" height = ""200"" style = ""float:right""></p><p><img src=images/blank.png width =""800"" height = ""200""></p>","","","","","","","","","","","",""
"","341.49999999511056","sequential-stimulus-presentation","287","538183","0.0-53.0-1.4","SS1613081787879","trial","","40","800","1141.4999999951106","images/stimuli/spore_stims/simple_19_B_d.gif","images/stimuli/spore_stims/simple_05_B_a.gif","","","","","15","simple_dissimilar","images/stimuli/spore_stims/simple_05_B_a.gif","middle","","","","",""
"","null","html-keyboard-response","288","539302","0.0-53.0-0.5","SS1613081787879","","","null","","","","","<p><img src= images/blank.png width =""200"" height = ""200"" style = ""float:right""></p><p><img src=images/blank.png width =""800"" height = ""200""></p>","","","","","","","","","","","",""
"","406.5100000007078","sequential-stimulus-presentation","289","540527","0.0-53.0-1.5","SS1613081787879","trial","","40","800","1206.5100000007078","images/stimuli/spore_stims/simple_19_B_d.gif","images/stimuli/spore_stims/simple_05_B_a.gif","","","","","15","simple_dissimilar","images/stimuli/spore_stims/simple_05_B_a.gif","middle","","","","",""
"","null","html-keyboard-response","290","541459","0.0-53.0-0.6","SS1613081787879","","","null","","","","","<p><img src= images/blank.png width =""200"" height = ""200"" style = ""float:right""></p><p><img src=images/blank.png width =""800"" height = ""200""></p>","","","","","","","","","","","",""
"","362.34500000136904","sequential-stimulus-presentation","291","542639","0.0-53.0-1.6","SS1613081787879","trial","","40","800","1162.345000001369","images/stimuli/spore_stims/simple_19_B_d.gif","images/stimuli/spore_stims/simple_05_B_a.gif","","","","","15","simple_dissimilar","images/stimuli/spore_stims/simple_05_B_a.gif","middle","","","","",""
"","null","html-keyboard-response","292","543706","0.0-53.0-0.7","SS1613081787879","","","null","","","","","<p><img src= images/blank.png width =""200"" height = ""200"" style = ""float:right""></p><p><img src=images/blank.png width =""800"" height = ""200""></p>","","","","","","","","","","","",""
"","1172.6149999957997","sequential-stimulus-presentation","293","545711","0.0-53.0-1.7","SS1613081787879","trial","","40","800","1972.6149999957997","images/stimuli/spore_stims/simple_19_B_d.gif","images/stimuli/spore_stims/simple_05_B_a.gif","","","","","15","simple_dissimilar","images/stimuli/spore_stims/simple_19_B_d.gif","right","","","","",""
"","1866.9599999992643","html-keyboard-response","294","547583","0.0-54.0","SS1613081787879","pref_question","","49","","","","","<video width ='960' height = '540' style='padding-top:8%' autoplay muted><source src='images/stimuli/wall_pref.mp4' type='video/mp4'></video>","1","left","25%","15","","","","","","","",""
"","2167.3850000005914","sequential-stimulus-presentation","295","550559","0.0-55.0","SS1613081787879","pref_reveal","","40","800","2967.3850000005914","null","null","","","","","15","","","","novel","","","",""
"","null","html-keyboard-response","296","551610","0.0-56.0-0.0","SS1613081787879","","","null","","","","","<p><img src= images/blank.png width =""200"" height = ""200"" style = ""float:right""></p><p><img src=images/blank.png width =""800"" height = ""200""></p>","","","","","","","","","","","",""
"","656.9900000032503","sequential-stimulus-presentation","297","553079","0.0-56.0-1.0","SS1613081787879","trial","","40","800","1456.9900000032503","images/stimuli/spore_stims/complex_13_B_d.gif","images/stimuli/spore_stims/complex_10_B_b.gif","","","","","16","complex_dissimilar","images/stimuli/spore_stims/complex_10_B_b.gif","right","","","","",""
"","null","html-keyboard-response","298","554002","0.0-56.0-0.1","SS1613081787879","","","null","","","","","<p><img src= images/blank.png width =""200"" height = ""200"" style = ""float:right""></p><p><img src=images/blank.png width =""800"" height = ""200""></p>","","","","","","","","","","","",""
"","583.7549999996554","sequential-stimulus-presentation","299","555399","0.0-56.0-1.1","SS1613081787879","trial","","40","800","1383.7549999996554","images/stimuli/spore_stims/complex_13_B_d.gif","images/stimuli/spore_stims/complex_10_B_b.gif","","","","","16","complex_dissimilar","images/stimuli/spore_stims/complex_10_B_b.gif","right","","","","",""
"","null","html-keyboard-response","300","556284","0.0-56.0-0.2","SS1613081787879","","","null","","","","","<p><img src= images/blank.png width =""200"" height = ""200"" style = ""float:right""></p><p><img src=images/blank.png width =""800"" height = ""200""></p>","","","","","","","","","","","",""
"","550.6000000024214","sequential-stimulus-presentation","301","557647","0.0-56.0-1.2","SS1613081787879","trial","","40","800","1350.6000000024214","images/stimuli/spore_stims/complex_13_B_d.gif","images/stimuli/spore_stims/complex_10_B_b.gif","","","","","16","complex_dissimilar","images/stimuli/spore_stims/complex_10_B_b.gif","right","","","","",""
"","null","html-keyboard-response","302","558911","0.0-56.0-0.3","SS1613081787879","","","null","","","","","<p><img src= images/blank.png width =""200"" height = ""200"" style = ""float:right""></p><p><img src=images/blank.png width =""800"" height = ""200""></p>","","","","","","","","","","","",""
"","469.5249999931548","sequential-stimulus-presentation","303","560200","0.0-56.0-1.3","SS1613081787879","trial","","40","800","1269.5249999931548","images/stimuli/spore_stims/complex_13_B_d.gif","images/stimuli/spore_stims/complex_10_B_b.gif","","","","","16","complex_dissimilar","images/stimuli/spore_stims/complex_10_B_b.gif","right","","","","",""
"","null","html-keyboard-response","304","561511","0.0-56.0-0.4","SS1613081787879","","","null","","","","","<p><img src= images/blank.png width =""200"" height = ""200"" style = ""float:right""></p><p><img src=images/blank.png width =""800"" height = ""200""></p>","","","","","","","","","","","",""
"","270.9899999971967","sequential-stimulus-presentation","305","562603","0.0-56.0-1.4","SS1613081787879","trial","","40","800","1070.9899999971967","images/stimuli/spore_stims/complex_13_B_d.gif","images/stimuli/spore_stims/complex_10_B_b.gif","","","","","16","complex_dissimilar","images/stimuli/spore_stims/complex_10_B_b.gif","right","","","","",""
"","null","html-keyboard-response","306","563481","0.0-56.0-0.5","SS1613081787879","","","null","","","","","<p><img src= images/blank.png width =""200"" height = ""200"" style = ""float:right""></p><p><img src=images/blank.png width =""800"" height = ""200""></p>","","","","","","","","","","","",""
"","3252.664999999921","sequential-stimulus-presentation","307","567554","0.0-56.0-1.5","SS1613081787879","trial","","40","800","4052.664999999921","images/stimuli/spore_stims/complex_13_B_d.gif","images/stimuli/spore_stims/complex_10_B_b.gif","","","","","16","complex_dissimilar","images/stimuli/spore_stims/complex_13_B_d.gif","middle","","","","",""
"","null","html-keyboard-response","308","568767","0.0-56.0-0.6","SS1613081787879","","","null","","","","","<p><img src= images/blank.png width =""200"" height = ""200"" style = ""float:right""></p><p><img src=images/blank.png width =""800"" height = ""200""></p>","","","","","","","","","","","",""
"","1317.1549999970011","sequential-stimulus-presentation","309","570907","0.0-56.0-1.6","SS1613081787879","trial","","40","800","2117.154999997001","images/stimuli/spore_stims/complex_13_B_d.gif","images/stimuli/spore_stims/complex_10_B_b.gif","","","","","16","complex_dissimilar","images/stimuli/spore_stims/complex_10_B_b.gif","right","","","","",""
"","null","html-keyboard-response","310","571895","0.0-56.0-0.7","SS1613081787879","","","null","","","","","<p><img src= images/blank.png width =""200"" height = ""200"" style = ""float:right""></p><p><img src=images/blank.png width =""800"" height = ""200""></p>","","","","","","","","","","","",""
"","617.2949999963166","sequential-stimulus-presentation","311","573331","0.0-56.0-1.7","SS1613081787879","trial","","40","800","1417.2949999963166","images/stimuli/spore_stims/complex_13_B_d.gif","images/stimuli/spore_stims/complex_10_B_b.gif","","","","","16","complex_dissimilar","images/stimuli/spore_stims/complex_10_B_b.gif","right","","","","",""
"","1409.6550000031712","html-keyboard-response","312","574746","0.0-57.0","SS1613081787879","pref_question","","49","","","","","<video width ='960' height = '540' style='padding-top:8%' autoplay muted><source src='images/stimuli/wall_pref.mp4' type='video/mp4'></video>","1","left","25%","16","","","","","","","",""
