"view_history","rt","trial_type","trial_index","time_elapsed","internal_node_id","subject","stimulus_type","trial_stimulus","key_press","minimum_viewing_duration","trial_looking_time","block_deviant","block_background","stimulus","wall_pref","location","location_percent","block_number","block_type","stimulus_displayed","position_displayed","stim_type_selected"
"[{""page_index"":0,""viewing_time"":38409.79999999763}]","38411.17999999915","instructions","0","38416","0.0-0.0","SS1613082005862","","","","","","","","","","","","","","","",""
"[{""page_index"":0,""viewing_time"":819.6400000015274},{""page_index"":1,""viewing_time"":2551.72500000117}]","3372.080000001006","instructions","1","43795","0.0-1.0","SS1613082005862","instructions","","","","","","","","","","","","","","",""
"","1857.0099999997183","sequential-stimulus-presentation","2","46466","0.0-2.0","SS1613082005862","","","40","800","2657.0099999997183","null","null","","","","","","","","",""
"","272.59500000218395","sequential-stimulus-presentation","3","47545","0.0-3.0","SS1613082005862","","","40","800","1072.595000002184","null","null","","","","","","","","",""
"[{""page_index"":0,""viewing_time"":725.5999999979394}]","726.104999997915","instructions","4","48273","0.0-4.0","SS1613082005862","instructions","","","","","","","","","","","","","","",""
"","2369.719999998779","html-keyboard-response","5","50674","0.0-5.0","SS1613082005862","instructions","","98","","","","","<video width ='960' height = '540' autoplay muted><source src='images/stimuli/wall_pref.mp4' type='video/mp4'></video>","2","middle","45%","","","","",""
"","1448.7799999988056","sequential-stimulus-presentation","6","52937","0.0-6.0","SS1613082005862","pref_reveal","","40","800","2248.7799999988056","null","null","","","","","","","","",""
"[{""page_index"":0,""viewing_time"":946.8600000000151},{""page_index"":1,""viewing_time"":280.0200000019686},{""page_index"":2,""viewing_time"":839.2199999980221},{""page_index"":3,""viewing_time"":672.5699999988137}]","2739.22500000117","instructions","7","55680","0.0-7.0","SS1613082005862","instructions","","","","","","","","","","","","","","",""
"","null","html-keyboard-response","8","56554","0.0-8.0-0.0","SS1613082005862","","","null","","","","","<p><img src= images/blank.png width =""200"" height = ""200"" style = ""float:right""></p><p><img src=images/blank.png width =""800"" height = ""200""></p>","","","","","","","",""
"","624.6600000013132","sequential-stimulus-presentation","9","57993","0.0-8.0-1.0","SS1613082005862","trial","","40","800","1424.6600000013132","images/stimuli/spore_stims/simple_18_A_b.gif","images/stimuli/spore_stims/simple_05_B_b.gif","","","","","0","simple_dissimilar","images/stimuli/spore_stims/simple_05_B_b.gif","left",""
"","null","html-keyboard-response","10","58800","0.0-8.0-0.1","SS1613082005862","","","null","","","","","<p><img src= images/blank.png width =""200"" height = ""200"" style = ""float:right""></p><p><img src=images/blank.png width =""800"" height = ""200""></p>","","","","","","","",""
"","19.725000001926674","sequential-stimulus-presentation","11","59632","0.0-8.0-1.1","SS1613082005862","trial","","40","800","819.7250000019267","images/stimuli/spore_stims/simple_18_A_b.gif","images/stimuli/spore_stims/simple_05_B_b.gif","","","","","0","simple_dissimilar","images/stimuli/spore_stims/simple_05_B_b.gif","left",""
"","null","html-keyboard-response","12","60716","0.0-8.0-0.2","SS1613082005862","","","null","","","","","<p><img src= images/blank.png width =""200"" height = ""200"" style = ""float:right""></p><p><img src=images/blank.png width =""800"" height = ""200""></p>","","","","","","","",""
"","3420.685000000958","sequential-stimulus-presentation","13","64969","0.0-8.0-1.2","SS1613082005862","trial","","40","800","4220.685000000958","images/stimuli/spore_stims/simple_18_A_b.gif","images/stimuli/spore_stims/simple_05_B_b.gif","","","","","0","simple_dissimilar","images/stimuli/spore_stims/simple_05_B_b.gif","left",""
"","null","html-keyboard-response","14","66053","0.0-8.0-0.3","SS1613082005862","","","null","","","","","<p><img src= images/blank.png width =""200"" height = ""200"" style = ""float:right""></p><p><img src=images/blank.png width =""800"" height = ""200""></p>","","","","","","","",""
"","293.24500000075204","sequential-stimulus-presentation","15","67161","0.0-8.0-1.3","SS1613082005862","trial","","40","800","1093.245000000752","images/stimuli/spore_stims/simple_18_A_b.gif","images/stimuli/spore_stims/simple_05_B_b.gif","","","","","0","simple_dissimilar","images/stimuli/spore_stims/simple_05_B_b.gif","left",""
"","null","html-keyboard-response","16","68370","0.0-8.0-0.4","SS1613082005862","","","null","","","","","<p><img src= images/blank.png width =""200"" height = ""200"" style = ""float:right""></p><p><img src=images/blank.png width =""800"" height = ""200""></p>","","","","","","","",""
"","89.48500000042259","sequential-stimulus-presentation","17","69273","0.0-8.0-1.4","SS1613082005862","trial","","40","800","889.4850000004226","images/stimuli/spore_stims/simple_18_A_b.gif","images/stimuli/spore_stims/simple_05_B_b.gif","","","","","0","simple_dissimilar","images/stimuli/spore_stims/simple_05_B_b.gif","left",""
"","null","html-keyboard-response","18","70130","0.0-8.0-0.5","SS1613082005862","","","null","","","","","<p><img src= images/blank.png width =""200"" height = ""200"" style = ""float:right""></p><p><img src=images/blank.png width =""800"" height = ""200""></p>","","","","","","","",""
"","90.21999999822583","sequential-stimulus-presentation","19","71032","0.0-8.0-1.5","SS1613082005862","trial","","40","800","890.2199999982258","images/stimuli/spore_stims/simple_18_A_b.gif","images/stimuli/spore_stims/simple_05_B_b.gif","","","","","0","simple_dissimilar","images/stimuli/spore_stims/simple_05_B_b.gif","left",""
"","null","html-keyboard-response","20","71906","0.0-8.0-0.6","SS1613082005862","","","null","","","","","<p><img src= images/blank.png width =""200"" height = ""200"" style = ""float:right""></p><p><img src=images/blank.png width =""800"" height = ""200""></p>","","","","","","","",""
"","279.81999999974505","sequential-stimulus-presentation","21","72999","0.0-8.0-1.6","SS1613082005862","trial","","40","800","1079.819999999745","images/stimuli/spore_stims/simple_18_A_b.gif","images/stimuli/spore_stims/simple_05_B_b.gif","","","","","0","simple_dissimilar","images/stimuli/spore_stims/simple_05_B_b.gif","left",""
"","null","html-keyboard-response","22","74254","0.0-8.0-0.7","SS1613082005862","","","null","","","","","<p><img src= images/blank.png width =""200"" height = ""200"" style = ""float:right""></p><p><img src=images/blank.png width =""800"" height = ""200""></p>","","","","","","","",""
"","1093.5800000006566","sequential-stimulus-presentation","23","76159","0.0-8.0-1.7","SS1613082005862","trial","","40","800","1893.5800000006566","images/stimuli/spore_stims/simple_18_A_b.gif","images/stimuli/spore_stims/simple_05_B_b.gif","","","","","0","simple_dissimilar","images/stimuli/spore_stims/simple_18_A_b.gif","right",""
"","1757.6300000000629","html-keyboard-response","24","77928","0.0-9.0","SS1613082005862","pref_question","","99","","","","","<video width ='960' height = '540' style='padding-top:8%' autoplay muted><source src='images/stimuli/wall_pref.mp4' type='video/mp4'></video>","3","right","66%","0","","","",""
"","1322.2599999971862","sequential-stimulus-presentation","25","80072","0.0-10.0","SS1613082005862","pref_reveal","","40","800","2122.2599999971862","null","null","","","","","0","","","","deviant"
"","null","html-keyboard-response","26","80961","0.0-11.0-0.0","SS1613082005862","","","null","","","","","<p><img src= images/blank.png width =""200"" height = ""200"" style = ""float:right""></p><p><img src=images/blank.png width =""800"" height = ""200""></p>","","","","","","","",""
"","615.060000000085","sequential-stimulus-presentation","27","82390","0.0-11.0-1.0","SS1613082005862","trial","","40","800","1415.060000000085","images/stimuli/spore_stims/complex_01_B_c.gif","images/stimuli/spore_stims/complex_01_A_c.gif","","","","","1","complex_similar","images/stimuli/spore_stims/complex_01_A_c.gif","middle",""
"","null","html-keyboard-response","28","83622","0.0-11.0-0.1","SS1613082005862","","","null","","","","","<p><img src= images/blank.png width =""200"" height = ""200"" style = ""float:right""></p><p><img src=images/blank.png width =""800"" height = ""200""></p>","","","","","","","",""
"","1373.5300000007555","sequential-stimulus-presentation","29","85806","0.0-11.0-1.1","SS1613082005862","trial","","40","800","2173.5300000007555","images/stimuli/spore_stims/complex_01_B_c.gif","images/stimuli/spore_stims/complex_01_A_c.gif","","","","","1","complex_similar","images/stimuli/spore_stims/complex_01_A_c.gif","middle",""
"","null","html-keyboard-response","30","86998","0.0-11.0-0.2","SS1613082005862","","","null","","","","","<p><img src= images/blank.png width =""200"" height = ""200"" style = ""float:right""></p><p><img src=images/blank.png width =""800"" height = ""200""></p>","","","","","","","",""
"","118.62499999915599","sequential-stimulus-presentation","31","87925","0.0-11.0-1.2","SS1613082005862","trial","","40","800","918.624999999156","images/stimuli/spore_stims/complex_01_B_c.gif","images/stimuli/spore_stims/complex_01_A_c.gif","","","","","1","complex_similar","images/stimuli/spore_stims/complex_01_A_c.gif","middle",""
"","null","html-keyboard-response","32","88923","0.0-11.0-0.3","SS1613082005862","","","null","","","","","<p><img src= images/blank.png width =""200"" height = ""200"" style = ""float:right""></p><p><img src=images/blank.png width =""800"" height = ""200""></p>","","","","","","","",""
"","474.92500000225846","sequential-stimulus-presentation","33","90213","0.0-11.0-1.3","SS1613082005862","trial","","40","800","1274.9250000022585","images/stimuli/spore_stims/complex_01_B_c.gif","images/stimuli/spore_stims/complex_01_A_c.gif","","","","","1","complex_similar","images/stimuli/spore_stims/complex_01_A_c.gif","middle",""
"","null","html-keyboard-response","34","91143","0.0-11.0-0.4","SS1613082005862","","","null","","","","","<p><img src= images/blank.png width =""200"" height = ""200"" style = ""float:right""></p><p><img src=images/blank.png width =""800"" height = ""200""></p>","","","","","","","",""
"","128.13999999707448","sequential-stimulus-presentation","35","92084","0.0-11.0-1.4","SS1613082005862","trial","","40","800","928.1399999970745","images/stimuli/spore_stims/complex_01_B_c.gif","images/stimuli/spore_stims/complex_01_A_c.gif","","","","","1","complex_similar","images/stimuli/spore_stims/complex_01_A_c.gif","middle",""
"","null","html-keyboard-response","36","93088","0.0-11.0-0.5","SS1613082005862","","","null","","","","","<p><img src= images/blank.png width =""200"" height = ""200"" style = ""float:right""></p><p><img src=images/blank.png width =""800"" height = ""200""></p>","","","","","","","",""
"","10.879999997996492","sequential-stimulus-presentation","37","93908","0.0-11.0-1.5","SS1613082005862","trial","","40","800","810.8799999979965","images/stimuli/spore_stims/complex_01_B_c.gif","images/stimuli/spore_stims/complex_01_A_c.gif","","","","","1","complex_similar","images/stimuli/spore_stims/complex_01_A_c.gif","middle",""
"","null","html-keyboard-response","38","94759","0.0-11.0-0.6","SS1613082005862","","","null","","","","","<p><img src= images/blank.png width =""200"" height = ""200"" style = ""float:right""></p><p><img src=images/blank.png width =""800"" height = ""200""></p>","","","","","","","",""
"","536.9250000003376","sequential-stimulus-presentation","39","96109","0.0-11.0-1.6","SS1613082005862","trial","","40","800","1336.9250000003376","images/stimuli/spore_stims/complex_01_B_c.gif","images/stimuli/spore_stims/complex_01_A_c.gif","","","","","1","complex_similar","images/stimuli/spore_stims/complex_01_A_c.gif","middle",""
"","null","html-keyboard-response","40","97369","0.0-11.0-0.7","SS1613082005862","","","null","","","","","<p><img src= images/blank.png width =""200"" height = ""200"" style = ""float:right""></p><p><img src=images/blank.png width =""800"" height = ""200""></p>","","","","","","","",""
"","802.7099999999336","sequential-stimulus-presentation","41","99003","0.0-11.0-1.7","SS1613082005862","trial","","40","800","1602.7099999999336","images/stimuli/spore_stims/complex_01_B_c.gif","images/stimuli/spore_stims/complex_01_A_c.gif","","","","","1","complex_similar","images/stimuli/spore_stims/complex_01_B_c.gif","left",""
"","2656.9300000010116","html-keyboard-response","42","101670","0.0-12.0","SS1613082005862","pref_question","","97","","","","","<video width ='960' height = '540' style='padding-top:8%' autoplay muted><source src='images/stimuli/wall_pref.mp4' type='video/mp4'></video>","1","left","25%","1","","","",""
"","429.2199999981676","sequential-stimulus-presentation","43","102915","0.0-13.0","SS1613082005862","pref_reveal","","40","800","1229.2199999981676","null","null","","","","","1","","","","deviant"
"","null","html-keyboard-response","44","104005","0.0-14.0-0.0","SS1613082005862","","","null","","","","","<p><img src= images/blank.png width =""200"" height = ""200"" style = ""float:right""></p><p><img src=images/blank.png width =""800"" height = ""200""></p>","","","","","","","",""
"","732.6699999975972","sequential-stimulus-presentation","45","105546","0.0-14.0-1.0","SS1613082005862","trial","","40","800","1532.6699999975972","images/stimuli/spore_stims/simple_04_A_b.gif","images/stimuli/spore_stims/simple_17_B_b.gif","","","","","2","simple_dissimilar","images/stimuli/spore_stims/simple_17_B_b.gif","left",""
"","null","html-keyboard-response","46","106634","0.0-14.0-0.1","SS1613082005862","","","null","","","","","<p><img src= images/blank.png width =""200"" height = ""200"" style = ""float:right""></p><p><img src=images/blank.png width =""800"" height = ""200""></p>","","","","","","","",""
"","9.69999999870197","sequential-stimulus-presentation","47","107459","0.0-14.0-1.1","SS1613082005862","trial","","40","800","809.699999998702","images/stimuli/spore_stims/simple_04_A_b.gif","images/stimuli/spore_stims/simple_17_B_b.gif","","","","","2","simple_dissimilar","images/stimuli/spore_stims/simple_17_B_b.gif","left",""
"","null","html-keyboard-response","48","108528","0.0-14.0-0.2","SS1613082005862","","","null","","","","","<p><img src= images/blank.png width =""200"" height = ""200"" style = ""float:right""></p><p><img src=images/blank.png width =""800"" height = ""200""></p>","","","","","","","",""
"","300.2300000007381","sequential-stimulus-presentation","49","109642","0.0-14.0-1.2","SS1613082005862","trial","","40","800","1100.230000000738","images/stimuli/spore_stims/simple_04_A_b.gif","images/stimuli/spore_stims/simple_17_B_b.gif","","","","","2","simple_dissimilar","images/stimuli/spore_stims/simple_17_B_b.gif","left",""
"","null","html-keyboard-response","50","110573","0.0-14.0-0.3","SS1613082005862","","","null","","","","","<p><img src= images/blank.png width =""200"" height = ""200"" style = ""float:right""></p><p><img src=images/blank.png width =""800"" height = ""200""></p>","","","","","","","",""
"","1230.3949999986799","sequential-stimulus-presentation","51","112617","0.0-14.0-1.3","SS1613082005862","trial","","40","800","2030.3949999986799","images/stimuli/spore_stims/simple_04_A_b.gif","images/stimuli/spore_stims/simple_17_B_b.gif","","","","","2","simple_dissimilar","images/stimuli/spore_stims/simple_17_B_b.gif","left",""
"","null","html-keyboard-response","52","113572","0.0-14.0-0.4","SS1613082005862","","","null","","","","","<p><img src= images/blank.png width =""200"" height = ""200"" style = ""float:right""></p><p><img src=images/blank.png width =""800"" height = ""200""></p>","","","","","","","",""
"","358.91500000070664","sequential-stimulus-presentation","53","114745","0.0-14.0-1.4","SS1613082005862","trial","","40","800","1158.9150000007066","images/stimuli/spore_stims/simple_04_A_b.gif","images/stimuli/spore_stims/simple_17_B_b.gif","","","","","2","simple_dissimilar","images/stimuli/spore_stims/simple_17_B_b.gif","left",""
"","null","html-keyboard-response","54","115918","0.0-14.0-0.5","SS1613082005862","","","null","","","","","<p><img src= images/blank.png width =""200"" height = ""200"" style = ""float:right""></p><p><img src=images/blank.png width =""800"" height = ""200""></p>","","","","","","","",""
"","2645.1000000015483","sequential-stimulus-presentation","55","119400","0.0-14.0-1.5","SS1613082005862","trial","","40","800","3445.1000000015483","images/stimuli/spore_stims/simple_04_A_b.gif","images/stimuli/spore_stims/simple_17_B_b.gif","","","","","2","simple_dissimilar","images/stimuli/spore_stims/simple_04_A_b.gif","right",""
"","null","html-keyboard-response","56","120696","0.0-14.0-0.6","SS1613082005862","","","null","","","","","<p><img src= images/blank.png width =""200"" height = ""200"" style = ""float:right""></p><p><img src=images/blank.png width =""800"" height = ""200""></p>","","","","","","","",""
"","463.40000000054715","sequential-stimulus-presentation","57","121978","0.0-14.0-1.6","SS1613082005862","trial","","40","800","1263.4000000005472","images/stimuli/spore_stims/simple_04_A_b.gif","images/stimuli/spore_stims/simple_17_B_b.gif","","","","","2","simple_dissimilar","images/stimuli/spore_stims/simple_17_B_b.gif","left",""
"","null","html-keyboard-response","58","123133","0.0-14.0-0.7","SS1613082005862","","","null","","","","","<p><img src= images/blank.png width =""200"" height = ""200"" style = ""float:right""></p><p><img src=images/blank.png width =""800"" height = ""200""></p>","","","","","","","",""
"","763.9699999999721","sequential-stimulus-presentation","59","124712","0.0-14.0-1.7","SS1613082005862","trial","","40","800","1563.969999999972","images/stimuli/spore_stims/simple_04_A_b.gif","images/stimuli/spore_stims/simple_17_B_b.gif","","","","","2","simple_dissimilar","images/stimuli/spore_stims/simple_17_B_b.gif","left",""
"","3562.4150000003283","html-keyboard-response","60","128289","0.0-15.0","SS1613082005862","pref_question","","99","","","","","<video width ='960' height = '540' style='padding-top:8%' autoplay muted><source src='images/stimuli/wall_pref.mp4' type='video/mp4'></video>","3","right","66%","2","","","",""
"","681.0799999984738","sequential-stimulus-presentation","61","129783","0.0-16.0","SS1613082005862","pref_reveal","","40","800","1481.0799999984738","null","null","","","","","2","","","","deviant"
"","null","html-keyboard-response","62","131030","0.0-17.0-0.0","SS1613082005862","","","null","","","","","<p><img src= images/blank.png width =""200"" height = ""200"" style = ""float:right""></p><p><img src=images/blank.png width =""800"" height = ""200""></p>","","","","","","","",""
"","664.5150000003923","sequential-stimulus-presentation","63","132514","0.0-17.0-1.0","SS1613082005862","trial","","40","800","1464.5150000003923","images/stimuli/spore_stims/complex_13_A_a.gif","images/stimuli/spore_stims/complex_13_B_a.gif","","","","","3","complex_similar","images/stimuli/spore_stims/complex_13_B_a.gif","right",""
"","null","html-keyboard-response","64","133614","0.0-17.0-0.1","SS1613082005862","","","null","","","","","<p><img src= images/blank.png width =""200"" height = ""200"" style = ""float:right""></p><p><img src=images/blank.png width =""800"" height = ""200""></p>","","","","","","","",""
"","329.78000000002794","sequential-stimulus-presentation","65","134758","0.0-17.0-1.1","SS1613082005862","trial","","40","800","1129.780000000028","images/stimuli/spore_stims/complex_13_A_a.gif","images/stimuli/spore_stims/complex_13_B_a.gif","","","","","3","complex_similar","images/stimuli/spore_stims/complex_13_B_a.gif","right",""
"","null","html-keyboard-response","66","135634","0.0-17.0-0.2","SS1613082005862","","","null","","","","","<p><img src= images/blank.png width =""200"" height = ""200"" style = ""float:right""></p><p><img src=images/blank.png width =""800"" height = ""200""></p>","","","","","","","",""
"","100.96499999781372","sequential-stimulus-presentation","67","136551","0.0-17.0-1.2","SS1613082005862","trial","","40","800","900.9649999978137","images/stimuli/spore_stims/complex_13_A_a.gif","images/stimuli/spore_stims/complex_13_B_a.gif","","","","","3","complex_similar","images/stimuli/spore_stims/complex_13_B_a.gif","right",""
"","null","html-keyboard-response","68","137459","0.0-17.0-0.3","SS1613082005862","","","null","","","","","<p><img src= images/blank.png width =""200"" height = ""200"" style = ""float:right""></p><p><img src=images/blank.png width =""800"" height = ""200""></p>","","","","","","","",""
"","76.64499999737018","sequential-stimulus-presentation","69","138350","0.0-17.0-1.3","SS1613082005862","trial","","40","800","876.6449999973702","images/stimuli/spore_stims/complex_13_A_a.gif","images/stimuli/spore_stims/complex_13_B_a.gif","","","","","3","complex_similar","images/stimuli/spore_stims/complex_13_B_a.gif","right",""
"","null","html-keyboard-response","70","139350","0.0-17.0-0.4","SS1613082005862","","","null","","","","","<p><img src= images/blank.png width =""200"" height = ""200"" style = ""float:right""></p><p><img src=images/blank.png width =""800"" height = ""200""></p>","","","","","","","",""
"","127.76500000109081","sequential-stimulus-presentation","71","140293","0.0-17.0-1.4","SS1613082005862","trial","","40","800","927.7650000010908","images/stimuli/spore_stims/complex_13_A_a.gif","images/stimuli/spore_stims/complex_13_B_a.gif","","","","","3","complex_similar","images/stimuli/spore_stims/complex_13_B_a.gif","right",""
"","null","html-keyboard-response","72","141453","0.0-17.0-0.5","SS1613082005862","","","null","","","","","<p><img src= images/blank.png width =""200"" height = ""200"" style = ""float:right""></p><p><img src=images/blank.png width =""800"" height = ""200""></p>","","","","","","","",""
"","216.70500000254833","sequential-stimulus-presentation","73","142486","0.0-17.0-1.5","SS1613082005862","trial","","40","800","1016.7050000025483","images/stimuli/spore_stims/complex_13_A_a.gif","images/stimuli/spore_stims/complex_13_B_a.gif","","","","","3","complex_similar","images/stimuli/spore_stims/complex_13_B_a.gif","right",""
"","null","html-keyboard-response","74","143541","0.0-17.0-0.6","SS1613082005862","","","null","","","","","<p><img src= images/blank.png width =""200"" height = ""200"" style = ""float:right""></p><p><img src=images/blank.png width =""800"" height = ""200""></p>","","","","","","","",""
"","184.43499999921187","sequential-stimulus-presentation","75","144541","0.0-17.0-1.6","SS1613082005862","trial","","40","800","984.4349999992119","images/stimuli/spore_stims/complex_13_A_a.gif","images/stimuli/spore_stims/complex_13_B_a.gif","","","","","3","complex_similar","images/stimuli/spore_stims/complex_13_B_a.gif","right",""
"","null","html-keyboard-response","76","145414","0.0-17.0-0.7","SS1613082005862","","","null","","","","","<p><img src= images/blank.png width =""200"" height = ""200"" style = ""float:right""></p><p><img src=images/blank.png width =""800"" height = ""200""></p>","","","","","","","",""
"","654.884999999922","sequential-stimulus-presentation","77","146884","0.0-17.0-1.7","SS1613082005862","trial","","40","800","1454.884999999922","images/stimuli/spore_stims/complex_13_A_a.gif","images/stimuli/spore_stims/complex_13_B_a.gif","","","","","3","complex_similar","images/stimuli/spore_stims/complex_13_A_a.gif","middle",""
"","11792.744999998831","html-keyboard-response","78","158693","0.0-18.0","SS1613082005862","pref_question","","99","","","","","<video width ='960' height = '540' style='padding-top:8%' autoplay muted><source src='images/stimuli/wall_pref.mp4' type='video/mp4'></video>","3","right","66%","3","","","",""
"","407.41500000149244","sequential-stimulus-presentation","79","159922","0.0-19.0","SS1613082005862","pref_reveal","","40","800","1207.4150000014924","null","null","","","","","3","","","","background"
"","null","html-keyboard-response","80","160761","0.0-20.0-0.0","SS1613082005862","","","null","","","","","<p><img src= images/blank.png width =""200"" height = ""200"" style = ""float:right""></p><p><img src=images/blank.png width =""800"" height = ""200""></p>","","","","","","","",""
"","368.91000000105123","sequential-stimulus-presentation","81","161946","0.0-20.0-1.0","SS1613082005862","trial","","40","800","1168.9100000010512","images/stimuli/spore_stims/complex_05_A_c.gif","images/stimuli/spore_stims/complex_08_A_a.gif","","","","","4","complex_dissimilar","images/stimuli/spore_stims/complex_08_A_a.gif","right",""
"","null","html-keyboard-response","82","162869","0.0-20.0-0.1","SS1613082005862","","","null","","","","","<p><img src= images/blank.png width =""200"" height = ""200"" style = ""float:right""></p><p><img src=images/blank.png width =""800"" height = ""200""></p>","","","","","","","",""
"","110.63500000091153","sequential-stimulus-presentation","83","163794","0.0-20.0-1.1","SS1613082005862","trial","","40","800","910.6350000009115","images/stimuli/spore_stims/complex_05_A_c.gif","images/stimuli/spore_stims/complex_08_A_a.gif","","","","","4","complex_dissimilar","images/stimuli/spore_stims/complex_08_A_a.gif","right",""
"","null","html-keyboard-response","84","164670","0.0-20.0-0.2","SS1613082005862","","","null","","","","","<p><img src= images/blank.png width =""200"" height = ""200"" style = ""float:right""></p><p><img src=images/blank.png width =""800"" height = ""200""></p>","","","","","","","",""
"","763.0349999999453","sequential-stimulus-presentation","85","166242","0.0-20.0-1.2","SS1613082005862","trial","","40","800","1563.0349999999453","images/stimuli/spore_stims/complex_05_A_c.gif","images/stimuli/spore_stims/complex_08_A_a.gif","","","","","4","complex_dissimilar","images/stimuli/spore_stims/complex_08_A_a.gif","right",""
"","null","html-keyboard-response","86","167391","0.0-20.0-0.3","SS1613082005862","","","null","","","","","<p><img src= images/blank.png width =""200"" height = ""200"" style = ""float:right""></p><p><img src=images/blank.png width =""800"" height = ""200""></p>","","","","","","","",""
"","60774.06500000143","sequential-stimulus-presentation","87","228977","0.0-20.0-1.3","SS1613082005862","trial","","40","800","61574.06500000143","images/stimuli/spore_stims/complex_05_A_c.gif","images/stimuli/spore_stims/complex_08_A_a.gif","","","","","4","complex_dissimilar","images/stimuli/spore_stims/complex_08_A_a.gif","right",""
"","null","html-keyboard-response","88","230285","0.0-20.0-0.4","SS1613082005862","","","null","","","","","<p><img src= images/blank.png width =""200"" height = ""200"" style = ""float:right""></p><p><img src=images/blank.png width =""800"" height = ""200""></p>","","","","","","","",""
"","305.8049999999639","sequential-stimulus-presentation","89","231409","0.0-20.0-1.4","SS1613082005862","trial","","40","800","1105.804999999964","images/stimuli/spore_stims/complex_05_A_c.gif","images/stimuli/spore_stims/complex_08_A_a.gif","","","","","4","complex_dissimilar","images/stimuli/spore_stims/complex_05_A_c.gif","middle",""
"","null","html-keyboard-response","90","232258","0.0-20.0-0.5","SS1613082005862","","","null","","","","","<p><img src= images/blank.png width =""200"" height = ""200"" style = ""float:right""></p><p><img src=images/blank.png width =""800"" height = ""200""></p>","","","","","","","",""
"","1421.2250000018685","sequential-stimulus-presentation","91","234496","0.0-20.0-1.5","SS1613082005862","trial","","40","800","2221.2250000018685","images/stimuli/spore_stims/complex_05_A_c.gif","images/stimuli/spore_stims/complex_08_A_a.gif","","","","","4","complex_dissimilar","images/stimuli/spore_stims/complex_08_A_a.gif","right",""
"","null","html-keyboard-response","92","235680","0.0-20.0-0.6","SS1613082005862","","","null","","","","","<p><img src= images/blank.png width =""200"" height = ""200"" style = ""float:right""></p><p><img src=images/blank.png width =""800"" height = ""200""></p>","","","","","","","",""
"","607.0849999996426","sequential-stimulus-presentation","93","237105","0.0-20.0-1.6","SS1613082005862","trial","","40","800","1407.0849999996426","images/stimuli/spore_stims/complex_05_A_c.gif","images/stimuli/spore_stims/complex_08_A_a.gif","","","","","4","complex_dissimilar","images/stimuli/spore_stims/complex_08_A_a.gif","right",""
"","null","html-keyboard-response","94","238004","0.0-20.0-0.7","SS1613082005862","","","null","","","","","<p><img src= images/blank.png width =""200"" height = ""200"" style = ""float:right""></p><p><img src=images/blank.png width =""800"" height = ""200""></p>","","","","","","","",""
"","843.8449999994191","sequential-stimulus-presentation","95","239664","0.0-20.0-1.7","SS1613082005862","trial","","40","800","1643.844999999419","images/stimuli/spore_stims/complex_05_A_c.gif","images/stimuli/spore_stims/complex_08_A_a.gif","","","","","4","complex_dissimilar","images/stimuli/spore_stims/complex_08_A_a.gif","right",""
"","5791.389999998501","html-keyboard-response","96","245471","0.0-21.0","SS1613082005862","pref_question","","99","","","","","<video width ='960' height = '540' style='padding-top:8%' autoplay muted><source src='images/stimuli/wall_pref.mp4' type='video/mp4'></video>","3","right","66%","4","","","",""
"","2660.3349999968486","sequential-stimulus-presentation","97","248950","0.0-22.0","SS1613082005862","pref_reveal","","40","800","3460.3349999968486","null","null","","","","","4","","","","background"
"","null","html-keyboard-response","98","249883","0.0-23.0-0.0","SS1613082005862","","","null","","","","","<p><img src= images/blank.png width =""200"" height = ""200"" style = ""float:right""></p><p><img src=images/blank.png width =""800"" height = ""200""></p>","","","","","","","",""
"","587.21499999956","sequential-stimulus-presentation","99","251287","0.0-23.0-1.0","SS1613082005862","trial","","40","800","1387.21499999956","images/stimuli/spore_stims/complex_17_A_a.gif","images/stimuli/spore_stims/complex_17_B_a.gif","","","","","5","complex_similar","images/stimuli/spore_stims/complex_17_B_a.gif","middle",""
"","null","html-keyboard-response","100","252564","0.0-23.0-0.1","SS1613082005862","","","null","","","","","<p><img src= images/blank.png width =""200"" height = ""200"" style = ""float:right""></p><p><img src=images/blank.png width =""800"" height = ""200""></p>","","","","","","","",""
"","1553.3299999988521","sequential-stimulus-presentation","101","254935","0.0-23.0-1.1","SS1613082005862","trial","","40","800","2353.329999998852","images/stimuli/spore_stims/complex_17_A_a.gif","images/stimuli/spore_stims/complex_17_B_a.gif","","","","","5","complex_similar","images/stimuli/spore_stims/complex_17_B_a.gif","middle",""
"","null","html-keyboard-response","102","255882","0.0-23.0-0.2","SS1613082005862","","","null","","","","","<p><img src= images/blank.png width =""200"" height = ""200"" style = ""float:right""></p><p><img src=images/blank.png width =""800"" height = ""200""></p>","","","","","","","",""
"","1858.7950000001001","sequential-stimulus-presentation","103","258558","0.0-23.0-1.2","SS1613082005862","trial","","40","800","2658.7950000001","images/stimuli/spore_stims/complex_17_A_a.gif","images/stimuli/spore_stims/complex_17_B_a.gif","","","","","5","complex_similar","images/stimuli/spore_stims/complex_17_A_a.gif","right",""
"","null","html-keyboard-response","104","259392","0.0-23.0-0.3","SS1613082005862","","","null","","","","","<p><img src= images/blank.png width =""200"" height = ""200"" style = ""float:right""></p><p><img src=images/blank.png width =""800"" height = ""200""></p>","","","","","","","",""
"","2195.6050000007963","sequential-stimulus-presentation","105","262405","0.0-23.0-1.3","SS1613082005862","trial","","40","800","2995.6050000007963","images/stimuli/spore_stims/complex_17_A_a.gif","images/stimuli/spore_stims/complex_17_B_a.gif","","","","","5","complex_similar","images/stimuli/spore_stims/complex_17_B_a.gif","middle",""
"","null","html-keyboard-response","106","263524","0.0-23.0-0.4","SS1613082005862","","","null","","","","","<p><img src= images/blank.png width =""200"" height = ""200"" style = ""float:right""></p><p><img src=images/blank.png width =""800"" height = ""200""></p>","","","","","","","",""
"","529.4150000009104","sequential-stimulus-presentation","107","264870","0.0-23.0-1.4","SS1613082005862","trial","","40","800","1329.4150000009104","images/stimuli/spore_stims/complex_17_A_a.gif","images/stimuli/spore_stims/complex_17_B_a.gif","","","","","5","complex_similar","images/stimuli/spore_stims/complex_17_B_a.gif","middle",""
"","null","html-keyboard-response","108","265885","0.0-23.0-0.5","SS1613082005862","","","null","","","","","<p><img src= images/blank.png width =""200"" height = ""200"" style = ""float:right""></p><p><img src=images/blank.png width =""800"" height = ""200""></p>","","","","","","","",""
"","275.4099999984028","sequential-stimulus-presentation","109","266974","0.0-23.0-1.5","SS1613082005862","trial","","40","800","1075.4099999984028","images/stimuli/spore_stims/complex_17_A_a.gif","images/stimuli/spore_stims/complex_17_B_a.gif","","","","","5","complex_similar","images/stimuli/spore_stims/complex_17_B_a.gif","middle",""
"","null","html-keyboard-response","110","268146","0.0-23.0-0.6","SS1613082005862","","","null","","","","","<p><img src= images/blank.png width =""200"" height = ""200"" style = ""float:right""></p><p><img src=images/blank.png width =""800"" height = ""200""></p>","","","","","","","",""
"","881.4350000029663","sequential-stimulus-presentation","111","269844","0.0-23.0-1.6","SS1613082005862","trial","","40","800","1681.4350000029663","images/stimuli/spore_stims/complex_17_A_a.gif","images/stimuli/spore_stims/complex_17_B_a.gif","","","","","5","complex_similar","images/stimuli/spore_stims/complex_17_B_a.gif","middle",""
"","null","html-keyboard-response","112","270719","0.0-23.0-0.7","SS1613082005862","","","null","","","","","<p><img src= images/blank.png width =""200"" height = ""200"" style = ""float:right""></p><p><img src=images/blank.png width =""800"" height = ""200""></p>","","","","","","","",""
"","692.0499999978347","sequential-stimulus-presentation","113","272221","0.0-23.0-1.7","SS1613082005862","trial","","40","800","1492.0499999978347","images/stimuli/spore_stims/complex_17_A_a.gif","images/stimuli/spore_stims/complex_17_B_a.gif","","","","","5","complex_similar","images/stimuli/spore_stims/complex_17_B_a.gif","middle",""
"","2342.300000000221","html-keyboard-response","114","274582","0.0-24.0","SS1613082005862","pref_question","","97","","","","","<video width ='960' height = '540' style='padding-top:8%' autoplay muted><source src='images/stimuli/wall_pref.mp4' type='video/mp4'></video>","1","left","25%","5","","","",""
"","1242.3300000009476","sequential-stimulus-presentation","115","276643","0.0-25.0","SS1613082005862","pref_reveal","","40","800","2042.3300000009476","null","null","","","","","5","","","","novel"
"","null","html-keyboard-response","116","277601","0.0-26.0-0.0","SS1613082005862","","","null","","","","","<p><img src= images/blank.png width =""200"" height = ""200"" style = ""float:right""></p><p><img src=images/blank.png width =""800"" height = ""200""></p>","","","","","","","",""
"","13.794999998877756","sequential-stimulus-presentation","117","278436","0.0-26.0-1.0","SS1613082005862","trial","","40","800","813.7949999988778","images/stimuli/spore_stims/complex_12_A_c.gif","images/stimuli/spore_stims/complex_12_B_c.gif","","","","","6","complex_similar","images/stimuli/spore_stims/complex_12_B_c.gif","middle",""
"","null","html-keyboard-response","118","279628","0.0-26.0-0.1","SS1613082005862","","","null","","","","","<p><img src= images/blank.png width =""200"" height = ""200"" style = ""float:right""></p><p><img src=images/blank.png width =""800"" height = ""200""></p>","","","","","","","",""
"","309.2949999991106","sequential-stimulus-presentation","119","280755","0.0-26.0-1.1","SS1613082005862","trial","","40","800","1109.2949999991106","images/stimuli/spore_stims/complex_12_A_c.gif","images/stimuli/spore_stims/complex_12_B_c.gif","","","","","6","complex_similar","images/stimuli/spore_stims/complex_12_B_c.gif","middle",""
"","null","html-keyboard-response","120","281910","0.0-26.0-0.2","SS1613082005862","","","null","","","","","<p><img src= images/blank.png width =""200"" height = ""200"" style = ""float:right""></p><p><img src=images/blank.png width =""800"" height = ""200""></p>","","","","","","","",""
"","258.59499999939","sequential-stimulus-presentation","121","282979","0.0-26.0-1.2","SS1613082005862","trial","","40","800","1058.59499999939","images/stimuli/spore_stims/complex_12_A_c.gif","images/stimuli/spore_stims/complex_12_B_c.gif","","","","","6","complex_similar","images/stimuli/spore_stims/complex_12_B_c.gif","middle",""
"","null","html-keyboard-response","122","283960","0.0-26.0-0.3","SS1613082005862","","","null","","","","","<p><img src= images/blank.png width =""200"" height = ""200"" style = ""float:right""></p><p><img src=images/blank.png width =""800"" height = ""200""></p>","","","","","","","",""
"","224.10999999917112","sequential-stimulus-presentation","123","285002","0.0-26.0-1.3","SS1613082005862","trial","","40","800","1024.1099999991711","images/stimuli/spore_stims/complex_12_A_c.gif","images/stimuli/spore_stims/complex_12_B_c.gif","","","","","6","complex_similar","images/stimuli/spore_stims/complex_12_B_c.gif","middle",""
"","null","html-keyboard-response","124","285929","0.0-26.0-0.4","SS1613082005862","","","null","","","","","<p><img src= images/blank.png width =""200"" height = ""200"" style = ""float:right""></p><p><img src=images/blank.png width =""800"" height = ""200""></p>","","","","","","","",""
"","47.200000000884756","sequential-stimulus-presentation","125","286794","0.0-26.0-1.4","SS1613082005862","trial","","40","800","847.2000000008848","images/stimuli/spore_stims/complex_12_A_c.gif","images/stimuli/spore_stims/complex_12_B_c.gif","","","","","6","complex_similar","images/stimuli/spore_stims/complex_12_B_c.gif","middle",""
"","null","html-keyboard-response","126","287879","0.0-26.0-0.5","SS1613082005862","","","null","","","","","<p><img src= images/blank.png width =""200"" height = ""200"" style = ""float:right""></p><p><img src=images/blank.png width =""800"" height = ""200""></p>","","","","","","","",""
"","5.499999999301508","sequential-stimulus-presentation","127","288706","0.0-26.0-1.5","SS1613082005862","trial","","40","800","805.4999999993015","images/stimuli/spore_stims/complex_12_A_c.gif","images/stimuli/spore_stims/complex_12_B_c.gif","","","","","6","complex_similar","images/stimuli/spore_stims/complex_12_B_c.gif","middle",""
"","null","html-keyboard-response","128","289795","0.0-26.0-0.6","SS1613082005862","","","null","","","","","<p><img src= images/blank.png width =""200"" height = ""200"" style = ""float:right""></p><p><img src=images/blank.png width =""800"" height = ""200""></p>","","","","","","","",""
"","540.2650000032736","sequential-stimulus-presentation","129","291153","0.0-26.0-1.6","SS1613082005862","trial","","40","800","1340.2650000032736","images/stimuli/spore_stims/complex_12_A_c.gif","images/stimuli/spore_stims/complex_12_B_c.gif","","","","","6","complex_similar","images/stimuli/spore_stims/complex_12_A_c.gif","left",""
"","null","html-keyboard-response","130","292203","0.0-26.0-0.7","SS1613082005862","","","null","","","","","<p><img src= images/blank.png width =""200"" height = ""200"" style = ""float:right""></p><p><img src=images/blank.png width =""800"" height = ""200""></p>","","","","","","","",""
"","475.924999998766","sequential-stimulus-presentation","131","293498","0.0-26.0-1.7","SS1613082005862","trial","","40","800","1275.924999998766","images/stimuli/spore_stims/complex_12_A_c.gif","images/stimuli/spore_stims/complex_12_B_c.gif","","","","","6","complex_similar","images/stimuli/spore_stims/complex_12_B_c.gif","middle",""
"","4598.224999997881","html-keyboard-response","132","298136","0.0-27.0","SS1613082005862","pref_question","","98","","","","","<video width ='960' height = '540' style='padding-top:8%' autoplay muted><source src='images/stimuli/wall_pref.mp4' type='video/mp4'></video>","2","middle","45%","6","","","",""
"","14.255000001867302","sequential-stimulus-presentation","133","298970","0.0-28.0","SS1613082005862","pref_reveal","","40","800","814.2550000018673","null","null","","","","","6","","","","background"
"","null","html-keyboard-response","134","300151","0.0-29.0-0.0","SS1613082005862","","","null","","","","","<p><img src= images/blank.png width =""200"" height = ""200"" style = ""float:right""></p><p><img src=images/blank.png width =""800"" height = ""200""></p>","","","","","","","",""
"","155.4500000019907","sequential-stimulus-presentation","135","301143","0.0-29.0-1.0","SS1613082005862","trial","","40","800","955.4500000019907","images/stimuli/spore_stims/simple_13_A_c.gif","images/stimuli/spore_stims/simple_13_B_c.gif","","","","","7","simple_similar","images/stimuli/spore_stims/simple_13_B_c.gif","left",""
"","null","html-keyboard-response","136","302116","0.0-29.0-0.1","SS1613082005862","","","null","","","","","<p><img src= images/blank.png width =""200"" height = ""200"" style = ""float:right""></p><p><img src=images/blank.png width =""800"" height = ""200""></p>","","","","","","","",""
"","295.1150000008056","sequential-stimulus-presentation","137","303231","0.0-29.0-1.1","SS1613082005862","trial","","40","800","1095.1150000008056","images/stimuli/spore_stims/simple_13_A_c.gif","images/stimuli/spore_stims/simple_13_B_c.gif","","","","","7","simple_similar","images/stimuli/spore_stims/simple_13_B_c.gif","left",""
"","null","html-keyboard-response","138","304425","0.0-29.0-0.2","SS1613082005862","","","null","","","","","<p><img src= images/blank.png width =""200"" height = ""200"" style = ""float:right""></p><p><img src=images/blank.png width =""800"" height = ""200""></p>","","","","","","","",""
"","73.94500000006519","sequential-stimulus-presentation","139","305319","0.0-29.0-1.2","SS1613082005862","trial","","40","800","873.9450000000652","images/stimuli/spore_stims/simple_13_A_c.gif","images/stimuli/spore_stims/simple_13_B_c.gif","","","","","7","simple_similar","images/stimuli/spore_stims/simple_13_B_c.gif","left",""
"","null","html-keyboard-response","140","306470","0.0-29.0-0.3","SS1613082005862","","","null","","","","","<p><img src= images/blank.png width =""200"" height = ""200"" style = ""float:right""></p><p><img src=images/blank.png width =""800"" height = ""200""></p>","","","","","","","",""
"","5.579999997280538","sequential-stimulus-presentation","141","307311","0.0-29.0-1.3","SS1613082005862","trial","","40","800","805.5799999972805","images/stimuli/spore_stims/simple_13_A_c.gif","images/stimuli/spore_stims/simple_13_B_c.gif","","","","","7","simple_similar","images/stimuli/spore_stims/simple_13_B_c.gif","left",""
"","null","html-keyboard-response","142","308322","0.0-29.0-0.4","SS1613082005862","","","null","","","","","<p><img src= images/blank.png width =""200"" height = ""200"" style = ""float:right""></p><p><img src=images/blank.png width =""800"" height = ""200""></p>","","","","","","","",""
"","615.8549999999814","sequential-stimulus-presentation","143","309758","0.0-29.0-1.4","SS1613082005862","trial","","40","800","1415.8549999999814","images/stimuli/spore_stims/simple_13_A_c.gif","images/stimuli/spore_stims/simple_13_B_c.gif","","","","","7","simple_similar","images/stimuli/spore_stims/simple_13_B_c.gif","left",""
"","null","html-keyboard-response","144","310950","0.0-29.0-0.5","SS1613082005862","","","null","","","","","<p><img src= images/blank.png width =""200"" height = ""200"" style = ""float:right""></p><p><img src=images/blank.png width =""800"" height = ""200""></p>","","","","","","","",""
"","21.27499999909196","sequential-stimulus-presentation","145","311784","0.0-29.0-1.5","SS1613082005862","trial","","40","800","821.274999999092","images/stimuli/spore_stims/simple_13_A_c.gif","images/stimuli/spore_stims/simple_13_B_c.gif","","","","","7","simple_similar","images/stimuli/spore_stims/simple_13_A_c.gif","middle",""
"","null","html-keyboard-response","146","312671","0.0-29.0-0.6","SS1613082005862","","","null","","","","","<p><img src= images/blank.png width =""200"" height = ""200"" style = ""float:right""></p><p><img src=images/blank.png width =""800"" height = ""200""></p>","","","","","","","",""
"","147.82999999803724","sequential-stimulus-presentation","147","313640","0.0-29.0-1.6","SS1613082005862","trial","","40","800","947.8299999980372","images/stimuli/spore_stims/simple_13_A_c.gif","images/stimuli/spore_stims/simple_13_B_c.gif","","","","","7","simple_similar","images/stimuli/spore_stims/simple_13_B_c.gif","left",""
"","null","html-keyboard-response","148","314858","0.0-29.0-0.7","SS1613082005862","","","null","","","","","<p><img src= images/blank.png width =""200"" height = ""200"" style = ""float:right""></p><p><img src=images/blank.png width =""800"" height = ""200""></p>","","","","","","","",""
"","83.69499999750406","sequential-stimulus-presentation","149","315759","0.0-29.0-1.7","SS1613082005862","trial","","40","800","883.694999997504","images/stimuli/spore_stims/simple_13_A_c.gif","images/stimuli/spore_stims/simple_13_B_c.gif","","","","","7","simple_similar","images/stimuli/spore_stims/simple_13_B_c.gif","left",""
"","2870.3850000019884","html-keyboard-response","150","318648","0.0-30.0","SS1613082005862","pref_question","","99","","","","","<video width ='960' height = '540' style='padding-top:8%' autoplay muted><source src='images/stimuli/wall_pref.mp4' type='video/mp4'></video>","3","right","66%","7","","","",""
"","90.15000000002328","sequential-stimulus-presentation","151","319559","0.0-31.0","SS1613082005862","pref_reveal","","40","800","890.1500000000233","null","null","","","","","7","","","","novel"
"","null","html-keyboard-response","152","320814","0.0-32.0-0.0","SS1613082005862","","","null","","","","","<p><img src= images/blank.png width =""200"" height = ""200"" style = ""float:right""></p><p><img src=images/blank.png width =""800"" height = ""200""></p>","","","","","","","",""
"","85.51000000082422","sequential-stimulus-presentation","153","321718","0.0-32.0-1.0","SS1613082005862","trial","","40","800","885.5100000008242","images/stimuli/spore_stims/complex_20_B_c.gif","images/stimuli/spore_stims/complex_20_A_c.gif","","","","","8","complex_similar","images/stimuli/spore_stims/complex_20_A_c.gif","middle",""
"","null","html-keyboard-response","154","322580","0.0-32.0-0.1","SS1613082005862","","","null","","","","","<p><img src= images/blank.png width =""200"" height = ""200"" style = ""float:right""></p><p><img src=images/blank.png width =""800"" height = ""200""></p>","","","","","","","",""
"","101.03499999968335","sequential-stimulus-presentation","155","323502","0.0-32.0-1.1","SS1613082005862","trial","","40","800","901.0349999996834","images/stimuli/spore_stims/complex_20_B_c.gif","images/stimuli/spore_stims/complex_20_A_c.gif","","","","","8","complex_similar","images/stimuli/spore_stims/complex_20_A_c.gif","middle",""
"","null","html-keyboard-response","156","324685","0.0-32.0-0.2","SS1613082005862","","","null","","","","","<p><img src= images/blank.png width =""200"" height = ""200"" style = ""float:right""></p><p><img src=images/blank.png width =""800"" height = ""200""></p>","","","","","","","",""
"","1341.6550000001444","sequential-stimulus-presentation","157","326861","0.0-32.0-1.2","SS1613082005862","trial","","40","800","2141.6550000001444","images/stimuli/spore_stims/complex_20_B_c.gif","images/stimuli/spore_stims/complex_20_A_c.gif","","","","","8","complex_similar","images/stimuli/spore_stims/complex_20_B_c.gif","left",""
"","null","html-keyboard-response","158","328022","0.0-32.0-0.3","SS1613082005862","","","null","","","","","<p><img src= images/blank.png width =""200"" height = ""200"" style = ""float:right""></p><p><img src=images/blank.png width =""800"" height = ""200""></p>","","","","","","","",""
"","770.2400000016205","sequential-stimulus-presentation","159","329605","0.0-32.0-1.3","SS1613082005862","trial","","40","800","1570.2400000016205","images/stimuli/spore_stims/complex_20_B_c.gif","images/stimuli/spore_stims/complex_20_A_c.gif","","","","","8","complex_similar","images/stimuli/spore_stims/complex_20_A_c.gif","middle",""
"","null","html-keyboard-response","160","330513","0.0-32.0-0.4","SS1613082005862","","","null","","","","","<p><img src= images/blank.png width =""200"" height = ""200"" style = ""float:right""></p><p><img src=images/blank.png width =""800"" height = ""200""></p>","","","","","","","",""
"","607.7800000020652","sequential-stimulus-presentation","161","331941","0.0-32.0-1.4","SS1613082005862","trial","","40","800","1407.7800000020652","images/stimuli/spore_stims/complex_20_B_c.gif","images/stimuli/spore_stims/complex_20_A_c.gif","","","","","8","complex_similar","images/stimuli/spore_stims/complex_20_A_c.gif","middle",""
"","null","html-keyboard-response","162","332866","0.0-32.0-0.5","SS1613082005862","","","null","","","","","<p><img src= images/blank.png width =""200"" height = ""200"" style = ""float:right""></p><p><img src=images/blank.png width =""800"" height = ""200""></p>","","","","","","","",""
"","28.135000000474975","sequential-stimulus-presentation","163","333716","0.0-32.0-1.5","SS1613082005862","trial","","40","800","828.135000000475","images/stimuli/spore_stims/complex_20_B_c.gif","images/stimuli/spore_stims/complex_20_A_c.gif","","","","","8","complex_similar","images/stimuli/spore_stims/complex_20_A_c.gif","middle",""
"","null","html-keyboard-response","164","334953","0.0-32.0-0.6","SS1613082005862","","","null","","","","","<p><img src= images/blank.png width =""200"" height = ""200"" style = ""float:right""></p><p><img src=images/blank.png width =""800"" height = ""200""></p>","","","","","","","",""
"","141.9449999994249","sequential-stimulus-presentation","165","335917","0.0-32.0-1.6","SS1613082005862","trial","","40","800","941.9449999994249","images/stimuli/spore_stims/complex_20_B_c.gif","images/stimuli/spore_stims/complex_20_A_c.gif","","","","","8","complex_similar","images/stimuli/spore_stims/complex_20_A_c.gif","middle",""
"","null","html-keyboard-response","166","336997","0.0-32.0-0.7","SS1613082005862","","","null","","","","","<p><img src= images/blank.png width =""200"" height = ""200"" style = ""float:right""></p><p><img src=images/blank.png width =""800"" height = ""200""></p>","","","","","","","",""
"","65.56999999884283","sequential-stimulus-presentation","167","337884","0.0-32.0-1.7","SS1613082005862","trial","","40","800","865.5699999988428","images/stimuli/spore_stims/complex_20_B_c.gif","images/stimuli/spore_stims/complex_20_A_c.gif","","","","","8","complex_similar","images/stimuli/spore_stims/complex_20_A_c.gif","middle",""
"","5137.920000000973","html-keyboard-response","168","343044","0.0-33.0","SS1613082005862","pref_question","","98","","","","","<video width ='960' height = '540' style='padding-top:8%' autoplay muted><source src='images/stimuli/wall_pref.mp4' type='video/mp4'></video>","2","middle","45%","8","","","",""
"","1072.199999998731","sequential-stimulus-presentation","169","344939","0.0-34.0","SS1613082005862","pref_reveal","","40","800","1872.199999998731","null","null","","","","","8","","","","background"
"","null","html-keyboard-response","170","346101","0.0-35.0-0.0","SS1613082005862","","","null","","","","","<p><img src= images/blank.png width =""200"" height = ""200"" style = ""float:right""></p><p><img src=images/blank.png width =""800"" height = ""200""></p>","","","","","","","",""
"","845.7249999992782","sequential-stimulus-presentation","171","347769","0.0-35.0-1.0","SS1613082005862","trial","","40","800","1645.7249999992782","images/stimuli/spore_stims/complex_16_B_d.gif","images/stimuli/spore_stims/complex_18_A_a.gif","","","","","9","complex_dissimilar","images/stimuli/spore_stims/complex_18_A_a.gif","right",""
"","null","html-keyboard-response","172","348811","0.0-35.0-0.1","SS1613082005862","","","null","","","","","<p><img src= images/blank.png width =""200"" height = ""200"" style = ""float:right""></p><p><img src=images/blank.png width =""800"" height = ""200""></p>","","","","","","","",""
"","602.3050000003423","sequential-stimulus-presentation","173","350225","0.0-35.0-1.1","SS1613082005862","trial","","40","800","1402.3050000003423","images/stimuli/spore_stims/complex_16_B_d.gif","images/stimuli/spore_stims/complex_18_A_a.gif","","","","","9","complex_dissimilar","images/stimuli/spore_stims/complex_18_A_a.gif","right",""
"","null","html-keyboard-response","174","351079","0.0-35.0-0.2","SS1613082005862","","","null","","","","","<p><img src= images/blank.png width =""200"" height = ""200"" style = ""float:right""></p><p><img src=images/blank.png width =""800"" height = ""200""></p>","","","","","","","",""
"","555.9900000008056","sequential-stimulus-presentation","175","352458","0.0-35.0-1.2","SS1613082005862","trial","","40","800","1355.9900000008056","images/stimuli/spore_stims/complex_16_B_d.gif","images/stimuli/spore_stims/complex_18_A_a.gif","","","","","9","complex_dissimilar","images/stimuli/spore_stims/complex_18_A_a.gif","right",""
"","null","html-keyboard-response","176","353637","0.0-35.0-0.3","SS1613082005862","","","null","","","","","<p><img src= images/blank.png width =""200"" height = ""200"" style = ""float:right""></p><p><img src=images/blank.png width =""800"" height = ""200""></p>","","","","","","","",""
"","146.19500000117114","sequential-stimulus-presentation","177","354609","0.0-35.0-1.3","SS1613082005862","trial","","40","800","946.1950000011711","images/stimuli/spore_stims/complex_16_B_d.gif","images/stimuli/spore_stims/complex_18_A_a.gif","","","","","9","complex_dissimilar","images/stimuli/spore_stims/complex_18_A_a.gif","right",""
"","null","html-keyboard-response","178","355810","0.0-35.0-0.4","SS1613082005862","","","null","","","","","<p><img src= images/blank.png width =""200"" height = ""200"" style = ""float:right""></p><p><img src=images/blank.png width =""800"" height = ""200""></p>","","","","","","","",""
"","601.7049999972805","sequential-stimulus-presentation","179","357224","0.0-35.0-1.4","SS1613082005862","trial","","40","800","1401.7049999972805","images/stimuli/spore_stims/complex_16_B_d.gif","images/stimuli/spore_stims/complex_18_A_a.gif","","","","","9","complex_dissimilar","images/stimuli/spore_stims/complex_18_A_a.gif","right",""
"","null","html-keyboard-response","180","358124","0.0-35.0-0.5","SS1613082005862","","","null","","","","","<p><img src= images/blank.png width =""200"" height = ""200"" style = ""float:right""></p><p><img src=images/blank.png width =""800"" height = ""200""></p>","","","","","","","",""
"","433.9700000018929","sequential-stimulus-presentation","181","359383","0.0-35.0-1.5","SS1613082005862","trial","","40","800","1233.970000001893","images/stimuli/spore_stims/complex_16_B_d.gif","images/stimuli/spore_stims/complex_18_A_a.gif","","","","","9","complex_dissimilar","images/stimuli/spore_stims/complex_18_A_a.gif","right",""
"","null","html-keyboard-response","182","360544","0.0-35.0-0.6","SS1613082005862","","","null","","","","","<p><img src= images/blank.png width =""200"" height = ""200"" style = ""float:right""></p><p><img src=images/blank.png width =""800"" height = ""200""></p>","","","","","","","",""
"","384.8349999971688","sequential-stimulus-presentation","183","361752","0.0-35.0-1.6","SS1613082005862","trial","","40","800","1184.8349999971688","images/stimuli/spore_stims/complex_16_B_d.gif","images/stimuli/spore_stims/complex_18_A_a.gif","","","","","9","complex_dissimilar","images/stimuli/spore_stims/complex_18_A_a.gif","right",""
"","null","html-keyboard-response","184","363024","0.0-35.0-0.7","SS1613082005862","","","null","","","","","<p><img src= images/blank.png width =""200"" height = ""200"" style = ""float:right""></p><p><img src=images/blank.png width =""800"" height = ""200""></p>","","","","","","","",""
"","198.48999999882653","sequential-stimulus-presentation","185","364039","0.0-35.0-1.7","SS1613082005862","trial","","40","800","998.4899999988265","images/stimuli/spore_stims/complex_16_B_d.gif","images/stimuli/spore_stims/complex_18_A_a.gif","","","","","9","complex_dissimilar","images/stimuli/spore_stims/complex_16_B_d.gif","left",""
"","1698.1600000035833","html-keyboard-response","186","365758","0.0-36.0","SS1613082005862","pref_question","","98","","","","","<video width ='960' height = '540' style='padding-top:8%' autoplay muted><source src='images/stimuli/wall_pref.mp4' type='video/mp4'></video>","2","middle","45%","9","","","",""
"","136.67500000155997","sequential-stimulus-presentation","187","366711","0.0-37.0","SS1613082005862","pref_reveal","","40","800","936.67500000156","null","null","","","","","9","","","","novel"
"","null","html-keyboard-response","188","367758","0.0-38.0-0.0","SS1613082005862","","","null","","","","","<p><img src= images/blank.png width =""200"" height = ""200"" style = ""float:right""></p><p><img src=images/blank.png width =""800"" height = ""200""></p>","","","","","","","",""
"","538.9799999975367","sequential-stimulus-presentation","189","369118","0.0-38.0-1.0","SS1613082005862","trial","","40","800","1338.9799999975367","images/stimuli/spore_stims/complex_19_B_d.gif","images/stimuli/spore_stims/complex_03_B_b.gif","","","","","10","complex_dissimilar","images/stimuli/spore_stims/complex_03_B_b.gif","left",""
"","null","html-keyboard-response","190","370120","0.0-38.0-0.1","SS1613082005862","","","null","","","","","<p><img src= images/blank.png width =""200"" height = ""200"" style = ""float:right""></p><p><img src=images/blank.png width =""800"" height = ""200""></p>","","","","","","","",""
"","49.94500000245171","sequential-stimulus-presentation","191","370992","0.0-38.0-1.1","SS1613082005862","trial","","40","800","849.9450000024517","images/stimuli/spore_stims/complex_19_B_d.gif","images/stimuli/spore_stims/complex_03_B_b.gif","","","","","10","complex_dissimilar","images/stimuli/spore_stims/complex_03_B_b.gif","left",""
"","null","html-keyboard-response","192","371869","0.0-38.0-0.2","SS1613082005862","","","null","","","","","<p><img src= images/blank.png width =""200"" height = ""200"" style = ""float:right""></p><p><img src=images/blank.png width =""800"" height = ""200""></p>","","","","","","","",""
"","322.280000000319","sequential-stimulus-presentation","193","373015","0.0-38.0-1.2","SS1613082005862","trial","","40","800","1122.280000000319","images/stimuli/spore_stims/complex_19_B_d.gif","images/stimuli/spore_stims/complex_03_B_b.gif","","","","","10","complex_dissimilar","images/stimuli/spore_stims/complex_19_B_d.gif","right",""
"","null","html-keyboard-response","194","374255","0.0-38.0-0.3","SS1613082005862","","","null","","","","","<p><img src= images/blank.png width =""200"" height = ""200"" style = ""float:right""></p><p><img src=images/blank.png width =""800"" height = ""200""></p>","","","","","","","",""
"","484.48500000080094","sequential-stimulus-presentation","195","375551","0.0-38.0-1.3","SS1613082005862","trial","","40","800","1284.485000000801","images/stimuli/spore_stims/complex_19_B_d.gif","images/stimuli/spore_stims/complex_03_B_b.gif","","","","","10","complex_dissimilar","images/stimuli/spore_stims/complex_03_B_b.gif","left",""
"","null","html-keyboard-response","196","376634","0.0-38.0-0.4","SS1613082005862","","","null","","","","","<p><img src= images/blank.png width =""200"" height = ""200"" style = ""float:right""></p><p><img src=images/blank.png width =""800"" height = ""200""></p>","","","","","","","",""
"","75.74500000185799","sequential-stimulus-presentation","197","377535","0.0-38.0-1.4","SS1613082005862","trial","","40","800","875.745000001858","images/stimuli/spore_stims/complex_19_B_d.gif","images/stimuli/spore_stims/complex_03_B_b.gif","","","","","10","complex_dissimilar","images/stimuli/spore_stims/complex_03_B_b.gif","left",""
"","null","html-keyboard-response","198","378721","0.0-38.0-0.5","SS1613082005862","","","null","","","","","<p><img src= images/blank.png width =""200"" height = ""200"" style = ""float:right""></p><p><img src=images/blank.png width =""800"" height = ""200""></p>","","","","","","","",""
"","173.35000000096625","sequential-stimulus-presentation","199","379718","0.0-38.0-1.5","SS1613082005862","trial","","40","800","973.3500000009662","images/stimuli/spore_stims/complex_19_B_d.gif","images/stimuli/spore_stims/complex_03_B_b.gif","","","","","10","complex_dissimilar","images/stimuli/spore_stims/complex_03_B_b.gif","left",""
"","null","html-keyboard-response","200","380666","0.0-38.0-0.6","SS1613082005862","","","null","","","","","<p><img src= images/blank.png width =""200"" height = ""200"" style = ""float:right""></p><p><img src=images/blank.png width =""800"" height = ""200""></p>","","","","","","","",""
"","172.7050000008894","sequential-stimulus-presentation","201","381653","0.0-38.0-1.6","SS1613082005862","trial","","40","800","972.7050000008894","images/stimuli/spore_stims/complex_19_B_d.gif","images/stimuli/spore_stims/complex_03_B_b.gif","","","","","10","complex_dissimilar","images/stimuli/spore_stims/complex_03_B_b.gif","left",""
"","null","html-keyboard-response","202","382949","0.0-38.0-0.7","SS1613082005862","","","null","","","","","<p><img src= images/blank.png width =""200"" height = ""200"" style = ""float:right""></p><p><img src=images/blank.png width =""800"" height = ""200""></p>","","","","","","","",""
"","1119.2249999985215","sequential-stimulus-presentation","203","384893","0.0-38.0-1.7","SS1613082005862","trial","","40","800","1919.2249999985215","images/stimuli/spore_stims/complex_19_B_d.gif","images/stimuli/spore_stims/complex_03_B_b.gif","","","","","10","complex_dissimilar","images/stimuli/spore_stims/complex_03_B_b.gif","left",""
"","577.6449999975739","html-keyboard-response","204","385485","0.0-39.0","SS1613082005862","pref_question","","98","","","","","<video width ='960' height = '540' style='padding-top:8%' autoplay muted><source src='images/stimuli/wall_pref.mp4' type='video/mp4'></video>","2","middle","45%","10","","","",""
"","393.09499999939","sequential-stimulus-presentation","205","386693","0.0-40.0","SS1613082005862","pref_reveal","","40","800","1193.09499999939","null","null","","","","","10","","","","novel"
"","null","html-keyboard-response","206","387692","0.0-41.0-0.0","SS1613082005862","","","null","","","","","<p><img src= images/blank.png width =""200"" height = ""200"" style = ""float:right""></p><p><img src=images/blank.png width =""800"" height = ""200""></p>","","","","","","","",""
"","71.6599999977625","sequential-stimulus-presentation","207","388590","0.0-41.0-1.0","SS1613082005862","trial","","40","800","871.6599999977625","images/stimuli/spore_stims/simple_03_A_b.gif","images/stimuli/spore_stims/simple_09_A_d.gif","","","","","11","simple_dissimilar","images/stimuli/spore_stims/simple_09_A_d.gif","middle",""
"","null","html-keyboard-response","208","389685","0.0-41.0-0.1","SS1613082005862","","","null","","","","","<p><img src= images/blank.png width =""200"" height = ""200"" style = ""float:right""></p><p><img src=images/blank.png width =""800"" height = ""200""></p>","","","","","","","",""
"","104.18999999819789","sequential-stimulus-presentation","209","390629","0.0-41.0-1.1","SS1613082005862","trial","","40","800","904.1899999981979","images/stimuli/spore_stims/simple_03_A_b.gif","images/stimuli/spore_stims/simple_09_A_d.gif","","","","","11","simple_dissimilar","images/stimuli/spore_stims/simple_09_A_d.gif","middle",""
"","null","html-keyboard-response","210","391716","0.0-41.0-0.2","SS1613082005862","","","null","","","","","<p><img src= images/blank.png width =""200"" height = ""200"" style = ""float:right""></p><p><img src=images/blank.png width =""800"" height = ""200""></p>","","","","","","","",""
"","123.88500000088243","sequential-stimulus-presentation","211","392660","0.0-41.0-1.2","SS1613082005862","trial","","40","800","923.8850000008824","images/stimuli/spore_stims/simple_03_A_b.gif","images/stimuli/spore_stims/simple_09_A_d.gif","","","","","11","simple_dissimilar","images/stimuli/spore_stims/simple_09_A_d.gif","middle",""
"","null","html-keyboard-response","212","393850","0.0-41.0-0.3","SS1613082005862","","","null","","","","","<p><img src= images/blank.png width =""200"" height = ""200"" style = ""float:right""></p><p><img src=images/blank.png width =""800"" height = ""200""></p>","","","","","","","",""
"","482.00500000163447","sequential-stimulus-presentation","213","395157","0.0-41.0-1.3","SS1613082005862","trial","","40","800","1282.0050000016345","images/stimuli/spore_stims/simple_03_A_b.gif","images/stimuli/spore_stims/simple_09_A_d.gif","","","","","11","simple_dissimilar","images/stimuli/spore_stims/simple_09_A_d.gif","middle",""
"","null","html-keyboard-response","214","396035","0.0-41.0-0.4","SS1613082005862","","","null","","","","","<p><img src= images/blank.png width =""200"" height = ""200"" style = ""float:right""></p><p><img src=images/blank.png width =""800"" height = ""200""></p>","","","","","","","",""
"","634.0400000008522","sequential-stimulus-presentation","215","397492","0.0-41.0-1.4","SS1613082005862","trial","","40","800","1434.0400000008522","images/stimuli/spore_stims/simple_03_A_b.gif","images/stimuli/spore_stims/simple_09_A_d.gif","","","","","11","simple_dissimilar","images/stimuli/spore_stims/simple_09_A_d.gif","middle",""
"","null","html-keyboard-response","216","398624","0.0-41.0-0.5","SS1613082005862","","","null","","","","","<p><img src= images/blank.png width =""200"" height = ""200"" style = ""float:right""></p><p><img src=images/blank.png width =""800"" height = ""200""></p>","","","","","","","",""
"","234.93000000237953","sequential-stimulus-presentation","217","399683","0.0-41.0-1.5","SS1613082005862","trial","","40","800","1034.9300000023795","images/stimuli/spore_stims/simple_03_A_b.gif","images/stimuli/spore_stims/simple_09_A_d.gif","","","","","11","simple_dissimilar","images/stimuli/spore_stims/simple_09_A_d.gif","middle",""
"","null","html-keyboard-response","218","400689","0.0-41.0-0.6","SS1613082005862","","","null","","","","","<p><img src= images/blank.png width =""200"" height = ""200"" style = ""float:right""></p><p><img src=images/blank.png width =""800"" height = ""200""></p>","","","","","","","",""
"","202.20500000141328","sequential-stimulus-presentation","219","401715","0.0-41.0-1.6","SS1613082005862","trial","","40","800","1002.2050000014133","images/stimuli/spore_stims/simple_03_A_b.gif","images/stimuli/spore_stims/simple_09_A_d.gif","","","","","11","simple_dissimilar","images/stimuli/spore_stims/simple_03_A_b.gif","left",""
"","null","html-keyboard-response","220","402632","0.0-41.0-0.7","SS1613082005862","","","null","","","","","<p><img src= images/blank.png width =""200"" height = ""200"" style = ""float:right""></p><p><img src=images/blank.png width =""800"" height = ""200""></p>","","","","","","","",""
"","588.5699999998906","sequential-stimulus-presentation","221","404035","0.0-41.0-1.7","SS1613082005862","trial","","40","800","1388.5699999998906","images/stimuli/spore_stims/simple_03_A_b.gif","images/stimuli/spore_stims/simple_09_A_d.gif","","","","","11","simple_dissimilar","images/stimuli/spore_stims/simple_09_A_d.gif","middle",""
"","8124.400000000605","html-keyboard-response","222","412187","0.0-42.0","SS1613082005862","pref_question","","99","","","","","<video width ='960' height = '540' style='padding-top:8%' autoplay muted><source src='images/stimuli/wall_pref.mp4' type='video/mp4'></video>","3","right","66%","11","","","",""
"","66.9049999996787","sequential-stimulus-presentation","223","413081","0.0-43.0","SS1613082005862","pref_reveal","","40","800","866.9049999996787","null","null","","","","","11","","","","novel"
"","null","html-keyboard-response","224","414245","0.0-44.0-0.0","SS1613082005862","","","null","","","","","<p><img src= images/blank.png width =""200"" height = ""200"" style = ""float:right""></p><p><img src=images/blank.png width =""800"" height = ""200""></p>","","","","","","","",""
"","29.760000001231674","sequential-stimulus-presentation","225","415097","0.0-44.0-1.0","SS1613082005862","trial","","40","800","829.7600000012317","images/stimuli/spore_stims/complex_19_A_c.gif","images/stimuli/spore_stims/complex_15_B_b.gif","","","","","12","complex_dissimilar","images/stimuli/spore_stims/complex_15_B_b.gif","left",""
"","null","html-keyboard-response","226","416188","0.0-44.0-0.1","SS1613082005862","","","null","","","","","<p><img src= images/blank.png width =""200"" height = ""200"" style = ""float:right""></p><p><img src=images/blank.png width =""800"" height = ""200""></p>","","","","","","","",""
"","29.314999999769498","sequential-stimulus-presentation","227","417040","0.0-44.0-1.1","SS1613082005862","trial","","40","800","829.3149999997695","images/stimuli/spore_stims/complex_19_A_c.gif","images/stimuli/spore_stims/complex_15_B_b.gif","","","","","12","complex_dissimilar","images/stimuli/spore_stims/complex_15_B_b.gif","left",""
"","null","html-keyboard-response","228","418293","0.0-44.0-0.2","SS1613082005862","","","null","","","","","<p><img src= images/blank.png width =""200"" height = ""200"" style = ""float:right""></p><p><img src=images/blank.png width =""800"" height = ""200""></p>","","","","","","","",""
"","2644.6149999974295","sequential-stimulus-presentation","229","421761","0.0-44.0-1.2","SS1613082005862","trial","","40","800","3444.6149999974295","images/stimuli/spore_stims/complex_19_A_c.gif","images/stimuli/spore_stims/complex_15_B_b.gif","","","","","12","complex_dissimilar","images/stimuli/spore_stims/complex_15_B_b.gif","left",""
"","null","html-keyboard-response","230","422755","0.0-44.0-0.3","SS1613082005862","","","null","","","","","<p><img src= images/blank.png width =""200"" height = ""200"" style = ""float:right""></p><p><img src=images/blank.png width =""800"" height = ""200""></p>","","","","","","","",""
"","114.99499999987893","sequential-stimulus-presentation","231","423695","0.0-44.0-1.3","SS1613082005862","trial","","40","800","914.9949999998789","images/stimuli/spore_stims/complex_19_A_c.gif","images/stimuli/spore_stims/complex_15_B_b.gif","","","","","12","complex_dissimilar","images/stimuli/spore_stims/complex_15_B_b.gif","left",""
"","null","html-keyboard-response","232","424607","0.0-44.0-0.4","SS1613082005862","","","null","","","","","<p><img src= images/blank.png width =""200"" height = ""200"" style = ""float:right""></p><p><img src=images/blank.png width =""800"" height = ""200""></p>","","","","","","","",""
"","605.6949999984354","sequential-stimulus-presentation","233","426039","0.0-44.0-1.4","SS1613082005862","trial","","40","800","1405.6949999984354","images/stimuli/spore_stims/complex_19_A_c.gif","images/stimuli/spore_stims/complex_15_B_b.gif","","","","","12","complex_dissimilar","images/stimuli/spore_stims/complex_19_A_c.gif","middle",""
"","null","html-keyboard-response","234","427121","0.0-44.0-0.5","SS1613082005862","","","null","","","","","<p><img src= images/blank.png width =""200"" height = ""200"" style = ""float:right""></p><p><img src=images/blank.png width =""800"" height = ""200""></p>","","","","","","","",""
"","204.51500000129454","sequential-stimulus-presentation","235","428152","0.0-44.0-1.5","SS1613082005862","trial","","40","800","1004.5150000012945","images/stimuli/spore_stims/complex_19_A_c.gif","images/stimuli/spore_stims/complex_15_B_b.gif","","","","","12","complex_dissimilar","images/stimuli/spore_stims/complex_15_B_b.gif","left",""
"","null","html-keyboard-response","236","429370","0.0-44.0-0.6","SS1613082005862","","","null","","","","","<p><img src= images/blank.png width =""200"" height = ""200"" style = ""float:right""></p><p><img src=images/blank.png width =""800"" height = ""200""></p>","","","","","","","",""
"","407.81000000063796","sequential-stimulus-presentation","237","430622","0.0-44.0-1.6","SS1613082005862","trial","","40","800","1207.810000000638","images/stimuli/spore_stims/complex_19_A_c.gif","images/stimuli/spore_stims/complex_15_B_b.gif","","","","","12","complex_dissimilar","images/stimuli/spore_stims/complex_15_B_b.gif","left",""
"","null","html-keyboard-response","238","431487","0.0-44.0-0.7","SS1613082005862","","","null","","","","","<p><img src= images/blank.png width =""200"" height = ""200"" style = ""float:right""></p><p><img src=images/blank.png width =""800"" height = ""200""></p>","","","","","","","",""
"","658.2650000018766","sequential-stimulus-presentation","239","432968","0.0-44.0-1.7","SS1613082005862","trial","","40","800","1458.2650000018766","images/stimuli/spore_stims/complex_19_A_c.gif","images/stimuli/spore_stims/complex_15_B_b.gif","","","","","12","complex_dissimilar","images/stimuli/spore_stims/complex_15_B_b.gif","left",""
"","6638.524999998452","html-keyboard-response","240","439634","0.0-45.0","SS1613082005862","pref_question","","98","","","","","<video width ='960' height = '540' style='padding-top:8%' autoplay muted><source src='images/stimuli/wall_pref.mp4' type='video/mp4'></video>","2","middle","45%","12","","","",""
"","814.1949999990175","sequential-stimulus-presentation","241","441278","0.0-46.0","SS1613082005862","pref_reveal","","40","800","1614.1949999990175","null","null","","","","","12","","","","deviant"
"","null","html-keyboard-response","242","442523","0.0-47.0-0.0","SS1613082005862","","","null","","","","","<p><img src= images/blank.png width =""200"" height = ""200"" style = ""float:right""></p><p><img src=images/blank.png width =""800"" height = ""200""></p>","","","","","","","",""
"","153.31999999762047","sequential-stimulus-presentation","243","443502","0.0-47.0-1.0","SS1613082005862","trial","","40","800","953.3199999976205","images/stimuli/spore_stims/simple_09_B_a.gif","images/stimuli/spore_stims/simple_19_B_b.gif","","","","","13","simple_dissimilar","images/stimuli/spore_stims/simple_19_B_b.gif","left",""
"","null","html-keyboard-response","244","444571","0.0-47.0-0.1","SS1613082005862","","","null","","","","","<p><img src= images/blank.png width =""200"" height = ""200"" style = ""float:right""></p><p><img src=images/blank.png width =""800"" height = ""200""></p>","","","","","","","",""
"","3877.440000000177","sequential-stimulus-presentation","245","449277","0.0-47.0-1.1","SS1613082005862","trial","","40","800","4677.440000000177","images/stimuli/spore_stims/simple_09_B_a.gif","images/stimuli/spore_stims/simple_19_B_b.gif","","","","","13","simple_dissimilar","images/stimuli/spore_stims/simple_19_B_b.gif","left",""
"","null","html-keyboard-response","246","450176","0.0-47.0-0.2","SS1613082005862","","","null","","","","","<p><img src= images/blank.png width =""200"" height = ""200"" style = ""float:right""></p><p><img src=images/blank.png width =""800"" height = ""200""></p>","","","","","","","",""
"","139.9299999975483","sequential-stimulus-presentation","247","451141","0.0-47.0-1.2","SS1613082005862","trial","","40","800","939.9299999975483","images/stimuli/spore_stims/simple_09_B_a.gif","images/stimuli/spore_stims/simple_19_B_b.gif","","","","","13","simple_dissimilar","images/stimuli/spore_stims/simple_19_B_b.gif","left",""
"","null","html-keyboard-response","248","452146","0.0-47.0-0.3","SS1613082005862","","","null","","","","","<p><img src= images/blank.png width =""200"" height = ""200"" style = ""float:right""></p><p><img src=images/blank.png width =""800"" height = ""200""></p>","","","","","","","",""
"","1609.2749999988591","sequential-stimulus-presentation","249","454597","0.0-47.0-1.3","SS1613082005862","trial","","40","800","2409.274999998859","images/stimuli/spore_stims/simple_09_B_a.gif","images/stimuli/spore_stims/simple_19_B_b.gif","","","","","13","simple_dissimilar","images/stimuli/spore_stims/simple_19_B_b.gif","left",""
"","null","html-keyboard-response","250","455469","0.0-47.0-0.4","SS1613082005862","","","null","","","","","<p><img src= images/blank.png width =""200"" height = ""200"" style = ""float:right""></p><p><img src=images/blank.png width =""800"" height = ""200""></p>","","","","","","","",""
"","97.84999999823049","sequential-stimulus-presentation","251","456389","0.0-47.0-1.4","SS1613082005862","trial","","40","800","897.8499999982305","images/stimuli/spore_stims/simple_09_B_a.gif","images/stimuli/spore_stims/simple_19_B_b.gif","","","","","13","simple_dissimilar","images/stimuli/spore_stims/simple_19_B_b.gif","left",""
"","null","html-keyboard-response","252","457677","0.0-47.0-0.5","SS1613082005862","","","null","","","","","<p><img src= images/blank.png width =""200"" height = ""200"" style = ""float:right""></p><p><img src=images/blank.png width =""800"" height = ""200""></p>","","","","","","","",""
"","595.369999999064","sequential-stimulus-presentation","253","459122","0.0-47.0-1.5","SS1613082005862","trial","","40","800","1395.369999999064","images/stimuli/spore_stims/simple_09_B_a.gif","images/stimuli/spore_stims/simple_19_B_b.gif","","","","","13","simple_dissimilar","images/stimuli/spore_stims/simple_09_B_a.gif","right",""
"","null","html-keyboard-response","254","460321","0.0-47.0-0.6","SS1613082005862","","","null","","","","","<p><img src= images/blank.png width =""200"" height = ""200"" style = ""float:right""></p><p><img src=images/blank.png width =""800"" height = ""200""></p>","","","","","","","",""
"","1063.770000000659","sequential-stimulus-presentation","255","462211","0.0-47.0-1.6","SS1613082005862","trial","","40","800","1863.770000000659","images/stimuli/spore_stims/simple_09_B_a.gif","images/stimuli/spore_stims/simple_19_B_b.gif","","","","","13","simple_dissimilar","images/stimuli/spore_stims/simple_19_B_b.gif","left",""
"","null","html-keyboard-response","256","463489","0.0-47.0-0.7","SS1613082005862","","","null","","","","","<p><img src= images/blank.png width =""200"" height = ""200"" style = ""float:right""></p><p><img src=images/blank.png width =""800"" height = ""200""></p>","","","","","","","",""
"","142.06500000000233","sequential-stimulus-presentation","257","464459","0.0-47.0-1.7","SS1613082005862","trial","","40","800","942.0650000000023","images/stimuli/spore_stims/simple_09_B_a.gif","images/stimuli/spore_stims/simple_19_B_b.gif","","","","","13","simple_dissimilar","images/stimuli/spore_stims/simple_19_B_b.gif","left",""
"","2033.6849999985425","html-keyboard-response","258","466515","0.0-48.0","SS1613082005862","pref_question","","98","","","","","<video width ='960' height = '540' style='padding-top:8%' autoplay muted><source src='images/stimuli/wall_pref.mp4' type='video/mp4'></video>","2","middle","45%","13","","","",""
"","90.74500000133412","sequential-stimulus-presentation","259","467434","0.0-49.0","SS1613082005862","pref_reveal","","40","800","890.7450000013341","null","null","","","","","13","","","","novel"
"","null","html-keyboard-response","260","468334","0.0-50.0-0.0","SS1613082005862","","","null","","","","","<p><img src= images/blank.png width =""200"" height = ""200"" style = ""float:right""></p><p><img src=images/blank.png width =""800"" height = ""200""></p>","","","","","","","",""
"","49.474999999802094","sequential-stimulus-presentation","261","469210","0.0-50.0-1.0","SS1613082005862","trial","","40","800","849.4749999998021","images/stimuli/spore_stims/complex_03_A_b.gif","images/stimuli/spore_stims/complex_10_B_c.gif","","","","","14","complex_dissimilar","images/stimuli/spore_stims/complex_10_B_c.gif","left",""
"","null","html-keyboard-response","262","470414","0.0-50.0-0.1","SS1613082005862","","","null","","","","","<p><img src= images/blank.png width =""200"" height = ""200"" style = ""float:right""></p><p><img src=images/blank.png width =""800"" height = ""200""></p>","","","","","","","",""
"","102.08500000229105","sequential-stimulus-presentation","263","471346","0.0-50.0-1.1","SS1613082005862","trial","","40","800","902.085000002291","images/stimuli/spore_stims/complex_03_A_b.gif","images/stimuli/spore_stims/complex_10_B_c.gif","","","","","14","complex_dissimilar","images/stimuli/spore_stims/complex_10_B_c.gif","left",""
"","null","html-keyboard-response","264","472411","0.0-50.0-0.2","SS1613082005862","","","null","","","","","<p><img src= images/blank.png width =""200"" height = ""200"" style = ""float:right""></p><p><img src=images/blank.png width =""800"" height = ""200""></p>","","","","","","","",""
"","1367.6200000008685","sequential-stimulus-presentation","265","474609","0.0-50.0-1.2","SS1613082005862","trial","","40","800","2167.6200000008685","images/stimuli/spore_stims/complex_03_A_b.gif","images/stimuli/spore_stims/complex_10_B_c.gif","","","","","14","complex_dissimilar","images/stimuli/spore_stims/complex_10_B_c.gif","left",""
"","null","html-keyboard-response","266","475518","0.0-50.0-0.3","SS1613082005862","","","null","","","","","<p><img src= images/blank.png width =""200"" height = ""200"" style = ""float:right""></p><p><img src=images/blank.png width =""800"" height = ""200""></p>","","","","","","","",""
"","62.15000000153668","sequential-stimulus-presentation","267","476409","0.0-50.0-1.3","SS1613082005862","trial","","40","800","862.1500000015367","images/stimuli/spore_stims/complex_03_A_b.gif","images/stimuli/spore_stims/complex_10_B_c.gif","","","","","14","complex_dissimilar","images/stimuli/spore_stims/complex_10_B_c.gif","left",""
"","null","html-keyboard-response","268","477547","0.0-50.0-0.4","SS1613082005862","","","null","","","","","<p><img src= images/blank.png width =""200"" height = ""200"" style = ""float:right""></p><p><img src=images/blank.png width =""800"" height = ""200""></p>","","","","","","","",""
"","248.79499999951804","sequential-stimulus-presentation","269","478625","0.0-50.0-1.4","SS1613082005862","trial","","40","800","1048.794999999518","images/stimuli/spore_stims/complex_03_A_b.gif","images/stimuli/spore_stims/complex_10_B_c.gif","","","","","14","complex_dissimilar","images/stimuli/spore_stims/complex_10_B_c.gif","left",""
"","null","html-keyboard-response","270","479502","0.0-50.0-0.5","SS1613082005862","","","null","","","","","<p><img src= images/blank.png width =""200"" height = ""200"" style = ""float:right""></p><p><img src=images/blank.png width =""800"" height = ""200""></p>","","","","","","","",""
"","22.299999996903352","sequential-stimulus-presentation","271","480352","0.0-50.0-1.5","SS1613082005862","trial","","40","800","822.2999999969034","images/stimuli/spore_stims/complex_03_A_b.gif","images/stimuli/spore_stims/complex_10_B_c.gif","","","","","14","complex_dissimilar","images/stimuli/spore_stims/complex_03_A_b.gif","middle",""
