"view_history","rt","trial_type","trial_index","time_elapsed","internal_node_id","subject","stimulus_type","trial_stimulus","key_press","minimum_viewing_duration","trial_looking_time","block_deviant","block_background","stimulus","wall_pref","location","location_percent","block_number","block_type","stimulus_displayed","position_displayed","stim_type_selected","responses","question_order","stimulus_left","stimulus_right"
"[{""page_index"":0,""viewing_time"":8316.910000008647}]","8319.1450000013","instructions","0","8321","0.0-0.0","SS1613139250960","","","","","","","","","","","","","","","","","","","",""
"[{""page_index"":0,""viewing_time"":12588.245000006282},{""page_index"":1,""viewing_time"":10112.410000001546}]","22701.105000000098","instructions","1","33028","0.0-1.0","SS1613139250960","instructions","","","","","","","","","","","","","","","","","","",""
"","10386.454999999842","sequential-stimulus-presentation","2","44225","0.0-2.0","SS1613139250960","","","40","800","11186.454999999842","null","null","","","","","","","","","","","","",""
"","3693.8800000061747","sequential-stimulus-presentation","3","48729","0.0-3.0","SS1613139250960","","","40","800","4493.880000006175","null","null","","","","","","","","","","","","",""
"[{""page_index"":0,""viewing_time"":6181.410000004689}]","6181.9200000027195","instructions","4","54913","0.0-4.0","SS1613139250960","instructions","","","","","","","","","","","","","","","","","","",""
"","20985.620000006747","html-keyboard-response","5","75905","0.0-5.0","SS1613139250960","instructions","","49","","","","","<video width ='960' height = '540' autoplay muted><source src='images/stimuli/wall_pref.mp4' type='video/mp4'></video>","1","left","25%","","","","","","","","",""
"","1956.0100000089733","sequential-stimulus-presentation","6","78668","0.0-6.0","SS1613139250960","pref_reveal","","40","800","2756.0100000089733","null","null","","","","","","","","","","","","",""
"[{""page_index"":0,""viewing_time"":10853.364999988116},{""page_index"":1,""viewing_time"":11734.024999997928},{""page_index"":2,""viewing_time"":1676.1600000027101},{""page_index"":3,""viewing_time"":1312.9300000000512}]","25576.994999995804","instructions","7","104249","0.0-7.0","SS1613139250960","instructions","","","","","","","","","","","","","","","","","","",""
"","null","html-keyboard-response","8","105380","0.0-8.0-0.0","SS1613139250960","","","null","","","","","<p><img src= images/blank.png width =""200"" height = ""200"" style = ""float:right""></p><p><img src=images/blank.png width =""800"" height = ""200""></p>","","","","","","","","","","","",""
"","14200.624999997672","sequential-stimulus-presentation","9","120392","0.0-8.0-1.0","SS1613139250960","trial","","40","800","15000.624999997672","images/stimuli/spore_stims/simple_11_A_d.gif","images/stimuli/spore_stims/simple_03_A_d.gif","","","","","0","simple_dissimilar","images/stimuli/spore_stims/simple_03_A_d.gif","right","","","","",""
"","null","html-keyboard-response","10","121509","0.0-8.0-0.1","SS1613139250960","","","null","","","","","<p><img src= images/blank.png width =""200"" height = ""200"" style = ""float:right""></p><p><img src=images/blank.png width =""800"" height = ""200""></p>","","","","","","","","","","","",""
"","785.1250000094296","sequential-stimulus-presentation","11","123102","0.0-8.0-1.1","SS1613139250960","trial","","40","800","1585.1250000094296","images/stimuli/spore_stims/simple_11_A_d.gif","images/stimuli/spore_stims/simple_03_A_d.gif","","","","","0","simple_dissimilar","images/stimuli/spore_stims/simple_03_A_d.gif","right","","","","",""
"","null","html-keyboard-response","12","124182","0.0-8.0-0.2","SS1613139250960","","","null","","","","","<p><img src= images/blank.png width =""200"" height = ""200"" style = ""float:right""></p><p><img src=images/blank.png width =""800"" height = ""200""></p>","","","","","","","","","","","",""
"","1249.7399999992922","sequential-stimulus-presentation","13","126240","0.0-8.0-1.2","SS1613139250960","trial","","40","800","2049.739999999292","images/stimuli/spore_stims/simple_11_A_d.gif","images/stimuli/spore_stims/simple_03_A_d.gif","","","","","0","simple_dissimilar","images/stimuli/spore_stims/simple_03_A_d.gif","right","","","","",""
"","null","html-keyboard-response","14","127263","0.0-8.0-0.3","SS1613139250960","","","null","","","","","<p><img src= images/blank.png width =""200"" height = ""200"" style = ""float:right""></p><p><img src=images/blank.png width =""800"" height = ""200""></p>","","","","","","","","","","","",""
"","76.35000000300352","sequential-stimulus-presentation","15","128148","0.0-8.0-1.3","SS1613139250960","trial","","40","800","876.3500000030035","images/stimuli/spore_stims/simple_11_A_d.gif","images/stimuli/spore_stims/simple_03_A_d.gif","","","","","0","simple_dissimilar","images/stimuli/spore_stims/simple_03_A_d.gif","right","","","","",""
"","null","html-keyboard-response","16","129019","0.0-8.0-0.4","SS1613139250960","","","null","","","","","<p><img src= images/blank.png width =""200"" height = ""200"" style = ""float:right""></p><p><img src=images/blank.png width =""800"" height = ""200""></p>","","","","","","","","","","","",""
"","1069.4500000099652","sequential-stimulus-presentation","17","130894","0.0-8.0-1.4","SS1613139250960","trial","","40","800","1869.4500000099652","images/stimuli/spore_stims/simple_11_A_d.gif","images/stimuli/spore_stims/simple_03_A_d.gif","","","","","0","simple_dissimilar","images/stimuli/spore_stims/simple_03_A_d.gif","right","","","","",""
"","null","html-keyboard-response","18","131745","0.0-8.0-0.5","SS1613139250960","","","null","","","","","<p><img src= images/blank.png width =""200"" height = ""200"" style = ""float:right""></p><p><img src=images/blank.png width =""800"" height = ""200""></p>","","","","","","","","","","","",""
"","474.7849999985192","sequential-stimulus-presentation","19","133026","0.0-8.0-1.5","SS1613139250960","trial","","40","800","1274.7849999985192","images/stimuli/spore_stims/simple_11_A_d.gif","images/stimuli/spore_stims/simple_03_A_d.gif","","","","","0","simple_dissimilar","images/stimuli/spore_stims/simple_03_A_d.gif","right","","","","",""
"","null","html-keyboard-response","20","133914","0.0-8.0-0.6","SS1613139250960","","","null","","","","","<p><img src= images/blank.png width =""200"" height = ""200"" style = ""float:right""></p><p><img src=images/blank.png width =""800"" height = ""200""></p>","","","","","","","","","","","",""
"","3589.4050000060815","sequential-stimulus-presentation","21","138335","0.0-8.0-1.6","SS1613139250960","trial","","40","800","4389.4050000060815","images/stimuli/spore_stims/simple_11_A_d.gif","images/stimuli/spore_stims/simple_03_A_d.gif","","","","","0","simple_dissimilar","images/stimuli/spore_stims/simple_11_A_d.gif","middle","","","","",""
"","null","html-keyboard-response","22","139439","0.0-8.0-0.7","SS1613139250960","","","null","","","","","<p><img src= images/blank.png width =""200"" height = ""200"" style = ""float:right""></p><p><img src=images/blank.png width =""800"" height = ""200""></p>","","","","","","","","","","","",""
"","476.34999999718275","sequential-stimulus-presentation","23","140725","0.0-8.0-1.7","SS1613139250960","trial","","40","800","1276.3499999971827","images/stimuli/spore_stims/simple_11_A_d.gif","images/stimuli/spore_stims/simple_03_A_d.gif","","","","","0","simple_dissimilar","images/stimuli/spore_stims/simple_03_A_d.gif","right","","","","",""
"","1587.599999998929","html-keyboard-response","24","142320","0.0-9.0","SS1613139250960","pref_question","","49","","","","","<video width ='960' height = '540' style='padding-top:8%' autoplay muted><source src='images/stimuli/wall_pref.mp4' type='video/mp4'></video>","1","left","25%","0","","","","","","","",""
"","3791.0200000042096","sequential-stimulus-presentation","25","146922","0.0-10.0","SS1613139250960","pref_reveal","","40","800","4591.02000000421","null","null","","","","","0","","","","novel","","","",""
"","null","html-keyboard-response","26","147745","0.0-11.0-0.0","SS1613139250960","","","null","","","","","<p><img src= images/blank.png width =""200"" height = ""200"" style = ""float:right""></p><p><img src=images/blank.png width =""800"" height = ""200""></p>","","","","","","","","","","","",""
"","3534.9200000055134","sequential-stimulus-presentation","27","152090","0.0-11.0-1.0","SS1613139250960","trial","","40","800","4334.920000005513","images/stimuli/spore_stims/complex_09_A_d.gif","images/stimuli/spore_stims/complex_10_B_b.gif","","","","","1","complex_dissimilar","images/stimuli/spore_stims/complex_10_B_b.gif","right","","","","",""
"","null","html-keyboard-response","28","152961","0.0-11.0-0.1","SS1613139250960","","","null","","","","","<p><img src= images/blank.png width =""200"" height = ""200"" style = ""float:right""></p><p><img src=images/blank.png width =""800"" height = ""200""></p>","","","","","","","","","","","",""
"","16.784999999799766","sequential-stimulus-presentation","29","153784","0.0-11.0-1.1","SS1613139250960","trial","","40","800","816.7849999997998","images/stimuli/spore_stims/complex_09_A_d.gif","images/stimuli/spore_stims/complex_10_B_b.gif","","","","","1","complex_dissimilar","images/stimuli/spore_stims/complex_10_B_b.gif","right","","","","",""
"","null","html-keyboard-response","30","154883","0.0-11.0-0.2","SS1613139250960","","","null","","","","","<p><img src= images/blank.png width =""200"" height = ""200"" style = ""float:right""></p><p><img src=images/blank.png width =""800"" height = ""200""></p>","","","","","","","","","","","",""
"","577.1349999995437","sequential-stimulus-presentation","31","156275","0.0-11.0-1.2","SS1613139250960","trial","","40","800","1377.1349999995437","images/stimuli/spore_stims/complex_09_A_d.gif","images/stimuli/spore_stims/complex_10_B_b.gif","","","","","1","complex_dissimilar","images/stimuli/spore_stims/complex_10_B_b.gif","right","","","","",""
"","null","html-keyboard-response","32","157457","0.0-11.0-0.3","SS1613139250960","","","null","","","","","<p><img src= images/blank.png width =""200"" height = ""200"" style = ""float:right""></p><p><img src=images/blank.png width =""800"" height = ""200""></p>","","","","","","","","","","","",""
"","352.07000000809785","sequential-stimulus-presentation","33","158617","0.0-11.0-1.3","SS1613139250960","trial","","40","800","1152.0700000080978","images/stimuli/spore_stims/complex_09_A_d.gif","images/stimuli/spore_stims/complex_10_B_b.gif","","","","","1","complex_dissimilar","images/stimuli/spore_stims/complex_10_B_b.gif","right","","","","",""
"","null","html-keyboard-response","34","159629","0.0-11.0-0.4","SS1613139250960","","","null","","","","","<p><img src= images/blank.png width =""200"" height = ""200"" style = ""float:right""></p><p><img src=images/blank.png width =""800"" height = ""200""></p>","","","","","","","","","","","",""
"","399.9150000017835","sequential-stimulus-presentation","35","160836","0.0-11.0-1.4","SS1613139250960","trial","","40","800","1199.9150000017835","images/stimuli/spore_stims/complex_09_A_d.gif","images/stimuli/spore_stims/complex_10_B_b.gif","","","","","1","complex_dissimilar","images/stimuli/spore_stims/complex_10_B_b.gif","right","","","","",""
"","null","html-keyboard-response","36","161891","0.0-11.0-0.5","SS1613139250960","","","null","","","","","<p><img src= images/blank.png width =""200"" height = ""200"" style = ""float:right""></p><p><img src=images/blank.png width =""800"" height = ""200""></p>","","","","","","","","","","","",""
"","116.69999999867287","sequential-stimulus-presentation","37","162813","0.0-11.0-1.5","SS1613139250960","trial","","40","800","916.6999999986729","images/stimuli/spore_stims/complex_09_A_d.gif","images/stimuli/spore_stims/complex_10_B_b.gif","","","","","1","complex_dissimilar","images/stimuli/spore_stims/complex_10_B_b.gif","right","","","","",""
"","null","html-keyboard-response","38","163927","0.0-11.0-0.6","SS1613139250960","","","null","","","","","<p><img src= images/blank.png width =""200"" height = ""200"" style = ""float:right""></p><p><img src=images/blank.png width =""800"" height = ""200""></p>","","","","","","","","","","","",""
"","1334.1700000019046","sequential-stimulus-presentation","39","166067","0.0-11.0-1.6","SS1613139250960","trial","","40","800","2134.1700000019046","images/stimuli/spore_stims/complex_09_A_d.gif","images/stimuli/spore_stims/complex_10_B_b.gif","","","","","1","complex_dissimilar","images/stimuli/spore_stims/complex_09_A_d.gif","left","","","","",""
"","null","html-keyboard-response","40","166938","0.0-11.0-0.7","SS1613139250960","","","null","","","","","<p><img src= images/blank.png width =""200"" height = ""200"" style = ""float:right""></p><p><img src=images/blank.png width =""800"" height = ""200""></p>","","","","","","","","","","","",""
"","270.07500000763685","sequential-stimulus-presentation","41","168017","0.0-11.0-1.7","SS1613139250960","trial","","40","800","1070.0750000076368","images/stimuli/spore_stims/complex_09_A_d.gif","images/stimuli/spore_stims/complex_10_B_b.gif","","","","","1","complex_dissimilar","images/stimuli/spore_stims/complex_10_B_b.gif","right","","","","",""
"","783.2599999965169","html-keyboard-response","42","168809","0.0-12.0","SS1613139250960","pref_question","","50","","","","","<video width ='960' height = '540' style='padding-top:8%' autoplay muted><source src='images/stimuli/wall_pref.mp4' type='video/mp4'></video>","2","middle","45%","1","","","","","","","",""
"","2446.5049999998882","sequential-stimulus-presentation","43","172062","0.0-13.0","SS1613139250960","pref_reveal","","40","800","3246.5049999998882","null","null","","","","","1","","","","novel","","","",""
"","null","html-keyboard-response","44","173200","0.0-14.0-0.0","SS1613139250960","","","null","","","","","<p><img src= images/blank.png width =""200"" height = ""200"" style = ""float:right""></p><p><img src=images/blank.png width =""800"" height = ""200""></p>","","","","","","","","","","","",""
"","2317.349999997532","sequential-stimulus-presentation","45","176326","0.0-14.0-1.0","SS1613139250960","trial","","40","800","3117.349999997532","images/stimuli/spore_stims/simple_09_A_a.gif","images/stimuli/spore_stims/simple_06_B_c.gif","","","","","2","simple_dissimilar","images/stimuli/spore_stims/simple_06_B_c.gif","middle","","","","",""
"","null","html-keyboard-response","46","177533","0.0-14.0-0.1","SS1613139250960","","","null","","","","","<p><img src= images/blank.png width =""200"" height = ""200"" style = ""float:right""></p><p><img src=images/blank.png width =""800"" height = ""200""></p>","","","","","","","","","","","",""
"","145.67499999247957","sequential-stimulus-presentation","47","178505","0.0-14.0-1.1","SS1613139250960","trial","","40","800","945.6749999924796","images/stimuli/spore_stims/simple_09_A_a.gif","images/stimuli/spore_stims/simple_06_B_c.gif","","","","","2","simple_dissimilar","images/stimuli/spore_stims/simple_06_B_c.gif","middle","","","","",""
"","null","html-keyboard-response","48","179416","0.0-14.0-0.2","SS1613139250960","","","null","","","","","<p><img src= images/blank.png width =""200"" height = ""200"" style = ""float:right""></p><p><img src=images/blank.png width =""800"" height = ""200""></p>","","","","","","","","","","","",""
"","1269.3299999955343","sequential-stimulus-presentation","49","181493","0.0-14.0-1.2","SS1613139250960","trial","","40","800","2069.3299999955343","images/stimuli/spore_stims/simple_09_A_a.gif","images/stimuli/spore_stims/simple_06_B_c.gif","","","","","2","simple_dissimilar","images/stimuli/spore_stims/simple_09_A_a.gif","right","","","","",""
"","null","html-keyboard-response","50","182542","0.0-14.0-0.3","SS1613139250960","","","null","","","","","<p><img src= images/blank.png width =""200"" height = ""200"" style = ""float:right""></p><p><img src=images/blank.png width =""800"" height = ""200""></p>","","","","","","","","","","","",""
"","607.0850000105565","sequential-stimulus-presentation","51","183961","0.0-14.0-1.3","SS1613139250960","trial","","40","800","1407.0850000105565","images/stimuli/spore_stims/simple_09_A_a.gif","images/stimuli/spore_stims/simple_06_B_c.gif","","","","","2","simple_dissimilar","images/stimuli/spore_stims/simple_06_B_c.gif","middle","","","","",""
"","null","html-keyboard-response","52","185218","0.0-14.0-0.4","SS1613139250960","","","null","","","","","<p><img src= images/blank.png width =""200"" height = ""200"" style = ""float:right""></p><p><img src=images/blank.png width =""800"" height = ""200""></p>","","","","","","","","","","","",""
"","529.1399999987334","sequential-stimulus-presentation","53","186555","0.0-14.0-1.4","SS1613139250960","trial","","40","800","1329.1399999987334","images/stimuli/spore_stims/simple_09_A_a.gif","images/stimuli/spore_stims/simple_06_B_c.gif","","","","","2","simple_dissimilar","images/stimuli/spore_stims/simple_06_B_c.gif","middle","","","","",""
"","null","html-keyboard-response","54","187527","0.0-14.0-0.5","SS1613139250960","","","null","","","","","<p><img src= images/blank.png width =""200"" height = ""200"" style = ""float:right""></p><p><img src=images/blank.png width =""800"" height = ""200""></p>","","","","","","","","","","","",""
"","266.330000013113","sequential-stimulus-presentation","55","188623","0.0-14.0-1.5","SS1613139250960","trial","","40","800","1066.330000013113","images/stimuli/spore_stims/simple_09_A_a.gif","images/stimuli/spore_stims/simple_06_B_c.gif","","","","","2","simple_dissimilar","images/stimuli/spore_stims/simple_06_B_c.gif","middle","","","","",""
"","null","html-keyboard-response","56","189703","0.0-14.0-0.6","SS1613139250960","","","null","","","","","<p><img src= images/blank.png width =""200"" height = ""200"" style = ""float:right""></p><p><img src=images/blank.png width =""800"" height = ""200""></p>","","","","","","","","","","","",""
"","367.7599999937229","sequential-stimulus-presentation","57","190879","0.0-14.0-1.6","SS1613139250960","trial","","40","800","1167.7599999937229","images/stimuli/spore_stims/simple_09_A_a.gif","images/stimuli/spore_stims/simple_06_B_c.gif","","","","","2","simple_dissimilar","images/stimuli/spore_stims/simple_06_B_c.gif","middle","","","","",""
"","null","html-keyboard-response","58","192031","0.0-14.0-0.7","SS1613139250960","","","null","","","","","<p><img src= images/blank.png width =""200"" height = ""200"" style = ""float:right""></p><p><img src=images/blank.png width =""800"" height = ""200""></p>","","","","","","","","","","","",""
"","382.9450000048382","sequential-stimulus-presentation","59","193225","0.0-14.0-1.7","SS1613139250960","trial","","40","800","1182.9450000048382","images/stimuli/spore_stims/simple_09_A_a.gif","images/stimuli/spore_stims/simple_06_B_c.gif","","","","","2","simple_dissimilar","images/stimuli/spore_stims/simple_06_B_c.gif","middle","","","","",""
"","958.9500000001863","html-keyboard-response","60","194255","0.0-15.0","SS1613139250960","pref_question","","49","","","","","<video width ='960' height = '540' style='padding-top:8%' autoplay muted><source src='images/stimuli/wall_pref.mp4' type='video/mp4'></video>","1","left","25%","2","","","","","","","",""
"","1212.2700000036275","sequential-stimulus-presentation","61","196284","0.0-16.0","SS1613139250960","pref_reveal","","40","800","2012.2700000036275","null","null","","","","","2","","","","novel","","","",""
"","null","html-keyboard-response","62","197184","0.0-17.0-0.0","SS1613139250960","","","null","","","","","<p><img src= images/blank.png width =""200"" height = ""200"" style = ""float:right""></p><p><img src=images/blank.png width =""800"" height = ""200""></p>","","","","","","","","","","","",""
"","855.0050000048941","sequential-stimulus-presentation","63","198848","0.0-17.0-1.0","SS1613139250960","trial","","40","800","1655.005000004894","images/stimuli/spore_stims/simple_04_B_d.gif","images/stimuli/spore_stims/simple_06_A_d.gif","","","","","3","simple_dissimilar","images/stimuli/spore_stims/simple_06_A_d.gif","left","","","","",""
"","null","html-keyboard-response","64","199980","0.0-17.0-0.1","SS1613139250960","","","null","","","","","<p><img src= images/blank.png width =""200"" height = ""200"" style = ""float:right""></p><p><img src=images/blank.png width =""800"" height = ""200""></p>","","","","","","","","","","","",""
"","145.3849999961676","sequential-stimulus-presentation","65","200935","0.0-17.0-1.1","SS1613139250960","trial","","40","800","945.3849999961676","images/stimuli/spore_stims/simple_04_B_d.gif","images/stimuli/spore_stims/simple_06_A_d.gif","","","","","3","simple_dissimilar","images/stimuli/spore_stims/simple_06_A_d.gif","left","","","","",""
"","null","html-keyboard-response","66","201944","0.0-17.0-0.2","SS1613139250960","","","null","","","","","<p><img src= images/blank.png width =""200"" height = ""200"" style = ""float:right""></p><p><img src=images/blank.png width =""800"" height = ""200""></p>","","","","","","","","","","","",""
"","225.8949999959441","sequential-stimulus-presentation","67","202978","0.0-17.0-1.2","SS1613139250960","trial","","40","800","1025.894999995944","images/stimuli/spore_stims/simple_04_B_d.gif","images/stimuli/spore_stims/simple_06_A_d.gif","","","","","3","simple_dissimilar","images/stimuli/spore_stims/simple_06_A_d.gif","left","","","","",""
"","null","html-keyboard-response","68","204047","0.0-17.0-0.3","SS1613139250960","","","null","","","","","<p><img src= images/blank.png width =""200"" height = ""200"" style = ""float:right""></p><p><img src=images/blank.png width =""800"" height = ""200""></p>","","","","","","","","","","","",""
"","281.7700000014156","sequential-stimulus-presentation","69","205154","0.0-17.0-1.3","SS1613139250960","trial","","40","800","1081.7700000014156","images/stimuli/spore_stims/simple_04_B_d.gif","images/stimuli/spore_stims/simple_06_A_d.gif","","","","","3","simple_dissimilar","images/stimuli/spore_stims/simple_06_A_d.gif","left","","","","",""
"","null","html-keyboard-response","70","206121","0.0-17.0-0.4","SS1613139250960","","","null","","","","","<p><img src= images/blank.png width =""200"" height = ""200"" style = ""float:right""></p><p><img src=images/blank.png width =""800"" height = ""200""></p>","","","","","","","","","","","",""
"","867.1400000021094","sequential-stimulus-presentation","71","207800","0.0-17.0-1.4","SS1613139250960","trial","","40","800","1667.1400000021094","images/stimuli/spore_stims/simple_04_B_d.gif","images/stimuli/spore_stims/simple_06_A_d.gif","","","","","3","simple_dissimilar","images/stimuli/spore_stims/simple_04_B_d.gif","middle","","","","",""
"","null","html-keyboard-response","72","209050","0.0-17.0-0.5","SS1613139250960","","","null","","","","","<p><img src= images/blank.png width =""200"" height = ""200"" style = ""float:right""></p><p><img src=images/blank.png width =""800"" height = ""200""></p>","","","","","","","","","","","",""
"","272.6449999900069","sequential-stimulus-presentation","73","210136","0.0-17.0-1.5","SS1613139250960","trial","","40","800","1072.644999990007","images/stimuli/spore_stims/simple_04_B_d.gif","images/stimuli/spore_stims/simple_06_A_d.gif","","","","","3","simple_dissimilar","images/stimuli/spore_stims/simple_06_A_d.gif","left","","","","",""
"","null","html-keyboard-response","74","211347","0.0-17.0-0.6","SS1613139250960","","","null","","","","","<p><img src= images/blank.png width =""200"" height = ""200"" style = ""float:right""></p><p><img src=images/blank.png width =""800"" height = ""200""></p>","","","","","","","","","","","",""
"","376.8849999905797","sequential-stimulus-presentation","75","212535","0.0-17.0-1.6","SS1613139250960","trial","","40","800","1176.8849999905797","images/stimuli/spore_stims/simple_04_B_d.gif","images/stimuli/spore_stims/simple_06_A_d.gif","","","","","3","simple_dissimilar","images/stimuli/spore_stims/simple_06_A_d.gif","left","","","","",""
"","null","html-keyboard-response","76","213626","0.0-17.0-0.7","SS1613139250960","","","null","","","","","<p><img src= images/blank.png width =""200"" height = ""200"" style = ""float:right""></p><p><img src=images/blank.png width =""800"" height = ""200""></p>","","","","","","","","","","","",""
"","399.0650000050664","sequential-stimulus-presentation","77","214831","0.0-17.0-1.7","SS1613139250960","trial","","40","800","1199.0650000050664","images/stimuli/spore_stims/simple_04_B_d.gif","images/stimuli/spore_stims/simple_06_A_d.gif","","","","","3","simple_dissimilar","images/stimuli/spore_stims/simple_06_A_d.gif","left","","","","",""
"","1300.7100000104401","html-keyboard-response","78","216141","0.0-18.0","SS1613139250960","pref_question","","51","","","","","<video width ='960' height = '540' style='padding-top:8%' autoplay muted><source src='images/stimuli/wall_pref.mp4' type='video/mp4'></video>","3","right","66%","3","","","","","","","",""
"","3477.039999997942","sequential-stimulus-presentation","79","220428","0.0-19.0","SS1613139250960","pref_reveal","","40","800","4277.039999997942","null","null","","","","","3","","","","novel","","","",""
"","null","html-keyboard-response","80","221686","0.0-20.0-0.0","SS1613139250960","","","null","","","","","<p><img src= images/blank.png width =""200"" height = ""200"" style = ""float:right""></p><p><img src=images/blank.png width =""800"" height = ""200""></p>","","","","","","","","","","","",""
"","3518.0449999897974","sequential-stimulus-presentation","81","226013","0.0-20.0-1.0","SS1613139250960","trial","","40","800","4318.044999989797","images/stimuli/spore_stims/complex_16_A_c.gif","images/stimuli/spore_stims/complex_16_B_c.gif","","","","","4","complex_similar","images/stimuli/spore_stims/complex_16_B_c.gif","left","","","","",""
"","null","html-keyboard-response","82","227168","0.0-20.0-0.1","SS1613139250960","","","null","","","","","<p><img src= images/blank.png width =""200"" height = ""200"" style = ""float:right""></p><p><img src=images/blank.png width =""800"" height = ""200""></p>","","","","","","","","","","","",""
"","252.5000000023283","sequential-stimulus-presentation","83","228230","0.0-20.0-1.1","SS1613139250960","trial","","40","800","1052.5000000023283","images/stimuli/spore_stims/complex_16_A_c.gif","images/stimuli/spore_stims/complex_16_B_c.gif","","","","","4","complex_similar","images/stimuli/spore_stims/complex_16_B_c.gif","left","","","","",""
"","null","html-keyboard-response","84","229077","0.0-20.0-0.2","SS1613139250960","","","null","","","","","<p><img src= images/blank.png width =""200"" height = ""200"" style = ""float:right""></p><p><img src=images/blank.png width =""800"" height = ""200""></p>","","","","","","","","","","","",""
"","269.31499999773223","sequential-stimulus-presentation","85","230161","0.0-20.0-1.2","SS1613139250960","trial","","40","800","1069.3149999977322","images/stimuli/spore_stims/complex_16_A_c.gif","images/stimuli/spore_stims/complex_16_B_c.gif","","","","","4","complex_similar","images/stimuli/spore_stims/complex_16_B_c.gif","left","","","","",""
"","null","html-keyboard-response","86","231108","0.0-20.0-0.3","SS1613139250960","","","null","","","","","<p><img src= images/blank.png width =""200"" height = ""200"" style = ""float:right""></p><p><img src=images/blank.png width =""800"" height = ""200""></p>","","","","","","","","","","","",""
"","62.04499999876134","sequential-stimulus-presentation","87","232003","0.0-20.0-1.3","SS1613139250960","trial","","40","800","862.0449999987613","images/stimuli/spore_stims/complex_16_A_c.gif","images/stimuli/spore_stims/complex_16_B_c.gif","","","","","4","complex_similar","images/stimuli/spore_stims/complex_16_B_c.gif","left","","","","",""
"","null","html-keyboard-response","88","233166","0.0-20.0-0.4","SS1613139250960","","","null","","","","","<p><img src= images/blank.png width =""200"" height = ""200"" style = ""float:right""></p><p><img src=images/blank.png width =""800"" height = ""200""></p>","","","","","","","","","","","",""
"","227.9850000049919","sequential-stimulus-presentation","89","234204","0.0-20.0-1.4","SS1613139250960","trial","","40","800","1027.985000004992","images/stimuli/spore_stims/complex_16_A_c.gif","images/stimuli/spore_stims/complex_16_B_c.gif","","","","","4","complex_similar","images/stimuli/spore_stims/complex_16_B_c.gif","left","","","","",""
"","null","html-keyboard-response","90","235384","0.0-20.0-0.5","SS1613139250960","","","null","","","","","<p><img src= images/blank.png width =""200"" height = ""200"" style = ""float:right""></p><p><img src=images/blank.png width =""800"" height = ""200""></p>","","","","","","","","","","","",""
"","115.16000000119675","sequential-stimulus-presentation","91","236308","0.0-20.0-1.5","SS1613139250960","trial","","40","800","915.1600000011967","images/stimuli/spore_stims/complex_16_A_c.gif","images/stimuli/spore_stims/complex_16_B_c.gif","","","","","4","complex_similar","images/stimuli/spore_stims/complex_16_B_c.gif","left","","","","",""
"","null","html-keyboard-response","92","237207","0.0-20.0-0.6","SS1613139250960","","","null","","","","","<p><img src= images/blank.png width =""200"" height = ""200"" style = ""float:right""></p><p><img src=images/blank.png width =""800"" height = ""200""></p>","","","","","","","","","","","",""
"","102.38500000559725","sequential-stimulus-presentation","93","238118","0.0-20.0-1.6","SS1613139250960","trial","","40","800","902.3850000055972","images/stimuli/spore_stims/complex_16_A_c.gif","images/stimuli/spore_stims/complex_16_B_c.gif","","","","","4","complex_similar","images/stimuli/spore_stims/complex_16_B_c.gif","left","","","","",""
"","null","html-keyboard-response","94","238940","0.0-20.0-0.7","SS1613139250960","","","null","","","","","<p><img src= images/blank.png width =""200"" height = ""200"" style = ""float:right""></p><p><img src=images/blank.png width =""800"" height = ""200""></p>","","","","","","","","","","","",""
"","2756.1399999976857","sequential-stimulus-presentation","95","242549","0.0-20.0-1.7","SS1613139250960","trial","","40","800","3556.1399999976857","images/stimuli/spore_stims/complex_16_A_c.gif","images/stimuli/spore_stims/complex_16_B_c.gif","","","","","4","complex_similar","images/stimuli/spore_stims/complex_16_A_c.gif","middle","","","","",""
"","1317.1000000002095","html-keyboard-response","96","243878","0.0-21.0","SS1613139250960","pref_question","","51","","","","","<video width ='960' height = '540' style='padding-top:8%' autoplay muted><source src='images/stimuli/wall_pref.mp4' type='video/mp4'></video>","3","right","66%","4","","","","","","","",""
"","3425.950000004377","sequential-stimulus-presentation","97","248116","0.0-22.0","SS1613139250960","pref_reveal","","40","800","4225.950000004377","null","null","","","","","4","","","","novel","","","",""
"","null","html-keyboard-response","98","249227","0.0-23.0-0.0","SS1613139250960","","","null","","","","","<p><img src= images/blank.png width =""200"" height = ""200"" style = ""float:right""></p><p><img src=images/blank.png width =""800"" height = ""200""></p>","","","","","","","","","","","",""
"","326.54500000353437","sequential-stimulus-presentation","99","250363","0.0-23.0-1.0","SS1613139250960","trial","","40","800","1126.5450000035344","images/stimuli/spore_stims/complex_01_B_a.gif","images/stimuli/spore_stims/complex_01_A_a.gif","","","","","5","complex_similar","images/stimuli/spore_stims/complex_01_A_a.gif","left","","","","",""
"","null","html-keyboard-response","100","251359","0.0-23.0-0.1","SS1613139250960","","","null","","","","","<p><img src= images/blank.png width =""200"" height = ""200"" style = ""float:right""></p><p><img src=images/blank.png width =""800"" height = ""200""></p>","","","","","","","","","","","",""
"","1891.7599999986123","sequential-stimulus-presentation","101","254061","0.0-23.0-1.1","SS1613139250960","trial","","40","800","2691.7599999986123","images/stimuli/spore_stims/complex_01_B_a.gif","images/stimuli/spore_stims/complex_01_A_a.gif","","","","","5","complex_similar","images/stimuli/spore_stims/complex_01_A_a.gif","left","","","","",""
"","null","html-keyboard-response","102","254901","0.0-23.0-0.2","SS1613139250960","","","null","","","","","<p><img src= images/blank.png width =""200"" height = ""200"" style = ""float:right""></p><p><img src=images/blank.png width =""800"" height = ""200""></p>","","","","","","","","","","","",""
"","185.08999999903608","sequential-stimulus-presentation","103","255902","0.0-23.0-1.2","SS1613139250960","trial","","40","800","985.0899999990361","images/stimuli/spore_stims/complex_01_B_a.gif","images/stimuli/spore_stims/complex_01_A_a.gif","","","","","5","complex_similar","images/stimuli/spore_stims/complex_01_A_a.gif","left","","","","",""
"","null","html-keyboard-response","104","256940","0.0-23.0-0.3","SS1613139250960","","","null","","","","","<p><img src= images/blank.png width =""200"" height = ""200"" style = ""float:right""></p><p><img src=images/blank.png width =""800"" height = ""200""></p>","","","","","","","","","","","",""
"","358.2300000125542","sequential-stimulus-presentation","105","258108","0.0-23.0-1.3","SS1613139250960","trial","","40","800","1158.2300000125542","images/stimuli/spore_stims/complex_01_B_a.gif","images/stimuli/spore_stims/complex_01_A_a.gif","","","","","5","complex_similar","images/stimuli/spore_stims/complex_01_A_a.gif","left","","","","",""
"","null","html-keyboard-response","106","259035","0.0-23.0-0.4","SS1613139250960","","","null","","","","","<p><img src= images/blank.png width =""200"" height = ""200"" style = ""float:right""></p><p><img src=images/blank.png width =""800"" height = ""200""></p>","","","","","","","","","","","",""
"","1659.959999989951","sequential-stimulus-presentation","107","261509","0.0-23.0-1.4","SS1613139250960","trial","","40","800","2459.959999989951","images/stimuli/spore_stims/complex_01_B_a.gif","images/stimuli/spore_stims/complex_01_A_a.gif","","","","","5","complex_similar","images/stimuli/spore_stims/complex_01_B_a.gif","right","","","","",""
"","null","html-keyboard-response","108","262713","0.0-23.0-0.5","SS1613139250960","","","null","","","","","<p><img src= images/blank.png width =""200"" height = ""200"" style = ""float:right""></p><p><img src=images/blank.png width =""800"" height = ""200""></p>","","","","","","","","","","","",""
"","326.149999993504","sequential-stimulus-presentation","109","263847","0.0-23.0-1.5","SS1613139250960","trial","","40","800","1126.149999993504","images/stimuli/spore_stims/complex_01_B_a.gif","images/stimuli/spore_stims/complex_01_A_a.gif","","","","","5","complex_similar","images/stimuli/spore_stims/complex_01_A_a.gif","left","","","","",""
"","null","html-keyboard-response","110","264652","0.0-23.0-0.6","SS1613139250960","","","null","","","","","<p><img src= images/blank.png width =""200"" height = ""200"" style = ""float:right""></p><p><img src=images/blank.png width =""800"" height = ""200""></p>","","","","","","","","","","","",""
"","273.269999990589","sequential-stimulus-presentation","111","265736","0.0-23.0-1.6","SS1613139250960","trial","","40","800","1073.269999990589","images/stimuli/spore_stims/complex_01_B_a.gif","images/stimuli/spore_stims/complex_01_A_a.gif","","","","","5","complex_similar","images/stimuli/spore_stims/complex_01_A_a.gif","left","","","","",""
"","null","html-keyboard-response","112","266825","0.0-23.0-0.7","SS1613139250960","","","null","","","","","<p><img src= images/blank.png width =""200"" height = ""200"" style = ""float:right""></p><p><img src=images/blank.png width =""800"" height = ""200""></p>","","","","","","","","","","","",""
"","8.134999996400438","sequential-stimulus-presentation","113","267642","0.0-23.0-1.7","SS1613139250960","trial","","40","800","808.1349999964004","images/stimuli/spore_stims/complex_01_B_a.gif","images/stimuli/spore_stims/complex_01_A_a.gif","","","","","5","complex_similar","images/stimuli/spore_stims/complex_01_A_a.gif","left","","","","",""
"","1008.7249999924097","html-keyboard-response","114","268664","0.0-24.0","SS1613139250960","pref_question","","50","","","","","<video width ='960' height = '540' style='padding-top:8%' autoplay muted><source src='images/stimuli/wall_pref.mp4' type='video/mp4'></video>","2","middle","45%","5","","","","","","","",""
"","3020.279999997001","sequential-stimulus-presentation","115","272500","0.0-25.0","SS1613139250960","pref_reveal","","40","800","3820.279999997001","null","null","","","","","5","","","","novel","","","",""
"","null","html-keyboard-response","116","273531","0.0-26.0-0.0","SS1613139250960","","","null","","","","","<p><img src= images/blank.png width =""200"" height = ""200"" style = ""float:right""></p><p><img src=images/blank.png width =""800"" height = ""200""></p>","","","","","","","","","","","",""
"","1105.8699999994133","sequential-stimulus-presentation","117","275451","0.0-26.0-1.0","SS1613139250960","trial","","40","800","1905.8699999994133","images/stimuli/spore_stims/simple_15_B_a.gif","images/stimuli/spore_stims/simple_15_A_a.gif","","","","","6","simple_similar","images/stimuli/spore_stims/simple_15_A_a.gif","right","","","","",""
"","null","html-keyboard-response","118","276607","0.0-26.0-0.1","SS1613139250960","","","null","","","","","<p><img src= images/blank.png width =""200"" height = ""200"" style = ""float:right""></p><p><img src=images/blank.png width =""800"" height = ""200""></p>","","","","","","","","","","","",""
"","280.415000001085","sequential-stimulus-presentation","119","277704","0.0-26.0-1.1","SS1613139250960","trial","","40","800","1080.415000001085","images/stimuli/spore_stims/simple_15_B_a.gif","images/stimuli/spore_stims/simple_15_A_a.gif","","","","","6","simple_similar","images/stimuli/spore_stims/simple_15_A_a.gif","right","","","","",""
"","null","html-keyboard-response","120","278653","0.0-26.0-0.2","SS1613139250960","","","null","","","","","<p><img src= images/blank.png width =""200"" height = ""200"" style = ""float:right""></p><p><img src=images/blank.png width =""800"" height = ""200""></p>","","","","","","","","","","","",""
"","1748.9900000073249","sequential-stimulus-presentation","121","281214","0.0-26.0-1.2","SS1613139250960","trial","","40","800","2548.990000007325","images/stimuli/spore_stims/simple_15_B_a.gif","images/stimuli/spore_stims/simple_15_A_a.gif","","","","","6","simple_similar","images/stimuli/spore_stims/simple_15_B_a.gif","middle","","","","",""
"","null","html-keyboard-response","122","282408","0.0-26.0-0.3","SS1613139250960","","","null","","","","","<p><img src= images/blank.png width =""200"" height = ""200"" style = ""float:right""></p><p><img src=images/blank.png width =""800"" height = ""200""></p>","","","","","","","","","","","",""
"","1412.1349999913946","sequential-stimulus-presentation","123","284634","0.0-26.0-1.3","SS1613139250960","trial","","40","800","2212.1349999913946","images/stimuli/spore_stims/simple_15_B_a.gif","images/stimuli/spore_stims/simple_15_A_a.gif","","","","","6","simple_similar","images/stimuli/spore_stims/simple_15_A_a.gif","right","","","","",""
"","null","html-keyboard-response","124","285675","0.0-26.0-0.4","SS1613139250960","","","null","","","","","<p><img src= images/blank.png width =""200"" height = ""200"" style = ""float:right""></p><p><img src=images/blank.png width =""800"" height = ""200""></p>","","","","","","","","","","","",""
"","799.6100000018487","sequential-stimulus-presentation","125","287286","0.0-26.0-1.4","SS1613139250960","trial","","40","800","1599.6100000018487","images/stimuli/spore_stims/simple_15_B_a.gif","images/stimuli/spore_stims/simple_15_A_a.gif","","","","","6","simple_similar","images/stimuli/spore_stims/simple_15_A_a.gif","right","","","","",""
"","null","html-keyboard-response","126","288588","0.0-26.0-0.5","SS1613139250960","","","null","","","","","<p><img src= images/blank.png width =""200"" height = ""200"" style = ""float:right""></p><p><img src=images/blank.png width =""800"" height = ""200""></p>","","","","","","","","","","","",""
"","522.8499999939231","sequential-stimulus-presentation","127","289932","0.0-26.0-1.5","SS1613139250960","trial","","40","800","1322.8499999939231","images/stimuli/spore_stims/simple_15_B_a.gif","images/stimuli/spore_stims/simple_15_A_a.gif","","","","","6","simple_similar","images/stimuli/spore_stims/simple_15_A_a.gif","right","","","","",""
"","null","html-keyboard-response","128","291182","0.0-26.0-0.6","SS1613139250960","","","null","","","","","<p><img src= images/blank.png width =""200"" height = ""200"" style = ""float:right""></p><p><img src=images/blank.png width =""800"" height = ""200""></p>","","","","","","","","","","","",""
"","483.4649999975227","sequential-stimulus-presentation","129","292476","0.0-26.0-1.6","SS1613139250960","trial","","40","800","1283.4649999975227","images/stimuli/spore_stims/simple_15_B_a.gif","images/stimuli/spore_stims/simple_15_A_a.gif","","","","","6","simple_similar","images/stimuli/spore_stims/simple_15_A_a.gif","right","","","","",""
"","null","html-keyboard-response","130","293593","0.0-26.0-0.7","SS1613139250960","","","null","","","","","<p><img src= images/blank.png width =""200"" height = ""200"" style = ""float:right""></p><p><img src=images/blank.png width =""800"" height = ""200""></p>","","","","","","","","","","","",""
"","493.37999999988824","sequential-stimulus-presentation","131","294901","0.0-26.0-1.7","SS1613139250960","trial","","40","800","1293.3799999998882","images/stimuli/spore_stims/simple_15_B_a.gif","images/stimuli/spore_stims/simple_15_A_a.gif","","","","","6","simple_similar","images/stimuli/spore_stims/simple_15_A_a.gif","right","","","","",""
"","1176.195000007283","html-keyboard-response","132","296104","0.0-27.0","SS1613139250960","pref_question","","49","","","","","<video width ='960' height = '540' style='padding-top:8%' autoplay muted><source src='images/stimuli/wall_pref.mp4' type='video/mp4'></video>","1","left","25%","6","","","","","","","",""
"","1733.299999992596","sequential-stimulus-presentation","133","298650","0.0-28.0","SS1613139250960","pref_reveal","","40","800","2533.299999992596","null","null","","","","","6","","","","novel","","","",""
"","null","html-keyboard-response","134","299571","0.0-29.0-0.0","SS1613139250960","","","null","","","","","<p><img src= images/blank.png width =""200"" height = ""200"" style = ""float:right""></p><p><img src=images/blank.png width =""800"" height = ""200""></p>","","","","","","","","","","","",""
"","468.1199999904493","sequential-stimulus-presentation","135","300853","0.0-29.0-1.0","SS1613139250960","trial","","40","800","1268.1199999904493","images/stimuli/spore_stims/simple_09_B_c.gif","images/stimuli/spore_stims/simple_15_B_c.gif","","","","","7","simple_dissimilar","images/stimuli/spore_stims/simple_15_B_c.gif","right","","","","",""
"","null","html-keyboard-response","136","301910","0.0-29.0-0.1","SS1613139250960","","","null","","","","","<p><img src= images/blank.png width =""200"" height = ""200"" style = ""float:right""></p><p><img src=images/blank.png width =""800"" height = ""200""></p>","","","","","","","","","","","",""
"","2107.1050000027753","sequential-stimulus-presentation","137","304826","0.0-29.0-1.1","SS1613139250960","trial","","40","800","2907.1050000027753","images/stimuli/spore_stims/simple_09_B_c.gif","images/stimuli/spore_stims/simple_15_B_c.gif","","","","","7","simple_dissimilar","images/stimuli/spore_stims/simple_15_B_c.gif","right","","","","",""
"","null","html-keyboard-response","138","305932","0.0-29.0-0.2","SS1613139250960","","","null","","","","","<p><img src= images/blank.png width =""200"" height = ""200"" style = ""float:right""></p><p><img src=images/blank.png width =""800"" height = ""200""></p>","","","","","","","","","","","",""
"","280.62999999383464","sequential-stimulus-presentation","139","307021","0.0-29.0-1.2","SS1613139250960","trial","","40","800","1080.6299999938346","images/stimuli/spore_stims/simple_09_B_c.gif","images/stimuli/spore_stims/simple_15_B_c.gif","","","","","7","simple_dissimilar","images/stimuli/spore_stims/simple_15_B_c.gif","right","","","","",""
"","null","html-keyboard-response","140","308170","0.0-29.0-0.3","SS1613139250960","","","null","","","","","<p><img src= images/blank.png width =""200"" height = ""200"" style = ""float:right""></p><p><img src=images/blank.png width =""800"" height = ""200""></p>","","","","","","","","","","","",""
"","675.745000000461","sequential-stimulus-presentation","141","309679","0.0-29.0-1.3","SS1613139250960","trial","","40","800","1475.745000000461","images/stimuli/spore_stims/simple_09_B_c.gif","images/stimuli/spore_stims/simple_15_B_c.gif","","","","","7","simple_dissimilar","images/stimuli/spore_stims/simple_15_B_c.gif","right","","","","",""
"","null","html-keyboard-response","142","310846","0.0-29.0-0.4","SS1613139250960","","","null","","","","","<p><img src= images/blank.png width =""200"" height = ""200"" style = ""float:right""></p><p><img src=images/blank.png width =""800"" height = ""200""></p>","","","","","","","","","","","",""
"","236.9299999991199","sequential-stimulus-presentation","143","311898","0.0-29.0-1.4","SS1613139250960","trial","","40","800","1036.92999999912","images/stimuli/spore_stims/simple_09_B_c.gif","images/stimuli/spore_stims/simple_15_B_c.gif","","","","","7","simple_dissimilar","images/stimuli/spore_stims/simple_15_B_c.gif","right","","","","",""
"","null","html-keyboard-response","144","312821","0.0-29.0-0.5","SS1613139250960","","","null","","","","","<p><img src= images/blank.png width =""200"" height = ""200"" style = ""float:right""></p><p><img src=images/blank.png width =""800"" height = ""200""></p>","","","","","","","","","","","",""
"","1076.0449999943376","sequential-stimulus-presentation","145","314706","0.0-29.0-1.5","SS1613139250960","trial","","40","800","1876.0449999943376","images/stimuli/spore_stims/simple_09_B_c.gif","images/stimuli/spore_stims/simple_15_B_c.gif","","","","","7","simple_dissimilar","images/stimuli/spore_stims/simple_15_B_c.gif","right","","","","",""
"","null","html-keyboard-response","146","315764","0.0-29.0-0.6","SS1613139250960","","","null","","","","","<p><img src= images/blank.png width =""200"" height = ""200"" style = ""float:right""></p><p><img src=images/blank.png width =""800"" height = ""200""></p>","","","","","","","","","","","",""
"","232.78999999456573","sequential-stimulus-presentation","147","316808","0.0-29.0-1.6","SS1613139250960","trial","","40","800","1032.7899999945657","images/stimuli/spore_stims/simple_09_B_c.gif","images/stimuli/spore_stims/simple_15_B_c.gif","","","","","7","simple_dissimilar","images/stimuli/spore_stims/simple_15_B_c.gif","right","","","","",""
"","null","html-keyboard-response","148","318006","0.0-29.0-0.7","SS1613139250960","","","null","","","","","<p><img src= images/blank.png width =""200"" height = ""200"" style = ""float:right""></p><p><img src=images/blank.png width =""800"" height = ""200""></p>","","","","","","","","","","","",""
"","1081.3900000066496","sequential-stimulus-presentation","149","319896","0.0-29.0-1.7","SS1613139250960","trial","","40","800","1881.3900000066496","images/stimuli/spore_stims/simple_09_B_c.gif","images/stimuli/spore_stims/simple_15_B_c.gif","","","","","7","simple_dissimilar","images/stimuli/spore_stims/simple_09_B_c.gif","left","","","","",""
"","1016.5700000070501","html-keyboard-response","150","320922","0.0-30.0","SS1613139250960","pref_question","","50","","","","","<video width ='960' height = '540' style='padding-top:8%' autoplay muted><source src='images/stimuli/wall_pref.mp4' type='video/mp4'></video>","2","middle","45%","7","","","","","","","",""
"","2979.5200000080513","sequential-stimulus-presentation","151","324787","0.0-31.0","SS1613139250960","pref_reveal","","40","800","3779.5200000080513","null","null","","","","","7","","","","novel","","","",""
"","null","html-keyboard-response","152","325743","0.0-32.0-0.0","SS1613139250960","","","null","","","","","<p><img src= images/blank.png width =""200"" height = ""200"" style = ""float:right""></p><p><img src=images/blank.png width =""800"" height = ""200""></p>","","","","","","","","","","","",""
"","2278.6699999996927","sequential-stimulus-presentation","153","328836","0.0-32.0-1.0","SS1613139250960","trial","","40","800","3078.6699999996927","images/stimuli/spore_stims/simple_16_A_d.gif","images/stimuli/spore_stims/simple_16_B_d.gif","","","","","8","simple_similar","images/stimuli/spore_stims/simple_16_B_d.gif","right","","","","",""
"","null","html-keyboard-response","154","329994","0.0-32.0-0.1","SS1613139250960","","","null","","","","","<p><img src= images/blank.png width =""200"" height = ""200"" style = ""float:right""></p><p><img src=images/blank.png width =""800"" height = ""200""></p>","","","","","","","","","","","",""
"","231.37499998847488","sequential-stimulus-presentation","155","331043","0.0-32.0-1.1","SS1613139250960","trial","","40","800","1031.3749999884749","images/stimuli/spore_stims/simple_16_A_d.gif","images/stimuli/spore_stims/simple_16_B_d.gif","","","","","8","simple_similar","images/stimuli/spore_stims/simple_16_B_d.gif","right","","","","",""
"","null","html-keyboard-response","156","332275","0.0-32.0-0.2","SS1613139250960","","","null","","","","","<p><img src= images/blank.png width =""200"" height = ""200"" style = ""float:right""></p><p><img src=images/blank.png width =""800"" height = ""200""></p>","","","","","","","","","","","",""
"","160.13499999826308","sequential-stimulus-presentation","157","333253","0.0-32.0-1.2","SS1613139250960","trial","","40","800","960.1349999982631","images/stimuli/spore_stims/simple_16_A_d.gif","images/stimuli/spore_stims/simple_16_B_d.gif","","","","","8","simple_similar","images/stimuli/spore_stims/simple_16_B_d.gif","right","","","","",""
"","null","html-keyboard-response","158","334254","0.0-32.0-0.3","SS1613139250960","","","null","","","","","<p><img src= images/blank.png width =""200"" height = ""200"" style = ""float:right""></p><p><img src=images/blank.png width =""800"" height = ""200""></p>","","","","","","","","","","","",""
"","179.49999999837019","sequential-stimulus-presentation","159","335273","0.0-32.0-1.3","SS1613139250960","trial","","40","800","979.4999999983702","images/stimuli/spore_stims/simple_16_A_d.gif","images/stimuli/spore_stims/simple_16_B_d.gif","","","","","8","simple_similar","images/stimuli/spore_stims/simple_16_B_d.gif","right","","","","",""
"","null","html-keyboard-response","160","336439","0.0-32.0-0.4","SS1613139250960","","","null","","","","","<p><img src= images/blank.png width =""200"" height = ""200"" style = ""float:right""></p><p><img src=images/blank.png width =""800"" height = ""200""></p>","","","","","","","","","","","",""
"","30.745000010938384","sequential-stimulus-presentation","161","337290","0.0-32.0-1.4","SS1613139250960","trial","","40","800","830.7450000109384","images/stimuli/spore_stims/simple_16_A_d.gif","images/stimuli/spore_stims/simple_16_B_d.gif","","","","","8","simple_similar","images/stimuli/spore_stims/simple_16_B_d.gif","right","","","","",""
"","null","html-keyboard-response","162","338316","0.0-32.0-0.5","SS1613139250960","","","null","","","","","<p><img src= images/blank.png width =""200"" height = ""200"" style = ""float:right""></p><p><img src=images/blank.png width =""800"" height = ""200""></p>","","","","","","","","","","","",""
"","147.23000000230968","sequential-stimulus-presentation","163","339271","0.0-32.0-1.5","SS1613139250960","trial","","40","800","947.2300000023097","images/stimuli/spore_stims/simple_16_A_d.gif","images/stimuli/spore_stims/simple_16_B_d.gif","","","","","8","simple_similar","images/stimuli/spore_stims/simple_16_B_d.gif","right","","","","",""
"","null","html-keyboard-response","164","340511","0.0-32.0-0.6","SS1613139250960","","","null","","","","","<p><img src= images/blank.png width =""200"" height = ""200"" style = ""float:right""></p><p><img src=images/blank.png width =""800"" height = ""200""></p>","","","","","","","","","","","",""
"","43.81499999726657","sequential-stimulus-presentation","165","341369","0.0-32.0-1.6","SS1613139250960","trial","","40","800","843.8149999972666","images/stimuli/spore_stims/simple_16_A_d.gif","images/stimuli/spore_stims/simple_16_B_d.gif","","","","","8","simple_similar","images/stimuli/spore_stims/simple_16_B_d.gif","right","","","","",""
"","null","html-keyboard-response","166","342643","0.0-32.0-0.7","SS1613139250960","","","null","","","","","<p><img src= images/blank.png width =""200"" height = ""200"" style = ""float:right""></p><p><img src=images/blank.png width =""800"" height = ""200""></p>","","","","","","","","","","","",""
"","280.6999999884283","sequential-stimulus-presentation","167","343770","0.0-32.0-1.7","SS1613139250960","trial","","40","800","1080.6999999884283","images/stimuli/spore_stims/simple_16_A_d.gif","images/stimuli/spore_stims/simple_16_B_d.gif","","","","","8","simple_similar","images/stimuli/spore_stims/simple_16_A_d.gif","left","","","","",""
"","1162.7399999997579","html-keyboard-response","168","344951","0.0-33.0","SS1613139250960","pref_question","","50","","","","","<video width ='960' height = '540' style='padding-top:8%' autoplay muted><source src='images/stimuli/wall_pref.mp4' type='video/mp4'></video>","2","middle","45%","8","","","","","","","",""
"","959.419999999227","sequential-stimulus-presentation","169","346732","0.0-34.0","SS1613139250960","pref_reveal","","40","800","1759.419999999227","null","null","","","","","8","","","","novel","","","",""
"","null","html-keyboard-response","170","347806","0.0-35.0-0.0","SS1613139250960","","","null","","","","","<p><img src= images/blank.png width =""200"" height = ""200"" style = ""float:right""></p><p><img src=images/blank.png width =""800"" height = ""200""></p>","","","","","","","","","","","",""
"","355.80999999365304","sequential-stimulus-presentation","171","348976","0.0-35.0-1.0","SS1613139250960","trial","","40","800","1155.809999993653","images/stimuli/spore_stims/complex_11_A_c.gif","images/stimuli/spore_stims/complex_11_B_c.gif","","","","","9","complex_similar","images/stimuli/spore_stims/complex_11_B_c.gif","left","","","","",""
"","null","html-keyboard-response","172","350148","0.0-35.0-0.1","SS1613139250960","","","null","","","","","<p><img src= images/blank.png width =""200"" height = ""200"" style = ""float:right""></p><p><img src=images/blank.png width =""800"" height = ""200""></p>","","","","","","","","","","","",""
"","1164.5649999991292","sequential-stimulus-presentation","173","352130","0.0-35.0-1.1","SS1613139250960","trial","","40","800","1964.5649999991292","images/stimuli/spore_stims/complex_11_A_c.gif","images/stimuli/spore_stims/complex_11_B_c.gif","","","","","9","complex_similar","images/stimuli/spore_stims/complex_11_B_c.gif","left","","","","",""
"","null","html-keyboard-response","174","353100","0.0-35.0-0.2","SS1613139250960","","","null","","","","","<p><img src= images/blank.png width =""200"" height = ""200"" style = ""float:right""></p><p><img src=images/blank.png width =""800"" height = ""200""></p>","","","","","","","","","","","",""
"","275.74500000628177","sequential-stimulus-presentation","175","354191","0.0-35.0-1.2","SS1613139250960","trial","","40","800","1075.7450000062818","images/stimuli/spore_stims/complex_11_A_c.gif","images/stimuli/spore_stims/complex_11_B_c.gif","","","","","9","complex_similar","images/stimuli/spore_stims/complex_11_B_c.gif","left","","","","",""
"","null","html-keyboard-response","176","355257","0.0-35.0-0.3","SS1613139250960","","","null","","","","","<p><img src= images/blank.png width =""200"" height = ""200"" style = ""float:right""></p><p><img src=images/blank.png width =""800"" height = ""200""></p>","","","","","","","","","","","",""
"","100.96500000508968","sequential-stimulus-presentation","177","356168","0.0-35.0-1.3","SS1613139250960","trial","","40","800","900.9650000050897","images/stimuli/spore_stims/complex_11_A_c.gif","images/stimuli/spore_stims/complex_11_B_c.gif","","","","","9","complex_similar","images/stimuli/spore_stims/complex_11_B_c.gif","left","","","","",""
"","null","html-keyboard-response","178","357316","0.0-35.0-0.4","SS1613139250960","","","null","","","","","<p><img src= images/blank.png width =""200"" height = ""200"" style = ""float:right""></p><p><img src=images/blank.png width =""800"" height = ""200""></p>","","","","","","","","","","","",""
"","298.9850000012666","sequential-stimulus-presentation","179","358449","0.0-35.0-1.4","SS1613139250960","trial","","40","800","1098.9850000012666","images/stimuli/spore_stims/complex_11_A_c.gif","images/stimuli/spore_stims/complex_11_B_c.gif","","","","","9","complex_similar","images/stimuli/spore_stims/complex_11_A_c.gif","right","","","","",""
"","null","html-keyboard-response","180","359611","0.0-35.0-0.5","SS1613139250960","","","null","","","","","<p><img src= images/blank.png width =""200"" height = ""200"" style = ""float:right""></p><p><img src=images/blank.png width =""800"" height = ""200""></p>","","","","","","","","","","","",""
"","207.6950000046054","sequential-stimulus-presentation","181","360629","0.0-35.0-1.5","SS1613139250960","trial","","40","800","1007.6950000046054","images/stimuli/spore_stims/complex_11_A_c.gif","images/stimuli/spore_stims/complex_11_B_c.gif","","","","","9","complex_similar","images/stimuli/spore_stims/complex_11_B_c.gif","left","","","","",""
"","null","html-keyboard-response","182","361626","0.0-35.0-0.6","SS1613139250960","","","null","","","","","<p><img src= images/blank.png width =""200"" height = ""200"" style = ""float:right""></p><p><img src=images/blank.png width =""800"" height = ""200""></p>","","","","","","","","","","","",""
"","197.94500000716653","sequential-stimulus-presentation","183","362640","0.0-35.0-1.6","SS1613139250960","trial","","40","800","997.9450000071665","images/stimuli/spore_stims/complex_11_A_c.gif","images/stimuli/spore_stims/complex_11_B_c.gif","","","","","9","complex_similar","images/stimuli/spore_stims/complex_11_B_c.gif","left","","","","",""
"","null","html-keyboard-response","184","363792","0.0-35.0-0.7","SS1613139250960","","","null","","","","","<p><img src= images/blank.png width =""200"" height = ""200"" style = ""float:right""></p><p><img src=images/blank.png width =""800"" height = ""200""></p>","","","","","","","","","","","",""
"","458.11500000127126","sequential-stimulus-presentation","185","365064","0.0-35.0-1.7","SS1613139250960","trial","","40","800","1258.1150000012713","images/stimuli/spore_stims/complex_11_A_c.gif","images/stimuli/spore_stims/complex_11_B_c.gif","","","","","9","complex_similar","images/stimuli/spore_stims/complex_11_B_c.gif","left","","","","",""
"","1208.0500000010943","html-keyboard-response","186","366293","0.0-36.0","SS1613139250960","pref_question","","50","","","","","<video width ='960' height = '540' style='padding-top:8%' autoplay muted><source src='images/stimuli/wall_pref.mp4' type='video/mp4'></video>","2","middle","45%","9","","","","","","","",""
"","1229.1049999912502","sequential-stimulus-presentation","187","368350","0.0-37.0","SS1613139250960","pref_reveal","","40","800","2029.1049999912502","null","null","","","","","9","","","","novel","","","",""
"","null","html-keyboard-response","188","369320","0.0-38.0-0.0","SS1613139250960","","","null","","","","","<p><img src= images/blank.png width =""200"" height = ""200"" style = ""float:right""></p><p><img src=images/blank.png width =""800"" height = ""200""></p>","","","","","","","","","","","",""
"","653.0099999945378","sequential-stimulus-presentation","189","370812","0.0-38.0-1.0","SS1613139250960","trial","","40","800","1453.0099999945378","images/stimuli/spore_stims/simple_07_B_a.gif","images/stimuli/spore_stims/simple_07_A_a.gif","","","","","10","simple_similar","images/stimuli/spore_stims/simple_07_A_a.gif","left","","","","",""
"","null","html-keyboard-response","190","372085","0.0-38.0-0.1","SS1613139250960","","","null","","","","","<p><img src= images/blank.png width =""200"" height = ""200"" style = ""float:right""></p><p><img src=images/blank.png width =""800"" height = ""200""></p>","","","","","","","","","","","",""
"","422.30999999446794","sequential-stimulus-presentation","191","373325","0.0-38.0-1.1","SS1613139250960","trial","","40","800","1222.309999994468","images/stimuli/spore_stims/simple_07_B_a.gif","images/stimuli/spore_stims/simple_07_A_a.gif","","","","","10","simple_similar","images/stimuli/spore_stims/simple_07_A_a.gif","left","","","","",""
"","null","html-keyboard-response","192","374305","0.0-38.0-0.2","SS1613139250960","","","null","","","","","<p><img src= images/blank.png width =""200"" height = ""200"" style = ""float:right""></p><p><img src=images/blank.png width =""800"" height = ""200""></p>","","","","","","","","","","","",""
"","268.33500000066124","sequential-stimulus-presentation","193","375389","0.0-38.0-1.2","SS1613139250960","trial","","40","800","1068.3350000006612","images/stimuli/spore_stims/simple_07_B_a.gif","images/stimuli/spore_stims/simple_07_A_a.gif","","","","","10","simple_similar","images/stimuli/spore_stims/simple_07_A_a.gif","left","","","","",""
"","null","html-keyboard-response","194","376701","0.0-38.0-0.3","SS1613139250960","","","null","","","","","<p><img src= images/blank.png width =""200"" height = ""200"" style = ""float:right""></p><p><img src=images/blank.png width =""800"" height = ""200""></p>","","","","","","","","","","","",""
"","269.5499999972526","sequential-stimulus-presentation","195","377781","0.0-38.0-1.3","SS1613139250960","trial","","40","800","1069.5499999972526","images/stimuli/spore_stims/simple_07_B_a.gif","images/stimuli/spore_stims/simple_07_A_a.gif","","","","","10","simple_similar","images/stimuli/spore_stims/simple_07_A_a.gif","left","","","","",""
"","null","html-keyboard-response","196","378996","0.0-38.0-0.4","SS1613139250960","","","null","","","","","<p><img src= images/blank.png width =""200"" height = ""200"" style = ""float:right""></p><p><img src=images/blank.png width =""800"" height = ""200""></p>","","","","","","","","","","","",""
"","383.95499999751337","sequential-stimulus-presentation","197","380193","0.0-38.0-1.4","SS1613139250960","trial","","40","800","1183.9549999975134","images/stimuli/spore_stims/simple_07_B_a.gif","images/stimuli/spore_stims/simple_07_A_a.gif","","","","","10","simple_similar","images/stimuli/spore_stims/simple_07_A_a.gif","left","","","","",""
"","null","html-keyboard-response","198","381022","0.0-38.0-0.5","SS1613139250960","","","null","","","","","<p><img src= images/blank.png width =""200"" height = ""200"" style = ""float:right""></p><p><img src=images/blank.png width =""800"" height = ""200""></p>","","","","","","","","","","","",""
"","292.35000000335276","sequential-stimulus-presentation","199","382134","0.0-38.0-1.5","SS1613139250960","trial","","40","800","1092.3500000033528","images/stimuli/spore_stims/simple_07_B_a.gif","images/stimuli/spore_stims/simple_07_A_a.gif","","","","","10","simple_similar","images/stimuli/spore_stims/simple_07_A_a.gif","left","","","","",""
"","null","html-keyboard-response","200","383006","0.0-38.0-0.6","SS1613139250960","","","null","","","","","<p><img src= images/blank.png width =""200"" height = ""200"" style = ""float:right""></p><p><img src=images/blank.png width =""800"" height = ""200""></p>","","","","","","","","","","","",""
"","312.7200000017183","sequential-stimulus-presentation","201","384153","0.0-38.0-1.6","SS1613139250960","trial","","40","800","1112.7200000017183","images/stimuli/spore_stims/simple_07_B_a.gif","images/stimuli/spore_stims/simple_07_A_a.gif","","","","","10","simple_similar","images/stimuli/spore_stims/simple_07_A_a.gif","left","","","","",""
"","null","html-keyboard-response","202","385125","0.0-38.0-0.7","SS1613139250960","","","null","","","","","<p><img src= images/blank.png width =""200"" height = ""200"" style = ""float:right""></p><p><img src=images/blank.png width =""800"" height = ""200""></p>","","","","","","","","","","","",""
"","1745.3049999894574","sequential-stimulus-presentation","203","387684","0.0-38.0-1.7","SS1613139250960","trial","","40","800","2545.3049999894574","images/stimuli/spore_stims/simple_07_B_a.gif","images/stimuli/spore_stims/simple_07_A_a.gif","","","","","10","simple_similar","images/stimuli/spore_stims/simple_07_B_a.gif","middle","","","","",""
"","1126.2500000011642","html-keyboard-response","204","388833","0.0-39.0","SS1613139250960","pref_question","","51","","","","","<video width ='960' height = '540' style='padding-top:8%' autoplay muted><source src='images/stimuli/wall_pref.mp4' type='video/mp4'></video>","3","right","66%","10","","","","","","","",""
"","2328.6950000037905","sequential-stimulus-presentation","205","391992","0.0-40.0","SS1613139250960","pref_reveal","","40","800","3128.6950000037905","null","null","","","","","10","","","","novel","","","",""
"","null","html-keyboard-response","206","392839","0.0-41.0-0.0","SS1613139250960","","","null","","","","","<p><img src= images/blank.png width =""200"" height = ""200"" style = ""float:right""></p><p><img src=images/blank.png width =""800"" height = ""200""></p>","","","","","","","","","","","",""
"","217.37499999289867","sequential-stimulus-presentation","207","393874","0.0-41.0-1.0","SS1613139250960","trial","","40","800","1017.3749999928987","images/stimuli/spore_stims/simple_01_B_a.gif","images/stimuli/spore_stims/simple_04_A_a.gif","","","","","11","simple_dissimilar","images/stimuli/spore_stims/simple_04_A_a.gif","right","","","","",""
"","null","html-keyboard-response","208","395144","0.0-41.0-0.1","SS1613139250960","","","null","","","","","<p><img src= images/blank.png width =""200"" height = ""200"" style = ""float:right""></p><p><img src=images/blank.png width =""800"" height = ""200""></p>","","","","","","","","","","","",""
"","233.07000000204425","sequential-stimulus-presentation","209","396199","0.0-41.0-1.1","SS1613139250960","trial","","40","800","1033.0700000020443","images/stimuli/spore_stims/simple_01_B_a.gif","images/stimuli/spore_stims/simple_04_A_a.gif","","","","","11","simple_dissimilar","images/stimuli/spore_stims/simple_04_A_a.gif","right","","","","",""
"","null","html-keyboard-response","210","397153","0.0-41.0-0.2","SS1613139250960","","","null","","","","","<p><img src= images/blank.png width =""200"" height = ""200"" style = ""float:right""></p><p><img src=images/blank.png width =""800"" height = ""200""></p>","","","","","","","","","","","",""
"","257.2199999995064","sequential-stimulus-presentation","211","398233","0.0-41.0-1.2","SS1613139250960","trial","","40","800","1057.2199999995064","images/stimuli/spore_stims/simple_01_B_a.gif","images/stimuli/spore_stims/simple_04_A_a.gif","","","","","11","simple_dissimilar","images/stimuli/spore_stims/simple_04_A_a.gif","right","","","","",""
"","null","html-keyboard-response","212","399473","0.0-41.0-0.3","SS1613139250960","","","null","","","","","<p><img src= images/blank.png width =""200"" height = ""200"" style = ""float:right""></p><p><img src=images/blank.png width =""800"" height = ""200""></p>","","","","","","","","","","","",""
"","666.3100000005215","sequential-stimulus-presentation","213","400956","0.0-41.0-1.3","SS1613139250960","trial","","40","800","1466.3100000005215","images/stimuli/spore_stims/simple_01_B_a.gif","images/stimuli/spore_stims/simple_04_A_a.gif","","","","","11","simple_dissimilar","images/stimuli/spore_stims/simple_01_B_a.gif","middle","","","","",""
"","null","html-keyboard-response","214","402251","0.0-41.0-0.4","SS1613139250960","","","null","","","","","<p><img src= images/blank.png width =""200"" height = ""200"" style = ""float:right""></p><p><img src=images/blank.png width =""800"" height = ""200""></p>","","","","","","","","","","","",""
"","207.8100000071572","sequential-stimulus-presentation","215","403271","0.0-41.0-1.4","SS1613139250960","trial","","40","800","1007.8100000071572","images/stimuli/spore_stims/simple_01_B_a.gif","images/stimuli/spore_stims/simple_04_A_a.gif","","","","","11","simple_dissimilar","images/stimuli/spore_stims/simple_04_A_a.gif","right","","","","",""
"","null","html-keyboard-response","216","404557","0.0-41.0-0.5","SS1613139250960","","","null","","","","","<p><img src= images/blank.png width =""200"" height = ""200"" style = ""float:right""></p><p><img src=images/blank.png width =""800"" height = ""200""></p>","","","","","","","","","","","",""
"","193.20999999763444","sequential-stimulus-presentation","217","405562","0.0-41.0-1.5","SS1613139250960","trial","","40","800","993.2099999976344","images/stimuli/spore_stims/simple_01_B_a.gif","images/stimuli/spore_stims/simple_04_A_a.gif","","","","","11","simple_dissimilar","images/stimuli/spore_stims/simple_04_A_a.gif","right","","","","",""
"","null","html-keyboard-response","218","406844","0.0-41.0-0.6","SS1613139250960","","","null","","","","","<p><img src= images/blank.png width =""200"" height = ""200"" style = ""float:right""></p><p><img src=images/blank.png width =""800"" height = ""200""></p>","","","","","","","","","","","",""
"","2.0099999965168536","sequential-stimulus-presentation","219","407669","0.0-41.0-1.6","SS1613139250960","trial","","40","800","802.0099999965169","images/stimuli/spore_stims/simple_01_B_a.gif","images/stimuli/spore_stims/simple_04_A_a.gif","","","","","11","simple_dissimilar","images/stimuli/spore_stims/simple_04_A_a.gif","right","","","","",""
"","null","html-keyboard-response","220","408592","0.0-41.0-0.7","SS1613139250960","","","null","","","","","<p><img src= images/blank.png width =""200"" height = ""200"" style = ""float:right""></p><p><img src=images/blank.png width =""800"" height = ""200""></p>","","","","","","","","","","","",""
"","132.2000000072876","sequential-stimulus-presentation","221","409554","0.0-41.0-1.7","SS1613139250960","trial","","40","800","932.2000000072876","images/stimuli/spore_stims/simple_01_B_a.gif","images/stimuli/spore_stims/simple_04_A_a.gif","","","","","11","simple_dissimilar","images/stimuli/spore_stims/simple_04_A_a.gif","right","","","","",""
"","804.8249999992549","html-keyboard-response","222","410384","0.0-42.0","SS1613139250960","pref_question","","49","","","","","<video width ='960' height = '540' style='padding-top:8%' autoplay muted><source src='images/stimuli/wall_pref.mp4' type='video/mp4'></video>","1","left","25%","11","","","","","","","",""
"","2950.4350000061095","sequential-stimulus-presentation","223","414156","0.0-43.0","SS1613139250960","pref_reveal","","40","800","3750.4350000061095","null","null","","","","","11","","","","novel","","","",""
"","null","html-keyboard-response","224","415460","0.0-44.0-0.0","SS1613139250960","","","null","","","","","<p><img src= images/blank.png width =""200"" height = ""200"" style = ""float:right""></p><p><img src=images/blank.png width =""800"" height = ""200""></p>","","","","","","","","","","","",""
"","3583.1299999990733","sequential-stimulus-presentation","225","419855","0.0-44.0-1.0","SS1613139250960","trial","","40","800","4383.129999999073","images/stimuli/spore_stims/complex_13_B_d.gif","images/stimuli/spore_stims/complex_13_A_d.gif","","","","","12","complex_similar","images/stimuli/spore_stims/complex_13_A_d.gif","left","","","","",""
"","null","html-keyboard-response","226","420707","0.0-44.0-0.1","SS1613139250960","","","null","","","","","<p><img src= images/blank.png width =""200"" height = ""200"" style = ""float:right""></p><p><img src=images/blank.png width =""800"" height = ""200""></p>","","","","","","","","","","","",""
"","608.1750000012107","sequential-stimulus-presentation","227","422133","0.0-44.0-1.1","SS1613139250960","trial","","40","800","1408.1750000012107","images/stimuli/spore_stims/complex_13_B_d.gif","images/stimuli/spore_stims/complex_13_A_d.gif","","","","","12","complex_similar","images/stimuli/spore_stims/complex_13_A_d.gif","left","","","","",""
"","null","html-keyboard-response","228","422978","0.0-44.0-0.2","SS1613139250960","","","null","","","","","<p><img src= images/blank.png width =""200"" height = ""200"" style = ""float:right""></p><p><img src=images/blank.png width =""800"" height = ""200""></p>","","","","","","","","","","","",""
"","245.36500000976957","sequential-stimulus-presentation","229","424046","0.0-44.0-1.2","SS1613139250960","trial","","40","800","1045.3650000097696","images/stimuli/spore_stims/complex_13_B_d.gif","images/stimuli/spore_stims/complex_13_A_d.gif","","","","","12","complex_similar","images/stimuli/spore_stims/complex_13_A_d.gif","left","","","","",""
"","null","html-keyboard-response","230","425268","0.0-44.0-0.3","SS1613139250960","","","null","","","","","<p><img src= images/blank.png width =""200"" height = ""200"" style = ""float:right""></p><p><img src=images/blank.png width =""800"" height = ""200""></p>","","","","","","","","","","","",""
"","308.84500000684056","sequential-stimulus-presentation","231","426389","0.0-44.0-1.3","SS1613139250960","trial","","40","800","1108.8450000068406","images/stimuli/spore_stims/complex_13_B_d.gif","images/stimuli/spore_stims/complex_13_A_d.gif","","","","","12","complex_similar","images/stimuli/spore_stims/complex_13_A_d.gif","left","","","","",""
"","null","html-keyboard-response","232","427306","0.0-44.0-0.4","SS1613139250960","","","null","","","","","<p><img src= images/blank.png width =""200"" height = ""200"" style = ""float:right""></p><p><img src=images/blank.png width =""800"" height = ""200""></p>","","","","","","","","","","","",""
"","669.160000004922","sequential-stimulus-presentation","233","428792","0.0-44.0-1.4","SS1613139250960","trial","","40","800","1469.160000004922","images/stimuli/spore_stims/complex_13_B_d.gif","images/stimuli/spore_stims/complex_13_A_d.gif","","","","","12","complex_similar","images/stimuli/spore_stims/complex_13_B_d.gif","middle","","","","",""
"","null","html-keyboard-response","234","429777","0.0-44.0-0.5","SS1613139250960","","","null","","","","","<p><img src= images/blank.png width =""200"" height = ""200"" style = ""float:right""></p><p><img src=images/blank.png width =""800"" height = ""200""></p>","","","","","","","","","","","",""
"","314.8349999974016","sequential-stimulus-presentation","235","430906","0.0-44.0-1.5","SS1613139250960","trial","","40","800","1114.8349999974016","images/stimuli/spore_stims/complex_13_B_d.gif","images/stimuli/spore_stims/complex_13_A_d.gif","","","","","12","complex_similar","images/stimuli/spore_stims/complex_13_A_d.gif","left","","","","",""
"","null","html-keyboard-response","236","432121","0.0-44.0-0.6","SS1613139250960","","","null","","","","","<p><img src= images/blank.png width =""200"" height = ""200"" style = ""float:right""></p><p><img src=images/blank.png width =""800"" height = ""200""></p>","","","","","","","","","","","",""
"","237.25999999442138","sequential-stimulus-presentation","237","433177","0.0-44.0-1.6","SS1613139250960","trial","","40","800","1037.2599999944214","images/stimuli/spore_stims/complex_13_B_d.gif","images/stimuli/spore_stims/complex_13_A_d.gif","","","","","12","complex_similar","images/stimuli/spore_stims/complex_13_A_d.gif","left","","","","",""
"","null","html-keyboard-response","238","434083","0.0-44.0-0.7","SS1613139250960","","","null","","","","","<p><img src= images/blank.png width =""200"" height = ""200"" style = ""float:right""></p><p><img src=images/blank.png width =""800"" height = ""200""></p>","","","","","","","","","","","",""
"","277.6999999914551","sequential-stimulus-presentation","239","435180","0.0-44.0-1.7","SS1613139250960","trial","","40","800","1077.6999999914551","images/stimuli/spore_stims/complex_13_B_d.gif","images/stimuli/spore_stims/complex_13_A_d.gif","","","","","12","complex_similar","images/stimuli/spore_stims/complex_13_A_d.gif","left","","","","",""
"","2963.7300000031246","html-keyboard-response","240","438172","0.0-45.0","SS1613139250960","pref_question","","51","","","","","<video width ='960' height = '540' style='padding-top:8%' autoplay muted><source src='images/stimuli/wall_pref.mp4' type='video/mp4'></video>","3","right","66%","12","","","","","","","",""
"","2129.209999999148","sequential-stimulus-presentation","241","441138","0.0-46.0","SS1613139250960","pref_reveal","","40","800","2929.209999999148","null","null","","","","","12","","","","novel","","","",""
"","null","html-keyboard-response","242","442428","0.0-47.0-0.0","SS1613139250960","","","null","","","","","<p><img src= images/blank.png width =""200"" height = ""200"" style = ""float:right""></p><p><img src=images/blank.png width =""800"" height = ""200""></p>","","","","","","","","","","","",""
"","278.35999999661","sequential-stimulus-presentation","243","443546","0.0-47.0-1.0","SS1613139250960","trial","","40","800","1078.35999999661","images/stimuli/spore_stims/simple_12_A_b.gif","images/stimuli/spore_stims/simple_12_B_b.gif","","","","","13","simple_similar","images/stimuli/spore_stims/simple_12_B_b.gif","left","","","","",""
"","null","html-keyboard-response","244","444647","0.0-47.0-0.1","SS1613139250960","","","null","","","","","<p><img src= images/blank.png width =""200"" height = ""200"" style = ""float:right""></p><p><img src=images/blank.png width =""800"" height = ""200""></p>","","","","","","","","","","","",""
"","272.68999999796506","sequential-stimulus-presentation","245","445739","0.0-47.0-1.1","SS1613139250960","trial","","40","800","1072.689999997965","images/stimuli/spore_stims/simple_12_A_b.gif","images/stimuli/spore_stims/simple_12_B_b.gif","","","","","13","simple_similar","images/stimuli/spore_stims/simple_12_B_b.gif","left","","","","",""
"","null","html-keyboard-response","246","446729","0.0-47.0-0.2","SS1613139250960","","","null","","","","","<p><img src= images/blank.png width =""200"" height = ""200"" style = ""float:right""></p><p><img src=images/blank.png width =""800"" height = ""200""></p>","","","","","","","","","","","",""
"","303.2450000027893","sequential-stimulus-presentation","247","447859","0.0-47.0-1.2","SS1613139250960","trial","","40","800","1103.2450000027893","images/stimuli/spore_stims/simple_12_A_b.gif","images/stimuli/spore_stims/simple_12_B_b.gif","","","","","13","simple_similar","images/stimuli/spore_stims/simple_12_B_b.gif","left","","","","",""
"","null","html-keyboard-response","248","448888","0.0-47.0-0.3","SS1613139250960","","","null","","","","","<p><img src= images/blank.png width =""200"" height = ""200"" style = ""float:right""></p><p><img src=images/blank.png width =""800"" height = ""200""></p>","","","","","","","","","","","",""
"","1160.81000000122","sequential-stimulus-presentation","249","450862","0.0-47.0-1.3","SS1613139250960","trial","","40","800","1960.81000000122","images/stimuli/spore_stims/simple_12_A_b.gif","images/stimuli/spore_stims/simple_12_B_b.gif","","","","","13","simple_similar","images/stimuli/spore_stims/simple_12_A_b.gif","right","","","","",""
"","null","html-keyboard-response","250","451833","0.0-47.0-0.4","SS1613139250960","","","null","","","","","<p><img src= images/blank.png width =""200"" height = ""200"" style = ""float:right""></p><p><img src=images/blank.png width =""800"" height = ""200""></p>","","","","","","","","","","","",""
"","281.40500000154134","sequential-stimulus-presentation","251","452930","0.0-47.0-1.4","SS1613139250960","trial","","40","800","1081.4050000015413","images/stimuli/spore_stims/simple_12_A_b.gif","images/stimuli/spore_stims/simple_12_B_b.gif","","","","","13","simple_similar","images/stimuli/spore_stims/simple_12_B_b.gif","left","","","","",""
"","null","html-keyboard-response","252","453944","0.0-47.0-0.5","SS1613139250960","","","null","","","","","<p><img src= images/blank.png width =""200"" height = ""200"" style = ""float:right""></p><p><img src=images/blank.png width =""800"" height = ""200""></p>","","","","","","","","","","","",""
"","249.88000000303145","sequential-stimulus-presentation","253","455012","0.0-47.0-1.5","SS1613139250960","trial","","40","800","1049.8800000030315","images/stimuli/spore_stims/simple_12_A_b.gif","images/stimuli/spore_stims/simple_12_B_b.gif","","","","","13","simple_similar","images/stimuli/spore_stims/simple_12_B_b.gif","left","","","","",""
"","null","html-keyboard-response","254","456150","0.0-47.0-0.6","SS1613139250960","","","null","","","","","<p><img src= images/blank.png width =""200"" height = ""200"" style = ""float:right""></p><p><img src=images/blank.png width =""800"" height = ""200""></p>","","","","","","","","","","","",""
"","189.76999999722466","sequential-stimulus-presentation","255","457154","0.0-47.0-1.6","SS1613139250960","trial","","40","800","989.7699999972247","images/stimuli/spore_stims/simple_12_A_b.gif","images/stimuli/spore_stims/simple_12_B_b.gif","","","","","13","simple_similar","images/stimuli/spore_stims/simple_12_B_b.gif","left","","","","",""
"","null","html-keyboard-response","256","457986","0.0-47.0-0.7","SS1613139250960","","","null","","","","","<p><img src= images/blank.png width =""200"" height = ""200"" style = ""float:right""></p><p><img src=images/blank.png width =""800"" height = ""200""></p>","","","","","","","","","","","",""
"","411.58999998879153","sequential-stimulus-presentation","257","459212","0.0-47.0-1.7","SS1613139250960","trial","","40","800","1211.5899999887915","images/stimuli/spore_stims/simple_12_A_b.gif","images/stimuli/spore_stims/simple_12_B_b.gif","","","","","13","simple_similar","images/stimuli/spore_stims/simple_12_B_b.gif","left","","","","",""
"","1057.5499999977183","html-keyboard-response","258","460294","0.0-48.0","SS1613139250960","pref_question","","50","","","","","<video width ='960' height = '540' style='padding-top:8%' autoplay muted><source src='images/stimuli/wall_pref.mp4' type='video/mp4'></video>","2","middle","45%","13","","","","","","","",""
"","3436.9100000039907","sequential-stimulus-presentation","259","464550","0.0-49.0","SS1613139250960","pref_reveal","","40","800","4236.910000003991","null","null","","","","","13","","","","novel","","","",""
"","null","html-keyboard-response","260","465627","0.0-50.0-0.0","SS1613139250960","","","null","","","","","<p><img src= images/blank.png width =""200"" height = ""200"" style = ""float:right""></p><p><img src=images/blank.png width =""800"" height = ""200""></p>","","","","","","","","","","","",""
"","291.37000000628177","sequential-stimulus-presentation","261","466756","0.0-50.0-1.0","SS1613139250960","trial","","40","800","1091.3700000062818","images/stimuli/spore_stims/complex_14_B_a.gif","images/stimuli/spore_stims/complex_14_A_b.gif","","","","","14","complex_dissimilar","images/stimuli/spore_stims/complex_14_A_b.gif","right","","","","",""
"","null","html-keyboard-response","262","467873","0.0-50.0-0.1","SS1613139250960","","","null","","","","","<p><img src= images/blank.png width =""200"" height = ""200"" style = ""float:right""></p><p><img src=images/blank.png width =""800"" height = ""200""></p>","","","","","","","","","","","",""
"","62.004999999771826","sequential-stimulus-presentation","263","468756","0.0-50.0-1.1","SS1613139250960","trial","","40","800","862.0049999997718","images/stimuli/spore_stims/complex_14_B_a.gif","images/stimuli/spore_stims/complex_14_A_b.gif","","","","","14","complex_dissimilar","images/stimuli/spore_stims/complex_14_A_b.gif","right","","","","",""
"","null","html-keyboard-response","264","469909","0.0-50.0-0.2","SS1613139250960","","","null","","","","","<p><img src= images/blank.png width =""200"" height = ""200"" style = ""float:right""></p><p><img src=images/blank.png width =""800"" height = ""200""></p>","","","","","","","","","","","",""
"","209.16500000748783","sequential-stimulus-presentation","265","470943","0.0-50.0-1.2","SS1613139250960","trial","","40","800","1009.1650000074878","images/stimuli/spore_stims/complex_14_B_a.gif","images/stimuli/spore_stims/complex_14_A_b.gif","","","","","14","complex_dissimilar","images/stimuli/spore_stims/complex_14_A_b.gif","right","","","","",""
"","null","html-keyboard-response","266","471928","0.0-50.0-0.3","SS1613139250960","","","null","","","","","<p><img src= images/blank.png width =""200"" height = ""200"" style = ""float:right""></p><p><img src=images/blank.png width =""800"" height = ""200""></p>","","","","","","","","","","","",""
"","273.33500000531785","sequential-stimulus-presentation","267","473021","0.0-50.0-1.3","SS1613139250960","trial","","40","800","1073.3350000053179","images/stimuli/spore_stims/complex_14_B_a.gif","images/stimuli/spore_stims/complex_14_A_b.gif","","","","","14","complex_dissimilar","images/stimuli/spore_stims/complex_14_A_b.gif","right","","","","",""
"","null","html-keyboard-response","268","474198","0.0-50.0-0.4","SS1613139250960","","","null","","","","","<p><img src= images/blank.png width =""200"" height = ""200"" style = ""float:right""></p><p><img src=images/blank.png width =""800"" height = ""200""></p>","","","","","","","","","","","",""
"","239.42499999247957","sequential-stimulus-presentation","269","475254","0.0-50.0-1.4","SS1613139250960","trial","","40","800","1039.4249999924796","images/stimuli/spore_stims/complex_14_B_a.gif","images/stimuli/spore_stims/complex_14_A_b.gif","","","","","14","complex_dissimilar","images/stimuli/spore_stims/complex_14_A_b.gif","right","","","","",""
"","null","html-keyboard-response","270","476518","0.0-50.0-0.5","SS1613139250960","","","null","","","","","<p><img src= images/blank.png width =""200"" height = ""200"" style = ""float:right""></p><p><img src=images/blank.png width =""800"" height = ""200""></p>","","","","","","","","","","","",""
"","154.09499999077525","sequential-stimulus-presentation","271","477506","0.0-50.0-1.5","SS1613139250960","trial","","40","800","954.0949999907752","images/stimuli/spore_stims/complex_14_B_a.gif","images/stimuli/spore_stims/complex_14_A_b.gif","","","","","14","complex_dissimilar","images/stimuli/spore_stims/complex_14_A_b.gif","right","","","","",""
"","null","html-keyboard-response","272","478549","0.0-50.0-0.6","SS1613139250960","","","null","","","","","<p><img src= images/blank.png width =""200"" height = ""200"" style = ""float:right""></p><p><img src=images/blank.png width =""800"" height = ""200""></p>","","","","","","","","","","","",""
"","2856.4449999976205","sequential-stimulus-presentation","273","482218","0.0-50.0-1.6","SS1613139250960","trial","","40","800","3656.4449999976205","images/stimuli/spore_stims/complex_14_B_a.gif","images/stimuli/spore_stims/complex_14_A_b.gif","","","","","14","complex_dissimilar","images/stimuli/spore_stims/complex_14_B_a.gif","left","","","","",""
"","null","html-keyboard-response","274","483496","0.0-50.0-0.7","SS1613139250960","","","null","","","","","<p><img src= images/blank.png width =""200"" height = ""200"" style = ""float:right""></p><p><img src=images/blank.png width =""800"" height = ""200""></p>","","","","","","","","","","","",""
"","106.41500000201631","sequential-stimulus-presentation","275","484427","0.0-50.0-1.7","SS1613139250960","trial","","40","800","906.4150000020163","images/stimuli/spore_stims/complex_14_B_a.gif","images/stimuli/spore_stims/complex_14_A_b.gif","","","","","14","complex_dissimilar","images/stimuli/spore_stims/complex_14_A_b.gif","right","","","","",""
"","824.3400000064867","html-keyboard-response","276","485285","0.0-51.0","SS1613139250960","pref_question","","50","","","","","<video width ='960' height = '540' style='padding-top:8%' autoplay muted><source src='images/stimuli/wall_pref.mp4' type='video/mp4'></video>","2","middle","45%","14","","","","","","","",""
"","1094.8199999984354","sequential-stimulus-presentation","277","487276","0.0-52.0","SS1613139250960","pref_reveal","","40","800","1894.8199999984354","null","null","","","","","14","","","","novel","","","",""
"","null","html-keyboard-response","278","488360","0.0-53.0-0.0","SS1613139250960","","","null","","","","","<p><img src= images/blank.png width =""200"" height = ""200"" style = ""float:right""></p><p><img src=images/blank.png width =""800"" height = ""200""></p>","","","","","","","","","","","",""
"","2006.5150000009453","sequential-stimulus-presentation","279","491193","0.0-53.0-1.0","SS1613139250960","trial","","40","800","2806.5150000009453","images/stimuli/spore_stims/complex_08_B_c.gif","images/stimuli/spore_stims/complex_10_A_d.gif","","","","","15","complex_dissimilar","images/stimuli/spore_stims/complex_10_A_d.gif","right","","","","",""
"","null","html-keyboard-response","280","492357","0.0-53.0-0.1","SS1613139250960","","","null","","","","","<p><img src= images/blank.png width =""200"" height = ""200"" style = ""float:right""></p><p><img src=images/blank.png width =""800"" height = ""200""></p>","","","","","","","","","","","",""
"","465.90999999898486","sequential-stimulus-presentation","281","493648","0.0-53.0-1.1","SS1613139250960","trial","","40","800","1265.9099999989849","images/stimuli/spore_stims/complex_08_B_c.gif","images/stimuli/spore_stims/complex_10_A_d.gif","","","","","15","complex_dissimilar","images/stimuli/spore_stims/complex_10_A_d.gif","right","","","","",""
"","null","html-keyboard-response","282","494922","0.0-53.0-0.2","SS1613139250960","","","null","","","","","<p><img src= images/blank.png width =""200"" height = ""200"" style = ""float:right""></p><p><img src=images/blank.png width =""800"" height = ""200""></p>","","","","","","","","","","","",""
"","298.1199999921955","sequential-stimulus-presentation","283","496035","0.0-53.0-1.2","SS1613139250960","trial","","40","800","1098.1199999921955","images/stimuli/spore_stims/complex_08_B_c.gif","images/stimuli/spore_stims/complex_10_A_d.gif","","","","","15","complex_dissimilar","images/stimuli/spore_stims/complex_08_B_c.gif","middle","","","","",""
"","null","html-keyboard-response","284","497142","0.0-53.0-0.3","SS1613139250960","","","null","","","","","<p><img src= images/blank.png width =""200"" height = ""200"" style = ""float:right""></p><p><img src=images/blank.png width =""800"" height = ""200""></p>","","","","","","","","","","","",""
"","259.9999999947613","sequential-stimulus-presentation","285","498221","0.0-53.0-1.3","SS1613139250960","trial","","40","800","1059.9999999947613","images/stimuli/spore_stims/complex_08_B_c.gif","images/stimuli/spore_stims/complex_10_A_d.gif","","","","","15","complex_dissimilar","images/stimuli/spore_stims/complex_10_A_d.gif","right","","","","",""
"","null","html-keyboard-response","286","499073","0.0-53.0-0.4","SS1613139250960","","","null","","","","","<p><img src= images/blank.png width =""200"" height = ""200"" style = ""float:right""></p><p><img src=images/blank.png width =""800"" height = ""200""></p>","","","","","","","","","","","",""
"","334.50499999162275","sequential-stimulus-presentation","287","500227","0.0-53.0-1.4","SS1613139250960","trial","","40","800","1134.5049999916228","images/stimuli/spore_stims/complex_08_B_c.gif","images/stimuli/spore_stims/complex_10_A_d.gif","","","","","15","complex_dissimilar","images/stimuli/spore_stims/complex_10_A_d.gif","right","","","","",""
"","null","html-keyboard-response","288","501345","0.0-53.0-0.5","SS1613139250960","","","null","","","","","<p><img src= images/blank.png width =""200"" height = ""200"" style = ""float:right""></p><p><img src=images/blank.png width =""800"" height = ""200""></p>","","","","","","","","","","","",""
"","238.36000000301283","sequential-stimulus-presentation","289","502395","0.0-53.0-1.5","SS1613139250960","trial","","40","800","1038.3600000030128","images/stimuli/spore_stims/complex_08_B_c.gif","images/stimuli/spore_stims/complex_10_A_d.gif","","","","","15","complex_dissimilar","images/stimuli/spore_stims/complex_10_A_d.gif","right","","","","",""
"","null","html-keyboard-response","290","503371","0.0-53.0-0.6","SS1613139250960","","","null","","","","","<p><img src= images/blank.png width =""200"" height = ""200"" style = ""float:right""></p><p><img src=images/blank.png width =""800"" height = ""200""></p>","","","","","","","","","","","",""
"","184.23499999335036","sequential-stimulus-presentation","291","504378","0.0-53.0-1.6","SS1613139250960","trial","","40","800","984.2349999933504","images/stimuli/spore_stims/complex_08_B_c.gif","images/stimuli/spore_stims/complex_10_A_d.gif","","","","","15","complex_dissimilar","images/stimuli/spore_stims/complex_10_A_d.gif","right","","","","",""
"","null","html-keyboard-response","292","505529","0.0-53.0-0.7","SS1613139250960","","","null","","","","","<p><img src= images/blank.png width =""200"" height = ""200"" style = ""float:right""></p><p><img src=images/blank.png width =""800"" height = ""200""></p>","","","","","","","","","","","",""
"","225.060000011581","sequential-stimulus-presentation","293","506591","0.0-53.0-1.7","SS1613139250960","trial","","40","800","1025.060000011581","images/stimuli/spore_stims/complex_08_B_c.gif","images/stimuli/spore_stims/complex_10_A_d.gif","","","","","15","complex_dissimilar","images/stimuli/spore_stims/complex_10_A_d.gif","right","","","","",""
"","660.2149999962421","html-keyboard-response","294","507268","0.0-54.0","SS1613139250960","pref_question","","49","","","","","<video width ='960' height = '540' style='padding-top:8%' autoplay muted><source src='images/stimuli/wall_pref.mp4' type='video/mp4'></video>","1","left","25%","15","","","","","","","",""
"","1591.9950000097742","sequential-stimulus-presentation","295","509685","0.0-55.0","SS1613139250960","pref_reveal","","40","800","2391.9950000097742","null","null","","","","","15","","","","novel","","","",""
"","null","html-keyboard-response","296","510616","0.0-56.0-0.0","SS1613139250960","","","null","","","","","<p><img src= images/blank.png width =""200"" height = ""200"" style = ""float:right""></p><p><img src=images/blank.png width =""800"" height = ""200""></p>","","","","","","","","","","","",""
"","58.22999999509193","sequential-stimulus-presentation","297","511503","0.0-56.0-1.0","SS1613139250960","trial","","40","800","858.2299999950919","images/stimuli/spore_stims/complex_15_B_b.gif","images/stimuli/spore_stims/complex_15_A_b.gif","","","","","16","complex_similar","images/stimuli/spore_stims/complex_15_A_b.gif","left","","","","",""
"","null","html-keyboard-response","298","512692","0.0-56.0-0.1","SS1613139250960","","","null","","","","","<p><img src= images/blank.png width =""200"" height = ""200"" style = ""float:right""></p><p><img src=images/blank.png width =""800"" height = ""200""></p>","","","","","","","","","","","",""
"","179.55499999516178","sequential-stimulus-presentation","299","513706","0.0-56.0-1.1","SS1613139250960","trial","","40","800","979.5549999951618","images/stimuli/spore_stims/complex_15_B_b.gif","images/stimuli/spore_stims/complex_15_A_b.gif","","","","","16","complex_similar","images/stimuli/spore_stims/complex_15_A_b.gif","left","","","","",""
"","null","html-keyboard-response","300","514567","0.0-56.0-0.2","SS1613139250960","","","null","","","","","<p><img src= images/blank.png width =""200"" height = ""200"" style = ""float:right""></p><p><img src=images/blank.png width =""800"" height = ""200""></p>","","","","","","","","","","","",""
"","120.31499999284279","sequential-stimulus-presentation","301","515501","0.0-56.0-1.2","SS1613139250960","trial","","40","800","920.3149999928428","images/stimuli/spore_stims/complex_15_B_b.gif","images/stimuli/spore_stims/complex_15_A_b.gif","","","","","16","complex_similar","images/stimuli/spore_stims/complex_15_A_b.gif","left","","","","",""
"","null","html-keyboard-response","302","516582","0.0-56.0-0.3","SS1613139250960","","","null","","","","","<p><img src= images/blank.png width =""200"" height = ""200"" style = ""float:right""></p><p><img src=images/blank.png width =""800"" height = ""200""></p>","","","","","","","","","","","",""
"","317.30499998957384","sequential-stimulus-presentation","303","517717","0.0-56.0-1.3","SS1613139250960","trial","","40","800","1117.3049999895738","images/stimuli/spore_stims/complex_15_B_b.gif","images/stimuli/spore_stims/complex_15_A_b.gif","","","","","16","complex_similar","images/stimuli/spore_stims/complex_15_A_b.gif","left","","","","",""
"","null","html-keyboard-response","304","518883","0.0-56.0-0.4","SS1613139250960","","","null","","","","","<p><img src= images/blank.png width =""200"" height = ""200"" style = ""float:right""></p><p><img src=images/blank.png width =""800"" height = ""200""></p>","","","","","","","","","","","",""
"","65.20500000624452","sequential-stimulus-presentation","305","519762","0.0-56.0-1.4","SS1613139250960","trial","","40","800","865.2050000062445","images/stimuli/spore_stims/complex_15_B_b.gif","images/stimuli/spore_stims/complex_15_A_b.gif","","","","","16","complex_similar","images/stimuli/spore_stims/complex_15_A_b.gif","left","","","","",""
"","null","html-keyboard-response","306","520758","0.0-56.0-0.5","SS1613139250960","","","null","","","","","<p><img src= images/blank.png width =""200"" height = ""200"" style = ""float:right""></p><p><img src=images/blank.png width =""800"" height = ""200""></p>","","","","","","","","","","","",""
"","269.6799999976065","sequential-stimulus-presentation","307","521862","0.0-56.0-1.5","SS1613139250960","trial","","40","800","1069.6799999976065","images/stimuli/spore_stims/complex_15_B_b.gif","images/stimuli/spore_stims/complex_15_A_b.gif","","","","","16","complex_similar","images/stimuli/spore_stims/complex_15_B_b.gif","right","","","","",""
"","null","html-keyboard-response","308","522910","0.0-56.0-0.6","SS1613139250960","","","null","","","","","<p><img src= images/blank.png width =""200"" height = ""200"" style = ""float:right""></p><p><img src=images/blank.png width =""800"" height = ""200""></p>","","","","","","","","","","","",""
"","235.87999999290332","sequential-stimulus-presentation","309","523976","0.0-56.0-1.6","SS1613139250960","trial","","40","800","1035.8799999929033","images/stimuli/spore_stims/complex_15_B_b.gif","images/stimuli/spore_stims/complex_15_A_b.gif","","","","","16","complex_similar","images/stimuli/spore_stims/complex_15_A_b.gif","left","","","","",""
"","null","html-keyboard-response","310","525202","0.0-56.0-0.7","SS1613139250960","","","null","","","","","<p><img src= images/blank.png width =""200"" height = ""200"" style = ""float:right""></p><p><img src=images/blank.png width =""800"" height = ""200""></p>","","","","","","","","","","","",""
"","1097.2700000129407","sequential-stimulus-presentation","311","527124","0.0-56.0-1.7","SS1613139250960","trial","","40","800","1897.2700000129407","images/stimuli/spore_stims/complex_15_B_b.gif","images/stimuli/spore_stims/complex_15_A_b.gif","","","","","16","complex_similar","images/stimuli/spore_stims/complex_15_A_b.gif","left","","","","",""
"","825.0750000006519","html-keyboard-response","312","527974","0.0-57.0","SS1613139250960","pref_question","","50","","","","","<video width ='960' height = '540' style='padding-top:8%' autoplay muted><source src='images/stimuli/wall_pref.mp4' type='video/mp4'></video>","2","middle","45%","16","","","","","","","",""
