"view_history","rt","trial_type","trial_index","time_elapsed","internal_node_id","subject","stimulus_type","trial_stimulus","key_press","minimum_viewing_duration","trial_looking_time","block_deviant","block_background","stimulus","wall_pref","location","location_percent","block_number","block_type","stimulus_displayed","position_displayed","stim_type_selected","responses","question_order","stimulus_left","stimulus_right"
"[{""page_index"":0,""viewing_time"":11655.439999999544}]","11656.099999999242","instructions","0","11658","0.0-0.0","SS1613098613856","","","","","","","","","","","","","","","","","","","",""
"[{""page_index"":0,""viewing_time"":198786.9099999998},{""page_index"":1,""viewing_time"":30664.655000000494}]","229451.83999999973","instructions","1","243858","0.0-1.0","SS1613098613856","instructions","","","","","","","","","","","","","","","","","","",""
"","11378.000000000582","sequential-stimulus-presentation","2","256043","0.0-2.0","SS1613098613856","","","40","800","12178.000000000582","null","null","","","","","","","","","","","","",""
"","2926.1599999999744","sequential-stimulus-presentation","3","259772","0.0-3.0","SS1613098613856","","","40","800","3726.1599999999744","null","null","","","","","","","","","","","","",""
"[{""page_index"":0,""viewing_time"":5148.65499999997}]","5148.869999999995","instructions","4","264922","0.0-4.0","SS1613098613856","instructions","","","","","","","","","","","","","","","","","","",""
"","10337.819999999716","html-keyboard-response","5","275263","0.0-5.0","SS1613098613856","instructions","","49","","","","","<video width ='960' height = '540' autoplay muted><source src='images/stimuli/wall_pref.mp4' type='video/mp4'></video>","1","left","25%","","","","","","","","",""
"","2264.745000000403","sequential-stimulus-presentation","6","278334","0.0-6.0","SS1613098613856","pref_reveal","","40","800","3064.745000000403","null","null","","","","","","","","","","","","",""
"[{""page_index"":0,""viewing_time"":6713.305000000226},{""page_index"":1,""viewing_time"":4483.510000000009},{""page_index"":2,""viewing_time"":1732.3850000002421},{""page_index"":3,""viewing_time"":1668.004999999539}]","14597.485000000219","instructions","7","292933","0.0-7.0","SS1613098613856","instructions","","","","","","","","","","","","","","","","","","",""
"","null","html-keyboard-response","8","294136","0.0-8.0-0.0","SS1613098613856","","","null","","","","","<p><img src= images/blank.png width =""200"" height = ""200"" style = ""float:right""></p><p><img src=images/blank.png width =""800"" height = ""200""></p>","","","","","","","","","","","",""
"","3854.1050000003306","sequential-stimulus-presentation","9","298796","0.0-8.0-1.0","SS1613098613856","trial","","40","800","4654.105000000331","images/stimuli/spore_stims/simple_14_B_a.gif","images/stimuli/spore_stims/simple_03_B_d.gif","","","","","0","simple_dissimilar","images/stimuli/spore_stims/simple_03_B_d.gif","left","","","","",""
"","null","html-keyboard-response","10","299895","0.0-8.0-0.1","SS1613098613856","","","null","","","","","<p><img src= images/blank.png width =""200"" height = ""200"" style = ""float:right""></p><p><img src=images/blank.png width =""800"" height = ""200""></p>","","","","","","","","","","","",""
"","3866.500000000058","sequential-stimulus-presentation","11","304565","0.0-8.0-1.1","SS1613098613856","trial","","40","800","4666.500000000058","images/stimuli/spore_stims/simple_14_B_a.gif","images/stimuli/spore_stims/simple_03_B_d.gif","","","","","0","simple_dissimilar","images/stimuli/spore_stims/simple_03_B_d.gif","left","","","","",""
"","null","html-keyboard-response","12","305431","0.0-8.0-0.2","SS1613098613856","","","null","","","","","<p><img src= images/blank.png width =""200"" height = ""200"" style = ""float:right""></p><p><img src=images/blank.png width =""800"" height = ""200""></p>","","","","","","","","","","","",""
"","4079.0499999994063","sequential-stimulus-presentation","13","310316","0.0-8.0-1.2","SS1613098613856","trial","","40","800","4879.049999999406","images/stimuli/spore_stims/simple_14_B_a.gif","images/stimuli/spore_stims/simple_03_B_d.gif","","","","","0","simple_dissimilar","images/stimuli/spore_stims/simple_14_B_a.gif","middle","","","","",""
"","null","html-keyboard-response","14","311512","0.0-8.0-0.3","SS1613098613856","","","null","","","","","<p><img src= images/blank.png width =""200"" height = ""200"" style = ""float:right""></p><p><img src=images/blank.png width =""800"" height = ""200""></p>","","","","","","","","","","","",""
"","1421.225000000035","sequential-stimulus-presentation","15","313740","0.0-8.0-1.3","SS1613098613856","trial","","40","800","2221.225000000035","images/stimuli/spore_stims/simple_14_B_a.gif","images/stimuli/spore_stims/simple_03_B_d.gif","","","","","0","simple_dissimilar","images/stimuli/spore_stims/simple_03_B_d.gif","left","","","","",""
"","null","html-keyboard-response","16","314592","0.0-8.0-0.4","SS1613098613856","","","null","","","","","<p><img src= images/blank.png width =""200"" height = ""200"" style = ""float:right""></p><p><img src=images/blank.png width =""800"" height = ""200""></p>","","","","","","","","","","","",""
"","1172.774999999965","sequential-stimulus-presentation","17","316572","0.0-8.0-1.4","SS1613098613856","trial","","40","800","1972.774999999965","images/stimuli/spore_stims/simple_14_B_a.gif","images/stimuli/spore_stims/simple_03_B_d.gif","","","","","0","simple_dissimilar","images/stimuli/spore_stims/simple_03_B_d.gif","left","","","","",""
"","null","html-keyboard-response","18","317484","0.0-8.0-0.5","SS1613098613856","","","null","","","","","<p><img src= images/blank.png width =""200"" height = ""200"" style = ""float:right""></p><p><img src=images/blank.png width =""800"" height = ""200""></p>","","","","","","","","","","","",""
"","2247.0599999996484","sequential-stimulus-presentation","19","320535","0.0-8.0-1.5","SS1613098613856","trial","","40","800","3047.0599999996484","images/stimuli/spore_stims/simple_14_B_a.gif","images/stimuli/spore_stims/simple_03_B_d.gif","","","","","0","simple_dissimilar","images/stimuli/spore_stims/simple_03_B_d.gif","left","","","","",""
"","null","html-keyboard-response","20","321485","0.0-8.0-0.6","SS1613098613856","","","null","","","","","<p><img src= images/blank.png width =""200"" height = ""200"" style = ""float:right""></p><p><img src=images/blank.png width =""800"" height = ""200""></p>","","","","","","","","","","","",""
"","2737.4300000001094","sequential-stimulus-presentation","21","325027","0.0-8.0-1.6","SS1613098613856","trial","","40","800","3537.4300000001094","images/stimuli/spore_stims/simple_14_B_a.gif","images/stimuli/spore_stims/simple_03_B_d.gif","","","","","0","simple_dissimilar","images/stimuli/spore_stims/simple_03_B_d.gif","left","","","","",""
"","null","html-keyboard-response","22","326285","0.0-8.0-0.7","SS1613098613856","","","null","","","","","<p><img src= images/blank.png width =""200"" height = ""200"" style = ""float:right""></p><p><img src=images/blank.png width =""800"" height = ""200""></p>","","","","","","","","","","","",""
"","1091.5249999998487","sequential-stimulus-presentation","23","328181","0.0-8.0-1.7","SS1613098613856","trial","","40","800","1891.5249999998487","images/stimuli/spore_stims/simple_14_B_a.gif","images/stimuli/spore_stims/simple_03_B_d.gif","","","","","0","simple_dissimilar","images/stimuli/spore_stims/simple_03_B_d.gif","left","","","","",""
"","1563.8900000003632","html-keyboard-response","24","329747","0.0-9.0","SS1613098613856","pref_question","","51","","","","","<video width ='960' height = '540' style='padding-top:8%' autoplay muted><source src='images/stimuli/wall_pref.mp4' type='video/mp4'></video>","3","right","66%","0","","","","","","","",""
"","3855.079999999376","sequential-stimulus-presentation","25","334406","0.0-10.0","SS1613098613856","pref_reveal","","40","800","4655.079999999376","null","null","","","","","0","","","","novel","","","",""
"","null","html-keyboard-response","26","335510","0.0-11.0-0.0","SS1613098613856","","","null","","","","","<p><img src= images/blank.png width =""200"" height = ""200"" style = ""float:right""></p><p><img src=images/blank.png width =""800"" height = ""200""></p>","","","","","","","","","","","",""
"","4117.63999999949","sequential-stimulus-presentation","27","340443","0.0-11.0-1.0","SS1613098613856","trial","","40","800","4917.63999999949","images/stimuli/spore_stims/complex_20_A_c.gif","images/stimuli/spore_stims/complex_11_B_a.gif","","","","","1","complex_dissimilar","images/stimuli/spore_stims/complex_11_B_a.gif","middle","","","","",""
"","null","html-keyboard-response","28","341560","0.0-11.0-0.1","SS1613098613856","","","null","","","","","<p><img src= images/blank.png width =""200"" height = ""200"" style = ""float:right""></p><p><img src=images/blank.png width =""800"" height = ""200""></p>","","","","","","","","","","","",""
"","4971.520000000019","sequential-stimulus-presentation","29","347338","0.0-11.0-1.1","SS1613098613856","trial","","40","800","5771.520000000019","images/stimuli/spore_stims/complex_20_A_c.gif","images/stimuli/spore_stims/complex_11_B_a.gif","","","","","1","complex_dissimilar","images/stimuli/spore_stims/complex_11_B_a.gif","middle","","","","",""
"","null","html-keyboard-response","30","348387","0.0-11.0-0.2","SS1613098613856","","","null","","","","","<p><img src= images/blank.png width =""200"" height = ""200"" style = ""float:right""></p><p><img src=images/blank.png width =""800"" height = ""200""></p>","","","","","","","","","","","",""
"","1480.9599999998463","sequential-stimulus-presentation","31","350674","0.0-11.0-1.2","SS1613098613856","trial","","40","800","2280.9599999998463","images/stimuli/spore_stims/complex_20_A_c.gif","images/stimuli/spore_stims/complex_11_B_a.gif","","","","","1","complex_dissimilar","images/stimuli/spore_stims/complex_11_B_a.gif","middle","","","","",""
"","null","html-keyboard-response","32","351875","0.0-11.0-0.3","SS1613098613856","","","null","","","","","<p><img src= images/blank.png width =""200"" height = ""200"" style = ""float:right""></p><p><img src=images/blank.png width =""800"" height = ""200""></p>","","","","","","","","","","","",""
"","1738.5050000002957","sequential-stimulus-presentation","33","354420","0.0-11.0-1.3","SS1613098613856","trial","","40","800","2538.5050000002957","images/stimuli/spore_stims/complex_20_A_c.gif","images/stimuli/spore_stims/complex_11_B_a.gif","","","","","1","complex_dissimilar","images/stimuli/spore_stims/complex_11_B_a.gif","middle","","","","",""
"","null","html-keyboard-response","34","355544","0.0-11.0-0.4","SS1613098613856","","","null","","","","","<p><img src= images/blank.png width =""200"" height = ""200"" style = ""float:right""></p><p><img src=images/blank.png width =""800"" height = ""200""></p>","","","","","","","","","","","",""
"","3988.6200000001118","sequential-stimulus-presentation","35","360339","0.0-11.0-1.4","SS1613098613856","trial","","40","800","4788.620000000112","images/stimuli/spore_stims/complex_20_A_c.gif","images/stimuli/spore_stims/complex_11_B_a.gif","","","","","1","complex_dissimilar","images/stimuli/spore_stims/complex_20_A_c.gif","right","","","","",""
"","null","html-keyboard-response","36","361419","0.0-11.0-0.5","SS1613098613856","","","null","","","","","<p><img src= images/blank.png width =""200"" height = ""200"" style = ""float:right""></p><p><img src=images/blank.png width =""800"" height = ""200""></p>","","","","","","","","","","","",""
"","3066.8299999997253","sequential-stimulus-presentation","37","365294","0.0-11.0-1.5","SS1613098613856","trial","","40","800","3866.8299999997253","images/stimuli/spore_stims/complex_20_A_c.gif","images/stimuli/spore_stims/complex_11_B_a.gif","","","","","1","complex_dissimilar","images/stimuli/spore_stims/complex_11_B_a.gif","middle","","","","",""
"","null","html-keyboard-response","38","366572","0.0-11.0-0.6","SS1613098613856","","","null","","","","","<p><img src= images/blank.png width =""200"" height = ""200"" style = ""float:right""></p><p><img src=images/blank.png width =""800"" height = ""200""></p>","","","","","","","","","","","",""
"","2347.415000000212","sequential-stimulus-presentation","39","369725","0.0-11.0-1.6","SS1613098613856","trial","","40","800","3147.415000000212","images/stimuli/spore_stims/complex_20_A_c.gif","images/stimuli/spore_stims/complex_11_B_a.gif","","","","","1","complex_dissimilar","images/stimuli/spore_stims/complex_11_B_a.gif","middle","","","","",""
"","null","html-keyboard-response","40","370674","0.0-11.0-0.7","SS1613098613856","","","null","","","","","<p><img src= images/blank.png width =""200"" height = ""200"" style = ""float:right""></p><p><img src=images/blank.png width =""800"" height = ""200""></p>","","","","","","","","","","","",""
"","1942.4050000006682","sequential-stimulus-presentation","41","373420","0.0-11.0-1.7","SS1613098613856","trial","","40","800","2742.405000000668","images/stimuli/spore_stims/complex_20_A_c.gif","images/stimuli/spore_stims/complex_11_B_a.gif","","","","","1","complex_dissimilar","images/stimuli/spore_stims/complex_11_B_a.gif","middle","","","","",""
"","1099.3049999997602","html-keyboard-response","42","374522","0.0-12.0","SS1613098613856","pref_question","","50","","","","","<video width ='960' height = '540' style='padding-top:8%' autoplay muted><source src='images/stimuli/wall_pref.mp4' type='video/mp4'></video>","2","middle","45%","1","","","","","","","",""
"","3415.4799999996903","sequential-stimulus-presentation","43","378743","0.0-13.0","SS1613098613856","pref_reveal","","40","800","4215.47999999969","null","null","","","","","1","","","","background","","","",""
"","null","html-keyboard-response","44","379954","0.0-14.0-0.0","SS1613098613856","","","null","","","","","<p><img src= images/blank.png width =""200"" height = ""200"" style = ""float:right""></p><p><img src=images/blank.png width =""800"" height = ""200""></p>","","","","","","","","","","","",""
"","3485.6599999993923","sequential-stimulus-presentation","45","384255","0.0-14.0-1.0","SS1613098613856","trial","","40","800","4285.659999999392","images/stimuli/spore_stims/simple_09_B_b.gif","images/stimuli/spore_stims/simple_09_A_b.gif","","","","","2","simple_similar","images/stimuli/spore_stims/simple_09_A_b.gif","left","","","","",""
"","null","html-keyboard-response","46","385478","0.0-14.0-0.1","SS1613098613856","","","null","","","","","<p><img src= images/blank.png width =""200"" height = ""200"" style = ""float:right""></p><p><img src=images/blank.png width =""800"" height = ""200""></p>","","","","","","","","","","","",""
"","1832.6049999996321","sequential-stimulus-presentation","47","388118","0.0-14.0-1.1","SS1613098613856","trial","","40","800","2632.604999999632","images/stimuli/spore_stims/simple_09_B_b.gif","images/stimuli/spore_stims/simple_09_A_b.gif","","","","","2","simple_similar","images/stimuli/spore_stims/simple_09_A_b.gif","left","","","","",""
"","null","html-keyboard-response","48","389385","0.0-14.0-0.2","SS1613098613856","","","null","","","","","<p><img src= images/blank.png width =""200"" height = ""200"" style = ""float:right""></p><p><img src=images/blank.png width =""800"" height = ""200""></p>","","","","","","","","","","","",""
"","3002.509999999369","sequential-stimulus-presentation","49","393191","0.0-14.0-1.2","SS1613098613856","trial","","40","800","3802.509999999369","images/stimuli/spore_stims/simple_09_B_b.gif","images/stimuli/spore_stims/simple_09_A_b.gif","","","","","2","simple_similar","images/stimuli/spore_stims/simple_09_A_b.gif","left","","","","",""
"","null","html-keyboard-response","50","394265","0.0-14.0-0.3","SS1613098613856","","","null","","","","","<p><img src= images/blank.png width =""200"" height = ""200"" style = ""float:right""></p><p><img src=images/blank.png width =""800"" height = ""200""></p>","","","","","","","","","","","",""
"","3146.800000000454","sequential-stimulus-presentation","51","398218","0.0-14.0-1.3","SS1613098613856","trial","","40","800","3946.800000000454","images/stimuli/spore_stims/simple_09_B_b.gif","images/stimuli/spore_stims/simple_09_A_b.gif","","","","","2","simple_similar","images/stimuli/spore_stims/simple_09_A_b.gif","left","","","","",""
"","null","html-keyboard-response","52","399356","0.0-14.0-0.4","SS1613098613856","","","null","","","","","<p><img src= images/blank.png width =""200"" height = ""200"" style = ""float:right""></p><p><img src=images/blank.png width =""800"" height = ""200""></p>","","","","","","","","","","","",""
"","2987.8550000003306","sequential-stimulus-presentation","53","403149","0.0-14.0-1.4","SS1613098613856","trial","","40","800","3787.8550000003306","images/stimuli/spore_stims/simple_09_B_b.gif","images/stimuli/spore_stims/simple_09_A_b.gif","","","","","2","simple_similar","images/stimuli/spore_stims/simple_09_A_b.gif","left","","","","",""
"","null","html-keyboard-response","54","404407","0.0-14.0-0.5","SS1613098613856","","","null","","","","","<p><img src= images/blank.png width =""200"" height = ""200"" style = ""float:right""></p><p><img src=images/blank.png width =""800"" height = ""200""></p>","","","","","","","","","","","",""
"","3997.87000000017","sequential-stimulus-presentation","55","409209","0.0-14.0-1.5","SS1613098613856","trial","","40","800","4797.87000000017","images/stimuli/spore_stims/simple_09_B_b.gif","images/stimuli/spore_stims/simple_09_A_b.gif","","","","","2","simple_similar","images/stimuli/spore_stims/simple_09_B_b.gif","middle","","","","",""
"","null","html-keyboard-response","56","410466","0.0-14.0-0.6","SS1613098613856","","","null","","","","","<p><img src= images/blank.png width =""200"" height = ""200"" style = ""float:right""></p><p><img src=images/blank.png width =""800"" height = ""200""></p>","","","","","","","","","","","",""
"","1925.4799999999232","sequential-stimulus-presentation","57","413197","0.0-14.0-1.6","SS1613098613856","trial","","40","800","2725.479999999923","images/stimuli/spore_stims/simple_09_B_b.gif","images/stimuli/spore_stims/simple_09_A_b.gif","","","","","2","simple_similar","images/stimuli/spore_stims/simple_09_A_b.gif","left","","","","",""
"","null","html-keyboard-response","58","414017","0.0-14.0-0.7","SS1613098613856","","","null","","","","","<p><img src= images/blank.png width =""200"" height = ""200"" style = ""float:right""></p><p><img src=images/blank.png width =""800"" height = ""200""></p>","","","","","","","","","","","",""
"","2011.1999999998952","sequential-stimulus-presentation","59","416835","0.0-14.0-1.7","SS1613098613856","trial","","40","800","2811.199999999895","images/stimuli/spore_stims/simple_09_B_b.gif","images/stimuli/spore_stims/simple_09_A_b.gif","","","","","2","simple_similar","images/stimuli/spore_stims/simple_09_A_b.gif","left","","","","",""
"","2017.570000000007","html-keyboard-response","60","418856","0.0-15.0","SS1613098613856","pref_question","","51","","","","","<video width ='960' height = '540' style='padding-top:8%' autoplay muted><source src='images/stimuli/wall_pref.mp4' type='video/mp4'></video>","3","right","66%","2","","","","","","","",""
"","4375.589999999676","sequential-stimulus-presentation","61","424041","0.0-16.0","SS1613098613856","pref_reveal","","40","800","5175.589999999676","null","null","","","","","2","","","","novel","","","",""
"","null","html-keyboard-response","62","425055","0.0-17.0-0.0","SS1613098613856","","","null","","","","","<p><img src= images/blank.png width =""200"" height = ""200"" style = ""float:right""></p><p><img src=images/blank.png width =""800"" height = ""200""></p>","","","","","","","","","","","",""
"","5455.030000000086","sequential-stimulus-presentation","63","431315","0.0-17.0-1.0","SS1613098613856","trial","","40","800","6255.030000000086","images/stimuli/spore_stims/complex_01_A_b.gif","images/stimuli/spore_stims/complex_18_A_b.gif","","","","","3","complex_dissimilar","images/stimuli/spore_stims/complex_18_A_b.gif","left","","","","",""
"","null","html-keyboard-response","64","432481","0.0-17.0-0.1","SS1613098613856","","","null","","","","","<p><img src= images/blank.png width =""200"" height = ""200"" style = ""float:right""></p><p><img src=images/blank.png width =""800"" height = ""200""></p>","","","","","","","","","","","",""
"","2917.1200000001118","sequential-stimulus-presentation","65","436203","0.0-17.0-1.1","SS1613098613856","trial","","40","800","3717.1200000001118","images/stimuli/spore_stims/complex_01_A_b.gif","images/stimuli/spore_stims/complex_18_A_b.gif","","","","","3","complex_dissimilar","images/stimuli/spore_stims/complex_18_A_b.gif","left","","","","",""
"","null","html-keyboard-response","66","437274","0.0-17.0-0.2","SS1613098613856","","","null","","","","","<p><img src= images/blank.png width =""200"" height = ""200"" style = ""float:right""></p><p><img src=images/blank.png width =""800"" height = ""200""></p>","","","","","","","","","","","",""
"","6430.849999999686","sequential-stimulus-presentation","67","444512","0.0-17.0-1.2","SS1613098613856","trial","","40","800","7230.849999999686","images/stimuli/spore_stims/complex_01_A_b.gif","images/stimuli/spore_stims/complex_18_A_b.gif","","","","","3","complex_dissimilar","images/stimuli/spore_stims/complex_01_A_b.gif","middle","","","","",""
"","null","html-keyboard-response","68","445683","0.0-17.0-0.3","SS1613098613856","","","null","","","","","<p><img src= images/blank.png width =""200"" height = ""200"" style = ""float:right""></p><p><img src=images/blank.png width =""800"" height = ""200""></p>","","","","","","","","","","","",""
"","2750.274999999441","sequential-stimulus-presentation","69","449236","0.0-17.0-1.3","SS1613098613856","trial","","40","800","3550.274999999441","images/stimuli/spore_stims/complex_01_A_b.gif","images/stimuli/spore_stims/complex_18_A_b.gif","","","","","3","complex_dissimilar","images/stimuli/spore_stims/complex_18_A_b.gif","left","","","","",""
"","null","html-keyboard-response","70","450232","0.0-17.0-0.4","SS1613098613856","","","null","","","","","<p><img src= images/blank.png width =""200"" height = ""200"" style = ""float:right""></p><p><img src=images/blank.png width =""800"" height = ""200""></p>","","","","","","","","","","","",""
"","1503.4599999999045","sequential-stimulus-presentation","71","452540","0.0-17.0-1.4","SS1613098613856","trial","","40","800","2303.4599999999045","images/stimuli/spore_stims/complex_01_A_b.gif","images/stimuli/spore_stims/complex_18_A_b.gif","","","","","3","complex_dissimilar","images/stimuli/spore_stims/complex_18_A_b.gif","left","","","","",""
"","null","html-keyboard-response","72","453387","0.0-17.0-0.5","SS1613098613856","","","null","","","","","<p><img src= images/blank.png width =""200"" height = ""200"" style = ""float:right""></p><p><img src=images/blank.png width =""800"" height = ""200""></p>","","","","","","","","","","","",""
"","1325.0600000001723","sequential-stimulus-presentation","73","455517","0.0-17.0-1.5","SS1613098613856","trial","","40","800","2125.0600000001723","images/stimuli/spore_stims/complex_01_A_b.gif","images/stimuli/spore_stims/complex_18_A_b.gif","","","","","3","complex_dissimilar","images/stimuli/spore_stims/complex_18_A_b.gif","left","","","","",""
"","null","html-keyboard-response","74","456508","0.0-17.0-0.6","SS1613098613856","","","null","","","","","<p><img src= images/blank.png width =""200"" height = ""200"" style = ""float:right""></p><p><img src=images/blank.png width =""800"" height = ""200""></p>","","","","","","","","","","","",""
"","1854.225000000035","sequential-stimulus-presentation","75","459167","0.0-17.0-1.6","SS1613098613856","trial","","40","800","2654.225000000035","images/stimuli/spore_stims/complex_01_A_b.gif","images/stimuli/spore_stims/complex_18_A_b.gif","","","","","3","complex_dissimilar","images/stimuli/spore_stims/complex_18_A_b.gif","left","","","","",""
"","null","html-keyboard-response","76","460104","0.0-17.0-0.7","SS1613098613856","","","null","","","","","<p><img src= images/blank.png width =""200"" height = ""200"" style = ""float:right""></p><p><img src=images/blank.png width =""800"" height = ""200""></p>","","","","","","","","","","","",""
"","2481.9500000003027","sequential-stimulus-presentation","77","463393","0.0-17.0-1.7","SS1613098613856","trial","","40","800","3281.9500000003027","images/stimuli/spore_stims/complex_01_A_b.gif","images/stimuli/spore_stims/complex_18_A_b.gif","","","","","3","complex_dissimilar","images/stimuli/spore_stims/complex_18_A_b.gif","left","","","","",""
"","1146.7150000007823","html-keyboard-response","78","464542","0.0-18.0","SS1613098613856","pref_question","","51","","","","","<video width ='960' height = '540' style='padding-top:8%' autoplay muted><source src='images/stimuli/wall_pref.mp4' type='video/mp4'></video>","3","right","66%","3","","","","","","","",""
"","3380.350000000384","sequential-stimulus-presentation","79","468726","0.0-19.0","SS1613098613856","pref_reveal","","40","800","4180.350000000384","null","null","","","","","3","","","","novel","","","",""
"","null","html-keyboard-response","80","469937","0.0-20.0-0.0","SS1613098613856","","","null","","","","","<p><img src= images/blank.png width =""200"" height = ""200"" style = ""float:right""></p><p><img src=images/blank.png width =""800"" height = ""200""></p>","","","","","","","","","","","",""
"","4363.82499999943","sequential-stimulus-presentation","81","475106","0.0-20.0-1.0","SS1613098613856","trial","","40","800","5163.82499999943","images/stimuli/spore_stims/complex_02_B_a.gif","images/stimuli/spore_stims/complex_02_A_a.gif","","","","","4","complex_similar","images/stimuli/spore_stims/complex_02_A_a.gif","middle","","","","",""
"","null","html-keyboard-response","82","476360","0.0-20.0-0.1","SS1613098613856","","","null","","","","","<p><img src= images/blank.png width =""200"" height = ""200"" style = ""float:right""></p><p><img src=images/blank.png width =""800"" height = ""200""></p>","","","","","","","","","","","",""
"","3792.5849999992643","sequential-stimulus-presentation","83","480968","0.0-20.0-1.1","SS1613098613856","trial","","40","800","4592.584999999264","images/stimuli/spore_stims/complex_02_B_a.gif","images/stimuli/spore_stims/complex_02_A_a.gif","","","","","4","complex_similar","images/stimuli/spore_stims/complex_02_A_a.gif","middle","","","","",""
"","null","html-keyboard-response","84","482161","0.0-20.0-0.2","SS1613098613856","","","null","","","","","<p><img src= images/blank.png width =""200"" height = ""200"" style = ""float:right""></p><p><img src=images/blank.png width =""800"" height = ""200""></p>","","","","","","","","","","","",""
"","4272.010000000591","sequential-stimulus-presentation","85","487239","0.0-20.0-1.2","SS1613098613856","trial","","40","800","5072.010000000591","images/stimuli/spore_stims/complex_02_B_a.gif","images/stimuli/spore_stims/complex_02_A_a.gif","","","","","4","complex_similar","images/stimuli/spore_stims/complex_02_B_a.gif","left","","","","",""
"","null","html-keyboard-response","86","488517","0.0-20.0-0.3","SS1613098613856","","","null","","","","","<p><img src= images/blank.png width =""200"" height = ""200"" style = ""float:right""></p><p><img src=images/blank.png width =""800"" height = ""200""></p>","","","","","","","","","","","",""
"","3262.8850000001257","sequential-stimulus-presentation","87","492589","0.0-20.0-1.3","SS1613098613856","trial","","40","800","4062.8850000001257","images/stimuli/spore_stims/complex_02_B_a.gif","images/stimuli/spore_stims/complex_02_A_a.gif","","","","","4","complex_similar","images/stimuli/spore_stims/complex_02_A_a.gif","middle","","","","",""
"","null","html-keyboard-response","88","493634","0.0-20.0-0.4","SS1613098613856","","","null","","","","","<p><img src= images/blank.png width =""200"" height = ""200"" style = ""float:right""></p><p><img src=images/blank.png width =""800"" height = ""200""></p>","","","","","","","","","","","",""
"","2871.390000000247","sequential-stimulus-presentation","89","497310","0.0-20.0-1.4","SS1613098613856","trial","","40","800","3671.390000000247","images/stimuli/spore_stims/complex_02_B_a.gif","images/stimuli/spore_stims/complex_02_A_a.gif","","","","","4","complex_similar","images/stimuli/spore_stims/complex_02_A_a.gif","middle","","","","",""
"","null","html-keyboard-response","90","498534","0.0-20.0-0.5","SS1613098613856","","","null","","","","","<p><img src= images/blank.png width =""200"" height = ""200"" style = ""float:right""></p><p><img src=images/blank.png width =""800"" height = ""200""></p>","","","","","","","","","","","",""
"","2683.479999999632","sequential-stimulus-presentation","91","502024","0.0-20.0-1.5","SS1613098613856","trial","","40","800","3483.479999999632","images/stimuli/spore_stims/complex_02_B_a.gif","images/stimuli/spore_stims/complex_02_A_a.gif","","","","","4","complex_similar","images/stimuli/spore_stims/complex_02_A_a.gif","middle","","","","",""
"","null","html-keyboard-response","92","503293","0.0-20.0-0.6","SS1613098613856","","","null","","","","","<p><img src= images/blank.png width =""200"" height = ""200"" style = ""float:right""></p><p><img src=images/blank.png width =""800"" height = ""200""></p>","","","","","","","","","","","",""
"","3928.004999999772","sequential-stimulus-presentation","93","508028","0.0-20.0-1.6","SS1613098613856","trial","","40","800","4728.004999999772","images/stimuli/spore_stims/complex_02_B_a.gif","images/stimuli/spore_stims/complex_02_A_a.gif","","","","","4","complex_similar","images/stimuli/spore_stims/complex_02_A_a.gif","middle","","","","",""
"","null","html-keyboard-response","94","509142","0.0-20.0-0.7","SS1613098613856","","","null","","","","","<p><img src= images/blank.png width =""200"" height = ""200"" style = ""float:right""></p><p><img src=images/blank.png width =""800"" height = ""200""></p>","","","","","","","","","","","",""
"","3109.0700000004144","sequential-stimulus-presentation","95","513058","0.0-20.0-1.7","SS1613098613856","trial","","40","800","3909.0700000004144","images/stimuli/spore_stims/complex_02_B_a.gif","images/stimuli/spore_stims/complex_02_A_a.gif","","","","","4","complex_similar","images/stimuli/spore_stims/complex_02_A_a.gif","middle","","","","",""
"","2961.615000000107","html-keyboard-response","96","516030","0.0-21.0","SS1613098613856","pref_question","","51","","","","","<video width ='960' height = '540' style='padding-top:8%' autoplay muted><source src='images/stimuli/wall_pref.mp4' type='video/mp4'></video>","3","right","66%","4","","","","","","","",""
"","4139.790000000154","sequential-stimulus-presentation","97","520973","0.0-22.0","SS1613098613856","pref_reveal","","40","800","4939.790000000154","null","null","","","","","4","","","","novel","","","",""
"","null","html-keyboard-response","98","521996","0.0-23.0-0.0","SS1613098613856","","","null","","","","","<p><img src= images/blank.png width =""200"" height = ""200"" style = ""float:right""></p><p><img src=images/blank.png width =""800"" height = ""200""></p>","","","","","","","","","","","",""
"","3514.369999999879","sequential-stimulus-presentation","99","526316","0.0-23.0-1.0","SS1613098613856","trial","","40","800","4314.369999999879","images/stimuli/spore_stims/complex_07_A_d.gif","images/stimuli/spore_stims/complex_13_B_a.gif","","","","","5","complex_dissimilar","images/stimuli/spore_stims/complex_13_B_a.gif","right","","","","",""
"","null","html-keyboard-response","100","527321","0.0-23.0-0.1","SS1613098613856","","","null","","","","","<p><img src= images/blank.png width =""200"" height = ""200"" style = ""float:right""></p><p><img src=images/blank.png width =""800"" height = ""200""></p>","","","","","","","","","","","",""
"","1864.6350000008242","sequential-stimulus-presentation","101","529992","0.0-23.0-1.1","SS1613098613856","trial","","40","800","2664.635000000824","images/stimuli/spore_stims/complex_07_A_d.gif","images/stimuli/spore_stims/complex_13_B_a.gif","","","","","5","complex_dissimilar","images/stimuli/spore_stims/complex_13_B_a.gif","right","","","","",""
"","null","html-keyboard-response","102","530924","0.0-23.0-0.2","SS1613098613856","","","null","","","","","<p><img src= images/blank.png width =""200"" height = ""200"" style = ""float:right""></p><p><img src=images/blank.png width =""800"" height = ""200""></p>","","","","","","","","","","","",""
"","1233.8149999995949","sequential-stimulus-presentation","103","532963","0.0-23.0-1.2","SS1613098613856","trial","","40","800","2033.8149999995949","images/stimuli/spore_stims/complex_07_A_d.gif","images/stimuli/spore_stims/complex_13_B_a.gif","","","","","5","complex_dissimilar","images/stimuli/spore_stims/complex_13_B_a.gif","right","","","","",""
"","null","html-keyboard-response","104","534186","0.0-23.0-0.3","SS1613098613856","","","null","","","","","<p><img src= images/blank.png width =""200"" height = ""200"" style = ""float:right""></p><p><img src=images/blank.png width =""800"" height = ""200""></p>","","","","","","","","","","","",""
"","4090.4499999997206","sequential-stimulus-presentation","105","539081","0.0-23.0-1.3","SS1613098613856","trial","","40","800","4890.449999999721","images/stimuli/spore_stims/complex_07_A_d.gif","images/stimuli/spore_stims/complex_13_B_a.gif","","","","","5","complex_dissimilar","images/stimuli/spore_stims/complex_07_A_d.gif","left","","","","",""
"","null","html-keyboard-response","106","539993","0.0-23.0-0.4","SS1613098613856","","","null","","","","","<p><img src= images/blank.png width =""200"" height = ""200"" style = ""float:right""></p><p><img src=images/blank.png width =""800"" height = ""200""></p>","","","","","","","","","","","",""
"","1354.2850000003818","sequential-stimulus-presentation","107","542154","0.0-23.0-1.4","SS1613098613856","trial","","40","800","2154.285000000382","images/stimuli/spore_stims/complex_07_A_d.gif","images/stimuli/spore_stims/complex_13_B_a.gif","","","","","5","complex_dissimilar","images/stimuli/spore_stims/complex_13_B_a.gif","right","","","","",""
"","null","html-keyboard-response","108","543405","0.0-23.0-0.5","SS1613098613856","","","null","","","","","<p><img src= images/blank.png width =""200"" height = ""200"" style = ""float:right""></p><p><img src=images/blank.png width =""800"" height = ""200""></p>","","","","","","","","","","","",""
"","1676.800000000163","sequential-stimulus-presentation","109","545887","0.0-23.0-1.5","SS1613098613856","trial","","40","800","2476.800000000163","images/stimuli/spore_stims/complex_07_A_d.gif","images/stimuli/spore_stims/complex_13_B_a.gif","","","","","5","complex_dissimilar","images/stimuli/spore_stims/complex_13_B_a.gif","right","","","","",""
"","null","html-keyboard-response","110","547177","0.0-23.0-0.6","SS1613098613856","","","null","","","","","<p><img src= images/blank.png width =""200"" height = ""200"" style = ""float:right""></p><p><img src=images/blank.png width =""800"" height = ""200""></p>","","","","","","","","","","","",""
"","2725.689999999362","sequential-stimulus-presentation","111","550708","0.0-23.0-1.6","SS1613098613856","trial","","40","800","3525.689999999362","images/stimuli/spore_stims/complex_07_A_d.gif","images/stimuli/spore_stims/complex_13_B_a.gif","","","","","5","complex_dissimilar","images/stimuli/spore_stims/complex_13_B_a.gif","right","","","","",""
"","null","html-keyboard-response","112","551762","0.0-23.0-0.7","SS1613098613856","","","null","","","","","<p><img src= images/blank.png width =""200"" height = ""200"" style = ""float:right""></p><p><img src=images/blank.png width =""800"" height = ""200""></p>","","","","","","","","","","","",""
"","802.160000000149","sequential-stimulus-presentation","113","553371","0.0-23.0-1.7","SS1613098613856","trial","","40","800","1602.160000000149","images/stimuli/spore_stims/complex_07_A_d.gif","images/stimuli/spore_stims/complex_13_B_a.gif","","","","","5","complex_dissimilar","images/stimuli/spore_stims/complex_13_B_a.gif","right","","","","",""
"","759.3400000005495","html-keyboard-response","114","554135","0.0-24.0","SS1613098613856","pref_question","","50","","","","","<video width ='960' height = '540' style='padding-top:8%' autoplay muted><source src='images/stimuli/wall_pref.mp4' type='video/mp4'></video>","2","middle","45%","5","","","","","","","",""
"","2962.5999999998603","sequential-stimulus-presentation","115","557903","0.0-25.0","SS1613098613856","pref_reveal","","40","800","3762.5999999998603","null","null","","","","","5","","","","novel","","","",""
"","null","html-keyboard-response","116","559137","0.0-26.0-0.0","SS1613098613856","","","null","","","","","<p><img src= images/blank.png width =""200"" height = ""200"" style = ""float:right""></p><p><img src=images/blank.png width =""800"" height = ""200""></p>","","","","","","","","","","","",""
"","3304.210000000312","sequential-stimulus-presentation","117","563256","0.0-26.0-1.0","SS1613098613856","trial","","40","800","4104.210000000312","images/stimuli/spore_stims/simple_15_B_d.gif","images/stimuli/spore_stims/simple_15_A_d.gif","","","","","6","simple_similar","images/stimuli/spore_stims/simple_15_A_d.gif","left","","","","",""
"","null","html-keyboard-response","118","564250","0.0-26.0-0.1","SS1613098613856","","","null","","","","","<p><img src= images/blank.png width =""200"" height = ""200"" style = ""float:right""></p><p><img src=images/blank.png width =""800"" height = ""200""></p>","","","","","","","","","","","",""
"","1627.819999999716","sequential-stimulus-presentation","119","566688","0.0-26.0-1.1","SS1613098613856","trial","","40","800","2427.819999999716","images/stimuli/spore_stims/simple_15_B_d.gif","images/stimuli/spore_stims/simple_15_A_d.gif","","","","","6","simple_similar","images/stimuli/spore_stims/simple_15_A_d.gif","left","","","","",""
"","null","html-keyboard-response","120","567823","0.0-26.0-0.2","SS1613098613856","","","null","","","","","<p><img src= images/blank.png width =""200"" height = ""200"" style = ""float:right""></p><p><img src=images/blank.png width =""800"" height = ""200""></p>","","","","","","","","","","","",""
"","2386.3000000000466","sequential-stimulus-presentation","121","571020","0.0-26.0-1.2","SS1613098613856","trial","","40","800","3186.3000000000466","images/stimuli/spore_stims/simple_15_B_d.gif","images/stimuli/spore_stims/simple_15_A_d.gif","","","","","6","simple_similar","images/stimuli/spore_stims/simple_15_B_d.gif","middle","","","","",""
"","null","html-keyboard-response","122","571975","0.0-26.0-0.3","SS1613098613856","","","null","","","","","<p><img src= images/blank.png width =""200"" height = ""200"" style = ""float:right""></p><p><img src=images/blank.png width =""800"" height = ""200""></p>","","","","","","","","","","","",""
"","1875.8450000005541","sequential-stimulus-presentation","123","574657","0.0-26.0-1.3","SS1613098613856","trial","","40","800","2675.845000000554","images/stimuli/spore_stims/simple_15_B_d.gif","images/stimuli/spore_stims/simple_15_A_d.gif","","","","","6","simple_similar","images/stimuli/spore_stims/simple_15_A_d.gif","left","","","","",""
"","null","html-keyboard-response","124","575763","0.0-26.0-0.4","SS1613098613856","","","null","","","","","<p><img src= images/blank.png width =""200"" height = ""200"" style = ""float:right""></p><p><img src=images/blank.png width =""800"" height = ""200""></p>","","","","","","","","","","","",""
"","1291.2249999999767","sequential-stimulus-presentation","125","577861","0.0-26.0-1.4","SS1613098613856","trial","","40","800","2091.2249999999767","images/stimuli/spore_stims/simple_15_B_d.gif","images/stimuli/spore_stims/simple_15_A_d.gif","","","","","6","simple_similar","images/stimuli/spore_stims/simple_15_A_d.gif","left","","","","",""
"","null","html-keyboard-response","126","578888","0.0-26.0-0.5","SS1613098613856","","","null","","","","","<p><img src= images/blank.png width =""200"" height = ""200"" style = ""float:right""></p><p><img src=images/blank.png width =""800"" height = ""200""></p>","","","","","","","","","","","",""
"","818.0100000000093","sequential-stimulus-presentation","127","580511","0.0-26.0-1.5","SS1613098613856","trial","","40","800","1618.0100000000093","images/stimuli/spore_stims/simple_15_B_d.gif","images/stimuli/spore_stims/simple_15_A_d.gif","","","","","6","simple_similar","images/stimuli/spore_stims/simple_15_A_d.gif","left","","","","",""
"","null","html-keyboard-response","128","581734","0.0-26.0-0.6","SS1613098613856","","","null","","","","","<p><img src= images/blank.png width =""200"" height = ""200"" style = ""float:right""></p><p><img src=images/blank.png width =""800"" height = ""200""></p>","","","","","","","","","","","",""
"","619.3450000000885","sequential-stimulus-presentation","129","583159","0.0-26.0-1.6","SS1613098613856","trial","","40","800","1419.3450000000885","images/stimuli/spore_stims/simple_15_B_d.gif","images/stimuli/spore_stims/simple_15_A_d.gif","","","","","6","simple_similar","images/stimuli/spore_stims/simple_15_A_d.gif","left","","","","",""
"","null","html-keyboard-response","130","584412","0.0-26.0-0.7","SS1613098613856","","","null","","","","","<p><img src= images/blank.png width =""200"" height = ""200"" style = ""float:right""></p><p><img src=images/blank.png width =""800"" height = ""200""></p>","","","","","","","","","","","",""
"","1055.5850000000792","sequential-stimulus-presentation","131","586272","0.0-26.0-1.7","SS1613098613856","trial","","40","800","1855.5850000000792","images/stimuli/spore_stims/simple_15_B_d.gif","images/stimuli/spore_stims/simple_15_A_d.gif","","","","","6","simple_similar","images/stimuli/spore_stims/simple_15_A_d.gif","left","","","","",""
"","1879.5749999999534","html-keyboard-response","132","588157","0.0-27.0","SS1613098613856","pref_question","","50","","","","","<video width ='960' height = '540' style='padding-top:8%' autoplay muted><source src='images/stimuli/wall_pref.mp4' type='video/mp4'></video>","2","middle","45%","6","","","","","","","",""
"","2806.319999999716","sequential-stimulus-presentation","133","591768","0.0-28.0","SS1613098613856","pref_reveal","","40","800","3606.319999999716","null","null","","","","","6","","","","deviant","","","",""
"","null","html-keyboard-response","134","592578","0.0-29.0-0.0","SS1613098613856","","","null","","","","","<p><img src= images/blank.png width =""200"" height = ""200"" style = ""float:right""></p><p><img src=images/blank.png width =""800"" height = ""200""></p>","","","","","","","","","","","",""
"","3963.1300000000047","sequential-stimulus-presentation","135","597349","0.0-29.0-1.0","SS1613098613856","trial","","40","800","4763.130000000005","images/stimuli/spore_stims/complex_01_B_c.gif","images/stimuli/spore_stims/complex_09_A_a.gif","","","","","7","complex_dissimilar","images/stimuli/spore_stims/complex_09_A_a.gif","middle","","","","",""
"","null","html-keyboard-response","136","598478","0.0-29.0-0.1","SS1613098613856","","","null","","","","","<p><img src= images/blank.png width =""200"" height = ""200"" style = ""float:right""></p><p><img src=images/blank.png width =""800"" height = ""200""></p>","","","","","","","","","","","",""
"","1164.8349999996135","sequential-stimulus-presentation","137","600449","0.0-29.0-1.1","SS1613098613856","trial","","40","800","1964.8349999996135","images/stimuli/spore_stims/complex_01_B_c.gif","images/stimuli/spore_stims/complex_09_A_a.gif","","","","","7","complex_dissimilar","images/stimuli/spore_stims/complex_09_A_a.gif","middle","","","","",""
"","null","html-keyboard-response","138","601619","0.0-29.0-0.2","SS1613098613856","","","null","","","","","<p><img src= images/blank.png width =""200"" height = ""200"" style = ""float:right""></p><p><img src=images/blank.png width =""800"" height = ""200""></p>","","","","","","","","","","","",""
"","917.4149999999208","sequential-stimulus-presentation","139","603346","0.0-29.0-1.2","SS1613098613856","trial","","40","800","1717.4149999999208","images/stimuli/spore_stims/complex_01_B_c.gif","images/stimuli/spore_stims/complex_09_A_a.gif","","","","","7","complex_dissimilar","images/stimuli/spore_stims/complex_09_A_a.gif","middle","","","","",""
"","null","html-keyboard-response","140","604326","0.0-29.0-0.3","SS1613098613856","","","null","","","","","<p><img src= images/blank.png width =""200"" height = ""200"" style = ""float:right""></p><p><img src=images/blank.png width =""800"" height = ""200""></p>","","","","","","","","","","","",""
"","470.2349999997532","sequential-stimulus-presentation","141","605610","0.0-29.0-1.3","SS1613098613856","trial","","40","800","1270.2349999997532","images/stimuli/spore_stims/complex_01_B_c.gif","images/stimuli/spore_stims/complex_09_A_a.gif","","","","","7","complex_dissimilar","images/stimuli/spore_stims/complex_09_A_a.gif","middle","","","","",""
"","null","html-keyboard-response","142","606467","0.0-29.0-0.4","SS1613098613856","","","null","","","","","<p><img src= images/blank.png width =""200"" height = ""200"" style = ""float:right""></p><p><img src=images/blank.png width =""800"" height = ""200""></p>","","","","","","","","","","","",""
"","2627.8149999998277","sequential-stimulus-presentation","143","609902","0.0-29.0-1.4","SS1613098613856","trial","","40","800","3427.8149999998277","images/stimuli/spore_stims/complex_01_B_c.gif","images/stimuli/spore_stims/complex_09_A_a.gif","","","","","7","complex_dissimilar","images/stimuli/spore_stims/complex_01_B_c.gif","left","","","","",""
"","null","html-keyboard-response","144","610824","0.0-29.0-0.5","SS1613098613856","","","null","","","","","<p><img src= images/blank.png width =""200"" height = ""200"" style = ""float:right""></p><p><img src=images/blank.png width =""800"" height = ""200""></p>","","","","","","","","","","","",""
"","620.4200000001583","sequential-stimulus-presentation","145","612254","0.0-29.0-1.5","SS1613098613856","trial","","40","800","1420.4200000001583","images/stimuli/spore_stims/complex_01_B_c.gif","images/stimuli/spore_stims/complex_09_A_a.gif","","","","","7","complex_dissimilar","images/stimuli/spore_stims/complex_09_A_a.gif","middle","","","","",""
"","null","html-keyboard-response","146","613170","0.0-29.0-0.6","SS1613098613856","","","null","","","","","<p><img src= images/blank.png width =""200"" height = ""200"" style = ""float:right""></p><p><img src=images/blank.png width =""800"" height = ""200""></p>","","","","","","","","","","","",""
"","419.4550000001909","sequential-stimulus-presentation","147","614396","0.0-29.0-1.6","SS1613098613856","trial","","40","800","1219.455000000191","images/stimuli/spore_stims/complex_01_B_c.gif","images/stimuli/spore_stims/complex_09_A_a.gif","","","","","7","complex_dissimilar","images/stimuli/spore_stims/complex_09_A_a.gif","middle","","","","",""
"","null","html-keyboard-response","148","615440","0.0-29.0-0.7","SS1613098613856","","","null","","","","","<p><img src= images/blank.png width =""200"" height = ""200"" style = ""float:right""></p><p><img src=images/blank.png width =""800"" height = ""200""></p>","","","","","","","","","","","",""
"","482.2100000001956","sequential-stimulus-presentation","149","616733","0.0-29.0-1.7","SS1613098613856","trial","","40","800","1282.2100000001956","images/stimuli/spore_stims/complex_01_B_c.gif","images/stimuli/spore_stims/complex_09_A_a.gif","","","","","7","complex_dissimilar","images/stimuli/spore_stims/complex_09_A_a.gif","middle","","","","",""
"","828.9549999999581","html-keyboard-response","150","617565","0.0-30.0","SS1613098613856","pref_question","","51","","","","","<video width ='960' height = '540' style='padding-top:8%' autoplay muted><source src='images/stimuli/wall_pref.mp4' type='video/mp4'></video>","3","right","66%","7","","","","","","","",""
"","4290.715000000084","sequential-stimulus-presentation","151","622666","0.0-31.0","SS1613098613856","pref_reveal","","40","800","5090.715000000084","null","null","","","","","7","","","","novel","","","",""
"","null","html-keyboard-response","152","623963","0.0-32.0-0.0","SS1613098613856","","","null","","","","","<p><img src= images/blank.png width =""200"" height = ""200"" style = ""float:right""></p><p><img src=images/blank.png width =""800"" height = ""200""></p>","","","","","","","","","","","",""
"","3041.3199999993667","sequential-stimulus-presentation","153","627811","0.0-32.0-1.0","SS1613098613856","trial","","40","800","3841.3199999993667","images/stimuli/spore_stims/simple_12_A_b.gif","images/stimuli/spore_stims/simple_18_B_c.gif","","","","","8","simple_dissimilar","images/stimuli/spore_stims/simple_18_B_c.gif","left","","","","",""
"","null","html-keyboard-response","154","628747","0.0-32.0-0.1","SS1613098613856","","","null","","","","","<p><img src= images/blank.png width =""200"" height = ""200"" style = ""float:right""></p><p><img src=images/blank.png width =""800"" height = ""200""></p>","","","","","","","","","","","",""
"","399.26000000024214","sequential-stimulus-presentation","155","629955","0.0-32.0-1.1","SS1613098613856","trial","","40","800","1199.2600000002421","images/stimuli/spore_stims/simple_12_A_b.gif","images/stimuli/spore_stims/simple_18_B_c.gif","","","","","8","simple_dissimilar","images/stimuli/spore_stims/simple_18_B_c.gif","left","","","","",""
"","null","html-keyboard-response","156","631078","0.0-32.0-0.2","SS1613098613856","","","null","","","","","<p><img src= images/blank.png width =""200"" height = ""200"" style = ""float:right""></p><p><img src=images/blank.png width =""800"" height = ""200""></p>","","","","","","","","","","","",""
"","514.5899999997346","sequential-stimulus-presentation","157","632398","0.0-32.0-1.2","SS1613098613856","trial","","40","800","1314.5899999997346","images/stimuli/spore_stims/simple_12_A_b.gif","images/stimuli/spore_stims/simple_18_B_c.gif","","","","","8","simple_dissimilar","images/stimuli/spore_stims/simple_18_B_c.gif","left","","","","",""
"","null","html-keyboard-response","158","633527","0.0-32.0-0.3","SS1613098613856","","","null","","","","","<p><img src= images/blank.png width =""200"" height = ""200"" style = ""float:right""></p><p><img src=images/blank.png width =""800"" height = ""200""></p>","","","","","","","","","","","",""
"","4808.820000000182","sequential-stimulus-presentation","159","639144","0.0-32.0-1.3","SS1613098613856","trial","","40","800","5608.820000000182","images/stimuli/spore_stims/simple_12_A_b.gif","images/stimuli/spore_stims/simple_18_B_c.gif","","","","","8","simple_dissimilar","images/stimuli/spore_stims/simple_12_A_b.gif","middle","","","","",""
"","null","html-keyboard-response","160","640403","0.0-32.0-0.4","SS1613098613856","","","null","","","","","<p><img src= images/blank.png width =""200"" height = ""200"" style = ""float:right""></p><p><img src=images/blank.png width =""800"" height = ""200""></p>","","","","","","","","","","","",""
"","2465.1599999996834","sequential-stimulus-presentation","161","643675","0.0-32.0-1.4","SS1613098613856","trial","","40","800","3265.1599999996834","images/stimuli/spore_stims/simple_12_A_b.gif","images/stimuli/spore_stims/simple_18_B_c.gif","","","","","8","simple_dissimilar","images/stimuli/spore_stims/simple_18_B_c.gif","left","","","","",""
"","null","html-keyboard-response","162","644603","0.0-32.0-0.5","SS1613098613856","","","null","","","","","<p><img src= images/blank.png width =""200"" height = ""200"" style = ""float:right""></p><p><img src=images/blank.png width =""800"" height = ""200""></p>","","","","","","","","","","","",""
"","2084.0250000001397","sequential-stimulus-presentation","163","647498","0.0-32.0-1.5","SS1613098613856","trial","","40","800","2884.0250000001397","images/stimuli/spore_stims/simple_12_A_b.gif","images/stimuli/spore_stims/simple_18_B_c.gif","","","","","8","simple_dissimilar","images/stimuli/spore_stims/simple_18_B_c.gif","left","","","","",""
"","null","html-keyboard-response","164","648655","0.0-32.0-0.6","SS1613098613856","","","null","","","","","<p><img src= images/blank.png width =""200"" height = ""200"" style = ""float:right""></p><p><img src=images/blank.png width =""800"" height = ""200""></p>","","","","","","","","","","","",""
"","1326.2450000002282","sequential-stimulus-presentation","165","650787","0.0-32.0-1.6","SS1613098613856","trial","","40","800","2126.245000000228","images/stimuli/spore_stims/simple_12_A_b.gif","images/stimuli/spore_stims/simple_18_B_c.gif","","","","","8","simple_dissimilar","images/stimuli/spore_stims/simple_18_B_c.gif","left","","","","",""
"","null","html-keyboard-response","166","651669","0.0-32.0-0.7","SS1613098613856","","","null","","","","","<p><img src= images/blank.png width =""200"" height = ""200"" style = ""float:right""></p><p><img src=images/blank.png width =""800"" height = ""200""></p>","","","","","","","","","","","",""
"","2062.1700000001583","sequential-stimulus-presentation","167","654538","0.0-32.0-1.7","SS1613098613856","trial","","40","800","2862.1700000001583","images/stimuli/spore_stims/simple_12_A_b.gif","images/stimuli/spore_stims/simple_18_B_c.gif","","","","","8","simple_dissimilar","images/stimuli/spore_stims/simple_18_B_c.gif","left","","","","",""
"","717.7350000001024","html-keyboard-response","168","655259","0.0-33.0","SS1613098613856","pref_question","","51","","","","","<video width ='960' height = '540' style='padding-top:8%' autoplay muted><source src='images/stimuli/wall_pref.mp4' type='video/mp4'></video>","3","right","66%","8","","","","","","","",""
"","4412.3950000002515","sequential-stimulus-presentation","169","660478","0.0-34.0","SS1613098613856","pref_reveal","","40","800","5212.3950000002515","null","null","","","","","8","","","","novel","","","",""
"","null","html-keyboard-response","170","661591","0.0-35.0-0.0","SS1613098613856","","","null","","","","","<p><img src= images/blank.png width =""200"" height = ""200"" style = ""float:right""></p><p><img src=images/blank.png width =""800"" height = ""200""></p>","","","","","","","","","","","",""
"","3333.340000000084","sequential-stimulus-presentation","171","665731","0.0-35.0-1.0","SS1613098613856","trial","","40","800","4133.340000000084","images/stimuli/spore_stims/complex_14_B_c.gif","images/stimuli/spore_stims/complex_14_A_c.gif","","","","","9","complex_similar","images/stimuli/spore_stims/complex_14_A_c.gif","right","","","","",""
"","null","html-keyboard-response","172","666901","0.0-35.0-0.1","SS1613098613856","","","null","","","","","<p><img src= images/blank.png width =""200"" height = ""200"" style = ""float:right""></p><p><img src=images/blank.png width =""800"" height = ""200""></p>","","","","","","","","","","","",""
"","1263.484999999404","sequential-stimulus-presentation","173","668970","0.0-35.0-1.1","SS1613098613856","trial","","40","800","2063.484999999404","images/stimuli/spore_stims/complex_14_B_c.gif","images/stimuli/spore_stims/complex_14_A_c.gif","","","","","9","complex_similar","images/stimuli/spore_stims/complex_14_A_c.gif","right","","","","",""
"","null","html-keyboard-response","174","669998","0.0-35.0-0.2","SS1613098613856","","","null","","","","","<p><img src= images/blank.png width =""200"" height = ""200"" style = ""float:right""></p><p><img src=images/blank.png width =""800"" height = ""200""></p>","","","","","","","","","","","",""
"","718.8100000002887","sequential-stimulus-presentation","175","671523","0.0-35.0-1.2","SS1613098613856","trial","","40","800","1518.8100000002887","images/stimuli/spore_stims/complex_14_B_c.gif","images/stimuli/spore_stims/complex_14_A_c.gif","","","","","9","complex_similar","images/stimuli/spore_stims/complex_14_A_c.gif","right","","","","",""
"","null","html-keyboard-response","176","672645","0.0-35.0-0.3","SS1613098613856","","","null","","","","","<p><img src= images/blank.png width =""200"" height = ""200"" style = ""float:right""></p><p><img src=images/blank.png width =""800"" height = ""200""></p>","","","","","","","","","","","",""
"","1113.765000000014","sequential-stimulus-presentation","177","674563","0.0-35.0-1.3","SS1613098613856","trial","","40","800","1913.765000000014","images/stimuli/spore_stims/complex_14_B_c.gif","images/stimuli/spore_stims/complex_14_A_c.gif","","","","","9","complex_similar","images/stimuli/spore_stims/complex_14_A_c.gif","right","","","","",""
"","null","html-keyboard-response","178","675487","0.0-35.0-0.4","SS1613098613856","","","null","","","","","<p><img src= images/blank.png width =""200"" height = ""200"" style = ""float:right""></p><p><img src=images/blank.png width =""800"" height = ""200""></p>","","","","","","","","","","","",""
"","4242.484999999753","sequential-stimulus-presentation","179","680536","0.0-35.0-1.4","SS1613098613856","trial","","40","800","5042.484999999753","images/stimuli/spore_stims/complex_14_B_c.gif","images/stimuli/spore_stims/complex_14_A_c.gif","","","","","9","complex_similar","images/stimuli/spore_stims/complex_14_B_c.gif","left","","","","",""
"","null","html-keyboard-response","180","681350","0.0-35.0-0.5","SS1613098613856","","","null","","","","","<p><img src= images/blank.png width =""200"" height = ""200"" style = ""float:right""></p><p><img src=images/blank.png width =""800"" height = ""200""></p>","","","","","","","","","","","",""
"","3429.4950000003446","sequential-stimulus-presentation","181","685591","0.0-35.0-1.5","SS1613098613856","trial","","40","800","4229.495000000345","images/stimuli/spore_stims/complex_14_B_c.gif","images/stimuli/spore_stims/complex_14_A_c.gif","","","","","9","complex_similar","images/stimuli/spore_stims/complex_14_A_c.gif","right","","","","",""
"","null","html-keyboard-response","182","686614","0.0-35.0-0.6","SS1613098613856","","","null","","","","","<p><img src= images/blank.png width =""200"" height = ""200"" style = ""float:right""></p><p><img src=images/blank.png width =""800"" height = ""200""></p>","","","","","","","","","","","",""
"","541.5800000000745","sequential-stimulus-presentation","183","687960","0.0-35.0-1.6","SS1613098613856","trial","","40","800","1341.5800000000745","images/stimuli/spore_stims/complex_14_B_c.gif","images/stimuli/spore_stims/complex_14_A_c.gif","","","","","9","complex_similar","images/stimuli/spore_stims/complex_14_A_c.gif","right","","","","",""
"","null","html-keyboard-response","184","688987","0.0-35.0-0.7","SS1613098613856","","","null","","","","","<p><img src= images/blank.png width =""200"" height = ""200"" style = ""float:right""></p><p><img src=images/blank.png width =""800"" height = ""200""></p>","","","","","","","","","","","",""
"","445.0149999993155","sequential-stimulus-presentation","185","690239","0.0-35.0-1.7","SS1613098613856","trial","","40","800","1245.0149999993155","images/stimuli/spore_stims/complex_14_B_c.gif","images/stimuli/spore_stims/complex_14_A_c.gif","","","","","9","complex_similar","images/stimuli/spore_stims/complex_14_A_c.gif","right","","","","",""
"","679.6400000003632","html-keyboard-response","186","690923","0.0-36.0","SS1613098613856","pref_question","","50","","","","","<video width ='960' height = '540' style='padding-top:8%' autoplay muted><source src='images/stimuli/wall_pref.mp4' type='video/mp4'></video>","2","middle","45%","9","","","","","","","",""
"","3816.4800000003306","sequential-stimulus-presentation","187","695546","0.0-37.0","SS1613098613856","pref_reveal","","40","800","4616.480000000331","null","null","","","","","9","","","","novel","","","",""
"","null","html-keyboard-response","188","696783","0.0-38.0-0.0","SS1613098613856","","","null","","","","","<p><img src= images/blank.png width =""200"" height = ""200"" style = ""float:right""></p><p><img src=images/blank.png width =""800"" height = ""200""></p>","","","","","","","","","","","",""
"","1872.9450000000652","sequential-stimulus-presentation","189","699464","0.0-38.0-1.0","SS1613098613856","trial","","40","800","2672.945000000065","images/stimuli/spore_stims/complex_17_A_d.gif","images/stimuli/spore_stims/complex_17_B_d.gif","","","","","10","complex_similar","images/stimuli/spore_stims/complex_17_B_d.gif","middle","","","","",""
"","null","html-keyboard-response","190","700413","0.0-38.0-0.1","SS1613098613856","","","null","","","","","<p><img src= images/blank.png width =""200"" height = ""200"" style = ""float:right""></p><p><img src=images/blank.png width =""800"" height = ""200""></p>","","","","","","","","","","","",""
"","526.0349999997998","sequential-stimulus-presentation","191","701750","0.0-38.0-1.1","SS1613098613856","trial","","40","800","1326.0349999997998","images/stimuli/spore_stims/complex_17_A_d.gif","images/stimuli/spore_stims/complex_17_B_d.gif","","","","","10","complex_similar","images/stimuli/spore_stims/complex_17_B_d.gif","middle","","","","",""
"","null","html-keyboard-response","192","702600","0.0-38.0-0.2","SS1613098613856","","","null","","","","","<p><img src= images/blank.png width =""200"" height = ""200"" style = ""float:right""></p><p><img src=images/blank.png width =""800"" height = ""200""></p>","","","","","","","","","","","",""
"","494.69500000041444","sequential-stimulus-presentation","193","703901","0.0-38.0-1.2","SS1613098613856","trial","","40","800","1294.6950000004144","images/stimuli/spore_stims/complex_17_A_d.gif","images/stimuli/spore_stims/complex_17_B_d.gif","","","","","10","complex_similar","images/stimuli/spore_stims/complex_17_B_d.gif","middle","","","","",""
"","null","html-keyboard-response","194","704843","0.0-38.0-0.3","SS1613098613856","","","null","","","","","<p><img src= images/blank.png width =""200"" height = ""200"" style = ""float:right""></p><p><img src=images/blank.png width =""800"" height = ""200""></p>","","","","","","","","","","","",""
"","410.5350000000326","sequential-stimulus-presentation","195","706064","0.0-38.0-1.3","SS1613098613856","trial","","40","800","1210.5350000000326","images/stimuli/spore_stims/complex_17_A_d.gif","images/stimuli/spore_stims/complex_17_B_d.gif","","","","","10","complex_similar","images/stimuli/spore_stims/complex_17_B_d.gif","middle","","","","",""
"","null","html-keyboard-response","196","706999","0.0-38.0-0.4","SS1613098613856","","","null","","","","","<p><img src= images/blank.png width =""200"" height = ""200"" style = ""float:right""></p><p><img src=images/blank.png width =""800"" height = ""200""></p>","","","","","","","","","","","",""
"","407.40999999979977","sequential-stimulus-presentation","197","708215","0.0-38.0-1.4","SS1613098613856","trial","","40","800","1207.4099999997998","images/stimuli/spore_stims/complex_17_A_d.gif","images/stimuli/spore_stims/complex_17_B_d.gif","","","","","10","complex_similar","images/stimuli/spore_stims/complex_17_B_d.gif","middle","","","","",""
"","null","html-keyboard-response","198","709284","0.0-38.0-0.5","SS1613098613856","","","null","","","","","<p><img src= images/blank.png width =""200"" height = ""200"" style = ""float:right""></p><p><img src=images/blank.png width =""800"" height = ""200""></p>","","","","","","","","","","","",""
"","481.38500000012573","sequential-stimulus-presentation","199","710574","0.0-38.0-1.5","SS1613098613856","trial","","40","800","1281.3850000001257","images/stimuli/spore_stims/complex_17_A_d.gif","images/stimuli/spore_stims/complex_17_B_d.gif","","","","","10","complex_similar","images/stimuli/spore_stims/complex_17_B_d.gif","middle","","","","",""
"","null","html-keyboard-response","200","711516","0.0-38.0-0.6","SS1613098613856","","","null","","","","","<p><img src= images/blank.png width =""200"" height = ""200"" style = ""float:right""></p><p><img src=images/blank.png width =""800"" height = ""200""></p>","","","","","","","","","","","",""
"","4574.214999999618","sequential-stimulus-presentation","201","716899","0.0-38.0-1.6","SS1613098613856","trial","","40","800","5374.214999999618","images/stimuli/spore_stims/complex_17_A_d.gif","images/stimuli/spore_stims/complex_17_B_d.gif","","","","","10","complex_similar","images/stimuli/spore_stims/complex_17_A_d.gif","right","","","","",""
"","null","html-keyboard-response","202","717877","0.0-38.0-0.7","SS1613098613856","","","null","","","","","<p><img src= images/blank.png width =""200"" height = ""200"" style = ""float:right""></p><p><img src=images/blank.png width =""800"" height = ""200""></p>","","","","","","","","","","","",""
"","1267.7000000003027","sequential-stimulus-presentation","203","719952","0.0-38.0-1.7","SS1613098613856","trial","","40","800","2067.7000000003027","images/stimuli/spore_stims/complex_17_A_d.gif","images/stimuli/spore_stims/complex_17_B_d.gif","","","","","10","complex_similar","images/stimuli/spore_stims/complex_17_B_d.gif","middle","","","","",""
"","925.6599999999162","html-keyboard-response","204","720891","0.0-39.0","SS1613098613856","pref_question","","49","","","","","<video width ='960' height = '540' style='padding-top:8%' autoplay muted><source src='images/stimuli/wall_pref.mp4' type='video/mp4'></video>","1","left","25%","10","","","","","","","",""
"","3557.6350000001257","sequential-stimulus-presentation","205","725254","0.0-40.0","SS1613098613856","pref_reveal","","40","800","4357.635000000126","null","null","","","","","10","","","","novel","","","",""
"","null","html-keyboard-response","206","726106","0.0-41.0-0.0","SS1613098613856","","","null","","","","","<p><img src= images/blank.png width =""200"" height = ""200"" style = ""float:right""></p><p><img src=images/blank.png width =""800"" height = ""200""></p>","","","","","","","","","","","",""
"","3778.449999999837","sequential-stimulus-presentation","207","730690","0.0-41.0-1.0","SS1613098613856","trial","","40","800","4578.449999999837","images/stimuli/spore_stims/complex_13_A_d.gif","images/stimuli/spore_stims/complex_04_B_b.gif","","","","","11","complex_dissimilar","images/stimuli/spore_stims/complex_04_B_b.gif","right","","","","",""
"","null","html-keyboard-response","208","731841","0.0-41.0-0.1","SS1613098613856","","","null","","","","","<p><img src= images/blank.png width =""200"" height = ""200"" style = ""float:right""></p><p><img src=images/blank.png width =""800"" height = ""200""></p>","","","","","","","","","","","",""
"","791.1400000002468","sequential-stimulus-presentation","209","733439","0.0-41.0-1.1","SS1613098613856","trial","","40","800","1591.1400000002468","images/stimuli/spore_stims/complex_13_A_d.gif","images/stimuli/spore_stims/complex_04_B_b.gif","","","","","11","complex_dissimilar","images/stimuli/spore_stims/complex_04_B_b.gif","right","","","","",""
"","null","html-keyboard-response","210","734445","0.0-41.0-0.2","SS1613098613856","","","null","","","","","<p><img src= images/blank.png width =""200"" height = ""200"" style = ""float:right""></p><p><img src=images/blank.png width =""800"" height = ""200""></p>","","","","","","","","","","","",""
"","844.1800000000512","sequential-stimulus-presentation","211","736095","0.0-41.0-1.2","SS1613098613856","trial","","40","800","1644.1800000000512","images/stimuli/spore_stims/complex_13_A_d.gif","images/stimuli/spore_stims/complex_04_B_b.gif","","","","","11","complex_dissimilar","images/stimuli/spore_stims/complex_04_B_b.gif","right","","","","",""
"","null","html-keyboard-response","212","737261","0.0-41.0-0.3","SS1613098613856","","","null","","","","","<p><img src= images/blank.png width =""200"" height = ""200"" style = ""float:right""></p><p><img src=images/blank.png width =""800"" height = ""200""></p>","","","","","","","","","","","",""
"","874.6900000005262","sequential-stimulus-presentation","213","738943","0.0-41.0-1.3","SS1613098613856","trial","","40","800","1674.6900000005262","images/stimuli/spore_stims/complex_13_A_d.gif","images/stimuli/spore_stims/complex_04_B_b.gif","","","","","11","complex_dissimilar","images/stimuli/spore_stims/complex_04_B_b.gif","right","","","","",""
"","null","html-keyboard-response","214","740005","0.0-41.0-0.4","SS1613098613856","","","null","","","","","<p><img src= images/blank.png width =""200"" height = ""200"" style = ""float:right""></p><p><img src=images/blank.png width =""800"" height = ""200""></p>","","","","","","","","","","","",""
"","1102.369999999646","sequential-stimulus-presentation","215","741920","0.0-41.0-1.4","SS1613098613856","trial","","40","800","1902.369999999646","images/stimuli/spore_stims/complex_13_A_d.gif","images/stimuli/spore_stims/complex_04_B_b.gif","","","","","11","complex_dissimilar","images/stimuli/spore_stims/complex_04_B_b.gif","right","","","","",""
"","null","html-keyboard-response","216","742925","0.0-41.0-0.5","SS1613098613856","","","null","","","","","<p><img src= images/blank.png width =""200"" height = ""200"" style = ""float:right""></p><p><img src=images/blank.png width =""800"" height = ""200""></p>","","","","","","","","","","","",""
"","1402.444999999716","sequential-stimulus-presentation","217","745136","0.0-41.0-1.5","SS1613098613856","trial","","40","800","2202.444999999716","images/stimuli/spore_stims/complex_13_A_d.gif","images/stimuli/spore_stims/complex_04_B_b.gif","","","","","11","complex_dissimilar","images/stimuli/spore_stims/complex_04_B_b.gif","right","","","","",""
"","null","html-keyboard-response","218","746396","0.0-41.0-0.6","SS1613098613856","","","null","","","","","<p><img src= images/blank.png width =""200"" height = ""200"" style = ""float:right""></p><p><img src=images/blank.png width =""800"" height = ""200""></p>","","","","","","","","","","","",""
"","2709.0999999999767","sequential-stimulus-presentation","219","749918","0.0-41.0-1.6","SS1613098613856","trial","","40","800","3509.0999999999767","images/stimuli/spore_stims/complex_13_A_d.gif","images/stimuli/spore_stims/complex_04_B_b.gif","","","","","11","complex_dissimilar","images/stimuli/spore_stims/complex_13_A_d.gif","middle","","","","",""
"","null","html-keyboard-response","220","750746","0.0-41.0-0.7","SS1613098613856","","","null","","","","","<p><img src= images/blank.png width =""200"" height = ""200"" style = ""float:right""></p><p><img src=images/blank.png width =""800"" height = ""200""></p>","","","","","","","","","","","",""
"","1964.3550000000978","sequential-stimulus-presentation","221","753519","0.0-41.0-1.7","SS1613098613856","trial","","40","800","2764.355000000098","images/stimuli/spore_stims/complex_13_A_d.gif","images/stimuli/spore_stims/complex_04_B_b.gif","","","","","11","complex_dissimilar","images/stimuli/spore_stims/complex_04_B_b.gif","right","","","","",""
"","861.8200000000652","html-keyboard-response","222","754385","0.0-42.0","SS1613098613856","pref_question","","49","","","","","<video width ='960' height = '540' style='padding-top:8%' autoplay muted><source src='images/stimuli/wall_pref.mp4' type='video/mp4'></video>","1","left","25%","11","","","","","","","",""
"","4130.2000000005355","sequential-stimulus-presentation","223","759340","0.0-43.0","SS1613098613856","pref_reveal","","40","800","4930.2000000005355","null","null","","","","","11","","","","novel","","","",""
"","null","html-keyboard-response","224","760176","0.0-44.0-0.0","SS1613098613856","","","null","","","","","<p><img src= images/blank.png width =""200"" height = ""200"" style = ""float:right""></p><p><img src=images/blank.png width =""800"" height = ""200""></p>","","","","","","","","","","","",""
"","3692.289999999921","sequential-stimulus-presentation","225","764680","0.0-44.0-1.0","SS1613098613856","trial","","40","800","4492.289999999921","images/stimuli/spore_stims/simple_11_A_a.gif","images/stimuli/spore_stims/simple_11_B_a.gif","","","","","12","simple_similar","images/stimuli/spore_stims/simple_11_B_a.gif","middle","","","","",""
"","null","html-keyboard-response","226","765918","0.0-44.0-0.1","SS1613098613856","","","null","","","","","<p><img src= images/blank.png width =""200"" height = ""200"" style = ""float:right""></p><p><img src=images/blank.png width =""800"" height = ""200""></p>","","","","","","","","","","","",""
"","439.69000000017695","sequential-stimulus-presentation","227","767164","0.0-44.0-1.1","SS1613098613856","trial","","40","800","1239.690000000177","images/stimuli/spore_stims/simple_11_A_a.gif","images/stimuli/spore_stims/simple_11_B_a.gif","","","","","12","simple_similar","images/stimuli/spore_stims/simple_11_B_a.gif","middle","","","","",""
"","null","html-keyboard-response","228","768343","0.0-44.0-0.2","SS1613098613856","","","null","","","","","<p><img src= images/blank.png width =""200"" height = ""200"" style = ""float:right""></p><p><img src=images/blank.png width =""800"" height = ""200""></p>","","","","","","","","","","","",""
"","464.85000000032596","sequential-stimulus-presentation","229","769613","0.0-44.0-1.2","SS1613098613856","trial","","40","800","1264.850000000326","images/stimuli/spore_stims/simple_11_A_a.gif","images/stimuli/spore_stims/simple_11_B_a.gif","","","","","12","simple_similar","images/stimuli/spore_stims/simple_11_B_a.gif","middle","","","","",""
"","null","html-keyboard-response","230","770448","0.0-44.0-0.3","SS1613098613856","","","null","","","","","<p><img src= images/blank.png width =""200"" height = ""200"" style = ""float:right""></p><p><img src=images/blank.png width =""800"" height = ""200""></p>","","","","","","","","","","","",""
"","557.934999999823","sequential-stimulus-presentation","231","771812","0.0-44.0-1.3","SS1613098613856","trial","","40","800","1357.934999999823","images/stimuli/spore_stims/simple_11_A_a.gif","images/stimuli/spore_stims/simple_11_B_a.gif","","","","","12","simple_similar","images/stimuli/spore_stims/simple_11_B_a.gif","middle","","","","",""
"","null","html-keyboard-response","232","772687","0.0-44.0-0.4","SS1613098613856","","","null","","","","","<p><img src= images/blank.png width =""200"" height = ""200"" style = ""float:right""></p><p><img src=images/blank.png width =""800"" height = ""200""></p>","","","","","","","","","","","",""
"","317.21999999985565","sequential-stimulus-presentation","233","773821","0.0-44.0-1.4","SS1613098613856","trial","","40","800","1117.2199999998556","images/stimuli/spore_stims/simple_11_A_a.gif","images/stimuli/spore_stims/simple_11_B_a.gif","","","","","12","simple_similar","images/stimuli/spore_stims/simple_11_B_a.gif","middle","","","","",""
"","null","html-keyboard-response","234","775019","0.0-44.0-0.5","SS1613098613856","","","null","","","","","<p><img src= images/blank.png width =""200"" height = ""200"" style = ""float:right""></p><p><img src=images/blank.png width =""800"" height = ""200""></p>","","","","","","","","","","","",""
"","458.1250000001164","sequential-stimulus-presentation","235","776286","0.0-44.0-1.5","SS1613098613856","trial","","40","800","1258.1250000001164","images/stimuli/spore_stims/simple_11_A_a.gif","images/stimuli/spore_stims/simple_11_B_a.gif","","","","","12","simple_similar","images/stimuli/spore_stims/simple_11_B_a.gif","middle","","","","",""
"","null","html-keyboard-response","236","777586","0.0-44.0-0.6","SS1613098613856","","","null","","","","","<p><img src= images/blank.png width =""200"" height = ""200"" style = ""float:right""></p><p><img src=images/blank.png width =""800"" height = ""200""></p>","","","","","","","","","","","",""
"","967.4199999999255","sequential-stimulus-presentation","237","779361","0.0-44.0-1.6","SS1613098613856","trial","","40","800","1767.4199999999255","images/stimuli/spore_stims/simple_11_A_a.gif","images/stimuli/spore_stims/simple_11_B_a.gif","","","","","12","simple_similar","images/stimuli/spore_stims/simple_11_B_a.gif","middle","","","","",""
"","null","html-keyboard-response","238","780572","0.0-44.0-0.7","SS1613098613856","","","null","","","","","<p><img src= images/blank.png width =""200"" height = ""200"" style = ""float:right""></p><p><img src=images/blank.png width =""800"" height = ""200""></p>","","","","","","","","","","","",""
"","3290.0199999994365","sequential-stimulus-presentation","239","784669","0.0-44.0-1.7","SS1613098613856","trial","","40","800","4090.0199999994365","images/stimuli/spore_stims/simple_11_A_a.gif","images/stimuli/spore_stims/simple_11_B_a.gif","","","","","12","simple_similar","images/stimuli/spore_stims/simple_11_A_a.gif","right","","","","",""
"","656.4200000002747","html-keyboard-response","240","785341","0.0-45.0","SS1613098613856","pref_question","","49","","","","","<video width ='960' height = '540' style='padding-top:8%' autoplay muted><source src='images/stimuli/wall_pref.mp4' type='video/mp4'></video>","1","left","25%","12","","","","","","","",""
"","3717.2750000000233","sequential-stimulus-presentation","241","789866","0.0-46.0","SS1613098613856","pref_reveal","","40","800","4517.275000000023","null","null","","","","","12","","","","novel","","","",""
"","null","html-keyboard-response","242","790884","0.0-47.0-0.0","SS1613098613856","","","null","","","","","<p><img src= images/blank.png width =""200"" height = ""200"" style = ""float:right""></p><p><img src=images/blank.png width =""800"" height = ""200""></p>","","","","","","","","","","","",""
"","3306.6300000000047","sequential-stimulus-presentation","243","794999","0.0-47.0-1.0","SS1613098613856","trial","","40","800","4106.630000000005","images/stimuli/spore_stims/simple_01_B_c.gif","images/stimuli/spore_stims/simple_01_A_c.gif","","","","","13","simple_similar","images/stimuli/spore_stims/simple_01_A_c.gif","right","","","","",""
"","null","html-keyboard-response","244","795851","0.0-47.0-0.1","SS1613098613856","","","null","","","","","<p><img src= images/blank.png width =""200"" height = ""200"" style = ""float:right""></p><p><img src=images/blank.png width =""800"" height = ""200""></p>","","","","","","","","","","","",""
"","320.8450000000885","sequential-stimulus-presentation","245","796979","0.0-47.0-1.1","SS1613098613856","trial","","40","800","1120.8450000000885","images/stimuli/spore_stims/simple_01_B_c.gif","images/stimuli/spore_stims/simple_01_A_c.gif","","","","","13","simple_similar","images/stimuli/spore_stims/simple_01_A_c.gif","right","","","","",""
"","null","html-keyboard-response","246","798081","0.0-47.0-0.2","SS1613098613856","","","null","","","","","<p><img src= images/blank.png width =""200"" height = ""200"" style = ""float:right""></p><p><img src=images/blank.png width =""800"" height = ""200""></p>","","","","","","","","","","","",""
"","372.4350000002887","sequential-stimulus-presentation","247","799260","0.0-47.0-1.2","SS1613098613856","trial","","40","800","1172.4350000002887","images/stimuli/spore_stims/simple_01_B_c.gif","images/stimuli/spore_stims/simple_01_A_c.gif","","","","","13","simple_similar","images/stimuli/spore_stims/simple_01_A_c.gif","right","","","","",""
"","null","html-keyboard-response","248","800450","0.0-47.0-0.3","SS1613098613856","","","null","","","","","<p><img src= images/blank.png width =""200"" height = ""200"" style = ""float:right""></p><p><img src=images/blank.png width =""800"" height = ""200""></p>","","","","","","","","","","","",""
"","765.2500000003492","sequential-stimulus-presentation","249","802023","0.0-47.0-1.3","SS1613098613856","trial","","40","800","1565.2500000003492","images/stimuli/spore_stims/simple_01_B_c.gif","images/stimuli/spore_stims/simple_01_A_c.gif","","","","","13","simple_similar","images/stimuli/spore_stims/simple_01_A_c.gif","right","","","","",""
"","null","html-keyboard-response","250","803095","0.0-47.0-0.4","SS1613098613856","","","null","","","","","<p><img src= images/blank.png width =""200"" height = ""200"" style = ""float:right""></p><p><img src=images/blank.png width =""800"" height = ""200""></p>","","","","","","","","","","","",""
"","753.7799999999115","sequential-stimulus-presentation","251","804659","0.0-47.0-1.4","SS1613098613856","trial","","40","800","1553.7799999999115","images/stimuli/spore_stims/simple_01_B_c.gif","images/stimuli/spore_stims/simple_01_A_c.gif","","","","","13","simple_similar","images/stimuli/spore_stims/simple_01_A_c.gif","right","","","","",""
"","null","html-keyboard-response","252","805565","0.0-47.0-0.5","SS1613098613856","","","null","","","","","<p><img src= images/blank.png width =""200"" height = ""200"" style = ""float:right""></p><p><img src=images/blank.png width =""800"" height = ""200""></p>","","","","","","","","","","","",""
"","915.3449999995064","sequential-stimulus-presentation","253","807289","0.0-47.0-1.5","SS1613098613856","trial","","40","800","1715.3449999995064","images/stimuli/spore_stims/simple_01_B_c.gif","images/stimuli/spore_stims/simple_01_A_c.gif","","","","","13","simple_similar","images/stimuli/spore_stims/simple_01_A_c.gif","right","","","","",""
"","null","html-keyboard-response","254","808295","0.0-47.0-0.6","SS1613098613856","","","null","","","","","<p><img src= images/blank.png width =""200"" height = ""200"" style = ""float:right""></p><p><img src=images/blank.png width =""800"" height = ""200""></p>","","","","","","","","","","","",""
"","947.7900000001537","sequential-stimulus-presentation","255","810051","0.0-47.0-1.6","SS1613098613856","trial","","40","800","1747.7900000001537","images/stimuli/spore_stims/simple_01_B_c.gif","images/stimuli/spore_stims/simple_01_A_c.gif","","","","","13","simple_similar","images/stimuli/spore_stims/simple_01_A_c.gif","right","","","","",""
"","null","html-keyboard-response","256","810916","0.0-47.0-0.7","SS1613098613856","","","null","","","","","<p><img src= images/blank.png width =""200"" height = ""200"" style = ""float:right""></p><p><img src=images/blank.png width =""800"" height = ""200""></p>","","","","","","","","","","","",""
"","3547.3750000001164","sequential-stimulus-presentation","257","815271","0.0-47.0-1.7","SS1613098613856","trial","","40","800","4347.375000000116","images/stimuli/spore_stims/simple_01_B_c.gif","images/stimuli/spore_stims/simple_01_A_c.gif","","","","","13","simple_similar","images/stimuli/spore_stims/simple_01_B_c.gif","left","","","","",""
"","878.7449999999953","html-keyboard-response","258","816154","0.0-48.0","SS1613098613856","pref_question","","50","","","","","<video width ='960' height = '540' style='padding-top:8%' autoplay muted><source src='images/stimuli/wall_pref.mp4' type='video/mp4'></video>","2","middle","45%","13","","","","","","","",""
"","4674.774999999441","sequential-stimulus-presentation","259","821639","0.0-49.0","SS1613098613856","pref_reveal","","40","800","5474.774999999441","null","null","","","","","13","","","","novel","","","",""
"","null","html-keyboard-response","260","822473","0.0-50.0-0.0","SS1613098613856","","","null","","","","","<p><img src= images/blank.png width =""200"" height = ""200"" style = ""float:right""></p><p><img src=images/blank.png width =""800"" height = ""200""></p>","","","","","","","","","","","",""
"","1871.5650000002934","sequential-stimulus-presentation","261","825167","0.0-50.0-1.0","SS1613098613856","trial","","40","800","2671.5650000002934","images/stimuli/spore_stims/simple_16_A_b.gif","images/stimuli/spore_stims/simple_16_B_b.gif","","","","","14","simple_similar","images/stimuli/spore_stims/simple_16_B_b.gif","right","","","","",""
"","null","html-keyboard-response","262","826149","0.0-50.0-0.1","SS1613098613856","","","null","","","","","<p><img src= images/blank.png width =""200"" height = ""200"" style = ""float:right""></p><p><img src=images/blank.png width =""800"" height = ""200""></p>","","","","","","","","","","","",""
"","487.0450000007404","sequential-stimulus-presentation","263","827444","0.0-50.0-1.1","SS1613098613856","trial","","40","800","1287.0450000007404","images/stimuli/spore_stims/simple_16_A_b.gif","images/stimuli/spore_stims/simple_16_B_b.gif","","","","","14","simple_similar","images/stimuli/spore_stims/simple_16_B_b.gif","right","","","","",""
"","null","html-keyboard-response","264","828387","0.0-50.0-0.2","SS1613098613856","","","null","","","","","<p><img src= images/blank.png width =""200"" height = ""200"" style = ""float:right""></p><p><img src=images/blank.png width =""800"" height = ""200""></p>","","","","","","","","","","","",""
"","735.6949999993667","sequential-stimulus-presentation","265","829929","0.0-50.0-1.2","SS1613098613856","trial","","40","800","1535.6949999993667","images/stimuli/spore_stims/simple_16_A_b.gif","images/stimuli/spore_stims/simple_16_B_b.gif","","","","","14","simple_similar","images/stimuli/spore_stims/simple_16_B_b.gif","right","","","","",""
"","null","html-keyboard-response","266","830846","0.0-50.0-0.3","SS1613098613856","","","null","","","","","<p><img src= images/blank.png width =""200"" height = ""200"" style = ""float:right""></p><p><img src=images/blank.png width =""800"" height = ""200""></p>","","","","","","","","","","","",""
"","1723.519999999553","sequential-stimulus-presentation","267","833377","0.0-50.0-1.3","SS1613098613856","trial","","40","800","2523.519999999553","images/stimuli/spore_stims/simple_16_A_b.gif","images/stimuli/spore_stims/simple_16_B_b.gif","","","","","14","simple_similar","images/stimuli/spore_stims/simple_16_B_b.gif","right","","","","",""
"","null","html-keyboard-response","268","834246","0.0-50.0-0.4","SS1613098613856","","","null","","","","","<p><img src= images/blank.png width =""200"" height = ""200"" style = ""float:right""></p><p><img src=images/blank.png width =""800"" height = ""200""></p>","","","","","","","","","","","",""
"","2235.2799999999115","sequential-stimulus-presentation","269","837289","0.0-50.0-1.4","SS1613098613856","trial","","40","800","3035.2799999999115","images/stimuli/spore_stims/simple_16_A_b.gif","images/stimuli/spore_stims/simple_16_B_b.gif","","","","","14","simple_similar","images/stimuli/spore_stims/simple_16_A_b.gif","middle","","","","",""
"","null","html-keyboard-response","270","838306","0.0-50.0-0.5","SS1613098613856","","","null","","","","","<p><img src= images/blank.png width =""200"" height = ""200"" style = ""float:right""></p><p><img src=images/blank.png width =""800"" height = ""200""></p>","","","","","","","","","","","",""
"","639.0799999999581","sequential-stimulus-presentation","271","839754","0.0-50.0-1.5","SS1613098613856","trial","","40","800","1439.079999999958","images/stimuli/spore_stims/simple_16_A_b.gif","images/stimuli/spore_stims/simple_16_B_b.gif","","","","","14","simple_similar","images/stimuli/spore_stims/simple_16_B_b.gif","right","","","","",""
"","null","html-keyboard-response","272","840838","0.0-50.0-0.6","SS1613098613856","","","null","","","","","<p><img src= images/blank.png width =""200"" height = ""200"" style = ""float:right""></p><p><img src=images/blank.png width =""800"" height = ""200""></p>","","","","","","","","","","","",""
"","872.7499999995343","sequential-stimulus-presentation","273","842521","0.0-50.0-1.6","SS1613098613856","trial","","40","800","1672.7499999995343","images/stimuli/spore_stims/simple_16_A_b.gif","images/stimuli/spore_stims/simple_16_B_b.gif","","","","","14","simple_similar","images/stimuli/spore_stims/simple_16_B_b.gif","right","","","","",""
"","null","html-keyboard-response","274","843629","0.0-50.0-0.7","SS1613098613856","","","null","","","","","<p><img src= images/blank.png width =""200"" height = ""200"" style = ""float:right""></p><p><img src=images/blank.png width =""800"" height = ""200""></p>","","","","","","","","","","","",""
"","853.9099999997998","sequential-stimulus-presentation","275","845289","0.0-50.0-1.7","SS1613098613856","trial","","40","800","1653.9099999997998","images/stimuli/spore_stims/simple_16_A_b.gif","images/stimuli/spore_stims/simple_16_B_b.gif","","","","","14","simple_similar","images/stimuli/spore_stims/simple_16_B_b.gif","right","","","","",""
"","1035.1350000001257","html-keyboard-response","276","846329","0.0-51.0","SS1613098613856","pref_question","","49","","","","","<video width ='960' height = '540' style='padding-top:8%' autoplay muted><source src='images/stimuli/wall_pref.mp4' type='video/mp4'></video>","1","left","25%","14","","","","","","","",""
"","3655.800000000396","sequential-stimulus-presentation","277","850793","0.0-52.0","SS1613098613856","pref_reveal","","40","800","4455.800000000396","null","null","","","","","14","","","","novel","","","",""
"","null","html-keyboard-response","278","852006","0.0-53.0-0.0","SS1613098613856","","","null","","","","","<p><img src= images/blank.png width =""200"" height = ""200"" style = ""float:right""></p><p><img src=images/blank.png width =""800"" height = ""200""></p>","","","","","","","","","","","",""
"","1208.805000000284","sequential-stimulus-presentation","279","854022","0.0-53.0-1.0","SS1613098613856","trial","","40","800","2008.805000000284","images/stimuli/spore_stims/complex_15_B_a.gif","images/stimuli/spore_stims/complex_15_A_a.gif","","","","","15","complex_similar","images/stimuli/spore_stims/complex_15_A_a.gif","left","","","","",""
"","null","html-keyboard-response","280","855288","0.0-53.0-0.1","SS1613098613856","","","null","","","","","<p><img src= images/blank.png width =""200"" height = ""200"" style = ""float:right""></p><p><img src=images/blank.png width =""800"" height = ""200""></p>","","","","","","","","","","","",""
"","1174.5350000000326","sequential-stimulus-presentation","281","857271","0.0-53.0-1.1","SS1613098613856","trial","","40","800","1974.5350000000326","images/stimuli/spore_stims/complex_15_B_a.gif","images/stimuli/spore_stims/complex_15_A_a.gif","","","","","15","complex_similar","images/stimuli/spore_stims/complex_15_A_a.gif","left","","","","",""
"","null","html-keyboard-response","282","858548","0.0-53.0-0.2","SS1613098613856","","","null","","","","","<p><img src= images/blank.png width =""200"" height = ""200"" style = ""float:right""></p><p><img src=images/blank.png width =""800"" height = ""200""></p>","","","","","","","","","","","",""
"","385.8150000005262","sequential-stimulus-presentation","283","859742","0.0-53.0-1.2","SS1613098613856","trial","","40","800","1185.8150000005262","images/stimuli/spore_stims/complex_15_B_a.gif","images/stimuli/spore_stims/complex_15_A_a.gif","","","","","15","complex_similar","images/stimuli/spore_stims/complex_15_A_a.gif","left","","","","",""
"","null","html-keyboard-response","284","860782","0.0-53.0-0.3","SS1613098613856","","","null","","","","","<p><img src= images/blank.png width =""200"" height = ""200"" style = ""float:right""></p><p><img src=images/blank.png width =""800"" height = ""200""></p>","","","","","","","","","","","",""
"","432.9500000003027","sequential-stimulus-presentation","285","862032","0.0-53.0-1.3","SS1613098613856","trial","","40","800","1232.9500000003027","images/stimuli/spore_stims/complex_15_B_a.gif","images/stimuli/spore_stims/complex_15_A_a.gif","","","","","15","complex_similar","images/stimuli/spore_stims/complex_15_A_a.gif","left","","","","",""
"","null","html-keyboard-response","286","862877","0.0-53.0-0.4","SS1613098613856","","","null","","","","","<p><img src= images/blank.png width =""200"" height = ""200"" style = ""float:right""></p><p><img src=images/blank.png width =""800"" height = ""200""></p>","","","","","","","","","","","",""
"","387.2300000002142","sequential-stimulus-presentation","287","864071","0.0-53.0-1.4","SS1613098613856","trial","","40","800","1187.2300000002142","images/stimuli/spore_stims/complex_15_B_a.gif","images/stimuli/spore_stims/complex_15_A_a.gif","","","","","15","complex_similar","images/stimuli/spore_stims/complex_15_A_a.gif","left","","","","",""
"","null","html-keyboard-response","288","865111","0.0-53.0-0.5","SS1613098613856","","","null","","","","","<p><img src= images/blank.png width =""200"" height = ""200"" style = ""float:right""></p><p><img src=images/blank.png width =""800"" height = ""200""></p>","","","","","","","","","","","",""
"","3429.9349999991246","sequential-stimulus-presentation","289","869349","0.0-53.0-1.5","SS1613098613856","trial","","40","800","4229.934999999125","images/stimuli/spore_stims/complex_15_B_a.gif","images/stimuli/spore_stims/complex_15_A_a.gif","","","","","15","complex_similar","images/stimuli/spore_stims/complex_15_B_a.gif","right","","","","",""
"","null","html-keyboard-response","290","870564","0.0-53.0-0.6","SS1613098613856","","","null","","","","","<p><img src= images/blank.png width =""200"" height = ""200"" style = ""float:right""></p><p><img src=images/blank.png width =""800"" height = ""200""></p>","","","","","","","","","","","",""
"","1467.0200000000186","sequential-stimulus-presentation","291","872838","0.0-53.0-1.6","SS1613098613856","trial","","40","800","2267.0200000000186","images/stimuli/spore_stims/complex_15_B_a.gif","images/stimuli/spore_stims/complex_15_A_a.gif","","","","","15","complex_similar","images/stimuli/spore_stims/complex_15_A_a.gif","left","","","","",""
"","null","html-keyboard-response","292","874020","0.0-53.0-0.7","SS1613098613856","","","null","","","","","<p><img src= images/blank.png width =""200"" height = ""200"" style = ""float:right""></p><p><img src=images/blank.png width =""800"" height = ""200""></p>","","","","","","","","","","","",""
"","445.6799999998184","sequential-stimulus-presentation","293","875279","0.0-53.0-1.7","SS1613098613856","trial","","40","800","1245.6799999998184","images/stimuli/spore_stims/complex_15_B_a.gif","images/stimuli/spore_stims/complex_15_A_a.gif","","","","","15","complex_similar","images/stimuli/spore_stims/complex_15_A_a.gif","left","","","","",""
"","691.2300000003306","html-keyboard-response","294","875975","0.0-54.0","SS1613098613856","pref_question","","50","","","","","<video width ='960' height = '540' style='padding-top:8%' autoplay muted><source src='images/stimuli/wall_pref.mp4' type='video/mp4'></video>","2","middle","45%","15","","","","","","","",""
"","3535.5150000004796","sequential-stimulus-presentation","295","880318","0.0-55.0","SS1613098613856","pref_reveal","","40","800","4335.51500000048","null","null","","","","","15","","","","novel","","","",""
"","null","html-keyboard-response","296","881369","0.0-56.0-0.0","SS1613098613856","","","null","","","","","<p><img src= images/blank.png width =""200"" height = ""200"" style = ""float:right""></p><p><img src=images/blank.png width =""800"" height = ""200""></p>","","","","","","","","","","","",""
"","1589.9900000004563","sequential-stimulus-presentation","297","883767","0.0-56.0-1.0","SS1613098613856","trial","","40","800","2389.9900000004563","images/stimuli/spore_stims/simple_17_A_b.gif","images/stimuli/spore_stims/simple_20_A_b.gif","","","","","16","simple_dissimilar","images/stimuli/spore_stims/simple_20_A_b.gif","right","","","","",""
"","null","html-keyboard-response","298","884786","0.0-56.0-0.1","SS1613098613856","","","null","","","","","<p><img src= images/blank.png width =""200"" height = ""200"" style = ""float:right""></p><p><img src=images/blank.png width =""800"" height = ""200""></p>","","","","","","","","","","","",""
"","316.8100000002887","sequential-stimulus-presentation","299","885911","0.0-56.0-1.1","SS1613098613856","trial","","40","800","1116.8100000002887","images/stimuli/spore_stims/simple_17_A_b.gif","images/stimuli/spore_stims/simple_20_A_b.gif","","","","","16","simple_dissimilar","images/stimuli/spore_stims/simple_20_A_b.gif","right","","","","",""
"","null","html-keyboard-response","300","886764","0.0-56.0-0.2","SS1613098613856","","","null","","","","","<p><img src= images/blank.png width =""200"" height = ""200"" style = ""float:right""></p><p><img src=images/blank.png width =""800"" height = ""200""></p>","","","","","","","","","","","",""
"","562.8200000000652","sequential-stimulus-presentation","301","888136","0.0-56.0-1.2","SS1613098613856","trial","","40","800","1362.8200000000652","images/stimuli/spore_stims/simple_17_A_b.gif","images/stimuli/spore_stims/simple_20_A_b.gif","","","","","16","simple_dissimilar","images/stimuli/spore_stims/simple_20_A_b.gif","right","","","","",""
"","null","html-keyboard-response","302","889063","0.0-56.0-0.3","SS1613098613856","","","null","","","","","<p><img src= images/blank.png width =""200"" height = ""200"" style = ""float:right""></p><p><img src=images/blank.png width =""800"" height = ""200""></p>","","","","","","","","","","","",""
"","2065.2399999998743","sequential-stimulus-presentation","303","891936","0.0-56.0-1.3","SS1613098613856","trial","","40","800","2865.2399999998743","images/stimuli/spore_stims/simple_17_A_b.gif","images/stimuli/spore_stims/simple_20_A_b.gif","","","","","16","simple_dissimilar","images/stimuli/spore_stims/simple_17_A_b.gif","middle","","","","",""
"","null","html-keyboard-response","304","892912","0.0-56.0-0.4","SS1613098613856","","","null","","","","","<p><img src= images/blank.png width =""200"" height = ""200"" style = ""float:right""></p><p><img src=images/blank.png width =""800"" height = ""200""></p>","","","","","","","","","","","",""
"","688.3400000005495","sequential-stimulus-presentation","305","894408","0.0-56.0-1.4","SS1613098613856","trial","","40","800","1488.3400000005495","images/stimuli/spore_stims/simple_17_A_b.gif","images/stimuli/spore_stims/simple_20_A_b.gif","","","","","16","simple_dissimilar","images/stimuli/spore_stims/simple_20_A_b.gif","right","","","","",""
"","null","html-keyboard-response","306","895349","0.0-56.0-0.5","SS1613098613856","","","null","","","","","<p><img src= images/blank.png width =""200"" height = ""200"" style = ""float:right""></p><p><img src=images/blank.png width =""800"" height = ""200""></p>","","","","","","","","","","","",""
"","562.9900000004563","sequential-stimulus-presentation","307","896721","0.0-56.0-1.5","SS1613098613856","trial","","40","800","1362.9900000004563","images/stimuli/spore_stims/simple_17_A_b.gif","images/stimuli/spore_stims/simple_20_A_b.gif","","","","","16","simple_dissimilar","images/stimuli/spore_stims/simple_20_A_b.gif","right","","","","",""
"","null","html-keyboard-response","308","897693","0.0-56.0-0.6","SS1613098613856","","","null","","","","","<p><img src= images/blank.png width =""200"" height = ""200"" style = ""float:right""></p><p><img src=images/blank.png width =""800"" height = ""200""></p>","","","","","","","","","","","",""
"","388.6649999994552","sequential-stimulus-presentation","309","898889","0.0-56.0-1.6","SS1613098613856","trial","","40","800","1188.6649999994552","images/stimuli/spore_stims/simple_17_A_b.gif","images/stimuli/spore_stims/simple_20_A_b.gif","","","","","16","simple_dissimilar","images/stimuli/spore_stims/simple_20_A_b.gif","right","","","","",""
"","null","html-keyboard-response","310","899748","0.0-56.0-0.7","SS1613098613856","","","null","","","","","<p><img src= images/blank.png width =""200"" height = ""200"" style = ""float:right""></p><p><img src=images/blank.png width =""800"" height = ""200""></p>","","","","","","","","","","","",""
"","446.13500000012573","sequential-stimulus-presentation","311","901001","0.0-56.0-1.7","SS1613098613856","trial","","40","800","1246.1350000001257","images/stimuli/spore_stims/simple_17_A_b.gif","images/stimuli/spore_stims/simple_20_A_b.gif","","","","","16","simple_dissimilar","images/stimuli/spore_stims/simple_20_A_b.gif","right","","","","",""
"","653.4599999994971","html-keyboard-response","312","901662","0.0-57.0","SS1613098613856","pref_question","","49","","","","","<video width ='960' height = '540' style='padding-top:8%' autoplay muted><source src='images/stimuli/wall_pref.mp4' type='video/mp4'></video>","1","left","25%","16","","","","","","","",""
