"view_history","rt","trial_type","trial_index","time_elapsed","internal_node_id","subject","stimulus_type","trial_stimulus","key_press","minimum_viewing_duration","trial_looking_time","block_deviant","block_background","stimulus","wall_pref","location","location_percent","block_number","block_type","stimulus_displayed","position_displayed","stim_type_selected","responses","question_order","stimulus_left","stimulus_right"
"[{""page_index"":0,""viewing_time"":6828.104999993229}]","6828.580000001239","instructions","0","6830","0.0-0.0","SS1613082074341","","","","","","","","","","","","","","","","","","","",""
"[{""page_index"":0,""viewing_time"":11166.889999993145},{""page_index"":1,""viewing_time"":7740.755000006175}]","18907.829999981914","instructions","1","27746","0.0-1.0","SS1613082074341","instructions","","","","","","","","","","","","","","","","","","",""
"","12734.594999987166","sequential-stimulus-presentation","2","41289","0.0-2.0","SS1613082074341","","","40","800","13534.594999987166","null","null","","","","","","","","","","","","",""
"","5363.510000024689","sequential-stimulus-presentation","3","47457","0.0-3.0","SS1613082074341","","","40","800","6163.510000024689","null","null","","","","","","","","","","","","",""
"[{""page_index"":0,""viewing_time"":6645.465000008699}]","6645.630000013625","instructions","4","54103","0.0-4.0","SS1613082074341","instructions","","","","","","","","","","","","","","","","","","",""
"","15920.630000007804","html-keyboard-response","5","70025","0.0-5.0","SS1613082074341","instructions","","97","","","","","<video width ='960' height = '540' autoplay muted><source src='images/stimuli/wall_pref.mp4' type='video/mp4'></video>","1","left","25%","","","","","","","","",""
"","5564.379999996163","sequential-stimulus-presentation","6","76401","0.0-6.0","SS1613082074341","pref_reveal","","40","800","6364.379999996163","null","null","","","","","","","","","","","","",""
"[{""page_index"":0,""viewing_time"":19552.564999990864},{""page_index"":1,""viewing_time"":10842.37500000745},{""page_index"":2,""viewing_time"":2129.225000011502},{""page_index"":3,""viewing_time"":2056.9550000072923}]","34581.29500001087","instructions","7","110983","0.0-7.0","SS1613082074341","instructions","","","","","","","","","","","","","","","","","","",""
"","null","html-keyboard-response","8","111916","0.0-8.0-0.0","SS1613082074341","","","null","","","","","<p><img src= images/blank.png width =""200"" height = ""200"" style = ""float:right""></p><p><img src=images/blank.png width =""800"" height = ""200""></p>","","","","","","","","","","","",""
"","9170.470000011846","sequential-stimulus-presentation","9","121897","0.0-8.0-1.0","SS1613082074341","trial","","40","800","9970.470000011846","images/stimuli/spore_stims/simple_20_A_c.gif","images/stimuli/spore_stims/simple_12_A_d.gif","","","","","0","simple_dissimilar","images/stimuli/spore_stims/simple_12_A_d.gif","middle","","","","",""
"","null","html-keyboard-response","10","122763","0.0-8.0-0.1","SS1613082074341","","","null","","","","","<p><img src= images/blank.png width =""200"" height = ""200"" style = ""float:right""></p><p><img src=images/blank.png width =""800"" height = ""200""></p>","","","","","","","","","","","",""
"","7825.729999982286","sequential-stimulus-presentation","11","131400","0.0-8.0-1.1","SS1613082074341","trial","","40","800","8625.729999982286","images/stimuli/spore_stims/simple_20_A_c.gif","images/stimuli/spore_stims/simple_12_A_d.gif","","","","","0","simple_dissimilar","images/stimuli/spore_stims/simple_12_A_d.gif","middle","","","","",""
"","null","html-keyboard-response","12","132560","0.0-8.0-0.2","SS1613082074341","","","null","","","","","<p><img src= images/blank.png width =""200"" height = ""200"" style = ""float:right""></p><p><img src=images/blank.png width =""800"" height = ""200""></p>","","","","","","","","","","","",""
"","5953.059999999823","sequential-stimulus-presentation","13","139328","0.0-8.0-1.2","SS1613082074341","trial","","40","800","6753.059999999823","images/stimuli/spore_stims/simple_20_A_c.gif","images/stimuli/spore_stims/simple_12_A_d.gif","","","","","0","simple_dissimilar","images/stimuli/spore_stims/simple_12_A_d.gif","middle","","","","",""
"","null","html-keyboard-response","14","140566","0.0-8.0-0.3","SS1613082074341","","","null","","","","","<p><img src= images/blank.png width =""200"" height = ""200"" style = ""float:right""></p><p><img src=images/blank.png width =""800"" height = ""200""></p>","","","","","","","","","","","",""
"","5412.010000000009","sequential-stimulus-presentation","15","146792","0.0-8.0-1.3","SS1613082074341","trial","","40","800","6212.010000000009","images/stimuli/spore_stims/simple_20_A_c.gif","images/stimuli/spore_stims/simple_12_A_d.gif","","","","","0","simple_dissimilar","images/stimuli/spore_stims/simple_12_A_d.gif","middle","","","","",""
"","null","html-keyboard-response","16","148047","0.0-8.0-0.4","SS1613082074341","","","null","","","","","<p><img src= images/blank.png width =""200"" height = ""200"" style = ""float:right""></p><p><img src=images/blank.png width =""800"" height = ""200""></p>","","","","","","","","","","","",""
"","19493.4699999867","sequential-stimulus-presentation","17","168353","0.0-8.0-1.4","SS1613082074341","trial","","40","800","20293.4699999867","images/stimuli/spore_stims/simple_20_A_c.gif","images/stimuli/spore_stims/simple_12_A_d.gif","","","","","0","simple_dissimilar","images/stimuli/spore_stims/simple_20_A_c.gif","left","","","","",""
"","null","html-keyboard-response","18","169207","0.0-8.0-0.5","SS1613082074341","","","null","","","","","<p><img src= images/blank.png width =""200"" height = ""200"" style = ""float:right""></p><p><img src=images/blank.png width =""800"" height = ""200""></p>","","","","","","","","","","","",""
"","7661.950000008801","sequential-stimulus-presentation","19","177680","0.0-8.0-1.5","SS1613082074341","trial","","40","800","8461.950000008801","images/stimuli/spore_stims/simple_20_A_c.gif","images/stimuli/spore_stims/simple_12_A_d.gif","","","","","0","simple_dissimilar","images/stimuli/spore_stims/simple_12_A_d.gif","middle","","","","",""
"","null","html-keyboard-response","20","178640","0.0-8.0-0.6","SS1613082074341","","","null","","","","","<p><img src= images/blank.png width =""200"" height = ""200"" style = ""float:right""></p><p><img src=images/blank.png width =""800"" height = ""200""></p>","","","","","","","","","","","",""
"","6571.140000014566","sequential-stimulus-presentation","21","186017","0.0-8.0-1.6","SS1613082074341","trial","","40","800","7371.140000014566","images/stimuli/spore_stims/simple_20_A_c.gif","images/stimuli/spore_stims/simple_12_A_d.gif","","","","","0","simple_dissimilar","images/stimuli/spore_stims/simple_12_A_d.gif","middle","","","","",""
"","null","html-keyboard-response","22","186953","0.0-8.0-0.7","SS1613082074341","","","null","","","","","<p><img src= images/blank.png width =""200"" height = ""200"" style = ""float:right""></p><p><img src=images/blank.png width =""800"" height = ""200""></p>","","","","","","","","","","","",""
"","5203.859999979613","sequential-stimulus-presentation","23","192968","0.0-8.0-1.7","SS1613082074341","trial","","40","800","6003.859999979613","images/stimuli/spore_stims/simple_20_A_c.gif","images/stimuli/spore_stims/simple_12_A_d.gif","","","","","0","simple_dissimilar","images/stimuli/spore_stims/simple_12_A_d.gif","middle","","","","",""
"","4830.989999987651","html-keyboard-response","24","197801","0.0-9.0","SS1613082074341","pref_question","","99","","","","","<video width ='960' height = '540' style='padding-top:8%' autoplay muted><source src='images/stimuli/wall_pref.mp4' type='video/mp4'></video>","3","right","66%","0","","","","","","","",""
"","17334.63500000653","sequential-stimulus-presentation","25","215945","0.0-10.0","SS1613082074341","pref_reveal","","40","800","18134.63500000653","null","null","","","","","0","","","","novel","","","",""
"","null","html-keyboard-response","26","216767","0.0-11.0-0.0","SS1613082074341","","","null","","","","","<p><img src= images/blank.png width =""200"" height = ""200"" style = ""float:right""></p><p><img src=images/blank.png width =""800"" height = ""200""></p>","","","","","","","","","","","",""
"","9314.089999999851","sequential-stimulus-presentation","27","226897","0.0-11.0-1.0","SS1613082074341","trial","","40","800","10114.089999999851","images/stimuli/spore_stims/complex_01_B_b.gif","images/stimuli/spore_stims/complex_01_A_b.gif","","","","","1","complex_similar","images/stimuli/spore_stims/complex_01_A_b.gif","right","","","","",""
"","null","html-keyboard-response","28","228047","0.0-11.0-0.1","SS1613082074341","","","null","","","","","<p><img src= images/blank.png width =""200"" height = ""200"" style = ""float:right""></p><p><img src=images/blank.png width =""800"" height = ""200""></p>","","","","","","","","","","","",""
"","6093.155000009574","sequential-stimulus-presentation","29","234952","0.0-11.0-1.1","SS1613082074341","trial","","40","800","6893.155000009574","images/stimuli/spore_stims/complex_01_B_b.gif","images/stimuli/spore_stims/complex_01_A_b.gif","","","","","1","complex_similar","images/stimuli/spore_stims/complex_01_A_b.gif","right","","","","",""
"","null","html-keyboard-response","30","235865","0.0-11.0-0.2","SS1613082074341","","","null","","","","","<p><img src= images/blank.png width =""200"" height = ""200"" style = ""float:right""></p><p><img src=images/blank.png width =""800"" height = ""200""></p>","","","","","","","","","","","",""
"","4664.684999996098","sequential-stimulus-presentation","31","241344","0.0-11.0-1.2","SS1613082074341","trial","","40","800","5464.684999996098","images/stimuli/spore_stims/complex_01_B_b.gif","images/stimuli/spore_stims/complex_01_A_b.gif","","","","","1","complex_similar","images/stimuli/spore_stims/complex_01_A_b.gif","right","","","","",""
"","null","html-keyboard-response","32","242346","0.0-11.0-0.3","SS1613082074341","","","null","","","","","<p><img src= images/blank.png width =""200"" height = ""200"" style = ""float:right""></p><p><img src=images/blank.png width =""800"" height = ""200""></p>","","","","","","","","","","","",""
"","5138.169999991078","sequential-stimulus-presentation","33","248296","0.0-11.0-1.3","SS1613082074341","trial","","40","800","5938.169999991078","images/stimuli/spore_stims/complex_01_B_b.gif","images/stimuli/spore_stims/complex_01_A_b.gif","","","","","1","complex_similar","images/stimuli/spore_stims/complex_01_A_b.gif","right","","","","",""
"","null","html-keyboard-response","34","249580","0.0-11.0-0.4","SS1613082074341","","","null","","","","","<p><img src= images/blank.png width =""200"" height = ""200"" style = ""float:right""></p><p><img src=images/blank.png width =""800"" height = ""200""></p>","","","","","","","","","","","",""
"","6672.989999991842","sequential-stimulus-presentation","35","257064","0.0-11.0-1.4","SS1613082074341","trial","","40","800","7472.989999991842","images/stimuli/spore_stims/complex_01_B_b.gif","images/stimuli/spore_stims/complex_01_A_b.gif","","","","","1","complex_similar","images/stimuli/spore_stims/complex_01_A_b.gif","right","","","","",""
"","null","html-keyboard-response","36","257927","0.0-11.0-0.5","SS1613082074341","","","null","","","","","<p><img src= images/blank.png width =""200"" height = ""200"" style = ""float:right""></p><p><img src=images/blank.png width =""800"" height = ""200""></p>","","","","","","","","","","","",""
"","2975.9950000152458","sequential-stimulus-presentation","37","261712","0.0-11.0-1.5","SS1613082074341","trial","","40","800","3775.9950000152458","images/stimuli/spore_stims/complex_01_B_b.gif","images/stimuli/spore_stims/complex_01_A_b.gif","","","","","1","complex_similar","images/stimuli/spore_stims/complex_01_A_b.gif","right","","","","",""
"","null","html-keyboard-response","38","262959","0.0-11.0-0.6","SS1613082074341","","","null","","","","","<p><img src= images/blank.png width =""200"" height = ""200"" style = ""float:right""></p><p><img src=images/blank.png width =""800"" height = ""200""></p>","","","","","","","","","","","",""
"","3195.50000000163","sequential-stimulus-presentation","39","266968","0.0-11.0-1.6","SS1613082074341","trial","","40","800","3995.50000000163","images/stimuli/spore_stims/complex_01_B_b.gif","images/stimuli/spore_stims/complex_01_A_b.gif","","","","","1","complex_similar","images/stimuli/spore_stims/complex_01_A_b.gif","right","","","","",""
"","null","html-keyboard-response","40","267800","0.0-11.0-0.7","SS1613082074341","","","null","","","","","<p><img src= images/blank.png width =""200"" height = ""200"" style = ""float:right""></p><p><img src=images/blank.png width =""800"" height = ""200""></p>","","","","","","","","","","","",""
"","10699.709999986226","sequential-stimulus-presentation","41","279312","0.0-11.0-1.7","SS1613082074341","trial","","40","800","11499.709999986226","images/stimuli/spore_stims/complex_01_B_b.gif","images/stimuli/spore_stims/complex_01_A_b.gif","","","","","1","complex_similar","images/stimuli/spore_stims/complex_01_B_b.gif","middle","","","","",""
"","5733.810000005178","html-keyboard-response","42","285048","0.0-12.0","SS1613082074341","pref_question","","97","","","","","<video width ='960' height = '540' style='padding-top:8%' autoplay muted><source src='images/stimuli/wall_pref.mp4' type='video/mp4'></video>","1","left","25%","1","","","","","","","",""
"","10103.389999974752","sequential-stimulus-presentation","43","295960","0.0-13.0","SS1613082074341","pref_reveal","","40","800","10903.389999974752","null","null","","","","","1","","","","novel","","","",""
"","null","html-keyboard-response","44","297006","0.0-14.0-0.0","SS1613082074341","","","null","","","","","<p><img src= images/blank.png width =""200"" height = ""200"" style = ""float:right""></p><p><img src=images/blank.png width =""800"" height = ""200""></p>","","","","","","","","","","","",""
"","6617.499999993015","sequential-stimulus-presentation","45","304440","0.0-14.0-1.0","SS1613082074341","trial","","40","800","7417.499999993015","images/stimuli/spore_stims/simple_15_A_b.gif","images/stimuli/spore_stims/simple_11_B_b.gif","","","","","2","simple_dissimilar","images/stimuli/spore_stims/simple_11_B_b.gif","right","","","","",""
"","null","html-keyboard-response","46","305334","0.0-14.0-0.1","SS1613082074341","","","null","","","","","<p><img src= images/blank.png width =""200"" height = ""200"" style = ""float:right""></p><p><img src=images/blank.png width =""800"" height = ""200""></p>","","","","","","","","","","","",""
"","4863.320000004023","sequential-stimulus-presentation","47","311008","0.0-14.0-1.1","SS1613082074341","trial","","40","800","5663.320000004023","images/stimuli/spore_stims/simple_15_A_b.gif","images/stimuli/spore_stims/simple_11_B_b.gif","","","","","2","simple_dissimilar","images/stimuli/spore_stims/simple_11_B_b.gif","right","","","","",""
"","null","html-keyboard-response","48","311940","0.0-14.0-0.2","SS1613082074341","","","null","","","","","<p><img src= images/blank.png width =""200"" height = ""200"" style = ""float:right""></p><p><img src=images/blank.png width =""800"" height = ""200""></p>","","","","","","","","","","","",""
"","1566.1799999943469","sequential-stimulus-presentation","49","314320","0.0-14.0-1.2","SS1613082074341","trial","","40","800","2366.179999994347","images/stimuli/spore_stims/simple_15_A_b.gif","images/stimuli/spore_stims/simple_11_B_b.gif","","","","","2","simple_dissimilar","images/stimuli/spore_stims/simple_11_B_b.gif","right","","","","",""
"","null","html-keyboard-response","50","315443","0.0-14.0-0.3","SS1613082074341","","","null","","","","","<p><img src= images/blank.png width =""200"" height = ""200"" style = ""float:right""></p><p><img src=images/blank.png width =""800"" height = ""200""></p>","","","","","","","","","","","",""
"","880.6150000018533","sequential-stimulus-presentation","51","317136","0.0-14.0-1.3","SS1613082074341","trial","","40","800","1680.6150000018533","images/stimuli/spore_stims/simple_15_A_b.gif","images/stimuli/spore_stims/simple_11_B_b.gif","","","","","2","simple_dissimilar","images/stimuli/spore_stims/simple_11_B_b.gif","right","","","","",""
"","null","html-keyboard-response","52","318161","0.0-14.0-0.4","SS1613082074341","","","null","","","","","<p><img src= images/blank.png width =""200"" height = ""200"" style = ""float:right""></p><p><img src=images/blank.png width =""800"" height = ""200""></p>","","","","","","","","","","","",""
"","6560.144999995828","sequential-stimulus-presentation","53","325537","0.0-14.0-1.4","SS1613082074341","trial","","40","800","7360.144999995828","images/stimuli/spore_stims/simple_15_A_b.gif","images/stimuli/spore_stims/simple_11_B_b.gif","","","","","2","simple_dissimilar","images/stimuli/spore_stims/simple_15_A_b.gif","middle","","","","",""
"","null","html-keyboard-response","54","326635","0.0-14.0-0.5","SS1613082074341","","","null","","","","","<p><img src= images/blank.png width =""200"" height = ""200"" style = ""float:right""></p><p><img src=images/blank.png width =""800"" height = ""200""></p>","","","","","","","","","","","",""
"","2293.245000008028","sequential-stimulus-presentation","55","329744","0.0-14.0-1.5","SS1613082074341","trial","","40","800","3093.245000008028","images/stimuli/spore_stims/simple_15_A_b.gif","images/stimuli/spore_stims/simple_11_B_b.gif","","","","","2","simple_dissimilar","images/stimuli/spore_stims/simple_11_B_b.gif","right","","","","",""
"","null","html-keyboard-response","56","330924","0.0-14.0-0.6","SS1613082074341","","","null","","","","","<p><img src= images/blank.png width =""200"" height = ""200"" style = ""float:right""></p><p><img src=images/blank.png width =""800"" height = ""200""></p>","","","","","","","","","","","",""
"","1718.909999995958","sequential-stimulus-presentation","57","333456","0.0-14.0-1.6","SS1613082074341","trial","","40","800","2518.909999995958","images/stimuli/spore_stims/simple_15_A_b.gif","images/stimuli/spore_stims/simple_11_B_b.gif","","","","","2","simple_dissimilar","images/stimuli/spore_stims/simple_11_B_b.gif","right","","","","",""
"","null","html-keyboard-response","58","334742","0.0-14.0-0.7","SS1613082074341","","","null","","","","","<p><img src= images/blank.png width =""200"" height = ""200"" style = ""float:right""></p><p><img src=images/blank.png width =""800"" height = ""200""></p>","","","","","","","","","","","",""
"","1358.4600000176579","sequential-stimulus-presentation","59","336912","0.0-14.0-1.7","SS1613082074341","trial","","40","800","2158.460000017658","images/stimuli/spore_stims/simple_15_A_b.gif","images/stimuli/spore_stims/simple_11_B_b.gif","","","","","2","simple_dissimilar","images/stimuli/spore_stims/simple_11_B_b.gif","right","","","","",""
"","5141.674999991665","html-keyboard-response","60","342056","0.0-15.0","SS1613082074341","pref_question","","98","","","","","<video width ='960' height = '540' style='padding-top:8%' autoplay muted><source src='images/stimuli/wall_pref.mp4' type='video/mp4'></video>","2","middle","45%","2","","","","","","","",""
"","5039.274999988265","sequential-stimulus-presentation","61","347904","0.0-16.0","SS1613082074341","pref_reveal","","40","800","5839.274999988265","null","null","","","","","2","","","","deviant","","","",""
"","null","html-keyboard-response","62","349084","0.0-17.0-0.0","SS1613082074341","","","null","","","","","<p><img src= images/blank.png width =""200"" height = ""200"" style = ""float:right""></p><p><img src=images/blank.png width =""800"" height = ""200""></p>","","","","","","","","","","","",""
"","9479.729999991832","sequential-stimulus-presentation","63","359377","0.0-17.0-1.0","SS1613082074341","trial","","40","800","10279.729999991832","images/stimuli/spore_stims/simple_17_B_b.gif","images/stimuli/spore_stims/simple_05_B_d.gif","","","","","3","simple_dissimilar","images/stimuli/spore_stims/simple_05_B_d.gif","left","","","","",""
"","null","html-keyboard-response","64","360466","0.0-17.0-0.1","SS1613082074341","","","null","","","","","<p><img src= images/blank.png width =""200"" height = ""200"" style = ""float:right""></p><p><img src=images/blank.png width =""800"" height = ""200""></p>","","","","","","","","","","","",""
"","2917.264999996405","sequential-stimulus-presentation","65","364198","0.0-17.0-1.1","SS1613082074341","trial","","40","800","3717.264999996405","images/stimuli/spore_stims/simple_17_B_b.gif","images/stimuli/spore_stims/simple_05_B_d.gif","","","","","3","simple_dissimilar","images/stimuli/spore_stims/simple_05_B_d.gif","left","","","","",""
"","null","html-keyboard-response","66","365335","0.0-17.0-0.2","SS1613082074341","","","null","","","","","<p><img src= images/blank.png width =""200"" height = ""200"" style = ""float:right""></p><p><img src=images/blank.png width =""800"" height = ""200""></p>","","","","","","","","","","","",""
"","3424.7099999920465","sequential-stimulus-presentation","67","369574","0.0-17.0-1.2","SS1613082074341","trial","","40","800","4224.7099999920465","images/stimuli/spore_stims/simple_17_B_b.gif","images/stimuli/spore_stims/simple_05_B_d.gif","","","","","3","simple_dissimilar","images/stimuli/spore_stims/simple_05_B_d.gif","left","","","","",""
"","null","html-keyboard-response","68","370788","0.0-17.0-0.3","SS1613082074341","","","null","","","","","<p><img src= images/blank.png width =""200"" height = ""200"" style = ""float:right""></p><p><img src=images/blank.png width =""800"" height = ""200""></p>","","","","","","","","","","","",""
"","2859.114999999292","sequential-stimulus-presentation","69","374462","0.0-17.0-1.3","SS1613082074341","trial","","40","800","3659.114999999292","images/stimuli/spore_stims/simple_17_B_b.gif","images/stimuli/spore_stims/simple_05_B_d.gif","","","","","3","simple_dissimilar","images/stimuli/spore_stims/simple_05_B_d.gif","left","","","","",""
"","null","html-keyboard-response","70","375753","0.0-17.0-0.4","SS1613082074341","","","null","","","","","<p><img src= images/blank.png width =""200"" height = ""200"" style = ""float:right""></p><p><img src=images/blank.png width =""800"" height = ""200""></p>","","","","","","","","","","","",""
"","536.4799999806564","sequential-stimulus-presentation","71","377102","0.0-17.0-1.4","SS1613082074341","trial","","40","800","1336.4799999806564","images/stimuli/spore_stims/simple_17_B_b.gif","images/stimuli/spore_stims/simple_05_B_d.gif","","","","","3","simple_dissimilar","images/stimuli/spore_stims/simple_05_B_d.gif","left","","","","",""
"","null","html-keyboard-response","72","378001","0.0-17.0-0.5","SS1613082074341","","","null","","","","","<p><img src= images/blank.png width =""200"" height = ""200"" style = ""float:right""></p><p><img src=images/blank.png width =""800"" height = ""200""></p>","","","","","","","","","","","",""
"","846.9999999797437","sequential-stimulus-presentation","73","379662","0.0-17.0-1.5","SS1613082074341","trial","","40","800","1646.9999999797437","images/stimuli/spore_stims/simple_17_B_b.gif","images/stimuli/spore_stims/simple_05_B_d.gif","","","","","3","simple_dissimilar","images/stimuli/spore_stims/simple_05_B_d.gif","left","","","","",""
"","null","html-keyboard-response","74","380492","0.0-17.0-0.6","SS1613082074341","","","null","","","","","<p><img src= images/blank.png width =""200"" height = ""200"" style = ""float:right""></p><p><img src=images/blank.png width =""800"" height = ""200""></p>","","","","","","","","","","","",""
"","2287.145000009332","sequential-stimulus-presentation","75","383590","0.0-17.0-1.6","SS1613082074341","trial","","40","800","3087.145000009332","images/stimuli/spore_stims/simple_17_B_b.gif","images/stimuli/spore_stims/simple_05_B_d.gif","","","","","3","simple_dissimilar","images/stimuli/spore_stims/simple_05_B_d.gif","left","","","","",""
"","null","html-keyboard-response","76","384679","0.0-17.0-0.7","SS1613082074341","","","null","","","","","<p><img src= images/blank.png width =""200"" height = ""200"" style = ""float:right""></p><p><img src=images/blank.png width =""800"" height = ""200""></p>","","","","","","","","","","","",""
"","11574.964999977965","sequential-stimulus-presentation","77","397070","0.0-17.0-1.7","SS1613082074341","trial","","40","800","12374.964999977965","images/stimuli/spore_stims/simple_17_B_b.gif","images/stimuli/spore_stims/simple_05_B_d.gif","","","","","3","simple_dissimilar","images/stimuli/spore_stims/simple_17_B_b.gif","right","","","","",""
"","3477.9599999892525","html-keyboard-response","78","400550","0.0-18.0","SS1613082074341","pref_question","","98","","","","","<video width ='960' height = '540' style='padding-top:8%' autoplay muted><source src='images/stimuli/wall_pref.mp4' type='video/mp4'></video>","2","middle","45%","3","","","","","","","",""
"","8502.529999997932","sequential-stimulus-presentation","79","409870","0.0-19.0","SS1613082074341","pref_reveal","","40","800","9302.529999997932","null","null","","","","","3","","","","novel","","","",""
"","null","html-keyboard-response","80","411009","0.0-20.0-0.0","SS1613082074341","","","null","","","","","<p><img src= images/blank.png width =""200"" height = ""200"" style = ""float:right""></p><p><img src=images/blank.png width =""800"" height = ""200""></p>","","","","","","","","","","","",""
"","135.26000001002103","sequential-stimulus-presentation","81","411957","0.0-20.0-1.0","SS1613082074341","trial","","40","800","935.260000010021","images/stimuli/spore_stims/complex_04_B_d.gif","images/stimuli/spore_stims/complex_02_A_c.gif","","","","","4","complex_dissimilar","images/stimuli/spore_stims/complex_02_A_c.gif","middle","","","","",""
"","null","html-keyboard-response","82","413047","0.0-20.0-0.1","SS1613082074341","","","null","","","","","<p><img src= images/blank.png width =""200"" height = ""200"" style = ""float:right""></p><p><img src=images/blank.png width =""800"" height = ""200""></p>","","","","","","","","","","","",""
"","9151.424999989104","sequential-stimulus-presentation","83","423016","0.0-20.0-1.1","SS1613082074341","trial","","40","800","9951.424999989104","images/stimuli/spore_stims/complex_04_B_d.gif","images/stimuli/spore_stims/complex_02_A_c.gif","","","","","4","complex_dissimilar","images/stimuli/spore_stims/complex_02_A_c.gif","middle","","","","",""
"","null","html-keyboard-response","84","424291","0.0-20.0-0.2","SS1613082074341","","","null","","","","","<p><img src= images/blank.png width =""200"" height = ""200"" style = ""float:right""></p><p><img src=images/blank.png width =""800"" height = ""200""></p>","","","","","","","","","","","",""
"","2237.859999993816","sequential-stimulus-presentation","85","427343","0.0-20.0-1.2","SS1613082074341","trial","","40","800","3037.859999993816","images/stimuli/spore_stims/complex_04_B_d.gif","images/stimuli/spore_stims/complex_02_A_c.gif","","","","","4","complex_dissimilar","images/stimuli/spore_stims/complex_02_A_c.gif","middle","","","","",""
"","null","html-keyboard-response","86","428527","0.0-20.0-0.3","SS1613082074341","","","null","","","","","<p><img src= images/blank.png width =""200"" height = ""200"" style = ""float:right""></p><p><img src=images/blank.png width =""800"" height = ""200""></p>","","","","","","","","","","","",""
"","1539.5800000114832","sequential-stimulus-presentation","87","430880","0.0-20.0-1.3","SS1613082074341","trial","","40","800","2339.580000011483","images/stimuli/spore_stims/complex_04_B_d.gif","images/stimuli/spore_stims/complex_02_A_c.gif","","","","","4","complex_dissimilar","images/stimuli/spore_stims/complex_02_A_c.gif","middle","","","","",""
"","null","html-keyboard-response","88","431700","0.0-20.0-0.4","SS1613082074341","","","null","","","","","<p><img src= images/blank.png width =""200"" height = ""200"" style = ""float:right""></p><p><img src=images/blank.png width =""800"" height = ""200""></p>","","","","","","","","","","","",""
"","1672.3300000012387","sequential-stimulus-presentation","89","434184","0.0-20.0-1.4","SS1613082074341","trial","","40","800","2472.3300000012387","images/stimuli/spore_stims/complex_04_B_d.gif","images/stimuli/spore_stims/complex_02_A_c.gif","","","","","4","complex_dissimilar","images/stimuli/spore_stims/complex_02_A_c.gif","middle","","","","",""
"","null","html-keyboard-response","90","435002","0.0-20.0-0.5","SS1613082074341","","","null","","","","","<p><img src= images/blank.png width =""200"" height = ""200"" style = ""float:right""></p><p><img src=images/blank.png width =""800"" height = ""200""></p>","","","","","","","","","","","",""
"","2161.5250000031665","sequential-stimulus-presentation","91","437983","0.0-20.0-1.5","SS1613082074341","trial","","40","800","2961.5250000031665","images/stimuli/spore_stims/complex_04_B_d.gif","images/stimuli/spore_stims/complex_02_A_c.gif","","","","","4","complex_dissimilar","images/stimuli/spore_stims/complex_02_A_c.gif","middle","","","","",""
"","null","html-keyboard-response","92","438980","0.0-20.0-0.6","SS1613082074341","","","null","","","","","<p><img src= images/blank.png width =""200"" height = ""200"" style = ""float:right""></p><p><img src=images/blank.png width =""800"" height = ""200""></p>","","","","","","","","","","","",""
"","15095.359999977518","sequential-stimulus-presentation","93","454888","0.0-20.0-1.6","SS1613082074341","trial","","40","800","15895.359999977518","images/stimuli/spore_stims/complex_04_B_d.gif","images/stimuli/spore_stims/complex_02_A_c.gif","","","","","4","complex_dissimilar","images/stimuli/spore_stims/complex_04_B_d.gif","right","","","","",""
"","null","html-keyboard-response","94","456136","0.0-20.0-0.7","SS1613082074341","","","null","","","","","<p><img src= images/blank.png width =""200"" height = ""200"" style = ""float:right""></p><p><img src=images/blank.png width =""800"" height = ""200""></p>","","","","","","","","","","","",""
"","2852.7349999931175","sequential-stimulus-presentation","95","459799","0.0-20.0-1.7","SS1613082074341","trial","","40","800","3652.7349999931175","images/stimuli/spore_stims/complex_04_B_d.gif","images/stimuli/spore_stims/complex_02_A_c.gif","","","","","4","complex_dissimilar","images/stimuli/spore_stims/complex_02_A_c.gif","middle","","","","",""
"","3653.6849999974947","html-keyboard-response","96","463456","0.0-21.0","SS1613082074341","pref_question","","97","","","","","<video width ='960' height = '540' style='padding-top:8%' autoplay muted><source src='images/stimuli/wall_pref.mp4' type='video/mp4'></video>","1","left","25%","4","","","","","","","",""
"","9774.399999994785","sequential-stimulus-presentation","97","474040","0.0-22.0","SS1613082074341","pref_reveal","","40","800","10574.399999994785","null","null","","","","","4","","","","novel","","","",""
"","null","html-keyboard-response","98","474998","0.0-23.0-0.0","SS1613082074341","","","null","","","","","<p><img src= images/blank.png width =""200"" height = ""200"" style = ""float:right""></p><p><img src=images/blank.png width =""800"" height = ""200""></p>","","","","","","","","","","","",""
"","7166.165000002366","sequential-stimulus-presentation","99","482975","0.0-23.0-1.0","SS1613082074341","trial","","40","800","7966.165000002366","images/stimuli/spore_stims/complex_17_A_d.gif","images/stimuli/spore_stims/complex_17_B_d.gif","","","","","5","complex_similar","images/stimuli/spore_stims/complex_17_B_d.gif","right","","","","",""
"","null","html-keyboard-response","100","483827","0.0-23.0-0.1","SS1613082074341","","","null","","","","","<p><img src= images/blank.png width =""200"" height = ""200"" style = ""float:right""></p><p><img src=images/blank.png width =""800"" height = ""200""></p>","","","","","","","","","","","",""
"","4337.865000008605","sequential-stimulus-presentation","101","488976","0.0-23.0-1.1","SS1613082074341","trial","","40","800","5137.865000008605","images/stimuli/spore_stims/complex_17_A_d.gif","images/stimuli/spore_stims/complex_17_B_d.gif","","","","","5","complex_similar","images/stimuli/spore_stims/complex_17_B_d.gif","right","","","","",""
"","null","html-keyboard-response","102","489955","0.0-23.0-0.2","SS1613082074341","","","null","","","","","<p><img src= images/blank.png width =""200"" height = ""200"" style = ""float:right""></p><p><img src=images/blank.png width =""800"" height = ""200""></p>","","","","","","","","","","","",""
"","2283.884999982547","sequential-stimulus-presentation","103","493055","0.0-23.0-1.2","SS1613082074341","trial","","40","800","3083.884999982547","images/stimuli/spore_stims/complex_17_A_d.gif","images/stimuli/spore_stims/complex_17_B_d.gif","","","","","5","complex_similar","images/stimuli/spore_stims/complex_17_B_d.gif","right","","","","",""
"","null","html-keyboard-response","104","494122","0.0-23.0-0.3","SS1613082074341","","","null","","","","","<p><img src= images/blank.png width =""200"" height = ""200"" style = ""float:right""></p><p><img src=images/blank.png width =""800"" height = ""200""></p>","","","","","","","","","","","",""
"","6069.784999999683","sequential-stimulus-presentation","105","501008","0.0-23.0-1.3","SS1613082074341","trial","","40","800","6869.784999999683","images/stimuli/spore_stims/complex_17_A_d.gif","images/stimuli/spore_stims/complex_17_B_d.gif","","","","","5","complex_similar","images/stimuli/spore_stims/complex_17_A_d.gif","left","","","","",""
"","null","html-keyboard-response","106","502173","0.0-23.0-0.4","SS1613082074341","","","null","","","","","<p><img src= images/blank.png width =""200"" height = ""200"" style = ""float:right""></p><p><img src=images/blank.png width =""800"" height = ""200""></p>","","","","","","","","","","","",""
"","4145.705000002636","sequential-stimulus-presentation","107","507135","0.0-23.0-1.4","SS1613082074341","trial","","40","800","4945.705000002636","images/stimuli/spore_stims/complex_17_A_d.gif","images/stimuli/spore_stims/complex_17_B_d.gif","","","","","5","complex_similar","images/stimuli/spore_stims/complex_17_B_d.gif","right","","","","",""
"","null","html-keyboard-response","108","508188","0.0-23.0-0.5","SS1613082074341","","","null","","","","","<p><img src= images/blank.png width =""200"" height = ""200"" style = ""float:right""></p><p><img src=images/blank.png width =""800"" height = ""200""></p>","","","","","","","","","","","",""
"","2903.1250000116415","sequential-stimulus-presentation","109","511904","0.0-23.0-1.5","SS1613082074341","trial","","40","800","3703.1250000116415","images/stimuli/spore_stims/complex_17_A_d.gif","images/stimuli/spore_stims/complex_17_B_d.gif","","","","","5","complex_similar","images/stimuli/spore_stims/complex_17_B_d.gif","right","","","","",""
"","null","html-keyboard-response","110","512767","0.0-23.0-0.6","SS1613082074341","","","null","","","","","<p><img src= images/blank.png width =""200"" height = ""200"" style = ""float:right""></p><p><img src=images/blank.png width =""800"" height = ""200""></p>","","","","","","","","","","","",""
"","2234.4750000047497","sequential-stimulus-presentation","111","515815","0.0-23.0-1.6","SS1613082074341","trial","","40","800","3034.4750000047497","images/stimuli/spore_stims/complex_17_A_d.gif","images/stimuli/spore_stims/complex_17_B_d.gif","","","","","5","complex_similar","images/stimuli/spore_stims/complex_17_B_d.gif","right","","","","",""
"","null","html-keyboard-response","112","516697","0.0-23.0-0.7","SS1613082074341","","","null","","","","","<p><img src= images/blank.png width =""200"" height = ""200"" style = ""float:right""></p><p><img src=images/blank.png width =""800"" height = ""200""></p>","","","","","","","","","","","",""
"","2297.2249999875203","sequential-stimulus-presentation","113","519807","0.0-23.0-1.7","SS1613082074341","trial","","40","800","3097.2249999875203","images/stimuli/spore_stims/complex_17_A_d.gif","images/stimuli/spore_stims/complex_17_B_d.gif","","","","","5","complex_similar","images/stimuli/spore_stims/complex_17_B_d.gif","right","","","","",""
"","3277.3500000184868","html-keyboard-response","114","523088","0.0-24.0","SS1613082074341","pref_question","","98","","","","","<video width ='960' height = '540' style='padding-top:8%' autoplay muted><source src='images/stimuli/wall_pref.mp4' type='video/mp4'></video>","2","middle","45%","5","","","","","","","",""
"","5918.660000024829","sequential-stimulus-presentation","115","529823","0.0-25.0","SS1613082074341","pref_reveal","","40","800","6718.660000024829","null","null","","","","","5","","","","novel","","","",""
"","null","html-keyboard-response","116","531002","0.0-26.0-0.0","SS1613082074341","","","null","","","","","<p><img src= images/blank.png width =""200"" height = ""200"" style = ""float:right""></p><p><img src=images/blank.png width =""800"" height = ""200""></p>","","","","","","","","","","","",""
"","11097.69499997492","sequential-stimulus-presentation","117","542912","0.0-26.0-1.0","SS1613082074341","trial","","40","800","11897.69499997492","images/stimuli/spore_stims/simple_06_A_b.gif","images/stimuli/spore_stims/simple_06_B_b.gif","","","","","6","simple_similar","images/stimuli/spore_stims/simple_06_B_b.gif","left","","","","",""
"","null","html-keyboard-response","118","543894","0.0-26.0-0.1","SS1613082074341","","","null","","","","","<p><img src= images/blank.png width =""200"" height = ""200"" style = ""float:right""></p><p><img src=images/blank.png width =""800"" height = ""200""></p>","","","","","","","","","","","",""
"","1012.6100000052247","sequential-stimulus-presentation","119","545719","0.0-26.0-1.1","SS1613082074341","trial","","40","800","1812.6100000052247","images/stimuli/spore_stims/simple_06_A_b.gif","images/stimuli/spore_stims/simple_06_B_b.gif","","","","","6","simple_similar","images/stimuli/spore_stims/simple_06_B_b.gif","left","","","","",""
"","null","html-keyboard-response","120","547018","0.0-26.0-0.2","SS1613082074341","","","null","","","","","<p><img src= images/blank.png width =""200"" height = ""200"" style = ""float:right""></p><p><img src=images/blank.png width =""800"" height = ""200""></p>","","","","","","","","","","","",""
"","3646.050000010291","sequential-stimulus-presentation","121","551479","0.0-26.0-1.2","SS1613082074341","trial","","40","800","4446.050000010291","images/stimuli/spore_stims/simple_06_A_b.gif","images/stimuli/spore_stims/simple_06_B_b.gif","","","","","6","simple_similar","images/stimuli/spore_stims/simple_06_A_b.gif","middle","","","","",""
"","null","html-keyboard-response","122","552659","0.0-26.0-0.3","SS1613082074341","","","null","","","","","<p><img src= images/blank.png width =""200"" height = ""200"" style = ""float:right""></p><p><img src=images/blank.png width =""800"" height = ""200""></p>","","","","","","","","","","","",""
"","4107.870000007097","sequential-stimulus-presentation","123","557576","0.0-26.0-1.3","SS1613082074341","trial","","40","800","4907.870000007097","images/stimuli/spore_stims/simple_06_A_b.gif","images/stimuli/spore_stims/simple_06_B_b.gif","","","","","6","simple_similar","images/stimuli/spore_stims/simple_06_B_b.gif","left","","","","",""
"","null","html-keyboard-response","124","558757","0.0-26.0-0.4","SS1613082074341","","","null","","","","","<p><img src= images/blank.png width =""200"" height = ""200"" style = ""float:right""></p><p><img src=images/blank.png width =""800"" height = ""200""></p>","","","","","","","","","","","",""
"","1254.9650000000838","sequential-stimulus-presentation","125","560823","0.0-26.0-1.4","SS1613082074341","trial","","40","800","2054.965000000084","images/stimuli/spore_stims/simple_06_A_b.gif","images/stimuli/spore_stims/simple_06_B_b.gif","","","","","6","simple_similar","images/stimuli/spore_stims/simple_06_B_b.gif","left","","","","",""
"","null","html-keyboard-response","126","561972","0.0-26.0-0.5","SS1613082074341","","","null","","","","","<p><img src= images/blank.png width =""200"" height = ""200"" style = ""float:right""></p><p><img src=images/blank.png width =""800"" height = ""200""></p>","","","","","","","","","","","",""
"","730.489999987185","sequential-stimulus-presentation","127","563512","0.0-26.0-1.5","SS1613082074341","trial","","40","800","1530.489999987185","images/stimuli/spore_stims/simple_06_A_b.gif","images/stimuli/spore_stims/simple_06_B_b.gif","","","","","6","simple_similar","images/stimuli/spore_stims/simple_06_B_b.gif","left","","","","",""
"","null","html-keyboard-response","128","564643","0.0-26.0-0.6","SS1613082074341","","","null","","","","","<p><img src= images/blank.png width =""200"" height = ""200"" style = ""float:right""></p><p><img src=images/blank.png width =""800"" height = ""200""></p>","","","","","","","","","","","",""
"","892.9650000063702","sequential-stimulus-presentation","129","566352","0.0-26.0-1.6","SS1613082074341","trial","","40","800","1692.9650000063702","images/stimuli/spore_stims/simple_06_A_b.gif","images/stimuli/spore_stims/simple_06_B_b.gif","","","","","6","simple_similar","images/stimuli/spore_stims/simple_06_B_b.gif","left","","","","",""
"","null","html-keyboard-response","130","567581","0.0-26.0-0.7","SS1613082074341","","","null","","","","","<p><img src= images/blank.png width =""200"" height = ""200"" style = ""float:right""></p><p><img src=images/blank.png width =""800"" height = ""200""></p>","","","","","","","","","","","",""
"","850.8250000013504","sequential-stimulus-presentation","131","569248","0.0-26.0-1.7","SS1613082074341","trial","","40","800","1650.8250000013504","images/stimuli/spore_stims/simple_06_A_b.gif","images/stimuli/spore_stims/simple_06_B_b.gif","","","","","6","simple_similar","images/stimuli/spore_stims/simple_06_B_b.gif","left","","","","",""
"","2317.459999991115","html-keyboard-response","132","571568","0.0-27.0","SS1613082074341","pref_question","","99","","","","","<video width ='960' height = '540' style='padding-top:8%' autoplay muted><source src='images/stimuli/wall_pref.mp4' type='video/mp4'></video>","3","right","66%","6","","","","","","","",""
"","5511.629999993602","sequential-stimulus-presentation","133","577887","0.0-28.0","SS1613082074341","pref_reveal","","40","800","6311.629999993602","null","null","","","","","6","","","","novel","","","",""
"","null","html-keyboard-response","134","578927","0.0-29.0-0.0","SS1613082074341","","","null","","","","","<p><img src= images/blank.png width =""200"" height = ""200"" style = ""float:right""></p><p><img src=images/blank.png width =""800"" height = ""200""></p>","","","","","","","","","","","",""
"","4808.640000002924","sequential-stimulus-presentation","135","584552","0.0-29.0-1.0","SS1613082074341","trial","","40","800","5608.640000002924","images/stimuli/spore_stims/complex_12_B_a.gif","images/stimuli/spore_stims/complex_12_A_a.gif","","","","","7","complex_similar","images/stimuli/spore_stims/complex_12_A_a.gif","middle","","","","",""
"","null","html-keyboard-response","136","585582","0.0-29.0-0.1","SS1613082074341","","","null","","","","","<p><img src= images/blank.png width =""200"" height = ""200"" style = ""float:right""></p><p><img src=images/blank.png width =""800"" height = ""200""></p>","","","","","","","","","","","",""
"","3120.3800000075717","sequential-stimulus-presentation","137","589511","0.0-29.0-1.1","SS1613082074341","trial","","40","800","3920.3800000075717","images/stimuli/spore_stims/complex_12_B_a.gif","images/stimuli/spore_stims/complex_12_A_a.gif","","","","","7","complex_similar","images/stimuli/spore_stims/complex_12_A_a.gif","middle","","","","",""
"","null","html-keyboard-response","138","590643","0.0-29.0-0.2","SS1613082074341","","","null","","","","","<p><img src= images/blank.png width =""200"" height = ""200"" style = ""float:right""></p><p><img src=images/blank.png width =""800"" height = ""200""></p>","","","","","","","","","","","",""
"","2611.685000010766","sequential-stimulus-presentation","139","594071","0.0-29.0-1.2","SS1613082074341","trial","","40","800","3411.685000010766","images/stimuli/spore_stims/complex_12_B_a.gif","images/stimuli/spore_stims/complex_12_A_a.gif","","","","","7","complex_similar","images/stimuli/spore_stims/complex_12_A_a.gif","middle","","","","",""
"","null","html-keyboard-response","140","595115","0.0-29.0-0.3","SS1613082074341","","","null","","","","","<p><img src= images/blank.png width =""200"" height = ""200"" style = ""float:right""></p><p><img src=images/blank.png width =""800"" height = ""200""></p>","","","","","","","","","","","",""
"","1513.5449999943376","sequential-stimulus-presentation","141","597448","0.0-29.0-1.3","SS1613082074341","trial","","40","800","2313.5449999943376","images/stimuli/spore_stims/complex_12_B_a.gif","images/stimuli/spore_stims/complex_12_A_a.gif","","","","","7","complex_similar","images/stimuli/spore_stims/complex_12_A_a.gif","middle","","","","",""
"","null","html-keyboard-response","142","598267","0.0-29.0-0.4","SS1613082074341","","","null","","","","","<p><img src= images/blank.png width =""200"" height = ""200"" style = ""float:right""></p><p><img src=images/blank.png width =""800"" height = ""200""></p>","","","","","","","","","","","",""
"","1387.575000000652","sequential-stimulus-presentation","143","600471","0.0-29.0-1.4","SS1613082074341","trial","","40","800","2187.575000000652","images/stimuli/spore_stims/complex_12_B_a.gif","images/stimuli/spore_stims/complex_12_A_a.gif","","","","","7","complex_similar","images/stimuli/spore_stims/complex_12_A_a.gif","middle","","","","",""
"","null","html-keyboard-response","144","601662","0.0-29.0-0.5","SS1613082074341","","","null","","","","","<p><img src= images/blank.png width =""200"" height = ""200"" style = ""float:right""></p><p><img src=images/blank.png width =""800"" height = ""200""></p>","","","","","","","","","","","",""
"","4502.310000010766","sequential-stimulus-presentation","145","606976","0.0-29.0-1.5","SS1613082074341","trial","","40","800","5302.310000010766","images/stimuli/spore_stims/complex_12_B_a.gif","images/stimuli/spore_stims/complex_12_A_a.gif","","","","","7","complex_similar","images/stimuli/spore_stims/complex_12_B_a.gif","right","","","","",""
"","null","html-keyboard-response","146","607849","0.0-29.0-0.6","SS1613082074341","","","null","","","","","<p><img src= images/blank.png width =""200"" height = ""200"" style = ""float:right""></p><p><img src=images/blank.png width =""800"" height = ""200""></p>","","","","","","","","","","","",""
"","1881.0749999829568","sequential-stimulus-presentation","147","610544","0.0-29.0-1.6","SS1613082074341","trial","","40","800","2681.074999982957","images/stimuli/spore_stims/complex_12_B_a.gif","images/stimuli/spore_stims/complex_12_A_a.gif","","","","","7","complex_similar","images/stimuli/spore_stims/complex_12_A_a.gif","middle","","","","",""
"","null","html-keyboard-response","148","611381","0.0-29.0-0.7","SS1613082074341","","","null","","","","","<p><img src= images/blank.png width =""200"" height = ""200"" style = ""float:right""></p><p><img src=images/blank.png width =""800"" height = ""200""></p>","","","","","","","","","","","",""
"","1616.020000015851","sequential-stimulus-presentation","149","613808","0.0-29.0-1.7","SS1613082074341","trial","","40","800","2416.020000015851","images/stimuli/spore_stims/complex_12_B_a.gif","images/stimuli/spore_stims/complex_12_A_a.gif","","","","","7","complex_similar","images/stimuli/spore_stims/complex_12_A_a.gif","middle","","","","",""
"","2925.4000000073574","html-keyboard-response","150","616736","0.0-30.0","SS1613082074341","pref_question","","97","","","","","<video width ='960' height = '540' style='padding-top:8%' autoplay muted><source src='images/stimuli/wall_pref.mp4' type='video/mp4'></video>","1","left","25%","7","","","","","","","",""
"","4599.824999982957","sequential-stimulus-presentation","151","622152","0.0-31.0","SS1613082074341","pref_reveal","","40","800","5399.824999982957","null","null","","","","","7","","","","novel","","","",""
"","null","html-keyboard-response","152","622990","0.0-32.0-0.0","SS1613082074341","","","null","","","","","<p><img src= images/blank.png width =""200"" height = ""200"" style = ""float:right""></p><p><img src=images/blank.png width =""800"" height = ""200""></p>","","","","","","","","","","","",""
"","2735.979999997653","sequential-stimulus-presentation","153","626535","0.0-32.0-1.0","SS1613082074341","trial","","40","800","3535.979999997653","images/stimuli/spore_stims/simple_18_B_c.gif","images/stimuli/spore_stims/simple_18_A_c.gif","","","","","8","simple_similar","images/stimuli/spore_stims/simple_18_A_c.gif","left","","","","",""
"","null","html-keyboard-response","154","627475","0.0-32.0-0.1","SS1613082074341","","","null","","","","","<p><img src= images/blank.png width =""200"" height = ""200"" style = ""float:right""></p><p><img src=images/blank.png width =""800"" height = ""200""></p>","","","","","","","","","","","",""
"","1312.3149999883026","sequential-stimulus-presentation","155","629599","0.0-32.0-1.1","SS1613082074341","trial","","40","800","2112.3149999883026","images/stimuli/spore_stims/simple_18_B_c.gif","images/stimuli/spore_stims/simple_18_A_c.gif","","","","","8","simple_similar","images/stimuli/spore_stims/simple_18_A_c.gif","left","","","","",""
"","null","html-keyboard-response","156","630838","0.0-32.0-0.2","SS1613082074341","","","null","","","","","<p><img src= images/blank.png width =""200"" height = ""200"" style = ""float:right""></p><p><img src=images/blank.png width =""800"" height = ""200""></p>","","","","","","","","","","","",""
"","1231.2899999960791","sequential-stimulus-presentation","157","632880","0.0-32.0-1.2","SS1613082074341","trial","","40","800","2031.2899999960791","images/stimuli/spore_stims/simple_18_B_c.gif","images/stimuli/spore_stims/simple_18_A_c.gif","","","","","8","simple_similar","images/stimuli/spore_stims/simple_18_A_c.gif","left","","","","",""
"","null","html-keyboard-response","158","633802","0.0-32.0-0.3","SS1613082074341","","","null","","","","","<p><img src= images/blank.png width =""200"" height = ""200"" style = ""float:right""></p><p><img src=images/blank.png width =""800"" height = ""200""></p>","","","","","","","","","","","",""
"","1284.669999993639","sequential-stimulus-presentation","159","635903","0.0-32.0-1.3","SS1613082074341","trial","","40","800","2084.669999993639","images/stimuli/spore_stims/simple_18_B_c.gif","images/stimuli/spore_stims/simple_18_A_c.gif","","","","","8","simple_similar","images/stimuli/spore_stims/simple_18_A_c.gif","left","","","","",""
"","null","html-keyboard-response","160","637083","0.0-32.0-0.4","SS1613082074341","","","null","","","","","<p><img src= images/blank.png width =""200"" height = ""200"" style = ""float:right""></p><p><img src=images/blank.png width =""800"" height = ""200""></p>","","","","","","","","","","","",""
"","2435.074999986682","sequential-stimulus-presentation","161","640335","0.0-32.0-1.4","SS1613082074341","trial","","40","800","3235.074999986682","images/stimuli/spore_stims/simple_18_B_c.gif","images/stimuli/spore_stims/simple_18_A_c.gif","","","","","8","simple_similar","images/stimuli/spore_stims/simple_18_A_c.gif","left","","","","",""
"","null","html-keyboard-response","162","641568","0.0-32.0-0.5","SS1613082074341","","","null","","","","","<p><img src= images/blank.png width =""200"" height = ""200"" style = ""float:right""></p><p><img src=images/blank.png width =""800"" height = ""200""></p>","","","","","","","","","","","",""
"","816.049999993993","sequential-stimulus-presentation","163","643200","0.0-32.0-1.5","SS1613082074341","trial","","40","800","1616.049999993993","images/stimuli/spore_stims/simple_18_B_c.gif","images/stimuli/spore_stims/simple_18_A_c.gif","","","","","8","simple_similar","images/stimuli/spore_stims/simple_18_A_c.gif","left","","","","",""
"","null","html-keyboard-response","164","644383","0.0-32.0-0.6","SS1613082074341","","","null","","","","","<p><img src= images/blank.png width =""200"" height = ""200"" style = ""float:right""></p><p><img src=images/blank.png width =""800"" height = ""200""></p>","","","","","","","","","","","",""
"","2042.3249999876134","sequential-stimulus-presentation","165","647239","0.0-32.0-1.6","SS1613082074341","trial","","40","800","2842.3249999876134","images/stimuli/spore_stims/simple_18_B_c.gif","images/stimuli/spore_stims/simple_18_A_c.gif","","","","","8","simple_similar","images/stimuli/spore_stims/simple_18_B_c.gif","right","","","","",""
"","null","html-keyboard-response","166","648131","0.0-32.0-0.7","SS1613082074341","","","null","","","","","<p><img src= images/blank.png width =""200"" height = ""200"" style = ""float:right""></p><p><img src=images/blank.png width =""800"" height = ""200""></p>","","","","","","","","","","","",""
"","1385.869999998249","sequential-stimulus-presentation","167","650327","0.0-32.0-1.7","SS1613082074341","trial","","40","800","2185.869999998249","images/stimuli/spore_stims/simple_18_B_c.gif","images/stimuli/spore_stims/simple_18_A_c.gif","","","","","8","simple_similar","images/stimuli/spore_stims/simple_18_A_c.gif","left","","","","",""
"","2157.310000009602","html-keyboard-response","168","652488","0.0-33.0","SS1613082074341","pref_question","","98","","","","","<video width ='960' height = '540' style='padding-top:8%' autoplay muted><source src='images/stimuli/wall_pref.mp4' type='video/mp4'></video>","2","middle","45%","8","","","","","","","",""
"","5453.57499999227","sequential-stimulus-presentation","169","658760","0.0-34.0","SS1613082074341","pref_reveal","","40","800","6253.57499999227","null","null","","","","","8","","","","novel","","","",""
"","null","html-keyboard-response","170","659790","0.0-35.0-0.0","SS1613082074341","","","null","","","","","<p><img src= images/blank.png width =""200"" height = ""200"" style = ""float:right""></p><p><img src=images/blank.png width =""800"" height = ""200""></p>","","","","","","","","","","","",""
"","6271.089999994729","sequential-stimulus-presentation","171","666872","0.0-35.0-1.0","SS1613082074341","trial","","40","800","7071.089999994729","images/stimuli/spore_stims/complex_12_B_a.gif","images/stimuli/spore_stims/complex_07_B_b.gif","","","","","9","complex_dissimilar","images/stimuli/spore_stims/complex_07_B_b.gif","right","","","","",""
"","null","html-keyboard-response","172","667899","0.0-35.0-0.1","SS1613082074341","","","null","","","","","<p><img src= images/blank.png width =""200"" height = ""200"" style = ""float:right""></p><p><img src=images/blank.png width =""800"" height = ""200""></p>","","","","","","","","","","","",""
"","3021.0300000035204","sequential-stimulus-presentation","173","671728","0.0-35.0-1.1","SS1613082074341","trial","","40","800","3821.0300000035204","images/stimuli/spore_stims/complex_12_B_a.gif","images/stimuli/spore_stims/complex_07_B_b.gif","","","","","9","complex_dissimilar","images/stimuli/spore_stims/complex_07_B_b.gif","right","","","","",""
"","null","html-keyboard-response","174","672711","0.0-35.0-0.2","SS1613082074341","","","null","","","","","<p><img src= images/blank.png width =""200"" height = ""200"" style = ""float:right""></p><p><img src=images/blank.png width =""800"" height = ""200""></p>","","","","","","","","","","","",""
"","1509.8149999976158","sequential-stimulus-presentation","175","675032","0.0-35.0-1.2","SS1613082074341","trial","","40","800","2309.814999997616","images/stimuli/spore_stims/complex_12_B_a.gif","images/stimuli/spore_stims/complex_07_B_b.gif","","","","","9","complex_dissimilar","images/stimuli/spore_stims/complex_07_B_b.gif","right","","","","",""
"","null","html-keyboard-response","176","676240","0.0-35.0-0.3","SS1613082074341","","","null","","","","","<p><img src= images/blank.png width =""200"" height = ""200"" style = ""float:right""></p><p><img src=images/blank.png width =""800"" height = ""200""></p>","","","","","","","","","","","",""
"","1099.4950000022072","sequential-stimulus-presentation","177","678152","0.0-35.0-1.3","SS1613082074341","trial","","40","800","1899.4950000022072","images/stimuli/spore_stims/complex_12_B_a.gif","images/stimuli/spore_stims/complex_07_B_b.gif","","","","","9","complex_dissimilar","images/stimuli/spore_stims/complex_07_B_b.gif","right","","","","",""
"","null","html-keyboard-response","178","679257","0.0-35.0-0.4","SS1613082074341","","","null","","","","","<p><img src= images/blank.png width =""200"" height = ""200"" style = ""float:right""></p><p><img src=images/blank.png width =""800"" height = ""200""></p>","","","","","","","","","","","",""
"","962.8199999860954","sequential-stimulus-presentation","179","681031","0.0-35.0-1.4","SS1613082074341","trial","","40","800","1762.8199999860954","images/stimuli/spore_stims/complex_12_B_a.gif","images/stimuli/spore_stims/complex_07_B_b.gif","","","","","9","complex_dissimilar","images/stimuli/spore_stims/complex_07_B_b.gif","right","","","","",""
"","null","html-keyboard-response","180","681878","0.0-35.0-0.5","SS1613082074341","","","null","","","","","<p><img src= images/blank.png width =""200"" height = ""200"" style = ""float:right""></p><p><img src=images/blank.png width =""800"" height = ""200""></p>","","","","","","","","","","","",""
"","869.9699999997392","sequential-stimulus-presentation","181","683560","0.0-35.0-1.5","SS1613082074341","trial","","40","800","1669.9699999997392","images/stimuli/spore_stims/complex_12_B_a.gif","images/stimuli/spore_stims/complex_07_B_b.gif","","","","","9","complex_dissimilar","images/stimuli/spore_stims/complex_07_B_b.gif","right","","","","",""
"","null","html-keyboard-response","182","684493","0.0-35.0-0.6","SS1613082074341","","","null","","","","","<p><img src= images/blank.png width =""200"" height = ""200"" style = ""float:right""></p><p><img src=images/blank.png width =""800"" height = ""200""></p>","","","","","","","","","","","",""
"","4232.900000002701","sequential-stimulus-presentation","183","689536","0.0-35.0-1.6","SS1613082074341","trial","","40","800","5032.900000002701","images/stimuli/spore_stims/complex_12_B_a.gif","images/stimuli/spore_stims/complex_07_B_b.gif","","","","","9","complex_dissimilar","images/stimuli/spore_stims/complex_12_B_a.gif","left","","","","",""
"","null","html-keyboard-response","184","690571","0.0-35.0-0.7","SS1613082074341","","","null","","","","","<p><img src= images/blank.png width =""200"" height = ""200"" style = ""float:right""></p><p><img src=images/blank.png width =""800"" height = ""200""></p>","","","","","","","","","","","",""
"","3064.814999990631","sequential-stimulus-presentation","185","694448","0.0-35.0-1.7","SS1613082074341","trial","","40","800","3864.814999990631","images/stimuli/spore_stims/complex_12_B_a.gif","images/stimuli/spore_stims/complex_07_B_b.gif","","","","","9","complex_dissimilar","images/stimuli/spore_stims/complex_07_B_b.gif","right","","","","",""
"","3828.3400000073016","html-keyboard-response","186","698280","0.0-36.0","SS1613082074341","pref_question","","98","","","","","<video width ='960' height = '540' style='padding-top:8%' autoplay muted><source src='images/stimuli/wall_pref.mp4' type='video/mp4'></video>","2","middle","45%","9","","","","","","","",""
"","6867.740000016056","sequential-stimulus-presentation","187","705952","0.0-37.0","SS1613082074341","pref_reveal","","40","800","7667.740000016056","null","null","","","","","9","","","","novel","","","",""
"","null","html-keyboard-response","188","707101","0.0-38.0-0.0","SS1613082074341","","","null","","","","","<p><img src= images/blank.png width =""200"" height = ""200"" style = ""float:right""></p><p><img src=images/blank.png width =""800"" height = ""200""></p>","","","","","","","","","","","",""
"","2827.854999981355","sequential-stimulus-presentation","189","710744","0.0-38.0-1.0","SS1613082074341","trial","","40","800","3627.854999981355","images/stimuli/spore_stims/simple_01_B_b.gif","images/stimuli/spore_stims/simple_03_B_b.gif","","","","","10","simple_dissimilar","images/stimuli/spore_stims/simple_03_B_b.gif","right","","","","",""
"","null","html-keyboard-response","190","711698","0.0-38.0-0.1","SS1613082074341","","","null","","","","","<p><img src= images/blank.png width =""200"" height = ""200"" style = ""float:right""></p><p><img src=images/blank.png width =""800"" height = ""200""></p>","","","","","","","","","","","",""
"","1789.3150000018068","sequential-stimulus-presentation","191","714296","0.0-38.0-1.1","SS1613082074341","trial","","40","800","2589.3150000018068","images/stimuli/spore_stims/simple_01_B_b.gif","images/stimuli/spore_stims/simple_03_B_b.gif","","","","","10","simple_dissimilar","images/stimuli/spore_stims/simple_03_B_b.gif","right","","","","",""
"","null","html-keyboard-response","192","715494","0.0-38.0-0.2","SS1613082074341","","","null","","","","","<p><img src= images/blank.png width =""200"" height = ""200"" style = ""float:right""></p><p><img src=images/blank.png width =""800"" height = ""200""></p>","","","","","","","","","","","",""
"","2571.680000022752","sequential-stimulus-presentation","193","718880","0.0-38.0-1.2","SS1613082074341","trial","","40","800","3371.680000022752","images/stimuli/spore_stims/simple_01_B_b.gif","images/stimuli/spore_stims/simple_03_B_b.gif","","","","","10","simple_dissimilar","images/stimuli/spore_stims/simple_03_B_b.gif","right","","","","",""
"","null","html-keyboard-response","194","720040","0.0-38.0-0.3","SS1613082074341","","","null","","","","","<p><img src= images/blank.png width =""200"" height = ""200"" style = ""float:right""></p><p><img src=images/blank.png width =""800"" height = ""200""></p>","","","","","","","","","","","",""
"","1300.6149999855552","sequential-stimulus-presentation","195","722152","0.0-38.0-1.3","SS1613082074341","trial","","40","800","2100.614999985555","images/stimuli/spore_stims/simple_01_B_b.gif","images/stimuli/spore_stims/simple_03_B_b.gif","","","","","10","simple_dissimilar","images/stimuli/spore_stims/simple_03_B_b.gif","right","","","","",""
"","null","html-keyboard-response","196","723144","0.0-38.0-0.4","SS1613082074341","","","null","","","","","<p><img src= images/blank.png width =""200"" height = ""200"" style = ""float:right""></p><p><img src=images/blank.png width =""800"" height = ""200""></p>","","","","","","","","","","","",""
"","4172.294999996666","sequential-stimulus-presentation","197","728127","0.0-38.0-1.4","SS1613082074341","trial","","40","800","4972.294999996666","images/stimuli/spore_stims/simple_01_B_b.gif","images/stimuli/spore_stims/simple_03_B_b.gif","","","","","10","simple_dissimilar","images/stimuli/spore_stims/simple_01_B_b.gif","left","","","","",""
"","null","html-keyboard-response","198","729019","0.0-38.0-0.5","SS1613082074341","","","null","","","","","<p><img src= images/blank.png width =""200"" height = ""200"" style = ""float:right""></p><p><img src=images/blank.png width =""800"" height = ""200""></p>","","","","","","","","","","","",""
"","2328.009999997448","sequential-stimulus-presentation","199","732160","0.0-38.0-1.5","SS1613082074341","trial","","40","800","3128.009999997448","images/stimuli/spore_stims/simple_01_B_b.gif","images/stimuli/spore_stims/simple_03_B_b.gif","","","","","10","simple_dissimilar","images/stimuli/spore_stims/simple_03_B_b.gif","right","","","","",""
"","null","html-keyboard-response","200","733323","0.0-38.0-0.6","SS1613082074341","","","null","","","","","<p><img src= images/blank.png width =""200"" height = ""200"" style = ""float:right""></p><p><img src=images/blank.png width =""800"" height = ""200""></p>","","","","","","","","","","","",""
"","1677.0649999962188","sequential-stimulus-presentation","201","735815","0.0-38.0-1.6","SS1613082074341","trial","","40","800","2477.064999996219","images/stimuli/spore_stims/simple_01_B_b.gif","images/stimuli/spore_stims/simple_03_B_b.gif","","","","","10","simple_dissimilar","images/stimuli/spore_stims/simple_03_B_b.gif","right","","","","",""
"","null","html-keyboard-response","202","736652","0.0-38.0-0.7","SS1613082074341","","","null","","","","","<p><img src= images/blank.png width =""200"" height = ""200"" style = ""float:right""></p><p><img src=images/blank.png width =""800"" height = ""200""></p>","","","","","","","","","","","",""
"","2785.4450000158977","sequential-stimulus-presentation","203","740256","0.0-38.0-1.7","SS1613082074341","trial","","40","800","3585.4450000158977","images/stimuli/spore_stims/simple_01_B_b.gif","images/stimuli/spore_stims/simple_03_B_b.gif","","","","","10","simple_dissimilar","images/stimuli/spore_stims/simple_03_B_b.gif","right","","","","",""
"","3485.1550000021234","html-keyboard-response","204","743744","0.0-39.0","SS1613082074341","pref_question","","97","","","","","<video width ='960' height = '540' style='padding-top:8%' autoplay muted><source src='images/stimuli/wall_pref.mp4' type='video/mp4'></video>","1","left","25%","10","","","","","","","",""
"","5831.01500000339","sequential-stimulus-presentation","205","750392","0.0-40.0","SS1613082074341","pref_reveal","","40","800","6631.01500000339","null","null","","","","","10","","","","deviant","","","",""
"","null","html-keyboard-response","206","751341","0.0-41.0-0.0","SS1613082074341","","","null","","","","","<p><img src= images/blank.png width =""200"" height = ""200"" style = ""float:right""></p><p><img src=images/blank.png width =""800"" height = ""200""></p>","","","","","","","","","","","",""
"","4065.505000005942","sequential-stimulus-presentation","207","756224","0.0-41.0-1.0","SS1613082074341","trial","","40","800","4865.505000005942","images/stimuli/spore_stims/simple_14_B_d.gif","images/stimuli/spore_stims/simple_14_A_d.gif","","","","","11","simple_similar","images/stimuli/spore_stims/simple_14_A_d.gif","left","","","","",""
"","null","html-keyboard-response","208","757175","0.0-41.0-0.1","SS1613082074341","","","null","","","","","<p><img src= images/blank.png width =""200"" height = ""200"" style = ""float:right""></p><p><img src=images/blank.png width =""800"" height = ""200""></p>","","","","","","","","","","","",""
"","2897.5200000277255","sequential-stimulus-presentation","209","760887","0.0-41.0-1.1","SS1613082074341","trial","","40","800","3697.5200000277255","images/stimuli/spore_stims/simple_14_B_d.gif","images/stimuli/spore_stims/simple_14_A_d.gif","","","","","11","simple_similar","images/stimuli/spore_stims/simple_14_A_d.gif","left","","","","",""
"","null","html-keyboard-response","210","761917","0.0-41.0-0.2","SS1613082074341","","","null","","","","","<p><img src= images/blank.png width =""200"" height = ""200"" style = ""float:right""></p><p><img src=images/blank.png width =""800"" height = ""200""></p>","","","","","","","","","","","",""
"","3881.8949999986216","sequential-stimulus-presentation","211","766616","0.0-41.0-1.2","SS1613082074341","trial","","40","800","4681.894999998622","images/stimuli/spore_stims/simple_14_B_d.gif","images/stimuli/spore_stims/simple_14_A_d.gif","","","","","11","simple_similar","images/stimuli/spore_stims/simple_14_A_d.gif","left","","","","",""
"","null","html-keyboard-response","212","767800","0.0-41.0-0.3","SS1613082074341","","","null","","","","","<p><img src= images/blank.png width =""200"" height = ""200"" style = ""float:right""></p><p><img src=images/blank.png width =""800"" height = ""200""></p>","","","","","","","","","","","",""
"","4458.45500001451","sequential-stimulus-presentation","213","773071","0.0-41.0-1.3","SS1613082074341","trial","","40","800","5258.45500001451","images/stimuli/spore_stims/simple_14_B_d.gif","images/stimuli/spore_stims/simple_14_A_d.gif","","","","","11","simple_similar","images/stimuli/spore_stims/simple_14_B_d.gif","middle","","","","",""
"","null","html-keyboard-response","214","774231","0.0-41.0-0.4","SS1613082074341","","","null","","","","","<p><img src= images/blank.png width =""200"" height = ""200"" style = ""float:right""></p><p><img src=images/blank.png width =""800"" height = ""200""></p>","","","","","","","","","","","",""
"","3940.409999981057","sequential-stimulus-presentation","215","778984","0.0-41.0-1.4","SS1613082074341","trial","","40","800","4740.409999981057","images/stimuli/spore_stims/simple_14_B_d.gif","images/stimuli/spore_stims/simple_14_A_d.gif","","","","","11","simple_similar","images/stimuli/spore_stims/simple_14_A_d.gif","left","","","","",""
"","null","html-keyboard-response","216","780230","0.0-41.0-0.5","SS1613082074341","","","null","","","","","<p><img src= images/blank.png width =""200"" height = ""200"" style = ""float:right""></p><p><img src=images/blank.png width =""800"" height = ""200""></p>","","","","","","","","","","","",""
"","1674.26999998861","sequential-stimulus-presentation","217","782720","0.0-41.0-1.5","SS1613082074341","trial","","40","800","2474.26999998861","images/stimuli/spore_stims/simple_14_B_d.gif","images/stimuli/spore_stims/simple_14_A_d.gif","","","","","11","simple_similar","images/stimuli/spore_stims/simple_14_A_d.gif","left","","","","",""
"","null","html-keyboard-response","218","783701","0.0-41.0-0.6","SS1613082074341","","","null","","","","","<p><img src= images/blank.png width =""200"" height = ""200"" style = ""float:right""></p><p><img src=images/blank.png width =""800"" height = ""200""></p>","","","","","","","","","","","",""
"","1366.2900000053924","sequential-stimulus-presentation","219","785879","0.0-41.0-1.6","SS1613082074341","trial","","40","800","2166.2900000053924","images/stimuli/spore_stims/simple_14_B_d.gif","images/stimuli/spore_stims/simple_14_A_d.gif","","","","","11","simple_similar","images/stimuli/spore_stims/simple_14_A_d.gif","left","","","","",""
"","null","html-keyboard-response","220","787050","0.0-41.0-0.7","SS1613082074341","","","null","","","","","<p><img src= images/blank.png width =""200"" height = ""200"" style = ""float:right""></p><p><img src=images/blank.png width =""800"" height = ""200""></p>","","","","","","","","","","","",""
"","827.6949999853969","sequential-stimulus-presentation","221","788688","0.0-41.0-1.7","SS1613082074341","trial","","40","800","1627.6949999853969","images/stimuli/spore_stims/simple_14_B_d.gif","images/stimuli/spore_stims/simple_14_A_d.gif","","","","","11","simple_similar","images/stimuli/spore_stims/simple_14_A_d.gif","left","","","","",""
"","2388.6149999743793","html-keyboard-response","222","791080","0.0-42.0","SS1613082074341","pref_question","","99","","","","","<video width ='960' height = '540' style='padding-top:8%' autoplay muted><source src='images/stimuli/wall_pref.mp4' type='video/mp4'></video>","3","right","66%","11","","","","","","","",""
"","6038.4199999971315","sequential-stimulus-presentation","223","797927","0.0-43.0","SS1613082074341","pref_reveal","","40","800","6838.4199999971315","null","null","","","","","11","","","","novel","","","",""
"","null","html-keyboard-response","224","799203","0.0-44.0-0.0","SS1613082074341","","","null","","","","","<p><img src= images/blank.png width =""200"" height = ""200"" style = ""float:right""></p><p><img src=images/blank.png width =""800"" height = ""200""></p>","","","","","","","","","","","",""
"","2105.8799999882467","sequential-stimulus-presentation","225","802120","0.0-44.0-1.0","SS1613082074341","trial","","40","800","2905.8799999882467","images/stimuli/spore_stims/simple_04_B_c.gif","images/stimuli/spore_stims/simple_04_A_c.gif","","","","","12","simple_similar","images/stimuli/spore_stims/simple_04_A_c.gif","left","","","","",""
"","null","html-keyboard-response","226","802956","0.0-44.0-0.1","SS1613082074341","","","null","","","","","<p><img src= images/blank.png width =""200"" height = ""200"" style = ""float:right""></p><p><img src=images/blank.png width =""800"" height = ""200""></p>","","","","","","","","","","","",""
"","907.3750000097789","sequential-stimulus-presentation","227","804679","0.0-44.0-1.1","SS1613082074341","trial","","40","800","1707.375000009779","images/stimuli/spore_stims/simple_04_B_c.gif","images/stimuli/spore_stims/simple_04_A_c.gif","","","","","12","simple_similar","images/stimuli/spore_stims/simple_04_A_c.gif","left","","","","",""
"","null","html-keyboard-response","228","805531","0.0-44.0-0.2","SS1613082074341","","","null","","","","","<p><img src= images/blank.png width =""200"" height = ""200"" style = ""float:right""></p><p><img src=images/blank.png width =""800"" height = ""200""></p>","","","","","","","","","","","",""
"","1190.9800000139512","sequential-stimulus-presentation","229","807535","0.0-44.0-1.2","SS1613082074341","trial","","40","800","1990.9800000139512","images/stimuli/spore_stims/simple_04_B_c.gif","images/stimuli/spore_stims/simple_04_A_c.gif","","","","","12","simple_similar","images/stimuli/spore_stims/simple_04_A_c.gif","left","","","","",""
"","null","html-keyboard-response","230","808438","0.0-44.0-0.3","SS1613082074341","","","null","","","","","<p><img src= images/blank.png width =""200"" height = ""200"" style = ""float:right""></p><p><img src=images/blank.png width =""800"" height = ""200""></p>","","","","","","","","","","","",""
"","1795.0649999838788","sequential-stimulus-presentation","231","811047","0.0-44.0-1.3","SS1613082074341","trial","","40","800","2595.064999983879","images/stimuli/spore_stims/simple_04_B_c.gif","images/stimuli/spore_stims/simple_04_A_c.gif","","","","","12","simple_similar","images/stimuli/spore_stims/simple_04_A_c.gif","left","","","","",""
"","null","html-keyboard-response","232","812312","0.0-44.0-0.4","SS1613082074341","","","null","","","","","<p><img src= images/blank.png width =""200"" height = ""200"" style = ""float:right""></p><p><img src=images/blank.png width =""800"" height = ""200""></p>","","","","","","","","","","","",""
"","1704.729999997653","sequential-stimulus-presentation","233","814824","0.0-44.0-1.4","SS1613082074341","trial","","40","800","2504.729999997653","images/stimuli/spore_stims/simple_04_B_c.gif","images/stimuli/spore_stims/simple_04_A_c.gif","","","","","12","simple_similar","images/stimuli/spore_stims/simple_04_A_c.gif","left","","","","",""
"","null","html-keyboard-response","234","815972","0.0-44.0-0.5","SS1613082074341","","","null","","","","","<p><img src= images/blank.png width =""200"" height = ""200"" style = ""float:right""></p><p><img src=images/blank.png width =""800"" height = ""200""></p>","","","","","","","","","","","",""
"","3601.909999997588","sequential-stimulus-presentation","235","820392","0.0-44.0-1.5","SS1613082074341","trial","","40","800","4401.909999997588","images/stimuli/spore_stims/simple_04_B_c.gif","images/stimuli/spore_stims/simple_04_A_c.gif","","","","","12","simple_similar","images/stimuli/spore_stims/simple_04_B_c.gif","right","","","","",""
"","null","html-keyboard-response","236","821359","0.0-44.0-0.6","SS1613082074341","","","null","","","","","<p><img src= images/blank.png width =""200"" height = ""200"" style = ""float:right""></p><p><img src=images/blank.png width =""800"" height = ""200""></p>","","","","","","","","","","","",""
"","1930.0099999818485","sequential-stimulus-presentation","237","824104","0.0-44.0-1.6","SS1613082074341","trial","","40","800","2730.0099999818485","images/stimuli/spore_stims/simple_04_B_c.gif","images/stimuli/spore_stims/simple_04_A_c.gif","","","","","12","simple_similar","images/stimuli/spore_stims/simple_04_A_c.gif","left","","","","",""
"","null","html-keyboard-response","238","825237","0.0-44.0-0.7","SS1613082074341","","","null","","","","","<p><img src= images/blank.png width =""200"" height = ""200"" style = ""float:right""></p><p><img src=images/blank.png width =""800"" height = ""200""></p>","","","","","","","","","","","",""
"","1150.5149999866262","sequential-stimulus-presentation","239","827200","0.0-44.0-1.7","SS1613082074341","trial","","40","800","1950.5149999866262","images/stimuli/spore_stims/simple_04_B_c.gif","images/stimuli/spore_stims/simple_04_A_c.gif","","","","","12","simple_similar","images/stimuli/spore_stims/simple_04_A_c.gif","left","","","","",""
"","2564.184999995632","html-keyboard-response","240","829767","0.0-45.0","SS1613082074341","pref_question","","98","","","","","<video width ='960' height = '540' style='padding-top:8%' autoplay muted><source src='images/stimuli/wall_pref.mp4' type='video/mp4'></video>","2","middle","45%","12","","","","","","","",""
"","6331.049999978859","sequential-stimulus-presentation","241","836911","0.0-46.0","SS1613082074341","pref_reveal","","40","800","7131.049999978859","null","null","","","","","12","","","","novel","","","",""
"","null","html-keyboard-response","242","838126","0.0-47.0-0.0","SS1613082074341","","","null","","","","","<p><img src= images/blank.png width =""200"" height = ""200"" style = ""float:right""></p><p><img src=images/blank.png width =""800"" height = ""200""></p>","","","","","","","","","","","",""
"","3863.355000008596","sequential-stimulus-presentation","243","842799","0.0-47.0-1.0","SS1613082074341","trial","","40","800","4663.355000008596","images/stimuli/spore_stims/complex_15_A_b.gif","images/stimuli/spore_stims/complex_15_B_b.gif","","","","","13","complex_similar","images/stimuli/spore_stims/complex_15_B_b.gif","right","","","","",""
"","null","html-keyboard-response","244","843829","0.0-47.0-0.1","SS1613082074341","","","null","","","","","<p><img src= images/blank.png width =""200"" height = ""200"" style = ""float:right""></p><p><img src=images/blank.png width =""800"" height = ""200""></p>","","","","","","","","","","","",""
"","360.8049999747891","sequential-stimulus-presentation","245","845007","0.0-47.0-1.1","SS1613082074341","trial","","40","800","1160.804999974789","images/stimuli/spore_stims/complex_15_A_b.gif","images/stimuli/spore_stims/complex_15_B_b.gif","","","","","13","complex_similar","images/stimuli/spore_stims/complex_15_B_b.gif","right","","","","",""
"","null","html-keyboard-response","246","846310","0.0-47.0-0.2","SS1613082074341","","","null","","","","","<p><img src= images/blank.png width =""200"" height = ""200"" style = ""float:right""></p><p><img src=images/blank.png width =""800"" height = ""200""></p>","","","","","","","","","","","",""
"","1485.1550000021234","sequential-stimulus-presentation","247","848615","0.0-47.0-1.2","SS1613082074341","trial","","40","800","2285.1550000021234","images/stimuli/spore_stims/complex_15_A_b.gif","images/stimuli/spore_stims/complex_15_B_b.gif","","","","","13","complex_similar","images/stimuli/spore_stims/complex_15_B_b.gif","right","","","","",""
"","null","html-keyboard-response","248","849816","0.0-47.0-0.3","SS1613082074341","","","null","","","","","<p><img src= images/blank.png width =""200"" height = ""200"" style = ""float:right""></p><p><img src=images/blank.png width =""800"" height = ""200""></p>","","","","","","","","","","","",""
"","1196.9000000099186","sequential-stimulus-presentation","249","851823","0.0-47.0-1.3","SS1613082074341","trial","","40","800","1996.9000000099186","images/stimuli/spore_stims/complex_15_A_b.gif","images/stimuli/spore_stims/complex_15_B_b.gif","","","","","13","complex_similar","images/stimuli/spore_stims/complex_15_B_b.gif","right","","","","",""
"","null","html-keyboard-response","250","852642","0.0-47.0-0.4","SS1613082074341","","","null","","","","","<p><img src= images/blank.png width =""200"" height = ""200"" style = ""float:right""></p><p><img src=images/blank.png width =""800"" height = ""200""></p>","","","","","","","","","","","",""
"","817.2199999971781","sequential-stimulus-presentation","251","854271","0.0-47.0-1.4","SS1613082074341","trial","","40","800","1617.219999997178","images/stimuli/spore_stims/complex_15_A_b.gif","images/stimuli/spore_stims/complex_15_B_b.gif","","","","","13","complex_similar","images/stimuli/spore_stims/complex_15_B_b.gif","right","","","","",""
"","null","html-keyboard-response","252","855346","0.0-47.0-0.5","SS1613082074341","","","null","","","","","<p><img src= images/blank.png width =""200"" height = ""200"" style = ""float:right""></p><p><img src=images/blank.png width =""800"" height = ""200""></p>","","","","","","","","","","","",""
"","547.5699999951757","sequential-stimulus-presentation","253","856703","0.0-47.0-1.5","SS1613082074341","trial","","40","800","1347.5699999951757","images/stimuli/spore_stims/complex_15_A_b.gif","images/stimuli/spore_stims/complex_15_B_b.gif","","","","","13","complex_similar","images/stimuli/spore_stims/complex_15_B_b.gif","right","","","","",""
"","null","html-keyboard-response","254","857720","0.0-47.0-0.6","SS1613082074341","","","null","","","","","<p><img src= images/blank.png width =""200"" height = ""200"" style = ""float:right""></p><p><img src=images/blank.png width =""800"" height = ""200""></p>","","","","","","","","","","","",""
"","3708.489999989979","sequential-stimulus-presentation","255","862239","0.0-47.0-1.6","SS1613082074341","trial","","40","800","4508.489999989979","images/stimuli/spore_stims/complex_15_A_b.gif","images/stimuli/spore_stims/complex_15_B_b.gif","","","","","13","complex_similar","images/stimuli/spore_stims/complex_15_A_b.gif","left","","","","",""
"","null","html-keyboard-response","256","863219","0.0-47.0-0.7","SS1613082074341","","","null","","","","","<p><img src= images/blank.png width =""200"" height = ""200"" style = ""float:right""></p><p><img src=images/blank.png width =""800"" height = ""200""></p>","","","","","","","","","","","",""
"","2358.444999990752","sequential-stimulus-presentation","257","866391","0.0-47.0-1.7","SS1613082074341","trial","","40","800","3158.444999990752","images/stimuli/spore_stims/complex_15_A_b.gif","images/stimuli/spore_stims/complex_15_B_b.gif","","","","","13","complex_similar","images/stimuli/spore_stims/complex_15_B_b.gif","right","","","","",""
"","2107.654999999795","html-keyboard-response","258","868503","0.0-48.0","SS1613082074341","pref_question","","98","","","","","<video width ='960' height = '540' style='padding-top:8%' autoplay muted><source src='images/stimuli/wall_pref.mp4' type='video/mp4'></video>","2","middle","45%","13","","","","","","","",""
"","6190.0750000204425","sequential-stimulus-presentation","259","875511","0.0-49.0","SS1613082074341","pref_reveal","","40","800","6990.0750000204425","null","null","","","","","13","","","","novel","","","",""
"","null","html-keyboard-response","260","876347","0.0-50.0-0.0","SS1613082074341","","","null","","","","","<p><img src= images/blank.png width =""200"" height = ""200"" style = ""float:right""></p><p><img src=images/blank.png width =""800"" height = ""200""></p>","","","","","","","","","","","",""
"","3846.514999982901","sequential-stimulus-presentation","261","881007","0.0-50.0-1.0","SS1613082074341","trial","","40","800","4646.514999982901","images/stimuli/spore_stims/simple_09_B_d.gif","images/stimuli/spore_stims/simple_02_A_a.gif","","","","","14","simple_dissimilar","images/stimuli/spore_stims/simple_02_A_a.gif","middle","","","","",""
"","null","html-keyboard-response","262","881894","0.0-50.0-0.1","SS1613082074341","","","null","","","","","<p><img src= images/blank.png width =""200"" height = ""200"" style = ""float:right""></p><p><img src=images/blank.png width =""800"" height = ""200""></p>","","","","","","","","","","","",""
"","1403.6550000018906","sequential-stimulus-presentation","263","884111","0.0-50.0-1.1","SS1613082074341","trial","","40","800","2203.6550000018906","images/stimuli/spore_stims/simple_09_B_d.gif","images/stimuli/spore_stims/simple_02_A_a.gif","","","","","14","simple_dissimilar","images/stimuli/spore_stims/simple_02_A_a.gif","middle","","","","",""
"","null","html-keyboard-response","264","885311","0.0-50.0-0.2","SS1613082074341","","","null","","","","","<p><img src= images/blank.png width =""200"" height = ""200"" style = ""float:right""></p><p><img src=images/blank.png width =""800"" height = ""200""></p>","","","","","","","","","","","",""
"","3627.069999987725","sequential-stimulus-presentation","265","889751","0.0-50.0-1.2","SS1613082074341","trial","","40","800","4427.069999987725","images/stimuli/spore_stims/simple_09_B_d.gif","images/stimuli/spore_stims/simple_02_A_a.gif","","","","","14","simple_dissimilar","images/stimuli/spore_stims/simple_09_B_d.gif","left","","","","",""
"","null","html-keyboard-response","266","890753","0.0-50.0-0.3","SS1613082074341","","","null","","","","","<p><img src= images/blank.png width =""200"" height = ""200"" style = ""float:right""></p><p><img src=images/blank.png width =""800"" height = ""200""></p>","","","","","","","","","","","",""
"","1424.830000003567","sequential-stimulus-presentation","267","892991","0.0-50.0-1.3","SS1613082074341","trial","","40","800","2224.830000003567","images/stimuli/spore_stims/simple_09_B_d.gif","images/stimuli/spore_stims/simple_02_A_a.gif","","","","","14","simple_dissimilar","images/stimuli/spore_stims/simple_02_A_a.gif","middle","","","","",""
"","null","html-keyboard-response","268","894250","0.0-50.0-0.4","SS1613082074341","","","null","","","","","<p><img src= images/blank.png width =""200"" height = ""200"" style = ""float:right""></p><p><img src=images/blank.png width =""800"" height = ""200""></p>","","","","","","","","","","","",""
"","1846.7900000105146","sequential-stimulus-presentation","269","896911","0.0-50.0-1.4","SS1613082074341","trial","","40","800","2646.7900000105146","images/stimuli/spore_stims/simple_09_B_d.gif","images/stimuli/spore_stims/simple_02_A_a.gif","","","","","14","simple_dissimilar","images/stimuli/spore_stims/simple_02_A_a.gif","middle","","","","",""
"","null","html-keyboard-response","270","898052","0.0-50.0-0.5","SS1613082074341","","","null","","","","","<p><img src= images/blank.png width =""200"" height = ""200"" style = ""float:right""></p><p><img src=images/blank.png width =""800"" height = ""200""></p>","","","","","","","","","","","",""
"","560.3199999895878","sequential-stimulus-presentation","271","899423","0.0-50.0-1.5","SS1613082074341","trial","","40","800","1360.3199999895878","images/stimuli/spore_stims/simple_09_B_d.gif","images/stimuli/spore_stims/simple_02_A_a.gif","","","","","14","simple_dissimilar","images/stimuli/spore_stims/simple_02_A_a.gif","middle","","","","",""
"","null","html-keyboard-response","272","900234","0.0-50.0-0.6","SS1613082074341","","","null","","","","","<p><img src= images/blank.png width =""200"" height = ""200"" style = ""float:right""></p><p><img src=images/blank.png width =""800"" height = ""200""></p>","","","","","","","","","","","",""
"","660.2049999928568","sequential-stimulus-presentation","273","901711","0.0-50.0-1.6","SS1613082074341","trial","","40","800","1460.2049999928568","images/stimuli/spore_stims/simple_09_B_d.gif","images/stimuli/spore_stims/simple_02_A_a.gif","","","","","14","simple_dissimilar","images/stimuli/spore_stims/simple_02_A_a.gif","middle","","","","",""
"","null","html-keyboard-response","274","902832","0.0-50.0-0.7","SS1613082074341","","","null","","","","","<p><img src= images/blank.png width =""200"" height = ""200"" style = ""float:right""></p><p><img src=images/blank.png width =""800"" height = ""200""></p>","","","","","","","","","","","",""
"","458.2499999960419","sequential-stimulus-presentation","275","904103","0.0-50.0-1.7","SS1613082074341","trial","","40","800","1258.2499999960419","images/stimuli/spore_stims/simple_09_B_d.gif","images/stimuli/spore_stims/simple_02_A_a.gif","","","","","14","simple_dissimilar","images/stimuli/spore_stims/simple_02_A_a.gif","middle","","","","",""
"","1949.7300000221003","html-keyboard-response","276","906063","0.0-51.0","SS1613082074341","pref_question","","99","","","","","<video width ='960' height = '540' style='padding-top:8%' autoplay muted><source src='images/stimuli/wall_pref.mp4' type='video/mp4'></video>","3","right","66%","14","","","","","","","",""
"","6401.799999992363","sequential-stimulus-presentation","277","913279","0.0-52.0","SS1613082074341","pref_reveal","","40","800","7201.799999992363","null","null","","","","","14","","","","novel","","","",""
"","null","html-keyboard-response","278","914112","0.0-53.0-0.0","SS1613082074341","","","null","","","","","<p><img src= images/blank.png width =""200"" height = ""200"" style = ""float:right""></p><p><img src=images/blank.png width =""800"" height = ""200""></p>","","","","","","","","","","","",""
"","4382.095000008121","sequential-stimulus-presentation","279","919311","0.0-53.0-1.0","SS1613082074341","trial","","40","800","5182.095000008121","images/stimuli/spore_stims/complex_05_A_d.gif","images/stimuli/spore_stims/complex_20_A_a.gif","","","","","15","complex_dissimilar","images/stimuli/spore_stims/complex_20_A_a.gif","right","","","","",""
"","null","html-keyboard-response","280","920149","0.0-53.0-0.1","SS1613082074341","","","null","","","","","<p><img src= images/blank.png width =""200"" height = ""200"" style = ""float:right""></p><p><img src=images/blank.png width =""800"" height = ""200""></p>","","","","","","","","","","","",""
"","2071.025000012014","sequential-stimulus-presentation","281","923031","0.0-53.0-1.1","SS1613082074341","trial","","40","800","2871.025000012014","images/stimuli/spore_stims/complex_05_A_d.gif","images/stimuli/spore_stims/complex_20_A_a.gif","","","","","15","complex_dissimilar","images/stimuli/spore_stims/complex_20_A_a.gif","right","","","","",""
"","null","html-keyboard-response","282","923927","0.0-53.0-0.2","SS1613082074341","","","null","","","","","<p><img src= images/blank.png width =""200"" height = ""200"" style = ""float:right""></p><p><img src=images/blank.png width =""800"" height = ""200""></p>","","","","","","","","","","","",""
"","1477.6049999927636","sequential-stimulus-presentation","283","926215","0.0-53.0-1.2","SS1613082074341","trial","","40","800","2277.6049999927636","images/stimuli/spore_stims/complex_05_A_d.gif","images/stimuli/spore_stims/complex_20_A_a.gif","","","","","15","complex_dissimilar","images/stimuli/spore_stims/complex_20_A_a.gif","right","","","","",""
"","null","html-keyboard-response","284","927056","0.0-53.0-0.3","SS1613082074341","","","null","","","","","<p><img src= images/blank.png width =""200"" height = ""200"" style = ""float:right""></p><p><img src=images/blank.png width =""800"" height = ""200""></p>","","","","","","","","","","","",""
"","934.1399999975692","sequential-stimulus-presentation","285","928799","0.0-53.0-1.3","SS1613082074341","trial","","40","800","1734.1399999975692","images/stimuli/spore_stims/complex_05_A_d.gif","images/stimuli/spore_stims/complex_20_A_a.gif","","","","","15","complex_dissimilar","images/stimuli/spore_stims/complex_20_A_a.gif","right","","","","",""
"","null","html-keyboard-response","286","929996","0.0-53.0-0.4","SS1613082074341","","","null","","","","","<p><img src= images/blank.png width =""200"" height = ""200"" style = ""float:right""></p><p><img src=images/blank.png width =""800"" height = ""200""></p>","","","","","","","","","","","",""
"","3815.570000006119","sequential-stimulus-presentation","287","934624","0.0-53.0-1.4","SS1613082074341","trial","","40","800","4615.570000006119","images/stimuli/spore_stims/complex_05_A_d.gif","images/stimuli/spore_stims/complex_20_A_a.gif","","","","","15","complex_dissimilar","images/stimuli/spore_stims/complex_05_A_d.gif","left","","","","",""
"","null","html-keyboard-response","288","935614","0.0-53.0-0.5","SS1613082074341","","","null","","","","","<p><img src= images/blank.png width =""200"" height = ""200"" style = ""float:right""></p><p><img src=images/blank.png width =""800"" height = ""200""></p>","","","","","","","","","","","",""
"","862.0900000096299","sequential-stimulus-presentation","289","937287","0.0-53.0-1.5","SS1613082074341","trial","","40","800","1662.0900000096299","images/stimuli/spore_stims/complex_05_A_d.gif","images/stimuli/spore_stims/complex_20_A_a.gif","","","","","15","complex_dissimilar","images/stimuli/spore_stims/complex_20_A_a.gif","right","","","","",""
"","null","html-keyboard-response","290","938569","0.0-53.0-0.6","SS1613082074341","","","null","","","","","<p><img src= images/blank.png width =""200"" height = ""200"" style = ""float:right""></p><p><img src=images/blank.png width =""800"" height = ""200""></p>","","","","","","","","","","","",""
"","617.0750000164844","sequential-stimulus-presentation","291","939999","0.0-53.0-1.6","SS1613082074341","trial","","40","800","1417.0750000164844","images/stimuli/spore_stims/complex_05_A_d.gif","images/stimuli/spore_stims/complex_20_A_a.gif","","","","","15","complex_dissimilar","images/stimuli/spore_stims/complex_20_A_a.gif","right","","","","",""
"","null","html-keyboard-response","292","940877","0.0-53.0-0.7","SS1613082074341","","","null","","","","","<p><img src= images/blank.png width =""200"" height = ""200"" style = ""float:right""></p><p><img src=images/blank.png width =""800"" height = ""200""></p>","","","","","","","","","","","",""
"","814.4050000119023","sequential-stimulus-presentation","293","942503","0.0-53.0-1.7","SS1613082074341","trial","","40","800","1614.4050000119023","images/stimuli/spore_stims/complex_05_A_d.gif","images/stimuli/spore_stims/complex_20_A_a.gif","","","","","15","complex_dissimilar","images/stimuli/spore_stims/complex_20_A_a.gif","right","","","","",""
"","2372.5650000269525","html-keyboard-response","294","944880","0.0-54.0","SS1613082074341","pref_question","","98","","","","","<video width ='960' height = '540' style='padding-top:8%' autoplay muted><source src='images/stimuli/wall_pref.mp4' type='video/mp4'></video>","2","middle","45%","15","","","","","","","",""
"","4895.155000005616","sequential-stimulus-presentation","295","950591","0.0-55.0","SS1613082074341","pref_reveal","","40","800","5695.155000005616","null","null","","","","","15","","","","novel","","","",""
"","null","html-keyboard-response","296","951616","0.0-56.0-0.0","SS1613082074341","","","null","","","","","<p><img src= images/blank.png width =""200"" height = ""200"" style = ""float:right""></p><p><img src=images/blank.png width =""800"" height = ""200""></p>","","","","","","","","","","","",""
"","3225.640000018757","sequential-stimulus-presentation","297","955655","0.0-56.0-1.0","SS1613082074341","trial","","40","800","4025.640000018757","images/stimuli/spore_stims/simple_07_B_a.gif","images/stimuli/spore_stims/simple_07_A_a.gif","","","","","16","simple_similar","images/stimuli/spore_stims/simple_07_A_a.gif","left","","","","",""
"","null","html-keyboard-response","298","956717","0.0-56.0-0.1","SS1613082074341","","","null","","","","","<p><img src= images/blank.png width =""200"" height = ""200"" style = ""float:right""></p><p><img src=images/blank.png width =""800"" height = ""200""></p>","","","","","","","","","","","",""
"","2612.0949999894947","sequential-stimulus-presentation","299","960143","0.0-56.0-1.1","SS1613082074341","trial","","40","800","3412.0949999894947","images/stimuli/spore_stims/simple_07_B_a.gif","images/stimuli/spore_stims/simple_07_A_a.gif","","","","","16","simple_similar","images/stimuli/spore_stims/simple_07_A_a.gif","left","","","","",""
"","null","html-keyboard-response","300","961280","0.0-56.0-0.2","SS1613082074341","","","null","","","","","<p><img src= images/blank.png width =""200"" height = ""200"" style = ""float:right""></p><p><img src=images/blank.png width =""800"" height = ""200""></p>","","","","","","","","","","","",""
"","1151.289999979781","sequential-stimulus-presentation","301","963245","0.0-56.0-1.2","SS1613082074341","trial","","40","800","1951.289999979781","images/stimuli/spore_stims/simple_07_B_a.gif","images/stimuli/spore_stims/simple_07_A_a.gif","","","","","16","simple_similar","images/stimuli/spore_stims/simple_07_A_a.gif","left","","","","",""
"","null","html-keyboard-response","302","964389","0.0-56.0-0.3","SS1613082074341","","","null","","","","","<p><img src= images/blank.png width =""200"" height = ""200"" style = ""float:right""></p><p><img src=images/blank.png width =""800"" height = ""200""></p>","","","","","","","","","","","",""
"","1328.125","sequential-stimulus-presentation","303","966534","0.0-56.0-1.3","SS1613082074341","trial","","40","800","2128.125","images/stimuli/spore_stims/simple_07_B_a.gif","images/stimuli/spore_stims/simple_07_A_a.gif","","","","","16","simple_similar","images/stimuli/spore_stims/simple_07_B_a.gif","middle","","","","",""
"","null","html-keyboard-response","304","967483","0.0-56.0-0.4","SS1613082074341","","","null","","","","","<p><img src= images/blank.png width =""200"" height = ""200"" style = ""float:right""></p><p><img src=images/blank.png width =""800"" height = ""200""></p>","","","","","","","","","","","",""
"","1849.900000001071","sequential-stimulus-presentation","305","970149","0.0-56.0-1.4","SS1613082074341","trial","","40","800","2649.900000001071","images/stimuli/spore_stims/simple_07_B_a.gif","images/stimuli/spore_stims/simple_07_A_a.gif","","","","","16","simple_similar","images/stimuli/spore_stims/simple_07_A_a.gif","left","","","","",""
"","null","html-keyboard-response","306","971161","0.0-56.0-0.5","SS1613082074341","","","null","","","","","<p><img src= images/blank.png width =""200"" height = ""200"" style = ""float:right""></p><p><img src=images/blank.png width =""800"" height = ""200""></p>","","","","","","","","","","","",""
"","1367.1399999875575","sequential-stimulus-presentation","307","973341","0.0-56.0-1.5","SS1613082074341","trial","","40","800","2167.1399999875575","images/stimuli/spore_stims/simple_07_B_a.gif","images/stimuli/spore_stims/simple_07_A_a.gif","","","","","16","simple_similar","images/stimuli/spore_stims/simple_07_A_a.gif","left","","","","",""
"","null","html-keyboard-response","308","974638","0.0-56.0-0.6","SS1613082074341","","","null","","","","","<p><img src= images/blank.png width =""200"" height = ""200"" style = ""float:right""></p><p><img src=images/blank.png width =""800"" height = ""200""></p>","","","","","","","","","","","",""
"","1029.2649999901187","sequential-stimulus-presentation","309","976477","0.0-56.0-1.6","SS1613082074341","trial","","40","800","1829.2649999901187","images/stimuli/spore_stims/simple_07_B_a.gif","images/stimuli/spore_stims/simple_07_A_a.gif","","","","","16","simple_similar","images/stimuli/spore_stims/simple_07_A_a.gif","left","","","","",""
"","null","html-keyboard-response","310","977389","0.0-56.0-0.7","SS1613082074341","","","null","","","","","<p><img src= images/blank.png width =""200"" height = ""200"" style = ""float:right""></p><p><img src=images/blank.png width =""800"" height = ""200""></p>","","","","","","","","","","","",""
"","589.1950000077486","sequential-stimulus-presentation","311","978790","0.0-56.0-1.7","SS1613082074341","trial","","40","800","1389.1950000077486","images/stimuli/spore_stims/simple_07_B_a.gif","images/stimuli/spore_stims/simple_07_A_a.gif","","","","","16","simple_similar","images/stimuli/spore_stims/simple_07_A_a.gif","left","","","","",""
"","2427.499999990687","html-keyboard-response","312","981222","0.0-57.0","SS1613082074341","pref_question","","99","","","","","<video width ='960' height = '540' style='padding-top:8%' autoplay muted><source src='images/stimuli/wall_pref.mp4' type='video/mp4'></video>","3","right","66%","16","","","","","","","",""
