"view_history","rt","trial_type","trial_index","time_elapsed","internal_node_id","subject","stimulus_type","trial_stimulus","key_press","minimum_viewing_duration","trial_looking_time","block_deviant","block_background","stimulus","wall_pref","location","location_percent","block_number","block_type","stimulus_displayed","position_displayed","stim_type_selected","responses","question_order","stimulus_left","stimulus_right"
"[{""page_index"":0,""viewing_time"":10067.540000018198}]","10068.440000002738","instructions","0","10070","0.0-0.0","SS1613081503116","","","","","","","","","","","","","","","","","","","",""
"[{""page_index"":0,""viewing_time"":16861.800000013318},{""page_index"":1,""viewing_time"":13207.954999990761}]","30069.985000009183","instructions","1","42148","0.0-1.0","SS1613081503116","instructions","","","","","","","","","","","","","","","","","","",""
"","14579.964999982622","sequential-stimulus-presentation","2","57540","0.0-2.0","SS1613081503116","","","40","800","15379.964999982622","null","null","","","","","","","","","","","","",""
"","7780.535000027157","sequential-stimulus-presentation","3","66137","0.0-3.0","SS1613081503116","","","40","800","8580.535000027157","null","null","","","","","","","","","","","","",""
"[{""page_index"":0,""viewing_time"":7800.884999975096}]","7801.1149999802","instructions","4","73940","0.0-4.0","SS1613081503116","instructions","","","","","","","","","","","","","","","","","","",""
"","24499.714999983553","html-keyboard-response","5","98442","0.0-5.0","SS1613081503116","instructions","","49","","","","","<video width ='960' height = '540' autoplay muted><source src='images/stimuli/wall_pref.mp4' type='video/mp4'></video>","1","left","25%","","","","","","","","",""
"","4700.040000025183","sequential-stimulus-presentation","6","103954","0.0-6.0","SS1613081503116","pref_reveal","","40","800","5500.040000025183","null","null","","","","","","","","","","","","",""
"[{""page_index"":0,""viewing_time"":20800.73000001721},{""page_index"":1,""viewing_time"":9812.22500000149},{""page_index"":2,""viewing_time"":2035.8449999475852},{""page_index"":3,""viewing_time"":1752.0550000481308}]","34401.07500000158","instructions","7","138356","0.0-7.0","SS1613081503116","instructions","","","","","","","","","","","","","","","","","","",""
"","null","html-keyboard-response","8","139408","0.0-8.0-0.0","SS1613081503116","","","null","","","","","<p><img src= images/blank.png width =""200"" height = ""200"" style = ""float:right""></p><p><img src=images/blank.png width =""800"" height = ""200""></p>","","","","","","","","","","","",""
"","5332.909999997355","sequential-stimulus-presentation","9","145546","0.0-8.0-1.0","SS1613081503116","trial","","40","800","6132.909999997355","images/stimuli/spore_stims/simple_17_A_d.gif","images/stimuli/spore_stims/simple_17_B_d.gif","","","","","0","simple_similar","images/stimuli/spore_stims/simple_17_B_d.gif","right","","","","",""
"","null","html-keyboard-response","10","146613","0.0-8.0-0.1","SS1613081503116","","","null","","","","","<p><img src= images/blank.png width =""200"" height = ""200"" style = ""float:right""></p><p><img src=images/blank.png width =""800"" height = ""200""></p>","","","","","","","","","","","",""
"","2935.1299999980256","sequential-stimulus-presentation","11","150363","0.0-8.0-1.1","SS1613081503116","trial","","40","800","3735.1299999980256","images/stimuli/spore_stims/simple_17_A_d.gif","images/stimuli/spore_stims/simple_17_B_d.gif","","","","","0","simple_similar","images/stimuli/spore_stims/simple_17_B_d.gif","right","","","","",""
"","null","html-keyboard-response","12","151558","0.0-8.0-0.2","SS1613081503116","","","null","","","","","<p><img src= images/blank.png width =""200"" height = ""200"" style = ""float:right""></p><p><img src=images/blank.png width =""800"" height = ""200""></p>","","","","","","","","","","","",""
"","4385.360000014771","sequential-stimulus-presentation","13","156754","0.0-8.0-1.2","SS1613081503116","trial","","40","800","5185.360000014771","images/stimuli/spore_stims/simple_17_A_d.gif","images/stimuli/spore_stims/simple_17_B_d.gif","","","","","0","simple_similar","images/stimuli/spore_stims/simple_17_B_d.gif","right","","","","",""
"","null","html-keyboard-response","14","158024","0.0-8.0-0.3","SS1613081503116","","","null","","","","","<p><img src= images/blank.png width =""200"" height = ""200"" style = ""float:right""></p><p><img src=images/blank.png width =""800"" height = ""200""></p>","","","","","","","","","","","",""
"","3485.584999958519","sequential-stimulus-presentation","15","162323","0.0-8.0-1.3","SS1613081503116","trial","","40","800","4285.584999958519","images/stimuli/spore_stims/simple_17_A_d.gif","images/stimuli/spore_stims/simple_17_B_d.gif","","","","","0","simple_similar","images/stimuli/spore_stims/simple_17_B_d.gif","right","","","","",""
"","null","html-keyboard-response","16","163204","0.0-8.0-0.4","SS1613081503116","","","null","","","","","<p><img src= images/blank.png width =""200"" height = ""200"" style = ""float:right""></p><p><img src=images/blank.png width =""800"" height = ""200""></p>","","","","","","","","","","","",""
"","6343.389999994542","sequential-stimulus-presentation","17","170362","0.0-8.0-1.4","SS1613081503116","trial","","40","800","7143.389999994542","images/stimuli/spore_stims/simple_17_A_d.gif","images/stimuli/spore_stims/simple_17_B_d.gif","","","","","0","simple_similar","images/stimuli/spore_stims/simple_17_A_d.gif","middle","","","","",""
"","null","html-keyboard-response","18","171357","0.0-8.0-0.5","SS1613081503116","","","null","","","","","<p><img src= images/blank.png width =""200"" height = ""200"" style = ""float:right""></p><p><img src=images/blank.png width =""800"" height = ""200""></p>","","","","","","","","","","","",""
"","1728.400000021793","sequential-stimulus-presentation","19","173891","0.0-8.0-1.5","SS1613081503116","trial","","40","800","2528.400000021793","images/stimuli/spore_stims/simple_17_A_d.gif","images/stimuli/spore_stims/simple_17_B_d.gif","","","","","0","simple_similar","images/stimuli/spore_stims/simple_17_B_d.gif","right","","","","",""
"","null","html-keyboard-response","20","174717","0.0-8.0-0.6","SS1613081503116","","","null","","","","","<p><img src= images/blank.png width =""200"" height = ""200"" style = ""float:right""></p><p><img src=images/blank.png width =""800"" height = ""200""></p>","","","","","","","","","","","",""
"","974.6399999712594","sequential-stimulus-presentation","21","176498","0.0-8.0-1.6","SS1613081503116","trial","","40","800","1774.6399999712594","images/stimuli/spore_stims/simple_17_A_d.gif","images/stimuli/spore_stims/simple_17_B_d.gif","","","","","0","simple_similar","images/stimuli/spore_stims/simple_17_B_d.gif","right","","","","",""
"","null","html-keyboard-response","22","177717","0.0-8.0-0.7","SS1613081503116","","","null","","","","","<p><img src= images/blank.png width =""200"" height = ""200"" style = ""float:right""></p><p><img src=images/blank.png width =""800"" height = ""200""></p>","","","","","","","","","","","",""
"","454.6900000423193","sequential-stimulus-presentation","23","178985","0.0-8.0-1.7","SS1613081503116","trial","","40","800","1254.6900000423193","images/stimuli/spore_stims/simple_17_A_d.gif","images/stimuli/spore_stims/simple_17_B_d.gif","","","","","0","simple_similar","images/stimuli/spore_stims/simple_17_B_d.gif","right","","","","",""
"","2199.930000002496","html-keyboard-response","24","181188","0.0-9.0","SS1613081503116","pref_question","","49","","","","","<video width ='960' height = '540' style='padding-top:8%' autoplay muted><source src='images/stimuli/wall_pref.mp4' type='video/mp4'></video>","1","left","25%","0","","","","","","","",""
"","7037.844999984372","sequential-stimulus-presentation","25","189043","0.0-10.0","SS1613081503116","pref_reveal","","40","800","7837.844999984372","null","null","","","","","0","","","","novel","","","",""
"","null","html-keyboard-response","26","190344","0.0-11.0-0.0","SS1613081503116","","","null","","","","","<p><img src= images/blank.png width =""200"" height = ""200"" style = ""float:right""></p><p><img src=images/blank.png width =""800"" height = ""200""></p>","","","","","","","","","","","",""
"","5746.479999972507","sequential-stimulus-presentation","27","196906","0.0-11.0-1.0","SS1613081503116","trial","","40","800","6546.479999972507","images/stimuli/spore_stims/complex_05_B_c.gif","images/stimuli/spore_stims/complex_03_B_c.gif","","","","","1","complex_dissimilar","images/stimuli/spore_stims/complex_03_B_c.gif","left","","","","",""
"","null","html-keyboard-response","28","197976","0.0-11.0-0.1","SS1613081503116","","","null","","","","","<p><img src= images/blank.png width =""200"" height = ""200"" style = ""float:right""></p><p><img src=images/blank.png width =""800"" height = ""200""></p>","","","","","","","","","","","",""
"","744.0000000060536","sequential-stimulus-presentation","29","199531","0.0-11.0-1.1","SS1613081503116","trial","","40","800","1544.0000000060536","images/stimuli/spore_stims/complex_05_B_c.gif","images/stimuli/spore_stims/complex_03_B_c.gif","","","","","1","complex_dissimilar","images/stimuli/spore_stims/complex_03_B_c.gif","left","","","","",""
"","null","html-keyboard-response","30","200448","0.0-11.0-0.2","SS1613081503116","","","null","","","","","<p><img src= images/blank.png width =""200"" height = ""200"" style = ""float:right""></p><p><img src=images/blank.png width =""800"" height = ""200""></p>","","","","","","","","","","","",""
"","698.9750000066124","sequential-stimulus-presentation","31","201961","0.0-11.0-1.2","SS1613081503116","trial","","40","800","1498.9750000066124","images/stimuli/spore_stims/complex_05_B_c.gif","images/stimuli/spore_stims/complex_03_B_c.gif","","","","","1","complex_dissimilar","images/stimuli/spore_stims/complex_03_B_c.gif","left","","","","",""
"","null","html-keyboard-response","32","202798","0.0-11.0-0.3","SS1613081503116","","","null","","","","","<p><img src= images/blank.png width =""200"" height = ""200"" style = ""float:right""></p><p><img src=images/blank.png width =""800"" height = ""200""></p>","","","","","","","","","","","",""
"","1349.2850000038743","sequential-stimulus-presentation","33","204961","0.0-11.0-1.3","SS1613081503116","trial","","40","800","2149.2850000038743","images/stimuli/spore_stims/complex_05_B_c.gif","images/stimuli/spore_stims/complex_03_B_c.gif","","","","","1","complex_dissimilar","images/stimuli/spore_stims/complex_03_B_c.gif","left","","","","",""
"","null","html-keyboard-response","34","205940","0.0-11.0-0.4","SS1613081503116","","","null","","","","","<p><img src= images/blank.png width =""200"" height = ""200"" style = ""float:right""></p><p><img src=images/blank.png width =""800"" height = ""200""></p>","","","","","","","","","","","",""
"","1242.8250000230037","sequential-stimulus-presentation","35","207993","0.0-11.0-1.4","SS1613081503116","trial","","40","800","2042.8250000230037","images/stimuli/spore_stims/complex_05_B_c.gif","images/stimuli/spore_stims/complex_03_B_c.gif","","","","","1","complex_dissimilar","images/stimuli/spore_stims/complex_03_B_c.gif","left","","","","",""
"","null","html-keyboard-response","36","208876","0.0-11.0-0.5","SS1613081503116","","","null","","","","","<p><img src= images/blank.png width =""200"" height = ""200"" style = ""float:right""></p><p><img src=images/blank.png width =""800"" height = ""200""></p>","","","","","","","","","","","",""
"","2431.7600000067614","sequential-stimulus-presentation","37","212114","0.0-11.0-1.5","SS1613081503116","trial","","40","800","3231.7600000067614","images/stimuli/spore_stims/complex_05_B_c.gif","images/stimuli/spore_stims/complex_03_B_c.gif","","","","","1","complex_dissimilar","images/stimuli/spore_stims/complex_03_B_c.gif","left","","","","",""
"","null","html-keyboard-response","38","213294","0.0-11.0-0.6","SS1613081503116","","","null","","","","","<p><img src= images/blank.png width =""200"" height = ""200"" style = ""float:right""></p><p><img src=images/blank.png width =""800"" height = ""200""></p>","","","","","","","","","","","",""
"","1109.2899999930523","sequential-stimulus-presentation","39","215210","0.0-11.0-1.6","SS1613081503116","trial","","40","800","1909.2899999930523","images/stimuli/spore_stims/complex_05_B_c.gif","images/stimuli/spore_stims/complex_03_B_c.gif","","","","","1","complex_dissimilar","images/stimuli/spore_stims/complex_03_B_c.gif","left","","","","",""
"","null","html-keyboard-response","40","216153","0.0-11.0-0.7","SS1613081503116","","","null","","","","","<p><img src= images/blank.png width =""200"" height = ""200"" style = ""float:right""></p><p><img src=images/blank.png width =""800"" height = ""200""></p>","","","","","","","","","","","",""
"","6897.7700000396","sequential-stimulus-presentation","41","223866","0.0-11.0-1.7","SS1613081503116","trial","","40","800","7697.7700000396","images/stimuli/spore_stims/complex_05_B_c.gif","images/stimuli/spore_stims/complex_03_B_c.gif","","","","","1","complex_dissimilar","images/stimuli/spore_stims/complex_05_B_c.gif","middle","","","","",""
"","2276.659999974072","html-keyboard-response","42","226146","0.0-12.0","SS1613081503116","pref_question","","51","","","","","<video width ='960' height = '540' style='padding-top:8%' autoplay muted><source src='images/stimuli/wall_pref.mp4' type='video/mp4'></video>","3","right","66%","1","","","","","","","",""
"","6150.859999994282","sequential-stimulus-presentation","43","233108","0.0-13.0","SS1613081503116","pref_reveal","","40","800","6950.859999994282","null","null","","","","","1","","","","novel","","","",""
"","null","html-keyboard-response","44","234277","0.0-14.0-0.0","SS1613081503116","","","null","","","","","<p><img src= images/blank.png width =""200"" height = ""200"" style = ""float:right""></p><p><img src=images/blank.png width =""800"" height = ""200""></p>","","","","","","","","","","","",""
"","8212.534999998752","sequential-stimulus-presentation","45","243299","0.0-14.0-1.0","SS1613081503116","trial","","40","800","9012.534999998752","images/stimuli/spore_stims/complex_20_B_b.gif","images/stimuli/spore_stims/complex_20_A_b.gif","","","","","2","complex_similar","images/stimuli/spore_stims/complex_20_A_b.gif","left","","","","",""
"","null","html-keyboard-response","46","244317","0.0-14.0-0.1","SS1613081503116","","","null","","","","","<p><img src= images/blank.png width =""200"" height = ""200"" style = ""float:right""></p><p><img src=images/blank.png width =""800"" height = ""200""></p>","","","","","","","","","","","",""
"","718.5900000040419","sequential-stimulus-presentation","47","245850","0.0-14.0-1.1","SS1613081503116","trial","","40","800","1518.590000004042","images/stimuli/spore_stims/complex_20_B_b.gif","images/stimuli/spore_stims/complex_20_A_b.gif","","","","","2","complex_similar","images/stimuli/spore_stims/complex_20_A_b.gif","left","","","","",""
"","null","html-keyboard-response","48","246894","0.0-14.0-0.2","SS1613081503116","","","null","","","","","<p><img src= images/blank.png width =""200"" height = ""200"" style = ""float:right""></p><p><img src=images/blank.png width =""800"" height = ""200""></p>","","","","","","","","","","","",""
"","559.6050000167452","sequential-stimulus-presentation","49","248266","0.0-14.0-1.2","SS1613081503116","trial","","40","800","1359.6050000167452","images/stimuli/spore_stims/complex_20_B_b.gif","images/stimuli/spore_stims/complex_20_A_b.gif","","","","","2","complex_similar","images/stimuli/spore_stims/complex_20_A_b.gif","left","","","","",""
"","null","html-keyboard-response","50","249227","0.0-14.0-0.3","SS1613081503116","","","null","","","","","<p><img src= images/blank.png width =""200"" height = ""200"" style = ""float:right""></p><p><img src=images/blank.png width =""800"" height = ""200""></p>","","","","","","","","","","","",""
"","475.62500002095476","sequential-stimulus-presentation","51","250514","0.0-14.0-1.3","SS1613081503116","trial","","40","800","1275.6250000209548","images/stimuli/spore_stims/complex_20_B_b.gif","images/stimuli/spore_stims/complex_20_A_b.gif","","","","","2","complex_similar","images/stimuli/spore_stims/complex_20_A_b.gif","left","","","","",""
"","null","html-keyboard-response","52","251717","0.0-14.0-0.4","SS1613081503116","","","null","","","","","<p><img src= images/blank.png width =""200"" height = ""200"" style = ""float:right""></p><p><img src=images/blank.png width =""800"" height = ""200""></p>","","","","","","","","","","","",""
"","5558.980000030715","sequential-stimulus-presentation","53","258090","0.0-14.0-1.4","SS1613081503116","trial","","40","800","6358.980000030715","images/stimuli/spore_stims/complex_20_B_b.gif","images/stimuli/spore_stims/complex_20_A_b.gif","","","","","2","complex_similar","images/stimuli/spore_stims/complex_20_B_b.gif","right","","","","",""
"","null","html-keyboard-response","54","259174","0.0-14.0-0.5","SS1613081503116","","","null","","","","","<p><img src= images/blank.png width =""200"" height = ""200"" style = ""float:right""></p><p><img src=images/blank.png width =""800"" height = ""200""></p>","","","","","","","","","","","",""
"","1790.9650000510737","sequential-stimulus-presentation","55","261778","0.0-14.0-1.5","SS1613081503116","trial","","40","800","2590.9650000510737","images/stimuli/spore_stims/complex_20_B_b.gif","images/stimuli/spore_stims/complex_20_A_b.gif","","","","","2","complex_similar","images/stimuli/spore_stims/complex_20_A_b.gif","left","","","","",""
"","null","html-keyboard-response","56","262877","0.0-14.0-0.6","SS1613081503116","","","null","","","","","<p><img src= images/blank.png width =""200"" height = ""200"" style = ""float:right""></p><p><img src=images/blank.png width =""800"" height = ""200""></p>","","","","","","","","","","","",""
"","588.5950000374578","sequential-stimulus-presentation","57","264282","0.0-14.0-1.6","SS1613081503116","trial","","40","800","1388.5950000374578","images/stimuli/spore_stims/complex_20_B_b.gif","images/stimuli/spore_stims/complex_20_A_b.gif","","","","","2","complex_similar","images/stimuli/spore_stims/complex_20_A_b.gif","left","","","","",""
"","null","html-keyboard-response","58","265253","0.0-14.0-0.7","SS1613081503116","","","null","","","","","<p><img src= images/blank.png width =""200"" height = ""200"" style = ""float:right""></p><p><img src=images/blank.png width =""800"" height = ""200""></p>","","","","","","","","","","","",""
"","423.40000002877787","sequential-stimulus-presentation","59","266482","0.0-14.0-1.7","SS1613081503116","trial","","40","800","1223.4000000287779","images/stimuli/spore_stims/complex_20_B_b.gif","images/stimuli/spore_stims/complex_20_A_b.gif","","","","","2","complex_similar","images/stimuli/spore_stims/complex_20_A_b.gif","left","","","","",""
"","1989.8399999947287","html-keyboard-response","60","268474","0.0-15.0","SS1613081503116","pref_question","","50","","","","","<video width ='960' height = '540' style='padding-top:8%' autoplay muted><source src='images/stimuli/wall_pref.mp4' type='video/mp4'></video>","2","middle","45%","2","","","","","","","",""
"","4787.294999987353","sequential-stimulus-presentation","61","274074","0.0-16.0","SS1613081503116","pref_reveal","","40","800","5587.294999987353","null","null","","","","","2","","","","novel","","","",""
"","null","html-keyboard-response","62","275023","0.0-17.0-0.0","SS1613081503116","","","null","","","","","<p><img src= images/blank.png width =""200"" height = ""200"" style = ""float:right""></p><p><img src=images/blank.png width =""800"" height = ""200""></p>","","","","","","","","","","","",""
"","4909.32499995688","sequential-stimulus-presentation","63","280747","0.0-17.0-1.0","SS1613081503116","trial","","40","800","5709.32499995688","images/stimuli/spore_stims/simple_12_A_b.gif","images/stimuli/spore_stims/simple_16_B_b.gif","","","","","3","simple_dissimilar","images/stimuli/spore_stims/simple_16_B_b.gif","left","","","","",""
"","null","html-keyboard-response","64","281783","0.0-17.0-0.1","SS1613081503116","","","null","","","","","<p><img src= images/blank.png width =""200"" height = ""200"" style = ""float:right""></p><p><img src=images/blank.png width =""800"" height = ""200""></p>","","","","","","","","","","","",""
"","1164.3099999637343","sequential-stimulus-presentation","65","283754","0.0-17.0-1.1","SS1613081503116","trial","","40","800","1964.3099999637343","images/stimuli/spore_stims/simple_12_A_b.gif","images/stimuli/spore_stims/simple_16_B_b.gif","","","","","3","simple_dissimilar","images/stimuli/spore_stims/simple_16_B_b.gif","left","","","","",""
"","null","html-keyboard-response","66","284917","0.0-17.0-0.2","SS1613081503116","","","null","","","","","<p><img src= images/blank.png width =""200"" height = ""200"" style = ""float:right""></p><p><img src=images/blank.png width =""800"" height = ""200""></p>","","","","","","","","","","","",""
"","1185.5450000148267","sequential-stimulus-presentation","67","286913","0.0-17.0-1.2","SS1613081503116","trial","","40","800","1985.5450000148267","images/stimuli/spore_stims/simple_12_A_b.gif","images/stimuli/spore_stims/simple_16_B_b.gif","","","","","3","simple_dissimilar","images/stimuli/spore_stims/simple_16_B_b.gif","left","","","","",""
"","null","html-keyboard-response","68","287994","0.0-17.0-0.3","SS1613081503116","","","null","","","","","<p><img src= images/blank.png width =""200"" height = ""200"" style = ""float:right""></p><p><img src=images/blank.png width =""800"" height = ""200""></p>","","","","","","","","","","","",""
"","2656.105000001844","sequential-stimulus-presentation","69","291467","0.0-17.0-1.3","SS1613081503116","trial","","40","800","3456.105000001844","images/stimuli/spore_stims/simple_12_A_b.gif","images/stimuli/spore_stims/simple_16_B_b.gif","","","","","3","simple_dissimilar","images/stimuli/spore_stims/simple_16_B_b.gif","left","","","","",""
"","null","html-keyboard-response","70","292458","0.0-17.0-0.4","SS1613081503116","","","null","","","","","<p><img src= images/blank.png width =""200"" height = ""200"" style = ""float:right""></p><p><img src=images/blank.png width =""800"" height = ""200""></p>","","","","","","","","","","","",""
"","4799.360000004526","sequential-stimulus-presentation","71","298066","0.0-17.0-1.4","SS1613081503116","trial","","40","800","5599.360000004526","images/stimuli/spore_stims/simple_12_A_b.gif","images/stimuli/spore_stims/simple_16_B_b.gif","","","","","3","simple_dissimilar","images/stimuli/spore_stims/simple_12_A_b.gif","middle","","","","",""
"","null","html-keyboard-response","72","299338","0.0-17.0-0.5","SS1613081503116","","","null","","","","","<p><img src= images/blank.png width =""200"" height = ""200"" style = ""float:right""></p><p><img src=images/blank.png width =""800"" height = ""200""></p>","","","","","","","","","","","",""
"","883.3299999823794","sequential-stimulus-presentation","73","301050","0.0-17.0-1.5","SS1613081503116","trial","","40","800","1683.3299999823794","images/stimuli/spore_stims/simple_12_A_b.gif","images/stimuli/spore_stims/simple_16_B_b.gif","","","","","3","simple_dissimilar","images/stimuli/spore_stims/simple_16_B_b.gif","left","","","","",""
"","null","html-keyboard-response","74","302018","0.0-17.0-0.6","SS1613081503116","","","null","","","","","<p><img src= images/blank.png width =""200"" height = ""200"" style = ""float:right""></p><p><img src=images/blank.png width =""800"" height = ""200""></p>","","","","","","","","","","","",""
"","451.0949999676086","sequential-stimulus-presentation","75","303275","0.0-17.0-1.6","SS1613081503116","trial","","40","800","1251.0949999676086","images/stimuli/spore_stims/simple_12_A_b.gif","images/stimuli/spore_stims/simple_16_B_b.gif","","","","","3","simple_dissimilar","images/stimuli/spore_stims/simple_16_B_b.gif","left","","","","",""
"","null","html-keyboard-response","76","304297","0.0-17.0-0.7","SS1613081503116","","","null","","","","","<p><img src= images/blank.png width =""200"" height = ""200"" style = ""float:right""></p><p><img src=images/blank.png width =""800"" height = ""200""></p>","","","","","","","","","","","",""
"","363.50499995751306","sequential-stimulus-presentation","77","305474","0.0-17.0-1.7","SS1613081503116","trial","","40","800","1163.504999957513","images/stimuli/spore_stims/simple_12_A_b.gif","images/stimuli/spore_stims/simple_16_B_b.gif","","","","","3","simple_dissimilar","images/stimuli/spore_stims/simple_16_B_b.gif","left","","","","",""
"","2205.000000016298","html-keyboard-response","78","307682","0.0-18.0","SS1613081503116","pref_question","","51","","","","","<video width ='960' height = '540' style='padding-top:8%' autoplay muted><source src='images/stimuli/wall_pref.mp4' type='video/mp4'></video>","3","right","66%","3","","","","","","","",""
"","4573.414999991655","sequential-stimulus-presentation","79","313074","0.0-19.0","SS1613081503116","pref_reveal","","40","800","5373.414999991655","null","null","","","","","3","","","","novel","","","",""
"","null","html-keyboard-response","80","314175","0.0-20.0-0.0","SS1613081503116","","","null","","","","","<p><img src= images/blank.png width =""200"" height = ""200"" style = ""float:right""></p><p><img src=images/blank.png width =""800"" height = ""200""></p>","","","","","","","","","","","",""
"","4236.585000006016","sequential-stimulus-presentation","81","319226","0.0-20.0-1.0","SS1613081503116","trial","","40","800","5036.585000006016","images/stimuli/spore_stims/complex_17_A_b.gif","images/stimuli/spore_stims/complex_01_B_d.gif","","","","","4","complex_dissimilar","images/stimuli/spore_stims/complex_01_B_d.gif","right","","","","",""
"","null","html-keyboard-response","82","320507","0.0-20.0-0.1","SS1613081503116","","","null","","","","","<p><img src= images/blank.png width =""200"" height = ""200"" style = ""float:right""></p><p><img src=images/blank.png width =""800"" height = ""200""></p>","","","","","","","","","","","",""
"","2122.555000009015","sequential-stimulus-presentation","83","323442","0.0-20.0-1.1","SS1613081503116","trial","","40","800","2922.555000009015","images/stimuli/spore_stims/complex_17_A_b.gif","images/stimuli/spore_stims/complex_01_B_d.gif","","","","","4","complex_dissimilar","images/stimuli/spore_stims/complex_01_B_d.gif","right","","","","",""
"","null","html-keyboard-response","84","324747","0.0-20.0-0.2","SS1613081503116","","","null","","","","","<p><img src= images/blank.png width =""200"" height = ""200"" style = ""float:right""></p><p><img src=images/blank.png width =""800"" height = ""200""></p>","","","","","","","","","","","",""
"","936.0999999917112","sequential-stimulus-presentation","85","326490","0.0-20.0-1.2","SS1613081503116","trial","","40","800","1736.0999999917112","images/stimuli/spore_stims/complex_17_A_b.gif","images/stimuli/spore_stims/complex_01_B_d.gif","","","","","4","complex_dissimilar","images/stimuli/spore_stims/complex_01_B_d.gif","right","","","","",""
"","null","html-keyboard-response","86","327578","0.0-20.0-0.3","SS1613081503116","","","null","","","","","<p><img src= images/blank.png width =""200"" height = ""200"" style = ""float:right""></p><p><img src=images/blank.png width =""800"" height = ""200""></p>","","","","","","","","","","","",""
"","1473.2850000145845","sequential-stimulus-presentation","87","329867","0.0-20.0-1.3","SS1613081503116","trial","","40","800","2273.2850000145845","images/stimuli/spore_stims/complex_17_A_b.gif","images/stimuli/spore_stims/complex_01_B_d.gif","","","","","4","complex_dissimilar","images/stimuli/spore_stims/complex_01_B_d.gif","right","","","","",""
"","null","html-keyboard-response","88","330737","0.0-20.0-0.4","SS1613081503116","","","null","","","","","<p><img src= images/blank.png width =""200"" height = ""200"" style = ""float:right""></p><p><img src=images/blank.png width =""800"" height = ""200""></p>","","","","","","","","","","","",""
"","1029.355000006035","sequential-stimulus-presentation","89","332578","0.0-20.0-1.4","SS1613081503116","trial","","40","800","1829.355000006035","images/stimuli/spore_stims/complex_17_A_b.gif","images/stimuli/spore_stims/complex_01_B_d.gif","","","","","4","complex_dissimilar","images/stimuli/spore_stims/complex_01_B_d.gif","right","","","","",""
"","null","html-keyboard-response","90","333877","0.0-20.0-0.5","SS1613081503116","","","null","","","","","<p><img src= images/blank.png width =""200"" height = ""200"" style = ""float:right""></p><p><img src=images/blank.png width =""800"" height = ""200""></p>","","","","","","","","","","","",""
"","6277.8200000175275","sequential-stimulus-presentation","91","340963","0.0-20.0-1.5","SS1613081503116","trial","","40","800","7077.8200000175275","images/stimuli/spore_stims/complex_17_A_b.gif","images/stimuli/spore_stims/complex_01_B_d.gif","","","","","4","complex_dissimilar","images/stimuli/spore_stims/complex_17_A_b.gif","left","","","","",""
"","null","html-keyboard-response","92","342157","0.0-20.0-0.6","SS1613081503116","","","null","","","","","<p><img src= images/blank.png width =""200"" height = ""200"" style = ""float:right""></p><p><img src=images/blank.png width =""800"" height = ""200""></p>","","","","","","","","","","","",""
"","3591.2649999954738","sequential-stimulus-presentation","93","346561","0.0-20.0-1.6","SS1613081503116","trial","","40","800","4391.264999995474","images/stimuli/spore_stims/complex_17_A_b.gif","images/stimuli/spore_stims/complex_01_B_d.gif","","","","","4","complex_dissimilar","images/stimuli/spore_stims/complex_01_B_d.gif","right","","","","",""
"","null","html-keyboard-response","94","347496","0.0-20.0-0.7","SS1613081503116","","","null","","","","","<p><img src= images/blank.png width =""200"" height = ""200"" style = ""float:right""></p><p><img src=images/blank.png width =""800"" height = ""200""></p>","","","","","","","","","","","",""
"","646.3050000020303","sequential-stimulus-presentation","95","348953","0.0-20.0-1.7","SS1613081503116","trial","","40","800","1446.3050000020303","images/stimuli/spore_stims/complex_17_A_b.gif","images/stimuli/spore_stims/complex_01_B_d.gif","","","","","4","complex_dissimilar","images/stimuli/spore_stims/complex_01_B_d.gif","right","","","","",""
"","1995.9449999732897","html-keyboard-response","96","350953","0.0-21.0","SS1613081503116","pref_question","","50","","","","","<video width ='960' height = '540' style='padding-top:8%' autoplay muted><source src='images/stimuli/wall_pref.mp4' type='video/mp4'></video>","2","middle","45%","4","","","","","","","",""
"","4929.124999966007","sequential-stimulus-presentation","97","356714","0.0-22.0","SS1613081503116","pref_reveal","","40","800","5729.124999966007","null","null","","","","","4","","","","novel","","","",""
"","null","html-keyboard-response","98","357667","0.0-23.0-0.0","SS1613081503116","","","null","","","","","<p><img src= images/blank.png width =""200"" height = ""200"" style = ""float:right""></p><p><img src=images/blank.png width =""800"" height = ""200""></p>","","","","","","","","","","","",""
"","8597.004999988712","sequential-stimulus-presentation","99","367074","0.0-23.0-1.0","SS1613081503116","trial","","40","800","9397.004999988712","images/stimuli/spore_stims/simple_13_A_b.gif","images/stimuli/spore_stims/simple_13_B_b.gif","","","","","5","simple_similar","images/stimuli/spore_stims/simple_13_B_b.gif","left","","","","",""
"","null","html-keyboard-response","100","368384","0.0-23.0-0.1","SS1613081503116","","","null","","","","","<p><img src= images/blank.png width =""200"" height = ""200"" style = ""float:right""></p><p><img src=images/blank.png width =""800"" height = ""200""></p>","","","","","","","","","","","",""
"","799.4649999891408","sequential-stimulus-presentation","101","369993","0.0-23.0-1.1","SS1613081503116","trial","","40","800","1599.4649999891408","images/stimuli/spore_stims/simple_13_A_b.gif","images/stimuli/spore_stims/simple_13_B_b.gif","","","","","5","simple_similar","images/stimuli/spore_stims/simple_13_B_b.gif","left","","","","",""
"","null","html-keyboard-response","102","370947","0.0-23.0-0.2","SS1613081503116","","","null","","","","","<p><img src= images/blank.png width =""200"" height = ""200"" style = ""float:right""></p><p><img src=images/blank.png width =""800"" height = ""200""></p>","","","","","","","","","","","",""
"","544.3950000335462","sequential-stimulus-presentation","103","372297","0.0-23.0-1.2","SS1613081503116","trial","","40","800","1344.3950000335462","images/stimuli/spore_stims/simple_13_A_b.gif","images/stimuli/spore_stims/simple_13_B_b.gif","","","","","5","simple_similar","images/stimuli/spore_stims/simple_13_B_b.gif","left","","","","",""
"","null","html-keyboard-response","104","373317","0.0-23.0-0.3","SS1613081503116","","","null","","","","","<p><img src= images/blank.png width =""200"" height = ""200"" style = ""float:right""></p><p><img src=images/blank.png width =""800"" height = ""200""></p>","","","","","","","","","","","",""
"","637.9149999702349","sequential-stimulus-presentation","105","374769","0.0-23.0-1.3","SS1613081503116","trial","","40","800","1437.914999970235","images/stimuli/spore_stims/simple_13_A_b.gif","images/stimuli/spore_stims/simple_13_B_b.gif","","","","","5","simple_similar","images/stimuli/spore_stims/simple_13_B_b.gif","left","","","","",""
"","null","html-keyboard-response","106","375927","0.0-23.0-0.4","SS1613081503116","","","null","","","","","<p><img src= images/blank.png width =""200"" height = ""200"" style = ""float:right""></p><p><img src=images/blank.png width =""800"" height = ""200""></p>","","","","","","","","","","","",""
"","3768.9850000315346","sequential-stimulus-presentation","107","380505","0.0-23.0-1.4","SS1613081503116","trial","","40","800","4568.985000031535","images/stimuli/spore_stims/simple_13_A_b.gif","images/stimuli/spore_stims/simple_13_B_b.gif","","","","","5","simple_similar","images/stimuli/spore_stims/simple_13_A_b.gif","middle","","","","",""
"","null","html-keyboard-response","108","381695","0.0-23.0-0.5","SS1613081503116","","","null","","","","","<p><img src= images/blank.png width =""200"" height = ""200"" style = ""float:right""></p><p><img src=images/blank.png width =""800"" height = ""200""></p>","","","","","","","","","","","",""
"","1221.510000003036","sequential-stimulus-presentation","109","383729","0.0-23.0-1.5","SS1613081503116","trial","","40","800","2021.510000003036","images/stimuli/spore_stims/simple_13_A_b.gif","images/stimuli/spore_stims/simple_13_B_b.gif","","","","","5","simple_similar","images/stimuli/spore_stims/simple_13_B_b.gif","left","","","","",""
"","null","html-keyboard-response","110","384717","0.0-23.0-0.6","SS1613081503116","","","null","","","","","<p><img src= images/blank.png width =""200"" height = ""200"" style = ""float:right""></p><p><img src=images/blank.png width =""800"" height = ""200""></p>","","","","","","","","","","","",""
"","741.2050000275485","sequential-stimulus-presentation","111","386265","0.0-23.0-1.6","SS1613081503116","trial","","40","800","1541.2050000275485","images/stimuli/spore_stims/simple_13_A_b.gif","images/stimuli/spore_stims/simple_13_B_b.gif","","","","","5","simple_similar","images/stimuli/spore_stims/simple_13_B_b.gif","left","","","","",""
"","null","html-keyboard-response","112","387356","0.0-23.0-0.7","SS1613081503116","","","null","","","","","<p><img src= images/blank.png width =""200"" height = ""200"" style = ""float:right""></p><p><img src=images/blank.png width =""800"" height = ""200""></p>","","","","","","","","","","","",""
"","485.97999999765307","sequential-stimulus-presentation","113","388657","0.0-23.0-1.7","SS1613081503116","trial","","40","800","1285.979999997653","images/stimuli/spore_stims/simple_13_A_b.gif","images/stimuli/spore_stims/simple_13_B_b.gif","","","","","5","simple_similar","images/stimuli/spore_stims/simple_13_B_b.gif","left","","","","",""
"","1861.17499996908","html-keyboard-response","114","390522","0.0-24.0","SS1613081503116","pref_question","","51","","","","","<video width ='960' height = '540' style='padding-top:8%' autoplay muted><source src='images/stimuli/wall_pref.mp4' type='video/mp4'></video>","3","right","66%","5","","","","","","","",""
"","6430.434999987483","sequential-stimulus-presentation","115","397761","0.0-25.0","SS1613081503116","pref_reveal","","40","800","7230.434999987483","null","null","","","","","5","","","","novel","","","",""
"","null","html-keyboard-response","116","399046","0.0-26.0-0.0","SS1613081503116","","","null","","","","","<p><img src= images/blank.png width =""200"" height = ""200"" style = ""float:right""></p><p><img src=images/blank.png width =""800"" height = ""200""></p>","","","","","","","","","","","",""
"","6551.5899999882095","sequential-stimulus-presentation","117","406410","0.0-26.0-1.0","SS1613081503116","trial","","40","800","7351.5899999882095","images/stimuli/spore_stims/complex_11_B_d.gif","images/stimuli/spore_stims/complex_11_A_d.gif","","","","","6","complex_similar","images/stimuli/spore_stims/complex_11_A_d.gif","middle","","","","",""
"","null","html-keyboard-response","118","407354","0.0-26.0-0.1","SS1613081503116","","","null","","","","","<p><img src= images/blank.png width =""200"" height = ""200"" style = ""float:right""></p><p><img src=images/blank.png width =""800"" height = ""200""></p>","","","","","","","","","","","",""
"","376.1100000119768","sequential-stimulus-presentation","119","408559","0.0-26.0-1.1","SS1613081503116","trial","","40","800","1176.1100000119768","images/stimuli/spore_stims/complex_11_B_d.gif","images/stimuli/spore_stims/complex_11_A_d.gif","","","","","6","complex_similar","images/stimuli/spore_stims/complex_11_A_d.gif","middle","","","","",""
"","null","html-keyboard-response","120","409575","0.0-26.0-0.2","SS1613081503116","","","null","","","","","<p><img src= images/blank.png width =""200"" height = ""200"" style = ""float:right""></p><p><img src=images/blank.png width =""800"" height = ""200""></p>","","","","","","","","","","","",""
"","408.36500003933907","sequential-stimulus-presentation","121","410791","0.0-26.0-1.2","SS1613081503116","trial","","40","800","1208.365000039339","images/stimuli/spore_stims/complex_11_B_d.gif","images/stimuli/spore_stims/complex_11_A_d.gif","","","","","6","complex_similar","images/stimuli/spore_stims/complex_11_A_d.gif","middle","","","","",""
"","null","html-keyboard-response","122","411835","0.0-26.0-0.3","SS1613081503116","","","null","","","","","<p><img src= images/blank.png width =""200"" height = ""200"" style = ""float:right""></p><p><img src=images/blank.png width =""800"" height = ""200""></p>","","","","","","","","","","","",""
"","488.2750000106171","sequential-stimulus-presentation","123","413135","0.0-26.0-1.3","SS1613081503116","trial","","40","800","1288.275000010617","images/stimuli/spore_stims/complex_11_B_d.gif","images/stimuli/spore_stims/complex_11_A_d.gif","","","","","6","complex_similar","images/stimuli/spore_stims/complex_11_A_d.gif","middle","","","","",""
"","null","html-keyboard-response","124","414320","0.0-26.0-0.4","SS1613081503116","","","null","","","","","<p><img src= images/blank.png width =""200"" height = ""200"" style = ""float:right""></p><p><img src=images/blank.png width =""800"" height = ""200""></p>","","","","","","","","","","","",""
"","365.4349999851547","sequential-stimulus-presentation","125","415495","0.0-26.0-1.4","SS1613081503116","trial","","40","800","1165.4349999851547","images/stimuli/spore_stims/complex_11_B_d.gif","images/stimuli/spore_stims/complex_11_A_d.gif","","","","","6","complex_similar","images/stimuli/spore_stims/complex_11_A_d.gif","middle","","","","",""
"","null","html-keyboard-response","126","416594","0.0-26.0-0.5","SS1613081503116","","","null","","","","","<p><img src= images/blank.png width =""200"" height = ""200"" style = ""float:right""></p><p><img src=images/blank.png width =""800"" height = ""200""></p>","","","","","","","","","","","",""
"","632.5899999937974","sequential-stimulus-presentation","127","418055","0.0-26.0-1.5","SS1613081503116","trial","","40","800","1432.5899999937974","images/stimuli/spore_stims/complex_11_B_d.gif","images/stimuli/spore_stims/complex_11_A_d.gif","","","","","6","complex_similar","images/stimuli/spore_stims/complex_11_A_d.gif","middle","","","","",""
"","null","html-keyboard-response","128","419110","0.0-26.0-0.6","SS1613081503116","","","null","","","","","<p><img src= images/blank.png width =""200"" height = ""200"" style = ""float:right""></p><p><img src=images/blank.png width =""800"" height = ""200""></p>","","","","","","","","","","","",""
"","861.8049999931827","sequential-stimulus-presentation","129","420783","0.0-26.0-1.6","SS1613081503116","trial","","40","800","1661.8049999931827","images/stimuli/spore_stims/complex_11_B_d.gif","images/stimuli/spore_stims/complex_11_A_d.gif","","","","","6","complex_similar","images/stimuli/spore_stims/complex_11_A_d.gif","middle","","","","",""
"","null","html-keyboard-response","130","421594","0.0-26.0-0.7","SS1613081503116","","","null","","","","","<p><img src= images/blank.png width =""200"" height = ""200"" style = ""float:right""></p><p><img src=images/blank.png width =""800"" height = ""200""></p>","","","","","","","","","","","",""
"","5304.00499998359","sequential-stimulus-presentation","131","427704","0.0-26.0-1.7","SS1613081503116","trial","","40","800","6104.00499998359","images/stimuli/spore_stims/complex_11_B_d.gif","images/stimuli/spore_stims/complex_11_A_d.gif","","","","","6","complex_similar","images/stimuli/spore_stims/complex_11_B_d.gif","left","","","","",""
"","2157.520000007935","html-keyboard-response","132","429865","0.0-27.0","SS1613081503116","pref_question","","51","","","","","<video width ='960' height = '540' style='padding-top:8%' autoplay muted><source src='images/stimuli/wall_pref.mp4' type='video/mp4'></video>","3","right","66%","6","","","","","","","",""
"","4388.824999972712","sequential-stimulus-presentation","133","435071","0.0-28.0","SS1613081503116","pref_reveal","","40","800","5188.824999972712","null","null","","","","","6","","","","novel","","","",""
"","null","html-keyboard-response","134","435894","0.0-29.0-0.0","SS1613081503116","","","null","","","","","<p><img src= images/blank.png width =""200"" height = ""200"" style = ""float:right""></p><p><img src=images/blank.png width =""800"" height = ""200""></p>","","","","","","","","","","","",""
"","4435.235000040848","sequential-stimulus-presentation","135","441135","0.0-29.0-1.0","SS1613081503116","trial","","40","800","5235.235000040848","images/stimuli/spore_stims/simple_15_B_d.gif","images/stimuli/spore_stims/simple_18_B_b.gif","","","","","7","simple_dissimilar","images/stimuli/spore_stims/simple_18_B_b.gif","right","","","","",""
"","null","html-keyboard-response","136","442187","0.0-29.0-0.1","SS1613081503116","","","null","","","","","<p><img src= images/blank.png width =""200"" height = ""200"" style = ""float:right""></p><p><img src=images/blank.png width =""800"" height = ""200""></p>","","","","","","","","","","","",""
"","941.9399999896996","sequential-stimulus-presentation","137","443943","0.0-29.0-1.1","SS1613081503116","trial","","40","800","1741.9399999896996","images/stimuli/spore_stims/simple_15_B_d.gif","images/stimuli/spore_stims/simple_18_B_b.gif","","","","","7","simple_dissimilar","images/stimuli/spore_stims/simple_18_B_b.gif","right","","","","",""
"","null","html-keyboard-response","138","444794","0.0-29.0-0.2","SS1613081503116","","","null","","","","","<p><img src= images/blank.png width =""200"" height = ""200"" style = ""float:right""></p><p><img src=images/blank.png width =""800"" height = ""200""></p>","","","","","","","","","","","",""
"","824.6700000017881","sequential-stimulus-presentation","139","446425","0.0-29.0-1.2","SS1613081503116","trial","","40","800","1624.6700000017881","images/stimuli/spore_stims/simple_15_B_d.gif","images/stimuli/spore_stims/simple_18_B_b.gif","","","","","7","simple_dissimilar","images/stimuli/spore_stims/simple_18_B_b.gif","right","","","","",""
"","null","html-keyboard-response","140","447594","0.0-29.0-0.3","SS1613081503116","","","null","","","","","<p><img src= images/blank.png width =""200"" height = ""200"" style = ""float:right""></p><p><img src=images/blank.png width =""800"" height = ""200""></p>","","","","","","","","","","","",""
"","655.4100000066683","sequential-stimulus-presentation","141","449055","0.0-29.0-1.3","SS1613081503116","trial","","40","800","1455.4100000066683","images/stimuli/spore_stims/simple_15_B_d.gif","images/stimuli/spore_stims/simple_18_B_b.gif","","","","","7","simple_dissimilar","images/stimuli/spore_stims/simple_18_B_b.gif","right","","","","",""
"","null","html-keyboard-response","142","450314","0.0-29.0-0.4","SS1613081503116","","","null","","","","","<p><img src= images/blank.png width =""200"" height = ""200"" style = ""float:right""></p><p><img src=images/blank.png width =""800"" height = ""200""></p>","","","","","","","","","","","",""
"","856.4200000255369","sequential-stimulus-presentation","143","451975","0.0-29.0-1.4","SS1613081503116","trial","","40","800","1656.4200000255369","images/stimuli/spore_stims/simple_15_B_d.gif","images/stimuli/spore_stims/simple_18_B_b.gif","","","","","7","simple_dissimilar","images/stimuli/spore_stims/simple_18_B_b.gif","right","","","","",""
"","null","html-keyboard-response","144","452794","0.0-29.0-0.5","SS1613081503116","","","null","","","","","<p><img src= images/blank.png width =""200"" height = ""200"" style = ""float:right""></p><p><img src=images/blank.png width =""800"" height = ""200""></p>","","","","","","","","","","","",""
"","1155.2249999949709","sequential-stimulus-presentation","145","454767","0.0-29.0-1.5","SS1613081503116","trial","","40","800","1955.2249999949709","images/stimuli/spore_stims/simple_15_B_d.gif","images/stimuli/spore_stims/simple_18_B_b.gif","","","","","7","simple_dissimilar","images/stimuli/spore_stims/simple_18_B_b.gif","right","","","","",""
"","null","html-keyboard-response","146","455814","0.0-29.0-0.6","SS1613081503116","","","null","","","","","<p><img src= images/blank.png width =""200"" height = ""200"" style = ""float:right""></p><p><img src=images/blank.png width =""800"" height = ""200""></p>","","","","","","","","","","","",""
"","752.5049999821931","sequential-stimulus-presentation","147","457383","0.0-29.0-1.6","SS1613081503116","trial","","40","800","1552.504999982193","images/stimuli/spore_stims/simple_15_B_d.gif","images/stimuli/spore_stims/simple_18_B_b.gif","","","","","7","simple_dissimilar","images/stimuli/spore_stims/simple_18_B_b.gif","right","","","","",""
"","null","html-keyboard-response","148","458234","0.0-29.0-0.7","SS1613081503116","","","null","","","","","<p><img src= images/blank.png width =""200"" height = ""200"" style = ""float:right""></p><p><img src=images/blank.png width =""800"" height = ""200""></p>","","","","","","","","","","","",""
"","7179.269999964163","sequential-stimulus-presentation","149","466228","0.0-29.0-1.7","SS1613081503116","trial","","40","800","7979.269999964163","images/stimuli/spore_stims/simple_15_B_d.gif","images/stimuli/spore_stims/simple_18_B_b.gif","","","","","7","simple_dissimilar","images/stimuli/spore_stims/simple_15_B_d.gif","left","","","","",""
"","2214.124999998603","html-keyboard-response","150","468449","0.0-30.0","SS1613081503116","pref_question","","50","","","","","<video width ='960' height = '540' style='padding-top:8%' autoplay muted><source src='images/stimuli/wall_pref.mp4' type='video/mp4'></video>","2","middle","45%","7","","","","","","","",""
"","6772.664999996778","sequential-stimulus-presentation","151","476041","0.0-31.0","SS1613081503116","pref_reveal","","40","800","7572.664999996778","null","null","","","","","7","","","","novel","","","",""
"","null","html-keyboard-response","152","477283","0.0-32.0-0.0","SS1613081503116","","","null","","","","","<p><img src= images/blank.png width =""200"" height = ""200"" style = ""float:right""></p><p><img src=images/blank.png width =""800"" height = ""200""></p>","","","","","","","","","","","",""
"","5433.369999984279","sequential-stimulus-presentation","153","483530","0.0-32.0-1.0","SS1613081503116","trial","","40","800","6233.369999984279","images/stimuli/spore_stims/simple_09_B_c.gif","images/stimuli/spore_stims/simple_07_B_a.gif","","","","","8","simple_dissimilar","images/stimuli/spore_stims/simple_07_B_a.gif","middle","","","","",""
"","null","html-keyboard-response","154","484688","0.0-32.0-0.1","SS1613081503116","","","null","","","","","<p><img src= images/blank.png width =""200"" height = ""200"" style = ""float:right""></p><p><img src=images/blank.png width =""800"" height = ""200""></p>","","","","","","","","","","","",""
"","635.1949999807402","sequential-stimulus-presentation","155","486129","0.0-32.0-1.1","SS1613081503116","trial","","40","800","1435.1949999807402","images/stimuli/spore_stims/simple_09_B_c.gif","images/stimuli/spore_stims/simple_07_B_a.gif","","","","","8","simple_dissimilar","images/stimuli/spore_stims/simple_07_B_a.gif","middle","","","","",""
"","null","html-keyboard-response","156","486956","0.0-32.0-0.2","SS1613081503116","","","null","","","","","<p><img src= images/blank.png width =""200"" height = ""200"" style = ""float:right""></p><p><img src=images/blank.png width =""800"" height = ""200""></p>","","","","","","","","","","","",""
"","447.3650000290945","sequential-stimulus-presentation","157","488209","0.0-32.0-1.2","SS1613081503116","trial","","40","800","1247.3650000290945","images/stimuli/spore_stims/simple_09_B_c.gif","images/stimuli/spore_stims/simple_07_B_a.gif","","","","","8","simple_dissimilar","images/stimuli/spore_stims/simple_07_B_a.gif","middle","","","","",""
"","null","html-keyboard-response","158","489186","0.0-32.0-0.3","SS1613081503116","","","null","","","","","<p><img src= images/blank.png width =""200"" height = ""200"" style = ""float:right""></p><p><img src=images/blank.png width =""800"" height = ""200""></p>","","","","","","","","","","","",""
"","870.6099999835715","sequential-stimulus-presentation","159","490875","0.0-32.0-1.3","SS1613081503116","trial","","40","800","1670.6099999835715","images/stimuli/spore_stims/simple_09_B_c.gif","images/stimuli/spore_stims/simple_07_B_a.gif","","","","","8","simple_dissimilar","images/stimuli/spore_stims/simple_07_B_a.gif","middle","","","","",""
"","null","html-keyboard-response","160","491812","0.0-32.0-0.4","SS1613081503116","","","null","","","","","<p><img src= images/blank.png width =""200"" height = ""200"" style = ""float:right""></p><p><img src=images/blank.png width =""800"" height = ""200""></p>","","","","","","","","","","","",""
"","973.6549999797717","sequential-stimulus-presentation","161","493593","0.0-32.0-1.4","SS1613081503116","trial","","40","800","1773.6549999797717","images/stimuli/spore_stims/simple_09_B_c.gif","images/stimuli/spore_stims/simple_07_B_a.gif","","","","","8","simple_dissimilar","images/stimuli/spore_stims/simple_07_B_a.gif","middle","","","","",""
"","null","html-keyboard-response","162","494516","0.0-32.0-0.5","SS1613081503116","","","null","","","","","<p><img src= images/blank.png width =""200"" height = ""200"" style = ""float:right""></p><p><img src=images/blank.png width =""800"" height = ""200""></p>","","","","","","","","","","","",""
"","857.5599999749102","sequential-stimulus-presentation","163","496193","0.0-32.0-1.5","SS1613081503116","trial","","40","800","1657.5599999749102","images/stimuli/spore_stims/simple_09_B_c.gif","images/stimuli/spore_stims/simple_07_B_a.gif","","","","","8","simple_dissimilar","images/stimuli/spore_stims/simple_07_B_a.gif","middle","","","","",""
"","null","html-keyboard-response","164","497163","0.0-32.0-0.6","SS1613081503116","","","null","","","","","<p><img src= images/blank.png width =""200"" height = ""200"" style = ""float:right""></p><p><img src=images/blank.png width =""800"" height = ""200""></p>","","","","","","","","","","","",""
"","1078.830000013113","sequential-stimulus-presentation","165","499049","0.0-32.0-1.6","SS1613081503116","trial","","40","800","1878.830000013113","images/stimuli/spore_stims/simple_09_B_c.gif","images/stimuli/spore_stims/simple_07_B_a.gif","","","","","8","simple_dissimilar","images/stimuli/spore_stims/simple_07_B_a.gif","middle","","","","",""
"","null","html-keyboard-response","166","499868","0.0-32.0-0.7","SS1613081503116","","","null","","","","","<p><img src= images/blank.png width =""200"" height = ""200"" style = ""float:right""></p><p><img src=images/blank.png width =""800"" height = ""200""></p>","","","","","","","","","","","",""
"","6866.035000013653","sequential-stimulus-presentation","167","507554","0.0-32.0-1.7","SS1613081503116","trial","","40","800","7666.035000013653","images/stimuli/spore_stims/simple_09_B_c.gif","images/stimuli/spore_stims/simple_07_B_a.gif","","","","","8","simple_dissimilar","images/stimuli/spore_stims/simple_09_B_c.gif","left","","","","",""
"","2498.3549999888055","html-keyboard-response","168","510057","0.0-33.0","SS1613081503116","pref_question","","51","","","","","<video width ='960' height = '540' style='padding-top:8%' autoplay muted><source src='images/stimuli/wall_pref.mp4' type='video/mp4'></video>","3","right","66%","8","","","","","","","",""
"","8022.869999986142","sequential-stimulus-presentation","169","518890","0.0-34.0","SS1613081503116","pref_reveal","","40","800","8822.869999986142","null","null","","","","","8","","","","novel","","","",""
"","null","html-keyboard-response","170","520176","0.0-35.0-0.0","SS1613081503116","","","null","","","","","<p><img src= images/blank.png width =""200"" height = ""200"" style = ""float:right""></p><p><img src=images/blank.png width =""800"" height = ""200""></p>","","","","","","","","","","","",""
"","6787.7149999840185","sequential-stimulus-presentation","171","527785","0.0-35.0-1.0","SS1613081503116","trial","","40","800","7587.7149999840185","images/stimuli/spore_stims/complex_02_B_b.gif","images/stimuli/spore_stims/complex_02_A_b.gif","","","","","9","complex_similar","images/stimuli/spore_stims/complex_02_A_b.gif","left","","","","",""
"","null","html-keyboard-response","172","528793","0.0-35.0-0.1","SS1613081503116","","","null","","","","","<p><img src= images/blank.png width =""200"" height = ""200"" style = ""float:right""></p><p><img src=images/blank.png width =""800"" height = ""200""></p>","","","","","","","","","","","",""
"","416.800000006333","sequential-stimulus-presentation","173","530017","0.0-35.0-1.1","SS1613081503116","trial","","40","800","1216.800000006333","images/stimuli/spore_stims/complex_02_B_b.gif","images/stimuli/spore_stims/complex_02_A_b.gif","","","","","9","complex_similar","images/stimuli/spore_stims/complex_02_A_b.gif","left","","","","",""
"","null","html-keyboard-response","174","531132","0.0-35.0-0.2","SS1613081503116","","","null","","","","","<p><img src= images/blank.png width =""200"" height = ""200"" style = ""float:right""></p><p><img src=images/blank.png width =""800"" height = ""200""></p>","","","","","","","","","","","",""
"","445.43500000145286","sequential-stimulus-presentation","175","532393","0.0-35.0-1.2","SS1613081503116","trial","","40","800","1245.4350000014529","images/stimuli/spore_stims/complex_02_B_b.gif","images/stimuli/spore_stims/complex_02_A_b.gif","","","","","9","complex_similar","images/stimuli/spore_stims/complex_02_A_b.gif","left","","","","",""
"","null","html-keyboard-response","176","533256","0.0-35.0-0.3","SS1613081503116","","","null","","","","","<p><img src= images/blank.png width =""200"" height = ""200"" style = ""float:right""></p><p><img src=images/blank.png width =""800"" height = ""200""></p>","","","","","","","","","","","",""
"","472.34000003663823","sequential-stimulus-presentation","177","534545","0.0-35.0-1.3","SS1613081503116","trial","","40","800","1272.3400000366382","images/stimuli/spore_stims/complex_02_B_b.gif","images/stimuli/spore_stims/complex_02_A_b.gif","","","","","9","complex_similar","images/stimuli/spore_stims/complex_02_A_b.gif","left","","","","",""
"","null","html-keyboard-response","178","535403","0.0-35.0-0.4","SS1613081503116","","","null","","","","","<p><img src= images/blank.png width =""200"" height = ""200"" style = ""float:right""></p><p><img src=images/blank.png width =""800"" height = ""200""></p>","","","","","","","","","","","",""
"","397.5300000165589","sequential-stimulus-presentation","179","536609","0.0-35.0-1.4","SS1613081503116","trial","","40","800","1197.530000016559","images/stimuli/spore_stims/complex_02_B_b.gif","images/stimuli/spore_stims/complex_02_A_b.gif","","","","","9","complex_similar","images/stimuli/spore_stims/complex_02_A_b.gif","left","","","","",""
"","null","html-keyboard-response","180","537616","0.0-35.0-0.5","SS1613081503116","","","null","","","","","<p><img src= images/blank.png width =""200"" height = ""200"" style = ""float:right""></p><p><img src=images/blank.png width =""800"" height = ""200""></p>","","","","","","","","","","","",""
"","345.7449999987148","sequential-stimulus-presentation","181","538769","0.0-35.0-1.5","SS1613081503116","trial","","40","800","1145.7449999987148","images/stimuli/spore_stims/complex_02_B_b.gif","images/stimuli/spore_stims/complex_02_A_b.gif","","","","","9","complex_similar","images/stimuli/spore_stims/complex_02_A_b.gif","left","","","","",""
"","null","html-keyboard-response","182","539996","0.0-35.0-0.6","SS1613081503116","","","null","","","","","<p><img src= images/blank.png width =""200"" height = ""200"" style = ""float:right""></p><p><img src=images/blank.png width =""800"" height = ""200""></p>","","","","","","","","","","","",""
"","5465.925000025891","sequential-stimulus-presentation","183","546274","0.0-35.0-1.6","SS1613081503116","trial","","40","800","6265.925000025891","images/stimuli/spore_stims/complex_02_B_b.gif","images/stimuli/spore_stims/complex_02_A_b.gif","","","","","9","complex_similar","images/stimuli/spore_stims/complex_02_B_b.gif","right","","","","",""
"","null","html-keyboard-response","184","547297","0.0-35.0-0.7","SS1613081503116","","","null","","","","","<p><img src= images/blank.png width =""200"" height = ""200"" style = ""float:right""></p><p><img src=images/blank.png width =""800"" height = ""200""></p>","","","","","","","","","","","",""
"","533.4450000082143","sequential-stimulus-presentation","185","548641","0.0-35.0-1.7","SS1613081503116","trial","","40","800","1333.4450000082143","images/stimuli/spore_stims/complex_02_B_b.gif","images/stimuli/spore_stims/complex_02_A_b.gif","","","","","9","complex_similar","images/stimuli/spore_stims/complex_02_A_b.gif","left","","","","",""
"","2035.4349999688566","html-keyboard-response","186","550681","0.0-36.0","SS1613081503116","pref_question","","50","","","","","<video width ='960' height = '540' style='padding-top:8%' autoplay muted><source src='images/stimuli/wall_pref.mp4' type='video/mp4'></video>","2","middle","45%","9","","","","","","","",""
"","9854.475000000093","sequential-stimulus-presentation","187","561354","0.0-37.0","SS1613081503116","pref_reveal","","40","800","10654.475000000093","null","null","","","","","9","","","","novel","","","",""
"","null","html-keyboard-response","188","562633","0.0-38.0-0.0","SS1613081503116","","","null","","","","","<p><img src= images/blank.png width =""200"" height = ""200"" style = ""float:right""></p><p><img src=images/blank.png width =""800"" height = ""200""></p>","","","","","","","","","","","",""
"","6082.654999976512","sequential-stimulus-presentation","189","569537","0.0-38.0-1.0","SS1613081503116","trial","","40","800","6882.654999976512","images/stimuli/spore_stims/complex_06_B_d.gif","images/stimuli/spore_stims/complex_03_A_d.gif","","","","","10","complex_dissimilar","images/stimuli/spore_stims/complex_03_A_d.gif","left","","","","",""
"","null","html-keyboard-response","190","570796","0.0-38.0-0.1","SS1613081503116","","","null","","","","","<p><img src= images/blank.png width =""200"" height = ""200"" style = ""float:right""></p><p><img src=images/blank.png width =""800"" height = ""200""></p>","","","","","","","","","","","",""
"","420.1650000177324","sequential-stimulus-presentation","191","572026","0.0-38.0-1.1","SS1613081503116","trial","","40","800","1220.1650000177324","images/stimuli/spore_stims/complex_06_B_d.gif","images/stimuli/spore_stims/complex_03_A_d.gif","","","","","10","complex_dissimilar","images/stimuli/spore_stims/complex_03_A_d.gif","left","","","","",""
"","null","html-keyboard-response","192","573136","0.0-38.0-0.2","SS1613081503116","","","null","","","","","<p><img src= images/blank.png width =""200"" height = ""200"" style = ""float:right""></p><p><img src=images/blank.png width =""800"" height = ""200""></p>","","","","","","","","","","","",""
"","341.94999997271225","sequential-stimulus-presentation","193","574297","0.0-38.0-1.2","SS1613081503116","trial","","40","800","1141.9499999727122","images/stimuli/spore_stims/complex_06_B_d.gif","images/stimuli/spore_stims/complex_03_A_d.gif","","","","","10","complex_dissimilar","images/stimuli/spore_stims/complex_03_A_d.gif","left","","","","",""
"","null","html-keyboard-response","194","575606","0.0-38.0-0.3","SS1613081503116","","","null","","","","","<p><img src= images/blank.png width =""200"" height = ""200"" style = ""float:right""></p><p><img src=images/blank.png width =""800"" height = ""200""></p>","","","","","","","","","","","",""
"","7054.2799999821","sequential-stimulus-presentation","195","583482","0.0-38.0-1.3","SS1613081503116","trial","","40","800","7854.2799999821","images/stimuli/spore_stims/complex_06_B_d.gif","images/stimuli/spore_stims/complex_03_A_d.gif","","","","","10","complex_dissimilar","images/stimuli/spore_stims/complex_06_B_d.gif","right","","","","",""
"","null","html-keyboard-response","196","584372","0.0-38.0-0.4","SS1613081503116","","","null","","","","","<p><img src= images/blank.png width =""200"" height = ""200"" style = ""float:right""></p><p><img src=images/blank.png width =""800"" height = ""200""></p>","","","","","","","","","","","",""
"","590.4399999999441","sequential-stimulus-presentation","197","585777","0.0-38.0-1.4","SS1613081503116","trial","","40","800","1390.4399999999441","images/stimuli/spore_stims/complex_06_B_d.gif","images/stimuli/spore_stims/complex_03_A_d.gif","","","","","10","complex_dissimilar","images/stimuli/spore_stims/complex_03_A_d.gif","left","","","","",""
"","null","html-keyboard-response","198","586656","0.0-38.0-0.5","SS1613081503116","","","null","","","","","<p><img src= images/blank.png width =""200"" height = ""200"" style = ""float:right""></p><p><img src=images/blank.png width =""800"" height = ""200""></p>","","","","","","","","","","","",""
"","917.1550000319257","sequential-stimulus-presentation","199","588385","0.0-38.0-1.5","SS1613081503116","trial","","40","800","1717.1550000319257","images/stimuli/spore_stims/complex_06_B_d.gif","images/stimuli/spore_stims/complex_03_A_d.gif","","","","","10","complex_dissimilar","images/stimuli/spore_stims/complex_03_A_d.gif","left","","","","",""
"","null","html-keyboard-response","200","589258","0.0-38.0-0.6","SS1613081503116","","","null","","","","","<p><img src= images/blank.png width =""200"" height = ""200"" style = ""float:right""></p><p><img src=images/blank.png width =""800"" height = ""200""></p>","","","","","","","","","","","",""
"","1085.495000006631","sequential-stimulus-presentation","201","591153","0.0-38.0-1.6","SS1613081503116","trial","","40","800","1885.495000006631","images/stimuli/spore_stims/complex_06_B_d.gif","images/stimuli/spore_stims/complex_03_A_d.gif","","","","","10","complex_dissimilar","images/stimuli/spore_stims/complex_03_A_d.gif","left","","","","",""
"","null","html-keyboard-response","202","592153","0.0-38.0-0.7","SS1613081503116","","","null","","","","","<p><img src= images/blank.png width =""200"" height = ""200"" style = ""float:right""></p><p><img src=images/blank.png width =""800"" height = ""200""></p>","","","","","","","","","","","",""
"","2504.560000030324","sequential-stimulus-presentation","203","595466","0.0-38.0-1.7","SS1613081503116","trial","","40","800","3304.560000030324","images/stimuli/spore_stims/complex_06_B_d.gif","images/stimuli/spore_stims/complex_03_A_d.gif","","","","","10","complex_dissimilar","images/stimuli/spore_stims/complex_03_A_d.gif","left","","","","",""
"","1930.289999989327","html-keyboard-response","204","597401","0.0-39.0","SS1613081503116","pref_question","","50","","","","","<video width ='960' height = '540' style='padding-top:8%' autoplay muted><source src='images/stimuli/wall_pref.mp4' type='video/mp4'></video>","2","middle","45%","10","","","","","","","",""
"","5051.244999980554","sequential-stimulus-presentation","205","603273","0.0-40.0","SS1613081503116","pref_reveal","","40","800","5851.244999980554","null","null","","","","","10","","","","novel","","","",""
"","null","html-keyboard-response","206","604537","0.0-41.0-0.0","SS1613081503116","","","null","","","","","<p><img src= images/blank.png width =""200"" height = ""200"" style = ""float:right""></p><p><img src=images/blank.png width =""800"" height = ""200""></p>","","","","","","","","","","","",""
"","11963.895000051707","sequential-stimulus-presentation","207","617330","0.0-41.0-1.0","SS1613081503116","trial","","40","800","12763.895000051707","images/stimuli/spore_stims/complex_12_A_c.gif","images/stimuli/spore_stims/complex_12_B_c.gif","","","","","11","complex_similar","images/stimuli/spore_stims/complex_12_B_c.gif","right","","","","",""
"","null","html-keyboard-response","208","618245","0.0-41.0-0.1","SS1613081503116","","","null","","","","","<p><img src= images/blank.png width =""200"" height = ""200"" style = ""float:right""></p><p><img src=images/blank.png width =""800"" height = ""200""></p>","","","","","","","","","","","",""
"","663.6949999956414","sequential-stimulus-presentation","209","619721","0.0-41.0-1.1","SS1613081503116","trial","","40","800","1463.6949999956414","images/stimuli/spore_stims/complex_12_A_c.gif","images/stimuli/spore_stims/complex_12_B_c.gif","","","","","11","complex_similar","images/stimuli/spore_stims/complex_12_B_c.gif","right","","","","",""
"","null","html-keyboard-response","210","620587","0.0-41.0-0.2","SS1613081503116","","","null","","","","","<p><img src= images/blank.png width =""200"" height = ""200"" style = ""float:right""></p><p><img src=images/blank.png width =""800"" height = ""200""></p>","","","","","","","","","","","",""
"","449.384999985341","sequential-stimulus-presentation","211","621857","0.0-41.0-1.2","SS1613081503116","trial","","40","800","1249.384999985341","images/stimuli/spore_stims/complex_12_A_c.gif","images/stimuli/spore_stims/complex_12_B_c.gif","","","","","11","complex_similar","images/stimuli/spore_stims/complex_12_B_c.gif","right","","","","",""
"","null","html-keyboard-response","212","622814","0.0-41.0-0.3","SS1613081503116","","","null","","","","","<p><img src= images/blank.png width =""200"" height = ""200"" style = ""float:right""></p><p><img src=images/blank.png width =""800"" height = ""200""></p>","","","","","","","","","","","",""
"","583.2049999735318","sequential-stimulus-presentation","213","624209","0.0-41.0-1.3","SS1613081503116","trial","","40","800","1383.2049999735318","images/stimuli/spore_stims/complex_12_A_c.gif","images/stimuli/spore_stims/complex_12_B_c.gif","","","","","11","complex_similar","images/stimuli/spore_stims/complex_12_B_c.gif","right","","","","",""
"","null","html-keyboard-response","214","625377","0.0-41.0-0.4","SS1613081503116","","","null","","","","","<p><img src= images/blank.png width =""200"" height = ""200"" style = ""float:right""></p><p><img src=images/blank.png width =""800"" height = ""200""></p>","","","","","","","","","","","",""
"","477.0450000069104","sequential-stimulus-presentation","215","626665","0.0-41.0-1.4","SS1613081503116","trial","","40","800","1277.0450000069104","images/stimuli/spore_stims/complex_12_A_c.gif","images/stimuli/spore_stims/complex_12_B_c.gif","","","","","11","complex_similar","images/stimuli/spore_stims/complex_12_B_c.gif","right","","","","",""
"","null","html-keyboard-response","216","627917","0.0-41.0-0.5","SS1613081503116","","","null","","","","","<p><img src= images/blank.png width =""200"" height = ""200"" style = ""float:right""></p><p><img src=images/blank.png width =""800"" height = ""200""></p>","","","","","","","","","","","",""
"","344.57499999552965","sequential-stimulus-presentation","217","629074","0.0-41.0-1.5","SS1613081503116","trial","","40","800","1144.5749999955297","images/stimuli/spore_stims/complex_12_A_c.gif","images/stimuli/spore_stims/complex_12_B_c.gif","","","","","11","complex_similar","images/stimuli/spore_stims/complex_12_B_c.gif","right","","","","",""
"","null","html-keyboard-response","218","630163","0.0-41.0-0.6","SS1613081503116","","","null","","","","","<p><img src= images/blank.png width =""200"" height = ""200"" style = ""float:right""></p><p><img src=images/blank.png width =""800"" height = ""200""></p>","","","","","","","","","","","",""
"","408.86500000488013","sequential-stimulus-presentation","219","631393","0.0-41.0-1.6","SS1613081503116","trial","","40","800","1208.8650000048801","images/stimuli/spore_stims/complex_12_A_c.gif","images/stimuli/spore_stims/complex_12_B_c.gif","","","","","11","complex_similar","images/stimuli/spore_stims/complex_12_B_c.gif","right","","","","",""
"","null","html-keyboard-response","220","632687","0.0-41.0-0.7","SS1613081503116","","","null","","","","","<p><img src= images/blank.png width =""200"" height = ""200"" style = ""float:right""></p><p><img src=images/blank.png width =""800"" height = ""200""></p>","","","","","","","","","","","",""
"","6040.165000013076","sequential-stimulus-presentation","221","639538","0.0-41.0-1.7","SS1613081503116","trial","","40","800","6840.165000013076","images/stimuli/spore_stims/complex_12_A_c.gif","images/stimuli/spore_stims/complex_12_B_c.gif","","","","","11","complex_similar","images/stimuli/spore_stims/complex_12_A_c.gif","left","","","","",""
"","1969.8999999673106","html-keyboard-response","222","641513","0.0-42.0","SS1613081503116","pref_question","","50","","","","","<video width ='960' height = '540' style='padding-top:8%' autoplay muted><source src='images/stimuli/wall_pref.mp4' type='video/mp4'></video>","2","middle","45%","11","","","","","","","",""
"","8993.454999988899","sequential-stimulus-presentation","223","651308","0.0-43.0","SS1613081503116","pref_reveal","","40","800","9793.454999988899","null","null","","","","","11","","","","novel","","","",""
"","null","html-keyboard-response","224","652391","0.0-44.0-0.0","SS1613081503116","","","null","","","","","<p><img src= images/blank.png width =""200"" height = ""200"" style = ""float:right""></p><p><img src=images/blank.png width =""800"" height = ""200""></p>","","","","","","","","","","","",""
"","4710.07999998983","sequential-stimulus-presentation","225","657907","0.0-44.0-1.0","SS1613081503116","trial","","40","800","5510.07999998983","images/stimuli/spore_stims/simple_03_B_c.gif","images/stimuli/spore_stims/simple_20_B_c.gif","","","","","12","simple_dissimilar","images/stimuli/spore_stims/simple_20_B_c.gif","middle","","","","",""
"","null","html-keyboard-response","226","659017","0.0-44.0-0.1","SS1613081503116","","","null","","","","","<p><img src= images/blank.png width =""200"" height = ""200"" style = ""float:right""></p><p><img src=images/blank.png width =""800"" height = ""200""></p>","","","","","","","","","","","",""
"","357.7750000404194","sequential-stimulus-presentation","227","660187","0.0-44.0-1.1","SS1613081503116","trial","","40","800","1157.7750000404194","images/stimuli/spore_stims/simple_03_B_c.gif","images/stimuli/spore_stims/simple_20_B_c.gif","","","","","12","simple_dissimilar","images/stimuli/spore_stims/simple_20_B_c.gif","middle","","","","",""
"","null","html-keyboard-response","228","661191","0.0-44.0-0.2","SS1613081503116","","","null","","","","","<p><img src= images/blank.png width =""200"" height = ""200"" style = ""float:right""></p><p><img src=images/blank.png width =""800"" height = ""200""></p>","","","","","","","","","","","",""
"","343.5250000329688","sequential-stimulus-presentation","229","662356","0.0-44.0-1.2","SS1613081503116","trial","","40","800","1143.5250000329688","images/stimuli/spore_stims/simple_03_B_c.gif","images/stimuli/spore_stims/simple_20_B_c.gif","","","","","12","simple_dissimilar","images/stimuli/spore_stims/simple_20_B_c.gif","middle","","","","",""
"","null","html-keyboard-response","230","663420","0.0-44.0-0.3","SS1613081503116","","","null","","","","","<p><img src= images/blank.png width =""200"" height = ""200"" style = ""float:right""></p><p><img src=images/blank.png width =""800"" height = ""200""></p>","","","","","","","","","","","",""
"","383.4299999871291","sequential-stimulus-presentation","231","664619","0.0-44.0-1.3","SS1613081503116","trial","","40","800","1183.4299999871291","images/stimuli/spore_stims/simple_03_B_c.gif","images/stimuli/spore_stims/simple_20_B_c.gif","","","","","12","simple_dissimilar","images/stimuli/spore_stims/simple_20_B_c.gif","middle","","","","",""
"","null","html-keyboard-response","232","665531","0.0-44.0-0.4","SS1613081503116","","","null","","","","","<p><img src= images/blank.png width =""200"" height = ""200"" style = ""float:right""></p><p><img src=images/blank.png width =""800"" height = ""200""></p>","","","","","","","","","","","",""
"","407.4499999987893","sequential-stimulus-presentation","233","666748","0.0-44.0-1.4","SS1613081503116","trial","","40","800","1207.4499999987893","images/stimuli/spore_stims/simple_03_B_c.gif","images/stimuli/spore_stims/simple_20_B_c.gif","","","","","12","simple_dissimilar","images/stimuli/spore_stims/simple_20_B_c.gif","middle","","","","",""
"","null","html-keyboard-response","234","667709","0.0-44.0-0.5","SS1613081503116","","","null","","","","","<p><img src= images/blank.png width =""200"" height = ""200"" style = ""float:right""></p><p><img src=images/blank.png width =""800"" height = ""200""></p>","","","","","","","","","","","",""
"","542.7350000245497","sequential-stimulus-presentation","235","669059","0.0-44.0-1.5","SS1613081503116","trial","","40","800","1342.7350000245497","images/stimuli/spore_stims/simple_03_B_c.gif","images/stimuli/spore_stims/simple_20_B_c.gif","","","","","12","simple_dissimilar","images/stimuli/spore_stims/simple_20_B_c.gif","middle","","","","",""
"","null","html-keyboard-response","236","670171","0.0-44.0-0.6","SS1613081503116","","","null","","","","","<p><img src= images/blank.png width =""200"" height = ""200"" style = ""float:right""></p><p><img src=images/blank.png width =""800"" height = ""200""></p>","","","","","","","","","","","",""
"","949.2200000095181","sequential-stimulus-presentation","237","671939","0.0-44.0-1.6","SS1613081503116","trial","","40","800","1749.2200000095181","images/stimuli/spore_stims/simple_03_B_c.gif","images/stimuli/spore_stims/simple_20_B_c.gif","","","","","12","simple_dissimilar","images/stimuli/spore_stims/simple_20_B_c.gif","middle","","","","",""
"","null","html-keyboard-response","238","672909","0.0-44.0-0.7","SS1613081503116","","","null","","","","","<p><img src= images/blank.png width =""200"" height = ""200"" style = ""float:right""></p><p><img src=images/blank.png width =""800"" height = ""200""></p>","","","","","","","","","","","",""
"","5133.2200000179","sequential-stimulus-presentation","239","678852","0.0-44.0-1.7","SS1613081503116","trial","","40","800","5933.2200000179","images/stimuli/spore_stims/simple_03_B_c.gif","images/stimuli/spore_stims/simple_20_B_c.gif","","","","","12","simple_dissimilar","images/stimuli/spore_stims/simple_03_B_c.gif","right","","","","",""
"","2065.520000003744","html-keyboard-response","240","680923","0.0-45.0","SS1613081503116","pref_question","","49","","","","","<video width ='960' height = '540' style='padding-top:8%' autoplay muted><source src='images/stimuli/wall_pref.mp4' type='video/mp4'></video>","1","left","25%","12","","","","","","","",""
"","9204.964999982622","sequential-stimulus-presentation","241","690940","0.0-46.0","SS1613081503116","pref_reveal","","40","800","10004.964999982622","null","null","","","","","12","","","","novel","","","",""
"","null","html-keyboard-response","242","691831","0.0-47.0-0.0","SS1613081503116","","","null","","","","","<p><img src= images/blank.png width =""200"" height = ""200"" style = ""float:right""></p><p><img src=images/blank.png width =""800"" height = ""200""></p>","","","","","","","","","","","",""
"","7362.115000025369","sequential-stimulus-presentation","243","700004","0.0-47.0-1.0","SS1613081503116","trial","","40","800","8162.115000025369","images/stimuli/spore_stims/complex_16_A_a.gif","images/stimuli/spore_stims/complex_16_B_a.gif","","","","","13","complex_similar","images/stimuli/spore_stims/complex_16_B_a.gif","left","","","","",""
"","null","html-keyboard-response","244","701077","0.0-47.0-0.1","SS1613081503116","","","null","","","","","<p><img src= images/blank.png width =""200"" height = ""200"" style = ""float:right""></p><p><img src=images/blank.png width =""800"" height = ""200""></p>","","","","","","","","","","","",""
"","495.14499999349937","sequential-stimulus-presentation","245","702396","0.0-47.0-1.1","SS1613081503116","trial","","40","800","1295.1449999934994","images/stimuli/spore_stims/complex_16_A_a.gif","images/stimuli/spore_stims/complex_16_B_a.gif","","","","","13","complex_similar","images/stimuli/spore_stims/complex_16_B_a.gif","left","","","","",""
"","null","html-keyboard-response","246","703531","0.0-47.0-0.2","SS1613081503116","","","null","","","","","<p><img src= images/blank.png width =""200"" height = ""200"" style = ""float:right""></p><p><img src=images/blank.png width =""800"" height = ""200""></p>","","","","","","","","","","","",""
"","414.2900000442751","sequential-stimulus-presentation","247","704755","0.0-47.0-1.2","SS1613081503116","trial","","40","800","1214.290000044275","images/stimuli/spore_stims/complex_16_A_a.gif","images/stimuli/spore_stims/complex_16_B_a.gif","","","","","13","complex_similar","images/stimuli/spore_stims/complex_16_B_a.gif","left","","","","",""
"","null","html-keyboard-response","248","705791","0.0-47.0-0.3","SS1613081503116","","","null","","","","","<p><img src= images/blank.png width =""200"" height = ""200"" style = ""float:right""></p><p><img src=images/blank.png width =""800"" height = ""200""></p>","","","","","","","","","","","",""
"","369.36000001151115","sequential-stimulus-presentation","249","706971","0.0-47.0-1.3","SS1613081503116","trial","","40","800","1169.3600000115111","images/stimuli/spore_stims/complex_16_A_a.gif","images/stimuli/spore_stims/complex_16_B_a.gif","","","","","13","complex_similar","images/stimuli/spore_stims/complex_16_B_a.gif","left","","","","",""
"","null","html-keyboard-response","250","708071","0.0-47.0-0.4","SS1613081503116","","","null","","","","","<p><img src= images/blank.png width =""200"" height = ""200"" style = ""float:right""></p><p><img src=images/blank.png width =""800"" height = ""200""></p>","","","","","","","","","","","",""
"","401.1000000173226","sequential-stimulus-presentation","251","709283","0.0-47.0-1.4","SS1613081503116","trial","","40","800","1201.1000000173226","images/stimuli/spore_stims/complex_16_A_a.gif","images/stimuli/spore_stims/complex_16_B_a.gif","","","","","13","complex_similar","images/stimuli/spore_stims/complex_16_B_a.gif","left","","","","",""
"","null","html-keyboard-response","252","710401","0.0-47.0-0.5","SS1613081503116","","","null","","","","","<p><img src= images/blank.png width =""200"" height = ""200"" style = ""float:right""></p><p><img src=images/blank.png width =""800"" height = ""200""></p>","","","","","","","","","","","",""
"","479.80999998981133","sequential-stimulus-presentation","253","711697","0.0-47.0-1.5","SS1613081503116","trial","","40","800","1279.8099999898113","images/stimuli/spore_stims/complex_16_A_a.gif","images/stimuli/spore_stims/complex_16_B_a.gif","","","","","13","complex_similar","images/stimuli/spore_stims/complex_16_B_a.gif","left","","","","",""
"","null","html-keyboard-response","254","712982","0.0-47.0-0.6","SS1613081503116","","","null","","","","","<p><img src= images/blank.png width =""200"" height = ""200"" style = ""float:right""></p><p><img src=images/blank.png width =""800"" height = ""200""></p>","","","","","","","","","","","",""
"","5878.844999999274","sequential-stimulus-presentation","255","719674","0.0-47.0-1.6","SS1613081503116","trial","","40","800","6678.844999999274","images/stimuli/spore_stims/complex_16_A_a.gif","images/stimuli/spore_stims/complex_16_B_a.gif","","","","","13","complex_similar","images/stimuli/spore_stims/complex_16_A_a.gif","middle","","","","",""
"","null","html-keyboard-response","256","720836","0.0-47.0-0.7","SS1613081503116","","","null","","","","","<p><img src= images/blank.png width =""200"" height = ""200"" style = ""float:right""></p><p><img src=images/blank.png width =""800"" height = ""200""></p>","","","","","","","","","","","",""
"","750.3000000142492","sequential-stimulus-presentation","257","722401","0.0-47.0-1.7","SS1613081503116","trial","","40","800","1550.3000000142492","images/stimuli/spore_stims/complex_16_A_a.gif","images/stimuli/spore_stims/complex_16_B_a.gif","","","","","13","complex_similar","images/stimuli/spore_stims/complex_16_B_a.gif","left","","","","",""
"","2050.5799999809824","html-keyboard-response","258","724457","0.0-48.0","SS1613081503116","pref_question","","51","","","","","<video width ='960' height = '540' style='padding-top:8%' autoplay muted><source src='images/stimuli/wall_pref.mp4' type='video/mp4'></video>","3","right","66%","13","","","","","","","",""
"","6378.589999978431","sequential-stimulus-presentation","259","731666","0.0-49.0","SS1613081503116","pref_reveal","","40","800","7178.589999978431","null","null","","","","","13","","","","novel","","","",""
"","null","html-keyboard-response","260","732506","0.0-50.0-0.0","SS1613081503116","","","null","","","","","<p><img src= images/blank.png width =""200"" height = ""200"" style = ""float:right""></p><p><img src=images/blank.png width =""800"" height = ""200""></p>","","","","","","","","","","","",""
"","5943.184999981895","sequential-stimulus-presentation","261","739257","0.0-50.0-1.0","SS1613081503116","trial","","40","800","6743.184999981895","images/stimuli/spore_stims/simple_14_B_a.gif","images/stimuli/spore_stims/simple_14_A_a.gif","","","","","14","simple_similar","images/stimuli/spore_stims/simple_14_A_a.gif","middle","","","","",""
"","null","html-keyboard-response","262","740216","0.0-50.0-0.1","SS1613081503116","","","null","","","","","<p><img src= images/blank.png width =""200"" height = ""200"" style = ""float:right""></p><p><img src=images/blank.png width =""800"" height = ""200""></p>","","","","","","","","","","","",""
"","553.1499999924563","sequential-stimulus-presentation","263","741577","0.0-50.0-1.1","SS1613081503116","trial","","40","800","1353.1499999924563","images/stimuli/spore_stims/simple_14_B_a.gif","images/stimuli/spore_stims/simple_14_A_a.gif","","","","","14","simple_similar","images/stimuli/spore_stims/simple_14_A_a.gif","middle","","","","",""
"","null","html-keyboard-response","264","742583","0.0-50.0-0.2","SS1613081503116","","","null","","","","","<p><img src= images/blank.png width =""200"" height = ""200"" style = ""float:right""></p><p><img src=images/blank.png width =""800"" height = ""200""></p>","","","","","","","","","","","",""
"","342.4900000100024","sequential-stimulus-presentation","265","743738","0.0-50.0-1.2","SS1613081503116","trial","","40","800","1142.4900000100024","images/stimuli/spore_stims/simple_14_B_a.gif","images/stimuli/spore_stims/simple_14_A_a.gif","","","","","14","simple_similar","images/stimuli/spore_stims/simple_14_A_a.gif","middle","","","","",""
"","null","html-keyboard-response","266","744630","0.0-50.0-0.3","SS1613081503116","","","null","","","","","<p><img src= images/blank.png width =""200"" height = ""200"" style = ""float:right""></p><p><img src=images/blank.png width =""800"" height = ""200""></p>","","","","","","","","","","","",""
"","4592.429999960586","sequential-stimulus-presentation","267","750033","0.0-50.0-1.3","SS1613081503116","trial","","40","800","5392.429999960586","images/stimuli/spore_stims/simple_14_B_a.gif","images/stimuli/spore_stims/simple_14_A_a.gif","","","","","14","simple_similar","images/stimuli/spore_stims/simple_14_B_a.gif","left","","","","",""
"","null","html-keyboard-response","268","750982","0.0-50.0-0.4","SS1613081503116","","","null","","","","","<p><img src= images/blank.png width =""200"" height = ""200"" style = ""float:right""></p><p><img src=images/blank.png width =""800"" height = ""200""></p>","","","","","","","","","","","",""
"","876.9350000075065","sequential-stimulus-presentation","269","752673","0.0-50.0-1.4","SS1613081503116","trial","","40","800","1676.9350000075065","images/stimuli/spore_stims/simple_14_B_a.gif","images/stimuli/spore_stims/simple_14_A_a.gif","","","","","14","simple_similar","images/stimuli/spore_stims/simple_14_A_a.gif","middle","","","","",""
"","null","html-keyboard-response","270","753917","0.0-50.0-0.5","SS1613081503116","","","null","","","","","<p><img src= images/blank.png width =""200"" height = ""200"" style = ""float:right""></p><p><img src=images/blank.png width =""800"" height = ""200""></p>","","","","","","","","","","","",""
"","667.0199999934994","sequential-stimulus-presentation","271","755393","0.0-50.0-1.5","SS1613081503116","trial","","40","800","1467.0199999934994","images/stimuli/spore_stims/simple_14_B_a.gif","images/stimuli/spore_stims/simple_14_A_a.gif","","","","","14","simple_similar","images/stimuli/spore_stims/simple_14_A_a.gif","middle","","","","",""
"","null","html-keyboard-response","272","756392","0.0-50.0-0.6","SS1613081503116","","","null","","","","","<p><img src= images/blank.png width =""200"" height = ""200"" style = ""float:right""></p><p><img src=images/blank.png width =""800"" height = ""200""></p>","","","","","","","","","","","",""
"","944.3299999693409","sequential-stimulus-presentation","273","758169","0.0-50.0-1.6","SS1613081503116","trial","","40","800","1744.3299999693409","images/stimuli/spore_stims/simple_14_B_a.gif","images/stimuli/spore_stims/simple_14_A_a.gif","","","","","14","simple_similar","images/stimuli/spore_stims/simple_14_A_a.gif","middle","","","","",""
"","null","html-keyboard-response","274","759026","0.0-50.0-0.7","SS1613081503116","","","null","","","","","<p><img src= images/blank.png width =""200"" height = ""200"" style = ""float:right""></p><p><img src=images/blank.png width =""800"" height = ""200""></p>","","","","","","","","","","","",""
"","1406.7799999611452","sequential-stimulus-presentation","275","761249","0.0-50.0-1.7","SS1613081503116","trial","","40","800","2206.779999961145","images/stimuli/spore_stims/simple_14_B_a.gif","images/stimuli/spore_stims/simple_14_A_a.gif","","","","","14","simple_similar","images/stimuli/spore_stims/simple_14_A_a.gif","middle","","","","",""
"","1633.6649999720976","html-keyboard-response","276","762889","0.0-51.0","SS1613081503116","pref_question","","51","","","","","<video width ='960' height = '540' style='padding-top:8%' autoplay muted><source src='images/stimuli/wall_pref.mp4' type='video/mp4'></video>","3","right","66%","14","","","","","","","",""
"","6851.8049999838695","sequential-stimulus-presentation","277","770562","0.0-52.0","SS1613081503116","pref_reveal","","40","800","7651.8049999838695","null","null","","","","","14","","","","novel","","","",""
"","null","html-keyboard-response","278","771525","0.0-53.0-0.0","SS1613081503116","","","null","","","","","<p><img src= images/blank.png width =""200"" height = ""200"" style = ""float:right""></p><p><img src=images/blank.png width =""800"" height = ""200""></p>","","","","","","","","","","","",""
"","5819.155000033788","sequential-stimulus-presentation","279","778153","0.0-53.0-1.0","SS1613081503116","trial","","40","800","6619.155000033788","images/stimuli/spore_stims/simple_19_A_c.gif","images/stimuli/spore_stims/simple_19_B_c.gif","","","","","15","simple_similar","images/stimuli/spore_stims/simple_19_B_c.gif","right","","","","",""
"","null","html-keyboard-response","280","779453","0.0-53.0-0.1","SS1613081503116","","","null","","","","","<p><img src= images/blank.png width =""200"" height = ""200"" style = ""float:right""></p><p><img src=images/blank.png width =""800"" height = ""200""></p>","","","","","","","","","","","",""
"","452.0849999971688","sequential-stimulus-presentation","281","780714","0.0-53.0-1.1","SS1613081503116","trial","","40","800","1252.0849999971688","images/stimuli/spore_stims/simple_19_A_c.gif","images/stimuli/spore_stims/simple_19_B_c.gif","","","","","15","simple_similar","images/stimuli/spore_stims/simple_19_B_c.gif","right","","","","",""
"","null","html-keyboard-response","282","781937","0.0-53.0-0.2","SS1613081503116","","","null","","","","","<p><img src= images/blank.png width =""200"" height = ""200"" style = ""float:right""></p><p><img src=images/blank.png width =""800"" height = ""200""></p>","","","","","","","","","","","",""
"","475.4850000026636","sequential-stimulus-presentation","283","783226","0.0-53.0-1.2","SS1613081503116","trial","","40","800","1275.4850000026636","images/stimuli/spore_stims/simple_19_A_c.gif","images/stimuli/spore_stims/simple_19_B_c.gif","","","","","15","simple_similar","images/stimuli/spore_stims/simple_19_B_c.gif","right","","","","",""
"","null","html-keyboard-response","284","784313","0.0-53.0-0.3","SS1613081503116","","","null","","","","","<p><img src= images/blank.png width =""200"" height = ""200"" style = ""float:right""></p><p><img src=images/blank.png width =""800"" height = ""200""></p>","","","","","","","","","","","",""
"","484.62499998277053","sequential-stimulus-presentation","285","785610","0.0-53.0-1.3","SS1613081503116","trial","","40","800","1284.6249999827705","images/stimuli/spore_stims/simple_19_A_c.gif","images/stimuli/spore_stims/simple_19_B_c.gif","","","","","15","simple_similar","images/stimuli/spore_stims/simple_19_B_c.gif","right","","","","",""
"","null","html-keyboard-response","286","786740","0.0-53.0-0.4","SS1613081503116","","","null","","","","","<p><img src= images/blank.png width =""200"" height = ""200"" style = ""float:right""></p><p><img src=images/blank.png width =""800"" height = ""200""></p>","","","","","","","","","","","",""
"","510.30500000342727","sequential-stimulus-presentation","287","788066","0.0-53.0-1.4","SS1613081503116","trial","","40","800","1310.3050000034273","images/stimuli/spore_stims/simple_19_A_c.gif","images/stimuli/spore_stims/simple_19_B_c.gif","","","","","15","simple_similar","images/stimuli/spore_stims/simple_19_B_c.gif","right","","","","",""
"","null","html-keyboard-response","288","788912","0.0-53.0-0.5","SS1613081503116","","","null","","","","","<p><img src= images/blank.png width =""200"" height = ""200"" style = ""float:right""></p><p><img src=images/blank.png width =""800"" height = ""200""></p>","","","","","","","","","","","",""
"","815.5149999656714","sequential-stimulus-presentation","289","790546","0.0-53.0-1.5","SS1613081503116","trial","","40","800","1615.5149999656714","images/stimuli/spore_stims/simple_19_A_c.gif","images/stimuli/spore_stims/simple_19_B_c.gif","","","","","15","simple_similar","images/stimuli/spore_stims/simple_19_B_c.gif","right","","","","",""
"","null","html-keyboard-response","290","791507","0.0-53.0-0.6","SS1613081503116","","","null","","","","","<p><img src= images/blank.png width =""200"" height = ""200"" style = ""float:right""></p><p><img src=images/blank.png width =""800"" height = ""200""></p>","","","","","","","","","","","",""
"","5127.779999980703","sequential-stimulus-presentation","291","797442","0.0-53.0-1.6","SS1613081503116","trial","","40","800","5927.779999980703","images/stimuli/spore_stims/simple_19_A_c.gif","images/stimuli/spore_stims/simple_19_B_c.gif","","","","","15","simple_similar","images/stimuli/spore_stims/simple_19_A_c.gif","middle","","","","",""
"","null","html-keyboard-response","292","798533","0.0-53.0-0.7","SS1613081503116","","","null","","","","","<p><img src= images/blank.png width =""200"" height = ""200"" style = ""float:right""></p><p><img src=images/blank.png width =""800"" height = ""200""></p>","","","","","","","","","","","",""
"","507.6450000051409","sequential-stimulus-presentation","293","799850","0.0-53.0-1.7","SS1613081503116","trial","","40","800","1307.645000005141","images/stimuli/spore_stims/simple_19_A_c.gif","images/stimuli/spore_stims/simple_19_B_c.gif","","","","","15","simple_similar","images/stimuli/spore_stims/simple_19_B_c.gif","right","","","","",""
"","1673.7100000027567","html-keyboard-response","294","801530","0.0-54.0","SS1613081503116","pref_question","","49","","","","","<video width ='960' height = '540' style='padding-top:8%' autoplay muted><source src='images/stimuli/wall_pref.mp4' type='video/mp4'></video>","1","left","25%","15","","","","","","","",""
"","6748.37500002468","sequential-stimulus-presentation","295","809098","0.0-55.0","SS1613081503116","pref_reveal","","40","800","7548.37500002468","null","null","","","","","15","","","","novel","","","",""
"","null","html-keyboard-response","296","810293","0.0-56.0-0.0","SS1613081503116","","","null","","","","","<p><img src= images/blank.png width =""200"" height = ""200"" style = ""float:right""></p><p><img src=images/blank.png width =""800"" height = ""200""></p>","","","","","","","","","","","",""
"","4790.259999979753","sequential-stimulus-presentation","297","815897","0.0-56.0-1.0","SS1613081503116","trial","","40","800","5590.259999979753","images/stimuli/spore_stims/simple_11_A_b.gif","images/stimuli/spore_stims/simple_11_B_b.gif","","","","","16","simple_similar","images/stimuli/spore_stims/simple_11_B_b.gif","middle","","","","",""
"","null","html-keyboard-response","298","816897","0.0-56.0-0.1","SS1613081503116","","","null","","","","","<p><img src= images/blank.png width =""200"" height = ""200"" style = ""float:right""></p><p><img src=images/blank.png width =""800"" height = ""200""></p>","","","","","","","","","","","",""
"","505.36499998997897","sequential-stimulus-presentation","299","818217","0.0-56.0-1.1","SS1613081503116","trial","","40","800","1305.364999989979","images/stimuli/spore_stims/simple_11_A_b.gif","images/stimuli/spore_stims/simple_11_B_b.gif","","","","","16","simple_similar","images/stimuli/spore_stims/simple_11_B_b.gif","middle","","","","",""
"","null","html-keyboard-response","300","819052","0.0-56.0-0.2","SS1613081503116","","","null","","","","","<p><img src= images/blank.png width =""200"" height = ""200"" style = ""float:right""></p><p><img src=images/blank.png width =""800"" height = ""200""></p>","","","","","","","","","","","",""
"","5773.800000024494","sequential-stimulus-presentation","301","825634","0.0-56.0-1.2","SS1613081503116","trial","","40","800","6573.800000024494","images/stimuli/spore_stims/simple_11_A_b.gif","images/stimuli/spore_stims/simple_11_B_b.gif","","","","","16","simple_similar","images/stimuli/spore_stims/simple_11_A_b.gif","right","","","","",""
"","null","html-keyboard-response","302","826622","0.0-56.0-0.3","SS1613081503116","","","null","","","","","<p><img src= images/blank.png width =""200"" height = ""200"" style = ""float:right""></p><p><img src=images/blank.png width =""800"" height = ""200""></p>","","","","","","","","","","","",""
"","504.0750000043772","sequential-stimulus-presentation","303","827937","0.0-56.0-1.3","SS1613081503116","trial","","40","800","1304.0750000043772","images/stimuli/spore_stims/simple_11_A_b.gif","images/stimuli/spore_stims/simple_11_B_b.gif","","","","","16","simple_similar","images/stimuli/spore_stims/simple_11_B_b.gif","middle","","","","",""
"","null","html-keyboard-response","304","828967","0.0-56.0-0.4","SS1613081503116","","","null","","","","","<p><img src= images/blank.png width =""200"" height = ""200"" style = ""float:right""></p><p><img src=images/blank.png width =""800"" height = ""200""></p>","","","","","","","","","","","",""
"","937.7450000029057","sequential-stimulus-presentation","305","830729","0.0-56.0-1.4","SS1613081503116","trial","","40","800","1737.7450000029057","images/stimuli/spore_stims/simple_11_A_b.gif","images/stimuli/spore_stims/simple_11_B_b.gif","","","","","16","simple_similar","images/stimuli/spore_stims/simple_11_B_b.gif","middle","","","","",""
"","null","html-keyboard-response","306","831996","0.0-56.0-0.5","SS1613081503116","","","null","","","","","<p><img src= images/blank.png width =""200"" height = ""200"" style = ""float:right""></p><p><img src=images/blank.png width =""800"" height = ""200""></p>","","","","","","","","","","","",""
"","568.9300000085495","sequential-stimulus-presentation","307","833385","0.0-56.0-1.5","SS1613081503116","trial","","40","800","1368.9300000085495","images/stimuli/spore_stims/simple_11_A_b.gif","images/stimuli/spore_stims/simple_11_B_b.gif","","","","","16","simple_similar","images/stimuli/spore_stims/simple_11_B_b.gif","middle","","","","",""
"","null","html-keyboard-response","308","834234","0.0-56.0-0.6","SS1613081503116","","","null","","","","","<p><img src= images/blank.png width =""200"" height = ""200"" style = ""float:right""></p><p><img src=images/blank.png width =""800"" height = ""200""></p>","","","","","","","","","","","",""
"","737.8749999916181","sequential-stimulus-presentation","309","835786","0.0-56.0-1.6","SS1613081503116","trial","","40","800","1537.874999991618","images/stimuli/spore_stims/simple_11_A_b.gif","images/stimuli/spore_stims/simple_11_B_b.gif","","","","","16","simple_similar","images/stimuli/spore_stims/simple_11_B_b.gif","middle","","","","",""
"","null","html-keyboard-response","310","837087","0.0-56.0-0.7","SS1613081503116","","","null","","","","","<p><img src= images/blank.png width =""200"" height = ""200"" style = ""float:right""></p><p><img src=images/blank.png width =""800"" height = ""200""></p>","","","","","","","","","","","",""
"","506.30000000819564","sequential-stimulus-presentation","311","838401","0.0-56.0-1.7","SS1613081503116","trial","","40","800","1306.3000000081956","images/stimuli/spore_stims/simple_11_A_b.gif","images/stimuli/spore_stims/simple_11_B_b.gif","","","","","16","simple_similar","images/stimuli/spore_stims/simple_11_B_b.gif","middle","","","","",""
"","2615.2000000001863","html-keyboard-response","312","841033","0.0-57.0","SS1613081503116","pref_question","","49","","","","","<video width ='960' height = '540' style='padding-top:8%' autoplay muted><source src='images/stimuli/wall_pref.mp4' type='video/mp4'></video>","1","left","25%","16","","","","","","","",""
