"view_history","rt","trial_type","trial_index","time_elapsed","internal_node_id","subject","stimulus_type","trial_stimulus","key_press","minimum_viewing_duration","trial_looking_time","block_deviant","block_background","stimulus","wall_pref","location","location_percent","block_number","block_type","stimulus_displayed","position_displayed","stim_type_selected","responses","question_order","stimulus_left","stimulus_right"
"[{""page_index"":0,""viewing_time"":4291.255000047386}]","4293.180000036955","instructions","0","4321","0.0-0.0","SS1613100524463","","","","","","","","","","","","","","","","","","","",""
"[{""page_index"":0,""viewing_time"":7881.640000035986},{""page_index"":1,""viewing_time"":6661.089999950491}]","14543.26500010211","instructions","1","20877","0.0-1.0","SS1613100524463","instructions","","","","","","","","","","","","","","","","","","",""
"","7885.895000072196","sequential-stimulus-presentation","2","29992","0.0-2.0","SS1613100524463","","","40","800","8685.895000072196","null","null","","","","","","","","","","","","",""
"","3299.914999981411","sequential-stimulus-presentation","3","34207","0.0-3.0","SS1613100524463","","","40","800","4099.914999981411","null","null","","","","","","","","","","","","",""
"[{""page_index"":0,""viewing_time"":3592.024999903515}]","3593.0099999532104","instructions","4","37804","0.0-4.0","SS1613100524463","instructions","","","","","","","","","","","","","","","","","","",""
"","11733.110000030138","html-keyboard-response","5","49549","0.0-5.0","SS1613100524463","instructions","","50","","","","","<video width ='960' height = '540' autoplay muted><source src='images/stimuli/wall_pref.mp4' type='video/mp4'></video>","2","middle","45%","","","","","","","","",""
"","1178.665000014007","sequential-stimulus-presentation","6","51559","0.0-6.0","SS1613100524463","pref_reveal","","40","800","1978.665000014007","null","null","","","","","","","","","","","","",""
"[{""page_index"":0,""viewing_time"":8019.119999953546},{""page_index"":1,""viewing_time"":3872.760000056587},{""page_index"":2,""viewing_time"":2508.0399999860674},{""page_index"":3,""viewing_time"":1553.3249999862164}]","15953.854999970645","instructions","7","67516","0.0-7.0","SS1613100524463","instructions","","","","","","","","","","","","","","","","","","",""
"","null","html-keyboard-response","8","68828","0.0-8.0-0.0","SS1613100524463","","","null","","","","","<p><img src= images/blank.png width =""200"" height = ""200"" style = ""float:right""></p><p><img src=images/blank.png width =""800"" height = ""200""></p>","","","","","","","","","","","",""
"","1558.3699999842793","sequential-stimulus-presentation","9","71223","0.0-8.0-1.0","SS1613100524463","trial","","40","800","2358.3699999842793","images/stimuli/spore_stims/complex_09_B_d.gif","images/stimuli/spore_stims/complex_08_B_b.gif","","","","","0","complex_dissimilar","images/stimuli/spore_stims/complex_08_B_b.gif","middle","","","","",""
"","null","html-keyboard-response","10","72476","0.0-8.0-0.1","SS1613100524463","","","null","","","","","<p><img src= images/blank.png width =""200"" height = ""200"" style = ""float:right""></p><p><img src=images/blank.png width =""800"" height = ""200""></p>","","","","","","","","","","","",""
"","918.2450000662357","sequential-stimulus-presentation","11","74238","0.0-8.0-1.1","SS1613100524463","trial","","40","800","1718.2450000662357","images/stimuli/spore_stims/complex_09_B_d.gif","images/stimuli/spore_stims/complex_08_B_b.gif","","","","","0","complex_dissimilar","images/stimuli/spore_stims/complex_08_B_b.gif","middle","","","","",""
"","null","html-keyboard-response","12","75268","0.0-8.0-0.2","SS1613100524463","","","null","","","","","<p><img src= images/blank.png width =""200"" height = ""200"" style = ""float:right""></p><p><img src=images/blank.png width =""800"" height = ""200""></p>","","","","","","","","","","","",""
"","595.5500000854954","sequential-stimulus-presentation","13","76678","0.0-8.0-1.2","SS1613100524463","trial","","40","800","1395.5500000854954","images/stimuli/spore_stims/complex_09_B_d.gif","images/stimuli/spore_stims/complex_08_B_b.gif","","","","","0","complex_dissimilar","images/stimuli/spore_stims/complex_08_B_b.gif","middle","","","","",""
"","null","html-keyboard-response","14","77661","0.0-8.0-0.3","SS1613100524463","","","null","","","","","<p><img src= images/blank.png width =""200"" height = ""200"" style = ""float:right""></p><p><img src=images/blank.png width =""800"" height = ""200""></p>","","","","","","","","","","","",""
"","545.310000074096","sequential-stimulus-presentation","15","79019","0.0-8.0-1.3","SS1613100524463","trial","","40","800","1345.310000074096","images/stimuli/spore_stims/complex_09_B_d.gif","images/stimuli/spore_stims/complex_08_B_b.gif","","","","","0","complex_dissimilar","images/stimuli/spore_stims/complex_08_B_b.gif","middle","","","","",""
"","null","html-keyboard-response","16","80300","0.0-8.0-0.4","SS1613100524463","","","null","","","","","<p><img src= images/blank.png width =""200"" height = ""200"" style = ""float:right""></p><p><img src=images/blank.png width =""800"" height = ""200""></p>","","","","","","","","","","","",""
"","561.8450000183657","sequential-stimulus-presentation","17","81750","0.0-8.0-1.4","SS1613100524463","trial","","40","800","1361.8450000183657","images/stimuli/spore_stims/complex_09_B_d.gif","images/stimuli/spore_stims/complex_08_B_b.gif","","","","","0","complex_dissimilar","images/stimuli/spore_stims/complex_09_B_d.gif","left","","","","",""
"","null","html-keyboard-response","18","82797","0.0-8.0-0.5","SS1613100524463","","","null","","","","","<p><img src= images/blank.png width =""200"" height = ""200"" style = ""float:right""></p><p><img src=images/blank.png width =""800"" height = ""200""></p>","","","","","","","","","","","",""
"","617.2849999275059","sequential-stimulus-presentation","19","84235","0.0-8.0-1.5","SS1613100524463","trial","","40","800","1417.2849999275059","images/stimuli/spore_stims/complex_09_B_d.gif","images/stimuli/spore_stims/complex_08_B_b.gif","","","","","0","complex_dissimilar","images/stimuli/spore_stims/complex_08_B_b.gif","middle","","","","",""
"","null","html-keyboard-response","20","85305","0.0-8.0-0.6","SS1613100524463","","","null","","","","","<p><img src= images/blank.png width =""200"" height = ""200"" style = ""float:right""></p><p><img src=images/blank.png width =""800"" height = ""200""></p>","","","","","","","","","","","",""
"","821.3650000980124","sequential-stimulus-presentation","21","87073","0.0-8.0-1.6","SS1613100524463","trial","","40","800","1621.3650000980124","images/stimuli/spore_stims/complex_09_B_d.gif","images/stimuli/spore_stims/complex_08_B_b.gif","","","","","0","complex_dissimilar","images/stimuli/spore_stims/complex_08_B_b.gif","middle","","","","",""
"","null","html-keyboard-response","22","87943","0.0-8.0-0.7","SS1613100524463","","","null","","","","","<p><img src= images/blank.png width =""200"" height = ""200"" style = ""float:right""></p><p><img src=images/blank.png width =""800"" height = ""200""></p>","","","","","","","","","","","",""
"","323.30499996896833","sequential-stimulus-presentation","23","89146","0.0-8.0-1.7","SS1613100524463","trial","","40","800","1123.3049999689683","images/stimuli/spore_stims/complex_09_B_d.gif","images/stimuli/spore_stims/complex_08_B_b.gif","","","","","0","complex_dissimilar","images/stimuli/spore_stims/complex_08_B_b.gif","middle","","","","",""
"","9983.98499994073","html-keyboard-response","24","99166","0.0-9.0","SS1613100524463","pref_question","","49","","","","","<video width ='960' height = '540' style='padding-top:8%' autoplay muted><source src='images/stimuli/wall_pref.mp4' type='video/mp4'></video>","1","left","25%","0","","","","","","","",""
"","3850.399999995716","sequential-stimulus-presentation","25","103829","0.0-10.0","SS1613100524463","pref_reveal","","40","800","4650.399999995716","null","null","","","","","0","","","","deviant","","","",""
"","null","html-keyboard-response","26","104800","0.0-11.0-0.0","SS1613100524463","","","null","","","","","<p><img src= images/blank.png width =""200"" height = ""200"" style = ""float:right""></p><p><img src=images/blank.png width =""800"" height = ""200""></p>","","","","","","","","","","","",""
"","643.5899999924004","sequential-stimulus-presentation","27","106269","0.0-11.0-1.0","SS1613100524463","trial","","40","800","1443.5899999924004","images/stimuli/spore_stims/simple_19_B_b.gif","images/stimuli/spore_stims/simple_19_A_b.gif","","","","","1","simple_similar","images/stimuli/spore_stims/simple_19_A_b.gif","left","","","","",""
"","null","html-keyboard-response","28","107472","0.0-11.0-0.1","SS1613100524463","","","null","","","","","<p><img src= images/blank.png width =""200"" height = ""200"" style = ""float:right""></p><p><img src=images/blank.png width =""800"" height = ""200""></p>","","","","","","","","","","","",""
"","585.590000031516","sequential-stimulus-presentation","29","108884","0.0-11.0-1.1","SS1613100524463","trial","","40","800","1385.590000031516","images/stimuli/spore_stims/simple_19_B_b.gif","images/stimuli/spore_stims/simple_19_A_b.gif","","","","","1","simple_similar","images/stimuli/spore_stims/simple_19_A_b.gif","left","","","","",""
"","null","html-keyboard-response","30","109978","0.0-11.0-0.2","SS1613100524463","","","null","","","","","<p><img src= images/blank.png width =""200"" height = ""200"" style = ""float:right""></p><p><img src=images/blank.png width =""800"" height = ""200""></p>","","","","","","","","","","","",""
"","760.0849999580532","sequential-stimulus-presentation","31","111585","0.0-11.0-1.2","SS1613100524463","trial","","40","800","1560.0849999580532","images/stimuli/spore_stims/simple_19_B_b.gif","images/stimuli/spore_stims/simple_19_A_b.gif","","","","","1","simple_similar","images/stimuli/spore_stims/simple_19_A_b.gif","left","","","","",""
"","null","html-keyboard-response","32","112662","0.0-11.0-0.3","SS1613100524463","","","null","","","","","<p><img src= images/blank.png width =""200"" height = ""200"" style = ""float:right""></p><p><img src=images/blank.png width =""800"" height = ""200""></p>","","","","","","","","","","","",""
"","707.7300000237301","sequential-stimulus-presentation","33","114188","0.0-11.0-1.3","SS1613100524463","trial","","40","800","1507.73000002373","images/stimuli/spore_stims/simple_19_B_b.gif","images/stimuli/spore_stims/simple_19_A_b.gif","","","","","1","simple_similar","images/stimuli/spore_stims/simple_19_A_b.gif","left","","","","",""
"","null","html-keyboard-response","34","115003","0.0-11.0-0.4","SS1613100524463","","","null","","","","","<p><img src= images/blank.png width =""200"" height = ""200"" style = ""float:right""></p><p><img src=images/blank.png width =""800"" height = ""200""></p>","","","","","","","","","","","",""
"","2789.2500000307336","sequential-stimulus-presentation","35","118621","0.0-11.0-1.4","SS1613100524463","trial","","40","800","3589.2500000307336","images/stimuli/spore_stims/simple_19_B_b.gif","images/stimuli/spore_stims/simple_19_A_b.gif","","","","","1","simple_similar","images/stimuli/spore_stims/simple_19_A_b.gif","left","","","","",""
"","null","html-keyboard-response","36","119500","0.0-11.0-0.5","SS1613100524463","","","null","","","","","<p><img src= images/blank.png width =""200"" height = ""200"" style = ""float:right""></p><p><img src=images/blank.png width =""800"" height = ""200""></p>","","","","","","","","","","","",""
"","1605.0650000106543","sequential-stimulus-presentation","37","121920","0.0-11.0-1.5","SS1613100524463","trial","","40","800","2405.0650000106543","images/stimuli/spore_stims/simple_19_B_b.gif","images/stimuli/spore_stims/simple_19_A_b.gif","","","","","1","simple_similar","images/stimuli/spore_stims/simple_19_A_b.gif","left","","","","",""
"","null","html-keyboard-response","38","123131","0.0-11.0-0.6","SS1613100524463","","","null","","","","","<p><img src= images/blank.png width =""200"" height = ""200"" style = ""float:right""></p><p><img src=images/blank.png width =""800"" height = ""200""></p>","","","","","","","","","","","",""
"","585.5849999934435","sequential-stimulus-presentation","39","124542","0.0-11.0-1.6","SS1613100524463","trial","","40","800","1385.5849999934435","images/stimuli/spore_stims/simple_19_B_b.gif","images/stimuli/spore_stims/simple_19_A_b.gif","","","","","1","simple_similar","images/stimuli/spore_stims/simple_19_A_b.gif","left","","","","",""
"","null","html-keyboard-response","40","125692","0.0-11.0-0.7","SS1613100524463","","","null","","","","","<p><img src= images/blank.png width =""200"" height = ""200"" style = ""float:right""></p><p><img src=images/blank.png width =""800"" height = ""200""></p>","","","","","","","","","","","",""
"","1859.6850000321865","sequential-stimulus-presentation","41","128364","0.0-11.0-1.7","SS1613100524463","trial","","40","800","2659.6850000321865","images/stimuli/spore_stims/simple_19_B_b.gif","images/stimuli/spore_stims/simple_19_A_b.gif","","","","","1","simple_similar","images/stimuli/spore_stims/simple_19_B_b.gif","right","","","","",""
"","3931.3650000840425","html-keyboard-response","42","132301","0.0-12.0","SS1613100524463","pref_question","","51","","","","","<video width ='960' height = '540' style='padding-top:8%' autoplay muted><source src='images/stimuli/wall_pref.mp4' type='video/mp4'></video>","3","right","66%","1","","","","","","","",""
"","2769.4200000260025","sequential-stimulus-presentation","43","135893","0.0-13.0","SS1613100524463","pref_reveal","","40","800","3569.4200000260025","null","null","","","","","1","","","","deviant","","","",""
"","null","html-keyboard-response","44","137068","0.0-14.0-0.0","SS1613100524463","","","null","","","","","<p><img src= images/blank.png width =""200"" height = ""200"" style = ""float:right""></p><p><img src=images/blank.png width =""800"" height = ""200""></p>","","","","","","","","","","","",""
"","758.0199999501929","sequential-stimulus-presentation","45","138642","0.0-14.0-1.0","SS1613100524463","trial","","40","800","1558.0199999501929","images/stimuli/spore_stims/simple_09_B_c.gif","images/stimuli/spore_stims/simple_05_A_b.gif","","","","","2","simple_dissimilar","images/stimuli/spore_stims/simple_05_A_b.gif","middle","","","","",""
"","null","html-keyboard-response","46","139769","0.0-14.0-0.1","SS1613100524463","","","null","","","","","<p><img src= images/blank.png width =""200"" height = ""200"" style = ""float:right""></p><p><img src=images/blank.png width =""800"" height = ""200""></p>","","","","","","","","","","","",""
"","1964.585000067018","sequential-stimulus-presentation","47","142554","0.0-14.0-1.1","SS1613100524463","trial","","40","800","2764.585000067018","images/stimuli/spore_stims/simple_09_B_c.gif","images/stimuli/spore_stims/simple_05_A_b.gif","","","","","2","simple_dissimilar","images/stimuli/spore_stims/simple_05_A_b.gif","middle","","","","",""
"","null","html-keyboard-response","48","143866","0.0-14.0-0.2","SS1613100524463","","","null","","","","","<p><img src= images/blank.png width =""200"" height = ""200"" style = ""float:right""></p><p><img src=images/blank.png width =""800"" height = ""200""></p>","","","","","","","","","","","",""
"","1369.5199999492615","sequential-stimulus-presentation","49","146071","0.0-14.0-1.2","SS1613100524463","trial","","40","800","2169.5199999492615","images/stimuli/spore_stims/simple_09_B_c.gif","images/stimuli/spore_stims/simple_05_A_b.gif","","","","","2","simple_dissimilar","images/stimuli/spore_stims/simple_09_B_c.gif","left","","","","",""
"","null","html-keyboard-response","50","146947","0.0-14.0-0.3","SS1613100524463","","","null","","","","","<p><img src= images/blank.png width =""200"" height = ""200"" style = ""float:right""></p><p><img src=images/blank.png width =""800"" height = ""200""></p>","","","","","","","","","","","",""
"","1019.1450000274926","sequential-stimulus-presentation","51","148921","0.0-14.0-1.3","SS1613100524463","trial","","40","800","1819.1450000274926","images/stimuli/spore_stims/simple_09_B_c.gif","images/stimuli/spore_stims/simple_05_A_b.gif","","","","","2","simple_dissimilar","images/stimuli/spore_stims/simple_05_A_b.gif","middle","","","","",""
"","null","html-keyboard-response","52","150130","0.0-14.0-0.4","SS1613100524463","","","null","","","","","<p><img src= images/blank.png width =""200"" height = ""200"" style = ""float:right""></p><p><img src=images/blank.png width =""800"" height = ""200""></p>","","","","","","","","","","","",""
"","1611.09000002034","sequential-stimulus-presentation","53","152560","0.0-14.0-1.4","SS1613100524463","trial","","40","800","2411.09000002034","images/stimuli/spore_stims/simple_09_B_c.gif","images/stimuli/spore_stims/simple_05_A_b.gif","","","","","2","simple_dissimilar","images/stimuli/spore_stims/simple_05_A_b.gif","middle","","","","",""
"","null","html-keyboard-response","54","153805","0.0-14.0-0.5","SS1613100524463","","","null","","","","","<p><img src= images/blank.png width =""200"" height = ""200"" style = ""float:right""></p><p><img src=images/blank.png width =""800"" height = ""200""></p>","","","","","","","","","","","",""
"","1446.460000006482","sequential-stimulus-presentation","55","156084","0.0-14.0-1.5","SS1613100524463","trial","","40","800","2246.460000006482","images/stimuli/spore_stims/simple_09_B_c.gif","images/stimuli/spore_stims/simple_05_A_b.gif","","","","","2","simple_dissimilar","images/stimuli/spore_stims/simple_05_A_b.gif","middle","","","","",""
"","null","html-keyboard-response","56","157155","0.0-14.0-0.6","SS1613100524463","","","null","","","","","<p><img src= images/blank.png width =""200"" height = ""200"" style = ""float:right""></p><p><img src=images/blank.png width =""800"" height = ""200""></p>","","","","","","","","","","","",""
"","1300.2100000157952","sequential-stimulus-presentation","57","159366","0.0-14.0-1.6","SS1613100524463","trial","","40","800","2100.2100000157952","images/stimuli/spore_stims/simple_09_B_c.gif","images/stimuli/spore_stims/simple_05_A_b.gif","","","","","2","simple_dissimilar","images/stimuli/spore_stims/simple_05_A_b.gif","middle","","","","",""
"","null","html-keyboard-response","58","160680","0.0-14.0-0.7","SS1613100524463","","","null","","","","","<p><img src= images/blank.png width =""200"" height = ""200"" style = ""float:right""></p><p><img src=images/blank.png width =""800"" height = ""200""></p>","","","","","","","","","","","",""
"","688.7750000460073","sequential-stimulus-presentation","59","162201","0.0-14.0-1.7","SS1613100524463","trial","","40","800","1488.7750000460073","images/stimuli/spore_stims/simple_09_B_c.gif","images/stimuli/spore_stims/simple_05_A_b.gif","","","","","2","simple_dissimilar","images/stimuli/spore_stims/simple_05_A_b.gif","middle","","","","",""
"","3990.7700000330806","html-keyboard-response","60","166201","0.0-15.0","SS1613100524463","pref_question","","51","","","","","<video width ='960' height = '540' style='padding-top:8%' autoplay muted><source src='images/stimuli/wall_pref.mp4' type='video/mp4'></video>","3","right","66%","2","","","","","","","",""
"","1980.3550000069663","sequential-stimulus-presentation","61","168999","0.0-16.0","SS1613100524463","pref_reveal","","40","800","2780.3550000069663","null","null","","","","","2","","","","novel","","","",""
"","null","html-keyboard-response","62","169939","0.0-17.0-0.0","SS1613100524463","","","null","","","","","<p><img src= images/blank.png width =""200"" height = ""200"" style = ""float:right""></p><p><img src=images/blank.png width =""800"" height = ""200""></p>","","","","","","","","","","","",""
"","508.16000008489937","sequential-stimulus-presentation","63","171273","0.0-17.0-1.0","SS1613100524463","trial","","40","800","1308.1600000848994","images/stimuli/spore_stims/complex_14_B_d.gif","images/stimuli/spore_stims/complex_14_A_d.gif","","","","","3","complex_similar","images/stimuli/spore_stims/complex_14_A_d.gif","middle","","","","",""
"","null","html-keyboard-response","64","172440","0.0-17.0-0.1","SS1613100524463","","","null","","","","","<p><img src= images/blank.png width =""200"" height = ""200"" style = ""float:right""></p><p><img src=images/blank.png width =""800"" height = ""200""></p>","","","","","","","","","","","",""
"","415.5199999222532","sequential-stimulus-presentation","65","173770","0.0-17.0-1.1","SS1613100524463","trial","","40","800","1215.5199999222532","images/stimuli/spore_stims/complex_14_B_d.gif","images/stimuli/spore_stims/complex_14_A_d.gif","","","","","3","complex_similar","images/stimuli/spore_stims/complex_14_A_d.gif","middle","","","","",""
"","null","html-keyboard-response","66","174706","0.0-17.0-0.2","SS1613100524463","","","null","","","","","<p><img src= images/blank.png width =""200"" height = ""200"" style = ""float:right""></p><p><img src=images/blank.png width =""800"" height = ""200""></p>","","","","","","","","","","","",""
"","599.3000000016764","sequential-stimulus-presentation","67","176149","0.0-17.0-1.2","SS1613100524463","trial","","40","800","1399.3000000016764","images/stimuli/spore_stims/complex_14_B_d.gif","images/stimuli/spore_stims/complex_14_A_d.gif","","","","","3","complex_similar","images/stimuli/spore_stims/complex_14_A_d.gif","middle","","","","",""
"","null","html-keyboard-response","68","177303","0.0-17.0-0.3","SS1613100524463","","","null","","","","","<p><img src= images/blank.png width =""200"" height = ""200"" style = ""float:right""></p><p><img src=images/blank.png width =""800"" height = ""200""></p>","","","","","","","","","","","",""
"","448.08000000193715","sequential-stimulus-presentation","69","178592","0.0-17.0-1.3","SS1613100524463","trial","","40","800","1248.0800000019372","images/stimuli/spore_stims/complex_14_B_d.gif","images/stimuli/spore_stims/complex_14_A_d.gif","","","","","3","complex_similar","images/stimuli/spore_stims/complex_14_A_d.gif","middle","","","","",""
"","null","html-keyboard-response","70","179623","0.0-17.0-0.4","SS1613100524463","","","null","","","","","<p><img src= images/blank.png width =""200"" height = ""200"" style = ""float:right""></p><p><img src=images/blank.png width =""800"" height = ""200""></p>","","","","","","","","","","","",""
"","883.7099999655038","sequential-stimulus-presentation","71","181373","0.0-17.0-1.4","SS1613100524463","trial","","40","800","1683.7099999655038","images/stimuli/spore_stims/complex_14_B_d.gif","images/stimuli/spore_stims/complex_14_A_d.gif","","","","","3","complex_similar","images/stimuli/spore_stims/complex_14_B_d.gif","right","","","","",""
"","null","html-keyboard-response","72","182273","0.0-17.0-0.5","SS1613100524463","","","null","","","","","<p><img src= images/blank.png width =""200"" height = ""200"" style = ""float:right""></p><p><img src=images/blank.png width =""800"" height = ""200""></p>","","","","","","","","","","","",""
"","394.9299999512732","sequential-stimulus-presentation","73","183515","0.0-17.0-1.5","SS1613100524463","trial","","40","800","1194.9299999512732","images/stimuli/spore_stims/complex_14_B_d.gif","images/stimuli/spore_stims/complex_14_A_d.gif","","","","","3","complex_similar","images/stimuli/spore_stims/complex_14_A_d.gif","middle","","","","",""
"","null","html-keyboard-response","74","184766","0.0-17.0-0.6","SS1613100524463","","","null","","","","","<p><img src= images/blank.png width =""200"" height = ""200"" style = ""float:right""></p><p><img src=images/blank.png width =""800"" height = ""200""></p>","","","","","","","","","","","",""
"","656.5600000321865","sequential-stimulus-presentation","75","186248","0.0-17.0-1.6","SS1613100524463","trial","","40","800","1456.5600000321865","images/stimuli/spore_stims/complex_14_B_d.gif","images/stimuli/spore_stims/complex_14_A_d.gif","","","","","3","complex_similar","images/stimuli/spore_stims/complex_14_A_d.gif","middle","","","","",""
"","null","html-keyboard-response","76","187306","0.0-17.0-0.7","SS1613100524463","","","null","","","","","<p><img src= images/blank.png width =""200"" height = ""200"" style = ""float:right""></p><p><img src=images/blank.png width =""800"" height = ""200""></p>","","","","","","","","","","","",""
"","431.4899999881163","sequential-stimulus-presentation","77","188810","0.0-17.0-1.7","SS1613100524463","trial","","40","800","1231.4899999881163","images/stimuli/spore_stims/complex_14_B_d.gif","images/stimuli/spore_stims/complex_14_A_d.gif","","","","","3","complex_similar","images/stimuli/spore_stims/complex_14_A_d.gif","middle","","","","",""
"","2870.504999998957","html-keyboard-response","78","191693","0.0-18.0","SS1613100524463","pref_question","","49","","","","","<video width ='960' height = '540' style='padding-top:8%' autoplay muted><source src='images/stimuli/wall_pref.mp4' type='video/mp4'></video>","1","left","25%","3","","","","","","","",""
"","3742.8499999223277","sequential-stimulus-presentation","79","196407","0.0-19.0","SS1613100524463","pref_reveal","","40","800","4542.849999922328","null","null","","","","","3","","","","novel","","","",""
"","null","html-keyboard-response","80","197421","0.0-20.0-0.0","SS1613100524463","","","null","","","","","<p><img src= images/blank.png width =""200"" height = ""200"" style = ""float:right""></p><p><img src=images/blank.png width =""800"" height = ""200""></p>","","","","","","","","","","","",""
"","779.5649999752641","sequential-stimulus-presentation","81","199101","0.0-20.0-1.0","SS1613100524463","trial","","40","800","1579.564999975264","images/stimuli/spore_stims/simple_14_A_b.gif","images/stimuli/spore_stims/simple_20_A_d.gif","","","","","4","simple_dissimilar","images/stimuli/spore_stims/simple_20_A_d.gif","left","","","","",""
"","null","html-keyboard-response","82","200285","0.0-20.0-0.1","SS1613100524463","","","null","","","","","<p><img src= images/blank.png width =""200"" height = ""200"" style = ""float:right""></p><p><img src=images/blank.png width =""800"" height = ""200""></p>","","","","","","","","","","","",""
"","258.449999964796","sequential-stimulus-presentation","83","201380","0.0-20.0-1.1","SS1613100524463","trial","","40","800","1058.449999964796","images/stimuli/spore_stims/simple_14_A_b.gif","images/stimuli/spore_stims/simple_20_A_d.gif","","","","","4","simple_dissimilar","images/stimuli/spore_stims/simple_20_A_d.gif","left","","","","",""
"","null","html-keyboard-response","84","202391","0.0-20.0-0.2","SS1613100524463","","","null","","","","","<p><img src= images/blank.png width =""200"" height = ""200"" style = ""float:right""></p><p><img src=images/blank.png width =""800"" height = ""200""></p>","","","","","","","","","","","",""
"","599.8400000389665","sequential-stimulus-presentation","85","203811","0.0-20.0-1.2","SS1613100524463","trial","","40","800","1399.8400000389665","images/stimuli/spore_stims/simple_14_A_b.gif","images/stimuli/spore_stims/simple_20_A_d.gif","","","","","4","simple_dissimilar","images/stimuli/spore_stims/simple_20_A_d.gif","left","","","","",""
"","null","html-keyboard-response","86","205017","0.0-20.0-0.3","SS1613100524463","","","null","","","","","<p><img src= images/blank.png width =""200"" height = ""200"" style = ""float:right""></p><p><img src=images/blank.png width =""800"" height = ""200""></p>","","","","","","","","","","","",""
"","403.4549999050796","sequential-stimulus-presentation","87","206308","0.0-20.0-1.3","SS1613100524463","trial","","40","800","1203.4549999050796","images/stimuli/spore_stims/simple_14_A_b.gif","images/stimuli/spore_stims/simple_20_A_d.gif","","","","","4","simple_dissimilar","images/stimuli/spore_stims/simple_20_A_d.gif","left","","","","",""
"","null","html-keyboard-response","88","207511","0.0-20.0-0.4","SS1613100524463","","","null","","","","","<p><img src= images/blank.png width =""200"" height = ""200"" style = ""float:right""></p><p><img src=images/blank.png width =""800"" height = ""200""></p>","","","","","","","","","","","",""
"","480.4249999579042","sequential-stimulus-presentation","89","208824","0.0-20.0-1.4","SS1613100524463","trial","","40","800","1280.4249999579042","images/stimuli/spore_stims/simple_14_A_b.gif","images/stimuli/spore_stims/simple_20_A_d.gif","","","","","4","simple_dissimilar","images/stimuli/spore_stims/simple_20_A_d.gif","left","","","","",""
"","null","html-keyboard-response","90","209783","0.0-20.0-0.5","SS1613100524463","","","null","","","","","<p><img src= images/blank.png width =""200"" height = ""200"" style = ""float:right""></p><p><img src=images/blank.png width =""800"" height = ""200""></p>","","","","","","","","","","","",""
"","527.7599999681115","sequential-stimulus-presentation","91","211133","0.0-20.0-1.5","SS1613100524463","trial","","40","800","1327.7599999681115","images/stimuli/spore_stims/simple_14_A_b.gif","images/stimuli/spore_stims/simple_20_A_d.gif","","","","","4","simple_dissimilar","images/stimuli/spore_stims/simple_14_A_b.gif","right","","","","",""
"","null","html-keyboard-response","92","211991","0.0-20.0-0.6","SS1613100524463","","","null","","","","","<p><img src= images/blank.png width =""200"" height = ""200"" style = ""float:right""></p><p><img src=images/blank.png width =""800"" height = ""200""></p>","","","","","","","","","","","",""
"","1325.2550000324845","sequential-stimulus-presentation","93","214150","0.0-20.0-1.6","SS1613100524463","trial","","40","800","2125.2550000324845","images/stimuli/spore_stims/simple_14_A_b.gif","images/stimuli/spore_stims/simple_20_A_d.gif","","","","","4","simple_dissimilar","images/stimuli/spore_stims/simple_20_A_d.gif","left","","","","",""
"","null","html-keyboard-response","94","215217","0.0-20.0-0.7","SS1613100524463","","","null","","","","","<p><img src= images/blank.png width =""200"" height = ""200"" style = ""float:right""></p><p><img src=images/blank.png width =""800"" height = ""200""></p>","","","","","","","","","","","",""
"","845.6899999873713","sequential-stimulus-presentation","95","216878","0.0-20.0-1.7","SS1613100524463","trial","","40","800","1645.6899999873713","images/stimuli/spore_stims/simple_14_A_b.gif","images/stimuli/spore_stims/simple_20_A_d.gif","","","","","4","simple_dissimilar","images/stimuli/spore_stims/simple_20_A_d.gif","left","","","","",""
"","4743.795000016689","html-keyboard-response","96","221634","0.0-21.0","SS1613100524463","pref_question","","51","","","","","<video width ='960' height = '540' style='padding-top:8%' autoplay muted><source src='images/stimuli/wall_pref.mp4' type='video/mp4'></video>","3","right","66%","4","","","","","","","",""
"","635.1300000678748","sequential-stimulus-presentation","97","223117","0.0-22.0","SS1613100524463","pref_reveal","","40","800","1435.1300000678748","null","null","","","","","4","","","","deviant","","","",""
"","null","html-keyboard-response","98","224054","0.0-23.0-0.0","SS1613100524463","","","null","","","","","<p><img src= images/blank.png width =""200"" height = ""200"" style = ""float:right""></p><p><img src=images/blank.png width =""800"" height = ""200""></p>","","","","","","","","","","","",""
"","2150.2399999881163","sequential-stimulus-presentation","99","227064","0.0-23.0-1.0","SS1613100524463","trial","","40","800","2950.2399999881163","images/stimuli/spore_stims/simple_13_A_a.gif","images/stimuli/spore_stims/simple_13_B_a.gif","","","","","5","simple_similar","images/stimuli/spore_stims/simple_13_B_a.gif","left","","","","",""
"","null","html-keyboard-response","100","228222","0.0-23.0-0.1","SS1613100524463","","","null","","","","","<p><img src= images/blank.png width =""200"" height = ""200"" style = ""float:right""></p><p><img src=images/blank.png width =""800"" height = ""200""></p>","","","","","","","","","","","",""
"","984.9300000350922","sequential-stimulus-presentation","101","230060","0.0-23.0-1.1","SS1613100524463","trial","","40","800","1784.9300000350922","images/stimuli/spore_stims/simple_13_A_a.gif","images/stimuli/spore_stims/simple_13_B_a.gif","","","","","5","simple_similar","images/stimuli/spore_stims/simple_13_B_a.gif","left","","","","",""
"","null","html-keyboard-response","102","231117","0.0-23.0-0.2","SS1613100524463","","","null","","","","","<p><img src= images/blank.png width =""200"" height = ""200"" style = ""float:right""></p><p><img src=images/blank.png width =""800"" height = ""200""></p>","","","","","","","","","","","",""
"","404.5050001004711","sequential-stimulus-presentation","103","232345","0.0-23.0-1.2","SS1613100524463","trial","","40","800","1204.505000100471","images/stimuli/spore_stims/simple_13_A_a.gif","images/stimuli/spore_stims/simple_13_B_a.gif","","","","","5","simple_similar","images/stimuli/spore_stims/simple_13_B_a.gif","left","","","","",""
"","null","html-keyboard-response","104","233394","0.0-23.0-0.3","SS1613100524463","","","null","","","","","<p><img src= images/blank.png width =""200"" height = ""200"" style = ""float:right""></p><p><img src=images/blank.png width =""800"" height = ""200""></p>","","","","","","","","","","","",""
"","532.0050000445917","sequential-stimulus-presentation","105","234745","0.0-23.0-1.3","SS1613100524463","trial","","40","800","1332.0050000445917","images/stimuli/spore_stims/simple_13_A_a.gif","images/stimuli/spore_stims/simple_13_B_a.gif","","","","","5","simple_similar","images/stimuli/spore_stims/simple_13_A_a.gif","right","","","","",""
"","null","html-keyboard-response","106","235690","0.0-23.0-0.4","SS1613100524463","","","null","","","","","<p><img src= images/blank.png width =""200"" height = ""200"" style = ""float:right""></p><p><img src=images/blank.png width =""800"" height = ""200""></p>","","","","","","","","","","","",""
"","407.0300000021234","sequential-stimulus-presentation","107","236931","0.0-23.0-1.4","SS1613100524463","trial","","40","800","1207.0300000021234","images/stimuli/spore_stims/simple_13_A_a.gif","images/stimuli/spore_stims/simple_13_B_a.gif","","","","","5","simple_similar","images/stimuli/spore_stims/simple_13_B_a.gif","left","","","","",""
"","null","html-keyboard-response","108","237925","0.0-23.0-0.5","SS1613100524463","","","null","","","","","<p><img src= images/blank.png width =""200"" height = ""200"" style = ""float:right""></p><p><img src=images/blank.png width =""800"" height = ""200""></p>","","","","","","","","","","","",""
"","634.5750000327826","sequential-stimulus-presentation","109","239375","0.0-23.0-1.5","SS1613100524463","trial","","40","800","1434.5750000327826","images/stimuli/spore_stims/simple_13_A_a.gif","images/stimuli/spore_stims/simple_13_B_a.gif","","","","","5","simple_similar","images/stimuli/spore_stims/simple_13_B_a.gif","left","","","","",""
"","null","html-keyboard-response","110","240693","0.0-23.0-0.6","SS1613100524463","","","null","","","","","<p><img src= images/blank.png width =""200"" height = ""200"" style = ""float:right""></p><p><img src=images/blank.png width =""800"" height = ""200""></p>","","","","","","","","","","","",""
"","347.9199999710545","sequential-stimulus-presentation","111","241854","0.0-23.0-1.6","SS1613100524463","trial","","40","800","1147.9199999710545","images/stimuli/spore_stims/simple_13_A_a.gif","images/stimuli/spore_stims/simple_13_B_a.gif","","","","","5","simple_similar","images/stimuli/spore_stims/simple_13_B_a.gif","left","","","","",""
"","null","html-keyboard-response","112","242900","0.0-23.0-0.7","SS1613100524463","","","null","","","","","<p><img src= images/blank.png width =""200"" height = ""200"" style = ""float:right""></p><p><img src=images/blank.png width =""800"" height = ""200""></p>","","","","","","","","","","","",""
"","435.6649999972433","sequential-stimulus-presentation","113","244150","0.0-23.0-1.7","SS1613100524463","trial","","40","800","1235.6649999972433","images/stimuli/spore_stims/simple_13_A_a.gif","images/stimuli/spore_stims/simple_13_B_a.gif","","","","","5","simple_similar","images/stimuli/spore_stims/simple_13_B_a.gif","left","","","","",""
"","2918.705000076443","html-keyboard-response","114","247080","0.0-24.0","SS1613100524463","pref_question","","51","","","","","<video width ='960' height = '540' style='padding-top:8%' autoplay muted><source src='images/stimuli/wall_pref.mp4' type='video/mp4'></video>","3","right","66%","5","","","","","","","",""
"","1360.8249999815598","sequential-stimulus-presentation","115","249261","0.0-25.0","SS1613100524463","pref_reveal","","40","800","2160.82499998156","null","null","","","","","5","","","","deviant","","","",""
"","null","html-keyboard-response","116","250340","0.0-26.0-0.0","SS1613100524463","","","null","","","","","<p><img src= images/blank.png width =""200"" height = ""200"" style = ""float:right""></p><p><img src=images/blank.png width =""800"" height = ""200""></p>","","","","","","","","","","","",""
"","1941.7999999132007","sequential-stimulus-presentation","117","253189","0.0-26.0-1.0","SS1613100524463","trial","","40","800","2741.7999999132007","images/stimuli/spore_stims/complex_17_A_d.gif","images/stimuli/spore_stims/complex_14_B_b.gif","","","","","6","complex_dissimilar","images/stimuli/spore_stims/complex_14_B_b.gif","left","","","","",""
"","null","html-keyboard-response","118","254233","0.0-26.0-0.1","SS1613100524463","","","null","","","","","<p><img src= images/blank.png width =""200"" height = ""200"" style = ""float:right""></p><p><img src=images/blank.png width =""800"" height = ""200""></p>","","","","","","","","","","","",""
"","490.445000003092","sequential-stimulus-presentation","119","255551","0.0-26.0-1.1","SS1613100524463","trial","","40","800","1290.445000003092","images/stimuli/spore_stims/complex_17_A_d.gif","images/stimuli/spore_stims/complex_14_B_b.gif","","","","","6","complex_dissimilar","images/stimuli/spore_stims/complex_14_B_b.gif","left","","","","",""
"","null","html-keyboard-response","120","256880","0.0-26.0-0.2","SS1613100524463","","","null","","","","","<p><img src= images/blank.png width =""200"" height = ""200"" style = ""float:right""></p><p><img src=images/blank.png width =""800"" height = ""200""></p>","","","","","","","","","","","",""
"","419.4050000514835","sequential-stimulus-presentation","121","258532","0.0-26.0-1.2","SS1613100524463","trial","","40","800","1219.4050000514835","images/stimuli/spore_stims/complex_17_A_d.gif","images/stimuli/spore_stims/complex_14_B_b.gif","","","","","6","complex_dissimilar","images/stimuli/spore_stims/complex_17_A_d.gif","right","","","","",""
"","null","html-keyboard-response","122","259355","0.0-26.0-0.3","SS1613100524463","","","null","","","","","<p><img src= images/blank.png width =""200"" height = ""200"" style = ""float:right""></p><p><img src=images/blank.png width =""800"" height = ""200""></p>","","","","","","","","","","","",""
"","545.0399999972433","sequential-stimulus-presentation","123","260726","0.0-26.0-1.3","SS1613100524463","trial","","40","800","1345.0399999972433","images/stimuli/spore_stims/complex_17_A_d.gif","images/stimuli/spore_stims/complex_14_B_b.gif","","","","","6","complex_dissimilar","images/stimuli/spore_stims/complex_14_B_b.gif","left","","","","",""
"","null","html-keyboard-response","124","261740","0.0-26.0-0.4","SS1613100524463","","","null","","","","","<p><img src= images/blank.png width =""200"" height = ""200"" style = ""float:right""></p><p><img src=images/blank.png width =""800"" height = ""200""></p>","","","","","","","","","","","",""
"","1054.660000023432","sequential-stimulus-presentation","125","263627","0.0-26.0-1.4","SS1613100524463","trial","","40","800","1854.660000023432","images/stimuli/spore_stims/complex_17_A_d.gif","images/stimuli/spore_stims/complex_14_B_b.gif","","","","","6","complex_dissimilar","images/stimuli/spore_stims/complex_14_B_b.gif","left","","","","",""
"","null","html-keyboard-response","126","264686","0.0-26.0-0.5","SS1613100524463","","","null","","","","","<p><img src= images/blank.png width =""200"" height = ""200"" style = ""float:right""></p><p><img src=images/blank.png width =""800"" height = ""200""></p>","","","","","","","","","","","",""
"","187.4250000109896","sequential-stimulus-presentation","127","265697","0.0-26.0-1.5","SS1613100524463","trial","","40","800","987.4250000109896","images/stimuli/spore_stims/complex_17_A_d.gif","images/stimuli/spore_stims/complex_14_B_b.gif","","","","","6","complex_dissimilar","images/stimuli/spore_stims/complex_14_B_b.gif","left","","","","",""
"","null","html-keyboard-response","128","266941","0.0-26.0-0.6","SS1613100524463","","","null","","","","","<p><img src= images/blank.png width =""200"" height = ""200"" style = ""float:right""></p><p><img src=images/blank.png width =""800"" height = ""200""></p>","","","","","","","","","","","",""
"","729.0500000817701","sequential-stimulus-presentation","129","268528","0.0-26.0-1.6","SS1613100524463","trial","","40","800","1529.0500000817701","images/stimuli/spore_stims/complex_17_A_d.gif","images/stimuli/spore_stims/complex_14_B_b.gif","","","","","6","complex_dissimilar","images/stimuli/spore_stims/complex_14_B_b.gif","left","","","","",""
"","null","html-keyboard-response","130","269512","0.0-26.0-0.7","SS1613100524463","","","null","","","","","<p><img src= images/blank.png width =""200"" height = ""200"" style = ""float:right""></p><p><img src=images/blank.png width =""800"" height = ""200""></p>","","","","","","","","","","","",""
"","3257.2950000176206","sequential-stimulus-presentation","131","273595","0.0-26.0-1.7","SS1613100524463","trial","","40","800","4057.2950000176206","images/stimuli/spore_stims/complex_17_A_d.gif","images/stimuli/spore_stims/complex_14_B_b.gif","","","","","6","complex_dissimilar","images/stimuli/spore_stims/complex_14_B_b.gif","left","","","","",""
"","3135.044999886304","html-keyboard-response","132","276746","0.0-27.0","SS1613100524463","pref_question","","50","","","","","<video width ='960' height = '540' style='padding-top:8%' autoplay muted><source src='images/stimuli/wall_pref.mp4' type='video/mp4'></video>","2","middle","45%","6","","","","","","","",""
"","1146.390000008978","sequential-stimulus-presentation","133","278812","0.0-28.0","SS1613100524463","pref_reveal","","40","800","1946.390000008978","null","null","","","","","6","","","","novel","","","",""
"","null","html-keyboard-response","134","280068","0.0-29.0-0.0","SS1613100524463","","","null","","","","","<p><img src= images/blank.png width =""200"" height = ""200"" style = ""float:right""></p><p><img src=images/blank.png width =""800"" height = ""200""></p>","","","","","","","","","","","",""
"","635.3799999924377","sequential-stimulus-presentation","135","281750","0.0-29.0-1.0","SS1613100524463","trial","","40","800","1435.3799999924377","images/stimuli/spore_stims/simple_15_A_a.gif","images/stimuli/spore_stims/simple_15_B_a.gif","","","","","7","simple_similar","images/stimuli/spore_stims/simple_15_B_a.gif","right","","","","",""
"","null","html-keyboard-response","136","282737","0.0-29.0-0.1","SS1613100524463","","","null","","","","","<p><img src= images/blank.png width =""200"" height = ""200"" style = ""float:right""></p><p><img src=images/blank.png width =""800"" height = ""200""></p>","","","","","","","","","","","",""
"","356.0949999373406","sequential-stimulus-presentation","137","283918","0.0-29.0-1.1","SS1613100524463","trial","","40","800","1156.0949999373406","images/stimuli/spore_stims/simple_15_A_a.gif","images/stimuli/spore_stims/simple_15_B_a.gif","","","","","7","simple_similar","images/stimuli/spore_stims/simple_15_B_a.gif","right","","","","",""
"","null","html-keyboard-response","138","284928","0.0-29.0-0.2","SS1613100524463","","","null","","","","","<p><img src= images/blank.png width =""200"" height = ""200"" style = ""float:right""></p><p><img src=images/blank.png width =""800"" height = ""200""></p>","","","","","","","","","","","",""
"","569.7449999861419","sequential-stimulus-presentation","139","286315","0.0-29.0-1.2","SS1613100524463","trial","","40","800","1369.744999986142","images/stimuli/spore_stims/simple_15_A_a.gif","images/stimuli/spore_stims/simple_15_B_a.gif","","","","","7","simple_similar","images/stimuli/spore_stims/simple_15_B_a.gif","right","","","","",""
"","null","html-keyboard-response","140","287366","0.0-29.0-0.3","SS1613100524463","","","null","","","","","<p><img src= images/blank.png width =""200"" height = ""200"" style = ""float:right""></p><p><img src=images/blank.png width =""800"" height = ""200""></p>","","","","","","","","","","","",""
"","402.6399999856949","sequential-stimulus-presentation","141","288618","0.0-29.0-1.3","SS1613100524463","trial","","40","800","1202.6399999856949","images/stimuli/spore_stims/simple_15_A_a.gif","images/stimuli/spore_stims/simple_15_B_a.gif","","","","","7","simple_similar","images/stimuli/spore_stims/simple_15_B_a.gif","right","","","","",""
"","null","html-keyboard-response","142","289586","0.0-29.0-0.4","SS1613100524463","","","null","","","","","<p><img src= images/blank.png width =""200"" height = ""200"" style = ""float:right""></p><p><img src=images/blank.png width =""800"" height = ""200""></p>","","","","","","","","","","","",""
"","525.5350000225008","sequential-stimulus-presentation","143","291014","0.0-29.0-1.4","SS1613100524463","trial","","40","800","1325.5350000225008","images/stimuli/spore_stims/simple_15_A_a.gif","images/stimuli/spore_stims/simple_15_B_a.gif","","","","","7","simple_similar","images/stimuli/spore_stims/simple_15_A_a.gif","middle","","","","",""
"","null","html-keyboard-response","144","292076","0.0-29.0-0.5","SS1613100524463","","","null","","","","","<p><img src= images/blank.png width =""200"" height = ""200"" style = ""float:right""></p><p><img src=images/blank.png width =""800"" height = ""200""></p>","","","","","","","","","","","",""
"","270.75499994680285","sequential-stimulus-presentation","145","293194","0.0-29.0-1.5","SS1613100524463","trial","","40","800","1070.7549999468029","images/stimuli/spore_stims/simple_15_A_a.gif","images/stimuli/spore_stims/simple_15_B_a.gif","","","","","7","simple_similar","images/stimuli/spore_stims/simple_15_B_a.gif","right","","","","",""
"","null","html-keyboard-response","146","294022","0.0-29.0-0.6","SS1613100524463","","","null","","","","","<p><img src= images/blank.png width =""200"" height = ""200"" style = ""float:right""></p><p><img src=images/blank.png width =""800"" height = ""200""></p>","","","","","","","","","","","",""
"","335.22000000812113","sequential-stimulus-presentation","147","295199","0.0-29.0-1.6","SS1613100524463","trial","","40","800","1135.2200000081211","images/stimuli/spore_stims/simple_15_A_a.gif","images/stimuli/spore_stims/simple_15_B_a.gif","","","","","7","simple_similar","images/stimuli/spore_stims/simple_15_B_a.gif","right","","","","",""
"","null","html-keyboard-response","148","296411","0.0-29.0-0.7","SS1613100524463","","","null","","","","","<p><img src= images/blank.png width =""200"" height = ""200"" style = ""float:right""></p><p><img src=images/blank.png width =""800"" height = ""200""></p>","","","","","","","","","","","",""
"","344.2799999611452","sequential-stimulus-presentation","149","297586","0.0-29.0-1.7","SS1613100524463","trial","","40","800","1144.2799999611452","images/stimuli/spore_stims/simple_15_A_a.gif","images/stimuli/spore_stims/simple_15_B_a.gif","","","","","7","simple_similar","images/stimuli/spore_stims/simple_15_B_a.gif","right","","","","",""
"","1853.4499999368563","html-keyboard-response","150","299467","0.0-30.0","SS1613100524463","pref_question","","50","","","","","<video width ='960' height = '540' style='padding-top:8%' autoplay muted><source src='images/stimuli/wall_pref.mp4' type='video/mp4'></video>","2","middle","45%","7","","","","","","","",""
"","1331.995000015013","sequential-stimulus-presentation","151","301614","0.0-31.0","SS1613100524463","pref_reveal","","40","800","2131.995000015013","null","null","","","","","7","","","","deviant","","","",""
"","null","html-keyboard-response","152","302653","0.0-32.0-0.0","SS1613100524463","","","null","","","","","<p><img src= images/blank.png width =""200"" height = ""200"" style = ""float:right""></p><p><img src=images/blank.png width =""800"" height = ""200""></p>","","","","","","","","","","","",""
"","271.05500001925975","sequential-stimulus-presentation","153","303834","0.0-32.0-1.0","SS1613100524463","trial","","40","800","1071.0550000192598","images/stimuli/spore_stims/complex_19_B_b.gif","images/stimuli/spore_stims/complex_16_A_d.gif","","","","","8","complex_dissimilar","images/stimuli/spore_stims/complex_16_A_d.gif","middle","","","","",""
"","null","html-keyboard-response","154","304813","0.0-32.0-0.1","SS1613100524463","","","null","","","","","<p><img src= images/blank.png width =""200"" height = ""200"" style = ""float:right""></p><p><img src=images/blank.png width =""800"" height = ""200""></p>","","","","","","","","","","","",""
"","1223.2899999944493","sequential-stimulus-presentation","155","306985","0.0-32.0-1.1","SS1613100524463","trial","","40","800","2023.2899999944493","images/stimuli/spore_stims/complex_19_B_b.gif","images/stimuli/spore_stims/complex_16_A_d.gif","","","","","8","complex_dissimilar","images/stimuli/spore_stims/complex_16_A_d.gif","middle","","","","",""
"","null","html-keyboard-response","156","308251","0.0-32.0-0.2","SS1613100524463","","","null","","","","","<p><img src= images/blank.png width =""200"" height = ""200"" style = ""float:right""></p><p><img src=images/blank.png width =""800"" height = ""200""></p>","","","","","","","","","","","",""
"","3471.99999995064","sequential-stimulus-presentation","157","312573","0.0-32.0-1.2","SS1613100524463","trial","","40","800","4271.99999995064","images/stimuli/spore_stims/complex_19_B_b.gif","images/stimuli/spore_stims/complex_16_A_d.gif","","","","","8","complex_dissimilar","images/stimuli/spore_stims/complex_19_B_b.gif","left","","","","",""
"","null","html-keyboard-response","158","313738","0.0-32.0-0.3","SS1613100524463","","","null","","","","","<p><img src= images/blank.png width =""200"" height = ""200"" style = ""float:right""></p><p><img src=images/blank.png width =""800"" height = ""200""></p>","","","","","","","","","","","",""
"","2682.249999954365","sequential-stimulus-presentation","159","317262","0.0-32.0-1.3","SS1613100524463","trial","","40","800","3482.249999954365","images/stimuli/spore_stims/complex_19_B_b.gif","images/stimuli/spore_stims/complex_16_A_d.gif","","","","","8","complex_dissimilar","images/stimuli/spore_stims/complex_16_A_d.gif","middle","","","","",""
"","null","html-keyboard-response","160","318476","0.0-32.0-0.4","SS1613100524463","","","null","","","","","<p><img src= images/blank.png width =""200"" height = ""200"" style = ""float:right""></p><p><img src=images/blank.png width =""800"" height = ""200""></p>","","","","","","","","","","","",""
"","1505.5649999994785","sequential-stimulus-presentation","161","320817","0.0-32.0-1.4","SS1613100524463","trial","","40","800","2305.5649999994785","images/stimuli/spore_stims/complex_19_B_b.gif","images/stimuli/spore_stims/complex_16_A_d.gif","","","","","8","complex_dissimilar","images/stimuli/spore_stims/complex_16_A_d.gif","middle","","","","",""
"","null","html-keyboard-response","162","321985","0.0-32.0-0.5","SS1613100524463","","","null","","","","","<p><img src= images/blank.png width =""200"" height = ""200"" style = ""float:right""></p><p><img src=images/blank.png width =""800"" height = ""200""></p>","","","","","","","","","","","",""
"","2469.4450000533834","sequential-stimulus-presentation","163","325412","0.0-32.0-1.5","SS1613100524463","trial","","40","800","3269.4450000533834","images/stimuli/spore_stims/complex_19_B_b.gif","images/stimuli/spore_stims/complex_16_A_d.gif","","","","","8","complex_dissimilar","images/stimuli/spore_stims/complex_16_A_d.gif","middle","","","","",""
"","null","html-keyboard-response","164","326314","0.0-32.0-0.6","SS1613100524463","","","null","","","","","<p><img src= images/blank.png width =""200"" height = ""200"" style = ""float:right""></p><p><img src=images/blank.png width =""800"" height = ""200""></p>","","","","","","","","","","","",""
"","1056.1699999962002","sequential-stimulus-presentation","165","328201","0.0-32.0-1.6","SS1613100524463","trial","","40","800","1856.1699999962002","images/stimuli/spore_stims/complex_19_B_b.gif","images/stimuli/spore_stims/complex_16_A_d.gif","","","","","8","complex_dissimilar","images/stimuli/spore_stims/complex_16_A_d.gif","middle","","","","",""
"","null","html-keyboard-response","166","329483","0.0-32.0-0.7","SS1613100524463","","","null","","","","","<p><img src= images/blank.png width =""200"" height = ""200"" style = ""float:right""></p><p><img src=images/blank.png width =""800"" height = ""200""></p>","","","","","","","","","","","",""
"","1805.6949999881908","sequential-stimulus-presentation","167","332142","0.0-32.0-1.7","SS1613100524463","trial","","40","800","2605.694999988191","images/stimuli/spore_stims/complex_19_B_b.gif","images/stimuli/spore_stims/complex_16_A_d.gif","","","","","8","complex_dissimilar","images/stimuli/spore_stims/complex_16_A_d.gif","middle","","","","",""
"","2387.3850000090897","html-keyboard-response","168","334573","0.0-33.0","SS1613100524463","pref_question","","51","","","","","<video width ='960' height = '540' style='padding-top:8%' autoplay muted><source src='images/stimuli/wall_pref.mp4' type='video/mp4'></video>","3","right","66%","8","","","","","","","",""
"","3786.8149999994785","sequential-stimulus-presentation","169","339226","0.0-34.0","SS1613100524463","pref_reveal","","40","800","4586.8149999994785","null","null","","","","","8","","","","novel","","","",""
"","null","html-keyboard-response","170","340398","0.0-35.0-0.0","SS1613100524463","","","null","","","","","<p><img src= images/blank.png width =""200"" height = ""200"" style = ""float:right""></p><p><img src=images/blank.png width =""800"" height = ""200""></p>","","","","","","","","","","","",""
"","1665.7300000078976","sequential-stimulus-presentation","171","342922","0.0-35.0-1.0","SS1613100524463","trial","","40","800","2465.7300000078976","images/stimuli/spore_stims/complex_06_A_b.gif","images/stimuli/spore_stims/complex_06_B_b.gif","","","","","9","complex_similar","images/stimuli/spore_stims/complex_06_B_b.gif","left","","","","",""
"","null","html-keyboard-response","172","344047","0.0-35.0-0.1","SS1613100524463","","","null","","","","","<p><img src= images/blank.png width =""200"" height = ""200"" style = ""float:right""></p><p><img src=images/blank.png width =""800"" height = ""200""></p>","","","","","","","","","","","",""
"","366.35499994736165","sequential-stimulus-presentation","173","345229","0.0-35.0-1.1","SS1613100524463","trial","","40","800","1166.3549999473616","images/stimuli/spore_stims/complex_06_A_b.gif","images/stimuli/spore_stims/complex_06_B_b.gif","","","","","9","complex_similar","images/stimuli/spore_stims/complex_06_B_b.gif","left","","","","",""
"","null","html-keyboard-response","174","346406","0.0-35.0-0.2","SS1613100524463","","","null","","","","","<p><img src= images/blank.png width =""200"" height = ""200"" style = ""float:right""></p><p><img src=images/blank.png width =""800"" height = ""200""></p>","","","","","","","","","","","",""
"","592.1200000448152","sequential-stimulus-presentation","175","347828","0.0-35.0-1.2","SS1613100524463","trial","","40","800","1392.1200000448152","images/stimuli/spore_stims/complex_06_A_b.gif","images/stimuli/spore_stims/complex_06_B_b.gif","","","","","9","complex_similar","images/stimuli/spore_stims/complex_06_B_b.gif","left","","","","",""
"","null","html-keyboard-response","176","349093","0.0-35.0-0.3","SS1613100524463","","","null","","","","","<p><img src= images/blank.png width =""200"" height = ""200"" style = ""float:right""></p><p><img src=images/blank.png width =""800"" height = ""200""></p>","","","","","","","","","","","",""
"","401.87499998137355","sequential-stimulus-presentation","177","350324","0.0-35.0-1.3","SS1613100524463","trial","","40","800","1201.8749999813735","images/stimuli/spore_stims/complex_06_A_b.gif","images/stimuli/spore_stims/complex_06_B_b.gif","","","","","9","complex_similar","images/stimuli/spore_stims/complex_06_B_b.gif","left","","","","",""
"","null","html-keyboard-response","178","351320","0.0-35.0-0.4","SS1613100524463","","","null","","","","","<p><img src= images/blank.png width =""200"" height = ""200"" style = ""float:right""></p><p><img src=images/blank.png width =""800"" height = ""200""></p>","","","","","","","","","","","",""
"","402.88000006694347","sequential-stimulus-presentation","179","352767","0.0-35.0-1.4","SS1613100524463","trial","","40","800","1202.8800000669435","images/stimuli/spore_stims/complex_06_A_b.gif","images/stimuli/spore_stims/complex_06_B_b.gif","","","","","9","complex_similar","images/stimuli/spore_stims/complex_06_B_b.gif","left","","","","",""
"","null","html-keyboard-response","180","353758","0.0-35.0-0.5","SS1613100524463","","","null","","","","","<p><img src= images/blank.png width =""200"" height = ""200"" style = ""float:right""></p><p><img src=images/blank.png width =""800"" height = ""200""></p>","","","","","","","","","","","",""
"","915.0800000643358","sequential-stimulus-presentation","181","355639","0.0-35.0-1.5","SS1613100524463","trial","","40","800","1715.0800000643358","images/stimuli/spore_stims/complex_06_A_b.gif","images/stimuli/spore_stims/complex_06_B_b.gif","","","","","9","complex_similar","images/stimuli/spore_stims/complex_06_A_b.gif","middle","","","","",""
"","null","html-keyboard-response","182","356818","0.0-35.0-0.6","SS1613100524463","","","null","","","","","<p><img src= images/blank.png width =""200"" height = ""200"" style = ""float:right""></p><p><img src=images/blank.png width =""800"" height = ""200""></p>","","","","","","","","","","","",""
"","1047.8400000138208","sequential-stimulus-presentation","183","358686","0.0-35.0-1.6","SS1613100524463","trial","","40","800","1847.8400000138208","images/stimuli/spore_stims/complex_06_A_b.gif","images/stimuli/spore_stims/complex_06_B_b.gif","","","","","9","complex_similar","images/stimuli/spore_stims/complex_06_B_b.gif","left","","","","",""
"","null","html-keyboard-response","184","359756","0.0-35.0-0.7","SS1613100524463","","","null","","","","","<p><img src= images/blank.png width =""200"" height = ""200"" style = ""float:right""></p><p><img src=images/blank.png width =""800"" height = ""200""></p>","","","","","","","","","","","",""
"","341.2199999438599","sequential-stimulus-presentation","185","360959","0.0-35.0-1.7","SS1613100524463","trial","","40","800","1141.2199999438599","images/stimuli/spore_stims/complex_06_A_b.gif","images/stimuli/spore_stims/complex_06_B_b.gif","","","","","9","complex_similar","images/stimuli/spore_stims/complex_06_B_b.gif","left","","","","",""
"","2146.4500000001863","html-keyboard-response","186","363118","0.0-36.0","SS1613100524463","pref_question","","51","","","","","<video width ='960' height = '540' style='padding-top:8%' autoplay muted><source src='images/stimuli/wall_pref.mp4' type='video/mp4'></video>","3","right","66%","9","","","","","","","",""
"","3480.1250000018626","sequential-stimulus-presentation","187","367539","0.0-37.0","SS1613100524463","pref_reveal","","40","800","4280.125000001863","null","null","","","","","9","","","","novel","","","",""
"","null","html-keyboard-response","188","368590","0.0-38.0-0.0","SS1613100524463","","","null","","","","","<p><img src= images/blank.png width =""200"" height = ""200"" style = ""float:right""></p><p><img src=images/blank.png width =""800"" height = ""200""></p>","","","","","","","","","","","",""
"","847.330000018701","sequential-stimulus-presentation","189","370371","0.0-38.0-1.0","SS1613100524463","trial","","40","800","1647.330000018701","images/stimuli/spore_stims/simple_20_B_b.gif","images/stimuli/spore_stims/simple_03_B_d.gif","","","","","10","simple_dissimilar","images/stimuli/spore_stims/simple_03_B_d.gif","middle","","","","",""
"","null","html-keyboard-response","190","371641","0.0-38.0-0.1","SS1613100524463","","","null","","","","","<p><img src= images/blank.png width =""200"" height = ""200"" style = ""float:right""></p><p><img src=images/blank.png width =""800"" height = ""200""></p>","","","","","","","","","","","",""
"","172.9399999603629","sequential-stimulus-presentation","191","372675","0.0-38.0-1.1","SS1613100524463","trial","","40","800","972.9399999603629","images/stimuli/spore_stims/simple_20_B_b.gif","images/stimuli/spore_stims/simple_03_B_d.gif","","","","","10","simple_dissimilar","images/stimuli/spore_stims/simple_03_B_d.gif","middle","","","","",""
"","null","html-keyboard-response","192","373949","0.0-38.0-0.2","SS1613100524463","","","null","","","","","<p><img src= images/blank.png width =""200"" height = ""200"" style = ""float:right""></p><p><img src=images/blank.png width =""800"" height = ""200""></p>","","","","","","","","","","","",""
"","1171.1600000271574","sequential-stimulus-presentation","193","376035","0.0-38.0-1.2","SS1613100524463","trial","","40","800","1971.1600000271574","images/stimuli/spore_stims/simple_20_B_b.gif","images/stimuli/spore_stims/simple_03_B_d.gif","","","","","10","simple_dissimilar","images/stimuli/spore_stims/simple_20_B_b.gif","right","","","","",""
"","null","html-keyboard-response","194","377150","0.0-38.0-0.3","SS1613100524463","","","null","","","","","<p><img src= images/blank.png width =""200"" height = ""200"" style = ""float:right""></p><p><img src=images/blank.png width =""800"" height = ""200""></p>","","","","","","","","","","","",""
"","498.10500000603497","sequential-stimulus-presentation","195","378488","0.0-38.0-1.3","SS1613100524463","trial","","40","800","1298.105000006035","images/stimuli/spore_stims/simple_20_B_b.gif","images/stimuli/spore_stims/simple_03_B_d.gif","","","","","10","simple_dissimilar","images/stimuli/spore_stims/simple_03_B_d.gif","middle","","","","",""
"","null","html-keyboard-response","196","379513","0.0-38.0-0.4","SS1613100524463","","","null","","","","","<p><img src= images/blank.png width =""200"" height = ""200"" style = ""float:right""></p><p><img src=images/blank.png width =""800"" height = ""200""></p>","","","","","","","","","","","",""
"","375.78499992378056","sequential-stimulus-presentation","197","380723","0.0-38.0-1.4","SS1613100524463","trial","","40","800","1175.7849999237806","images/stimuli/spore_stims/simple_20_B_b.gif","images/stimuli/spore_stims/simple_03_B_d.gif","","","","","10","simple_dissimilar","images/stimuli/spore_stims/simple_03_B_d.gif","middle","","","","",""
"","null","html-keyboard-response","198","381877","0.0-38.0-0.5","SS1613100524463","","","null","","","","","<p><img src= images/blank.png width =""200"" height = ""200"" style = ""float:right""></p><p><img src=images/blank.png width =""800"" height = ""200""></p>","","","","","","","","","","","",""
"","360.3199999779463","sequential-stimulus-presentation","199","383053","0.0-38.0-1.5","SS1613100524463","trial","","40","800","1160.3199999779463","images/stimuli/spore_stims/simple_20_B_b.gif","images/stimuli/spore_stims/simple_03_B_d.gif","","","","","10","simple_dissimilar","images/stimuli/spore_stims/simple_03_B_d.gif","middle","","","","",""
"","null","html-keyboard-response","200","383938","0.0-38.0-0.6","SS1613100524463","","","null","","","","","<p><img src= images/blank.png width =""200"" height = ""200"" style = ""float:right""></p><p><img src=images/blank.png width =""800"" height = ""200""></p>","","","","","","","","","","","",""
"","310.26000005658716","sequential-stimulus-presentation","201","385071","0.0-38.0-1.6","SS1613100524463","trial","","40","800","1110.2600000565872","images/stimuli/spore_stims/simple_20_B_b.gif","images/stimuli/spore_stims/simple_03_B_d.gif","","","","","10","simple_dissimilar","images/stimuli/spore_stims/simple_03_B_d.gif","middle","","","","",""
"","null","html-keyboard-response","202","386143","0.0-38.0-0.7","SS1613100524463","","","null","","","","","<p><img src= images/blank.png width =""200"" height = ""200"" style = ""float:right""></p><p><img src=images/blank.png width =""800"" height = ""200""></p>","","","","","","","","","","","",""
"","372.57500004488975","sequential-stimulus-presentation","203","387336","0.0-38.0-1.7","SS1613100524463","trial","","40","800","1172.5750000448897","images/stimuli/spore_stims/simple_20_B_b.gif","images/stimuli/spore_stims/simple_03_B_d.gif","","","","","10","simple_dissimilar","images/stimuli/spore_stims/simple_03_B_d.gif","middle","","","","",""
"","2613.0150000099093","html-keyboard-response","204","389966","0.0-39.0","SS1613100524463","pref_question","","49","","","","","<video width ='960' height = '540' style='padding-top:8%' autoplay muted><source src='images/stimuli/wall_pref.mp4' type='video/mp4'></video>","1","left","25%","10","","","","","","","",""
"","2016.7800000635907","sequential-stimulus-presentation","205","392846","0.0-40.0","SS1613100524463","pref_reveal","","40","800","2816.7800000635907","null","null","","","","","10","","","","novel","","","",""
"","null","html-keyboard-response","206","393710","0.0-41.0-0.0","SS1613100524463","","","null","","","","","<p><img src= images/blank.png width =""200"" height = ""200"" style = ""float:right""></p><p><img src=images/blank.png width =""800"" height = ""200""></p>","","","","","","","","","","","",""
"","485.454999958165","sequential-stimulus-presentation","207","395058","0.0-41.0-1.0","SS1613100524463","trial","","40","800","1285.454999958165","images/stimuli/spore_stims/simple_11_B_a.gif","images/stimuli/spore_stims/simple_11_A_a.gif","","","","","11","simple_similar","images/stimuli/spore_stims/simple_11_A_a.gif","left","","","","",""
"","null","html-keyboard-response","208","395887","0.0-41.0-0.1","SS1613100524463","","","null","","","","","<p><img src= images/blank.png width =""200"" height = ""200"" style = ""float:right""></p><p><img src=images/blank.png width =""800"" height = ""200""></p>","","","","","","","","","","","",""
"","3950.8899999782443","sequential-stimulus-presentation","209","400658","0.0-41.0-1.1","SS1613100524463","trial","","40","800","4750.889999978244","images/stimuli/spore_stims/simple_11_B_a.gif","images/stimuli/spore_stims/simple_11_A_a.gif","","","","","11","simple_similar","images/stimuli/spore_stims/simple_11_A_a.gif","left","","","","",""
"","null","html-keyboard-response","210","401663","0.0-41.0-0.2","SS1613100524463","","","null","","","","","<p><img src= images/blank.png width =""200"" height = ""200"" style = ""float:right""></p><p><img src=images/blank.png width =""800"" height = ""200""></p>","","","","","","","","","","","",""
"","693.6500000301749","sequential-stimulus-presentation","211","403218","0.0-41.0-1.2","SS1613100524463","trial","","40","800","1493.6500000301749","images/stimuli/spore_stims/simple_11_B_a.gif","images/stimuli/spore_stims/simple_11_A_a.gif","","","","","11","simple_similar","images/stimuli/spore_stims/simple_11_A_a.gif","left","","","","",""
"","null","html-keyboard-response","212","404248","0.0-41.0-0.3","SS1613100524463","","","null","","","","","<p><img src= images/blank.png width =""200"" height = ""200"" style = ""float:right""></p><p><img src=images/blank.png width =""800"" height = ""200""></p>","","","","","","","","","","","",""
"","1979.9150000326335","sequential-stimulus-presentation","213","407146","0.0-41.0-1.3","SS1613100524463","trial","","40","800","2779.9150000326335","images/stimuli/spore_stims/simple_11_B_a.gif","images/stimuli/spore_stims/simple_11_A_a.gif","","","","","11","simple_similar","images/stimuli/spore_stims/simple_11_B_a.gif","middle","","","","",""
"","null","html-keyboard-response","214","408445","0.0-41.0-0.4","SS1613100524463","","","null","","","","","<p><img src= images/blank.png width =""200"" height = ""200"" style = ""float:right""></p><p><img src=images/blank.png width =""800"" height = ""200""></p>","","","","","","","","","","","",""
"","1516.7600000277162","sequential-stimulus-presentation","215","410813","0.0-41.0-1.4","SS1613100524463","trial","","40","800","2316.760000027716","images/stimuli/spore_stims/simple_11_B_a.gif","images/stimuli/spore_stims/simple_11_A_a.gif","","","","","11","simple_similar","images/stimuli/spore_stims/simple_11_A_a.gif","left","","","","",""
"","null","html-keyboard-response","216","411956","0.0-41.0-0.5","SS1613100524463","","","null","","","","","<p><img src= images/blank.png width =""200"" height = ""200"" style = ""float:right""></p><p><img src=images/blank.png width =""800"" height = ""200""></p>","","","","","","","","","","","",""
"","412.4100001063198","sequential-stimulus-presentation","217","413224","0.0-41.0-1.5","SS1613100524463","trial","","40","800","1212.4100001063198","images/stimuli/spore_stims/simple_11_B_a.gif","images/stimuli/spore_stims/simple_11_A_a.gif","","","","","11","simple_similar","images/stimuli/spore_stims/simple_11_A_a.gif","left","","","","",""
"","null","html-keyboard-response","218","414518","0.0-41.0-0.6","SS1613100524463","","","null","","","","","<p><img src= images/blank.png width =""200"" height = ""200"" style = ""float:right""></p><p><img src=images/blank.png width =""800"" height = ""200""></p>","","","","","","","","","","","",""
"","319.01000009384006","sequential-stimulus-presentation","219","415680","0.0-41.0-1.6","SS1613100524463","trial","","40","800","1119.01000009384","images/stimuli/spore_stims/simple_11_B_a.gif","images/stimuli/spore_stims/simple_11_A_a.gif","","","","","11","simple_similar","images/stimuli/spore_stims/simple_11_A_a.gif","left","","","","",""
"","null","html-keyboard-response","220","416706","0.0-41.0-0.7","SS1613100524463","","","null","","","","","<p><img src= images/blank.png width =""200"" height = ""200"" style = ""float:right""></p><p><img src=images/blank.png width =""800"" height = ""200""></p>","","","","","","","","","","","",""
"","374.50999999418855","sequential-stimulus-presentation","221","417901","0.0-41.0-1.7","SS1613100524463","trial","","40","800","1174.5099999941885","images/stimuli/spore_stims/simple_11_B_a.gif","images/stimuli/spore_stims/simple_11_A_a.gif","","","","","11","simple_similar","images/stimuli/spore_stims/simple_11_A_a.gif","left","","","","",""
"","2714.0849999850616","html-keyboard-response","222","420627","0.0-42.0","SS1613100524463","pref_question","","51","","","","","<video width ='960' height = '540' style='padding-top:8%' autoplay muted><source src='images/stimuli/wall_pref.mp4' type='video/mp4'></video>","3","right","66%","11","","","","","","","",""
"","2176.644999999553","sequential-stimulus-presentation","223","423672","0.0-43.0","SS1613100524463","pref_reveal","","40","800","2976.644999999553","null","null","","","","","11","","","","novel","","","",""
"","null","html-keyboard-response","224","424652","0.0-44.0-0.0","SS1613100524463","","","null","","","","","<p><img src= images/blank.png width =""200"" height = ""200"" style = ""float:right""></p><p><img src=images/blank.png width =""800"" height = ""200""></p>","","","","","","","","","","","",""
"","1247.7700000163168","sequential-stimulus-presentation","225","426901","0.0-44.0-1.0","SS1613100524463","trial","","40","800","2047.7700000163168","images/stimuli/spore_stims/complex_03_A_b.gif","images/stimuli/spore_stims/complex_03_B_b.gif","","","","","12","complex_similar","images/stimuli/spore_stims/complex_03_B_b.gif","right","","","","",""
"","null","html-keyboard-response","226","428164","0.0-44.0-0.1","SS1613100524463","","","null","","","","","<p><img src= images/blank.png width =""200"" height = ""200"" style = ""float:right""></p><p><img src=images/blank.png width =""800"" height = ""200""></p>","","","","","","","","","","","",""
"","764.8599999956787","sequential-stimulus-presentation","227","429758","0.0-44.0-1.1","SS1613100524463","trial","","40","800","1564.8599999956787","images/stimuli/spore_stims/complex_03_A_b.gif","images/stimuli/spore_stims/complex_03_B_b.gif","","","","","12","complex_similar","images/stimuli/spore_stims/complex_03_B_b.gif","right","","","","",""
"","null","html-keyboard-response","228","430724","0.0-44.0-0.2","SS1613100524463","","","null","","","","","<p><img src= images/blank.png width =""200"" height = ""200"" style = ""float:right""></p><p><img src=images/blank.png width =""800"" height = ""200""></p>","","","","","","","","","","","",""
"","1012.0899999747053","sequential-stimulus-presentation","229","432662","0.0-44.0-1.2","SS1613100524463","trial","","40","800","1812.0899999747053","images/stimuli/spore_stims/complex_03_A_b.gif","images/stimuli/spore_stims/complex_03_B_b.gif","","","","","12","complex_similar","images/stimuli/spore_stims/complex_03_B_b.gif","right","","","","",""
"","null","html-keyboard-response","230","433668","0.0-44.0-0.3","SS1613100524463","","","null","","","","","<p><img src= images/blank.png width =""200"" height = ""200"" style = ""float:right""></p><p><img src=images/blank.png width =""800"" height = ""200""></p>","","","","","","","","","","","",""
"","1262.5799999805167","sequential-stimulus-presentation","231","435908","0.0-44.0-1.3","SS1613100524463","trial","","40","800","2062.5799999805167","images/stimuli/spore_stims/complex_03_A_b.gif","images/stimuli/spore_stims/complex_03_B_b.gif","","","","","12","complex_similar","images/stimuli/spore_stims/complex_03_A_b.gif","left","","","","",""
"","null","html-keyboard-response","232","436745","0.0-44.0-0.4","SS1613100524463","","","null","","","","","<p><img src= images/blank.png width =""200"" height = ""200"" style = ""float:right""></p><p><img src=images/blank.png width =""800"" height = ""200""></p>","","","","","","","","","","","",""
"","759.749999968335","sequential-stimulus-presentation","233","438337","0.0-44.0-1.4","SS1613100524463","trial","","40","800","1559.749999968335","images/stimuli/spore_stims/complex_03_A_b.gif","images/stimuli/spore_stims/complex_03_B_b.gif","","","","","12","complex_similar","images/stimuli/spore_stims/complex_03_B_b.gif","right","","","","",""
"","null","html-keyboard-response","234","439550","0.0-44.0-0.5","SS1613100524463","","","null","","","","","<p><img src= images/blank.png width =""200"" height = ""200"" style = ""float:right""></p><p><img src=images/blank.png width =""800"" height = ""200""></p>","","","","","","","","","","","",""
"","482.1399999782443","sequential-stimulus-presentation","235","440869","0.0-44.0-1.5","SS1613100524463","trial","","40","800","1282.1399999782443","images/stimuli/spore_stims/complex_03_A_b.gif","images/stimuli/spore_stims/complex_03_B_b.gif","","","","","12","complex_similar","images/stimuli/spore_stims/complex_03_B_b.gif","right","","","","",""
"","null","html-keyboard-response","236","442314","0.0-44.0-0.6","SS1613100524463","","","null","","","","","<p><img src= images/blank.png width =""200"" height = ""200"" style = ""float:right""></p><p><img src=images/blank.png width =""800"" height = ""200""></p>","","","","","","","","","","","",""
"","946.2099999655038","sequential-stimulus-presentation","237","444125","0.0-44.0-1.6","SS1613100524463","trial","","40","800","1746.2099999655038","images/stimuli/spore_stims/complex_03_A_b.gif","images/stimuli/spore_stims/complex_03_B_b.gif","","","","","12","complex_similar","images/stimuli/spore_stims/complex_03_B_b.gif","right","","","","",""
"","null","html-keyboard-response","238","445079","0.0-44.0-0.7","SS1613100524463","","","null","","","","","<p><img src= images/blank.png width =""200"" height = ""200"" style = ""float:right""></p><p><img src=images/blank.png width =""800"" height = ""200""></p>","","","","","","","","","","","",""
"","1076.0449999943376","sequential-stimulus-presentation","239","446988","0.0-44.0-1.7","SS1613100524463","trial","","40","800","1876.0449999943376","images/stimuli/spore_stims/complex_03_A_b.gif","images/stimuli/spore_stims/complex_03_B_b.gif","","","","","12","complex_similar","images/stimuli/spore_stims/complex_03_B_b.gif","right","","","","",""
"","2597.740000113845","html-keyboard-response","240","449619","0.0-45.0","SS1613100524463","pref_question","","51","","","","","<video width ='960' height = '540' style='padding-top:8%' autoplay muted><source src='images/stimuli/wall_pref.mp4' type='video/mp4'></video>","3","right","66%","12","","","","","","","",""
"","1005.8500000741333","sequential-stimulus-presentation","241","451454","0.0-46.0","SS1613100524463","pref_reveal","","40","800","1805.8500000741333","null","null","","","","","12","","","","background","","","",""
"","null","html-keyboard-response","242","452296","0.0-47.0-0.0","SS1613100524463","","","null","","","","","<p><img src= images/blank.png width =""200"" height = ""200"" style = ""float:right""></p><p><img src=images/blank.png width =""800"" height = ""200""></p>","","","","","","","","","","","",""
"","3124.91500005126","sequential-stimulus-presentation","243","456446","0.0-47.0-1.0","SS1613100524463","trial","","40","800","3924.91500005126","images/stimuli/spore_stims/complex_20_B_c.gif","images/stimuli/spore_stims/complex_18_B_b.gif","","","","","13","complex_dissimilar","images/stimuli/spore_stims/complex_18_B_b.gif","right","","","","",""
"","null","html-keyboard-response","244","457509","0.0-47.0-0.1","SS1613100524463","","","null","","","","","<p><img src= images/blank.png width =""200"" height = ""200"" style = ""float:right""></p><p><img src=images/blank.png width =""800"" height = ""200""></p>","","","","","","","","","","","",""
"","396.4700000360608","sequential-stimulus-presentation","245","458769","0.0-47.0-1.1","SS1613100524463","trial","","40","800","1196.4700000360608","images/stimuli/spore_stims/complex_20_B_c.gif","images/stimuli/spore_stims/complex_18_B_b.gif","","","","","13","complex_dissimilar","images/stimuli/spore_stims/complex_18_B_b.gif","right","","","","",""
"","null","html-keyboard-response","246","459621","0.0-47.0-0.2","SS1613100524463","","","null","","","","","<p><img src= images/blank.png width =""200"" height = ""200"" style = ""float:right""></p><p><img src=images/blank.png width =""800"" height = ""200""></p>","","","","","","","","","","","",""
"","77.97999994363636","sequential-stimulus-presentation","247","460556","0.0-47.0-1.2","SS1613100524463","trial","","40","800","877.9799999436364","images/stimuli/spore_stims/complex_20_B_c.gif","images/stimuli/spore_stims/complex_18_B_b.gif","","","","","13","complex_dissimilar","images/stimuli/spore_stims/complex_18_B_b.gif","right","","","","",""
"","null","html-keyboard-response","248","461614","0.0-47.0-0.3","SS1613100524463","","","null","","","","","<p><img src= images/blank.png width =""200"" height = ""200"" style = ""float:right""></p><p><img src=images/blank.png width =""800"" height = ""200""></p>","","","","","","","","","","","",""
"","842.9000000469387","sequential-stimulus-presentation","249","463729","0.0-47.0-1.3","SS1613100524463","trial","","40","800","1642.9000000469387","images/stimuli/spore_stims/complex_20_B_c.gif","images/stimuli/spore_stims/complex_18_B_b.gif","","","","","13","complex_dissimilar","images/stimuli/spore_stims/complex_18_B_b.gif","right","","","","",""
"","null","html-keyboard-response","250","464982","0.0-47.0-0.4","SS1613100524463","","","null","","","","","<p><img src= images/blank.png width =""200"" height = ""200"" style = ""float:right""></p><p><img src=images/blank.png width =""800"" height = ""200""></p>","","","","","","","","","","","",""
"","280.1599999656901","sequential-stimulus-presentation","251","466089","0.0-47.0-1.4","SS1613100524463","trial","","40","800","1080.15999996569","images/stimuli/spore_stims/complex_20_B_c.gif","images/stimuli/spore_stims/complex_18_B_b.gif","","","","","13","complex_dissimilar","images/stimuli/spore_stims/complex_18_B_b.gif","right","","","","",""
"","null","html-keyboard-response","252","467348","0.0-47.0-0.5","SS1613100524463","","","null","","","","","<p><img src= images/blank.png width =""200"" height = ""200"" style = ""float:right""></p><p><img src=images/blank.png width =""800"" height = ""200""></p>","","","","","","","","","","","",""
"","2211.639999994077","sequential-stimulus-presentation","253","471169","0.0-47.0-1.5","SS1613100524463","trial","","40","800","3011.639999994077","images/stimuli/spore_stims/complex_20_B_c.gif","images/stimuli/spore_stims/complex_18_B_b.gif","","","","","13","complex_dissimilar","images/stimuli/spore_stims/complex_20_B_c.gif","middle","","","","",""
"","null","html-keyboard-response","254","472024","0.0-47.0-0.6","SS1613100524463","","","null","","","","","<p><img src= images/blank.png width =""200"" height = ""200"" style = ""float:right""></p><p><img src=images/blank.png width =""800"" height = ""200""></p>","","","","","","","","","","","",""
"","186.3700000103563","sequential-stimulus-presentation","255","473040","0.0-47.0-1.6","SS1613100524463","trial","","40","800","986.3700000103563","images/stimuli/spore_stims/complex_20_B_c.gif","images/stimuli/spore_stims/complex_18_B_b.gif","","","","","13","complex_dissimilar","images/stimuli/spore_stims/complex_18_B_b.gif","right","","","","",""
"","null","html-keyboard-response","256","474254","0.0-47.0-0.7","SS1613100524463","","","null","","","","","<p><img src= images/blank.png width =""200"" height = ""200"" style = ""float:right""></p><p><img src=images/blank.png width =""800"" height = ""200""></p>","","","","","","","","","","","",""
"","2656.7400000058115","sequential-stimulus-presentation","257","477776","0.0-47.0-1.7","SS1613100524463","trial","","40","800","3456.7400000058115","images/stimuli/spore_stims/complex_20_B_c.gif","images/stimuli/spore_stims/complex_18_B_b.gif","","","","","13","complex_dissimilar","images/stimuli/spore_stims/complex_18_B_b.gif","right","","","","",""
"","2514.710000017658","html-keyboard-response","258","480302","0.0-48.0","SS1613100524463","pref_question","","49","","","","","<video width ='960' height = '540' style='padding-top:8%' autoplay muted><source src='images/stimuli/wall_pref.mp4' type='video/mp4'></video>","1","left","25%","13","","","","","","","",""
"","1891.8199999025092","sequential-stimulus-presentation","259","483149","0.0-49.0","SS1613100524463","pref_reveal","","40","800","2691.819999902509","null","null","","","","","13","","","","novel","","","",""
"","null","html-keyboard-response","260","484350","0.0-50.0-0.0","SS1613100524463","","","null","","","","","<p><img src= images/blank.png width =""200"" height = ""200"" style = ""float:right""></p><p><img src=images/blank.png width =""800"" height = ""200""></p>","","","","","","","","","","","",""
"","2710.2550000417978","sequential-stimulus-presentation","261","488204","0.0-50.0-1.0","SS1613100524463","trial","","40","800","3510.2550000417978","images/stimuli/spore_stims/complex_01_A_b.gif","images/stimuli/spore_stims/complex_16_B_a.gif","","","","","14","complex_dissimilar","images/stimuli/spore_stims/complex_16_B_a.gif","right","","","","",""
"","null","html-keyboard-response","262","489494","0.0-50.0-0.1","SS1613100524463","","","null","","","","","<p><img src= images/blank.png width =""200"" height = ""200"" style = ""float:right""></p><p><img src=images/blank.png width =""800"" height = ""200""></p>","","","","","","","","","","","",""
"","1413.410000037402","sequential-stimulus-presentation","263","491730","0.0-50.0-1.1","SS1613100524463","trial","","40","800","2213.410000037402","images/stimuli/spore_stims/complex_01_A_b.gif","images/stimuli/spore_stims/complex_16_B_a.gif","","","","","14","complex_dissimilar","images/stimuli/spore_stims/complex_16_B_a.gif","right","","","","",""
"","null","html-keyboard-response","264","493003","0.0-50.0-0.2","SS1613100524463","","","null","","","","","<p><img src= images/blank.png width =""200"" height = ""200"" style = ""float:right""></p><p><img src=images/blank.png width =""800"" height = ""200""></p>","","","","","","","","","","","",""
"","387.17999996151775","sequential-stimulus-presentation","265","494224","0.0-50.0-1.2","SS1613100524463","trial","","40","800","1187.1799999615178","images/stimuli/spore_stims/complex_01_A_b.gif","images/stimuli/spore_stims/complex_16_B_a.gif","","","","","14","complex_dissimilar","images/stimuli/spore_stims/complex_16_B_a.gif","right","","","","",""
"","null","html-keyboard-response","266","495535","0.0-50.0-0.3","SS1613100524463","","","null","","","","","<p><img src= images/blank.png width =""200"" height = ""200"" style = ""float:right""></p><p><img src=images/blank.png width =""800"" height = ""200""></p>","","","","","","","","","","","",""
"","468.57000002637506","sequential-stimulus-presentation","267","496825","0.0-50.0-1.3","SS1613100524463","trial","","40","800","1268.570000026375","images/stimuli/spore_stims/complex_01_A_b.gif","images/stimuli/spore_stims/complex_16_B_a.gif","","","","","14","complex_dissimilar","images/stimuli/spore_stims/complex_16_B_a.gif","right","","","","",""
"","null","html-keyboard-response","268","497722","0.0-50.0-0.4","SS1613100524463","","","null","","","","","<p><img src= images/blank.png width =""200"" height = ""200"" style = ""float:right""></p><p><img src=images/blank.png width =""800"" height = ""200""></p>","","","","","","","","","","","",""
"","1931.9649999961257","sequential-stimulus-presentation","269","500556","0.0-50.0-1.4","SS1613100524463","trial","","40","800","2731.9649999961257","images/stimuli/spore_stims/complex_01_A_b.gif","images/stimuli/spore_stims/complex_16_B_a.gif","","","","","14","complex_dissimilar","images/stimuli/spore_stims/complex_01_A_b.gif","middle","","","","",""
"","null","html-keyboard-response","270","501562","0.0-50.0-0.5","SS1613100524463","","","null","","","","","<p><img src= images/blank.png width =""200"" height = ""200"" style = ""float:right""></p><p><img src=images/blank.png width =""800"" height = ""200""></p>","","","","","","","","","","","",""
"","555.9549999888986","sequential-stimulus-presentation","271","502950","0.0-50.0-1.5","SS1613100524463","trial","","40","800","1355.9549999888986","images/stimuli/spore_stims/complex_01_A_b.gif","images/stimuli/spore_stims/complex_16_B_a.gif","","","","","14","complex_dissimilar","images/stimuli/spore_stims/complex_16_B_a.gif","right","","","","",""
"","null","html-keyboard-response","272","504175","0.0-50.0-0.6","SS1613100524463","","","null","","","","","<p><img src= images/blank.png width =""200"" height = ""200"" style = ""float:right""></p><p><img src=images/blank.png width =""800"" height = ""200""></p>","","","","","","","","","","","",""
"","366.6150000644848","sequential-stimulus-presentation","273","505514","0.0-50.0-1.6","SS1613100524463","trial","","40","800","1166.6150000644848","images/stimuli/spore_stims/complex_01_A_b.gif","images/stimuli/spore_stims/complex_16_B_a.gif","","","","","14","complex_dissimilar","images/stimuli/spore_stims/complex_16_B_a.gif","right","","","","",""
"","null","html-keyboard-response","274","506396","0.0-50.0-0.7","SS1613100524463","","","null","","","","","<p><img src= images/blank.png width =""200"" height = ""200"" style = ""float:right""></p><p><img src=images/blank.png width =""800"" height = ""200""></p>","","","","","","","","","","","",""
"","418.1050000479445","sequential-stimulus-presentation","275","507657","0.0-50.0-1.7","SS1613100524463","trial","","40","800","1218.1050000479445","images/stimuli/spore_stims/complex_01_A_b.gif","images/stimuli/spore_stims/complex_16_B_a.gif","","","","","14","complex_dissimilar","images/stimuli/spore_stims/complex_16_B_a.gif","right","","","","",""
"","2010.8249998884276","html-keyboard-response","276","509686","0.0-51.0","SS1613100524463","pref_question","","49","","","","","<video width ='960' height = '540' style='padding-top:8%' autoplay muted><source src='images/stimuli/wall_pref.mp4' type='video/mp4'></video>","1","left","25%","14","","","","","","","",""
"","1976.0450000176206","sequential-stimulus-presentation","277","512500","0.0-52.0","SS1613100524463","pref_reveal","","40","800","2776.0450000176206","null","null","","","","","14","","","","novel","","","",""
"","null","html-keyboard-response","278","513430","0.0-53.0-0.0","SS1613100524463","","","null","","","","","<p><img src= images/blank.png width =""200"" height = ""200"" style = ""float:right""></p><p><img src=images/blank.png width =""800"" height = ""200""></p>","","","","","","","","","","","",""
"","1572.0250000013039","sequential-stimulus-presentation","279","516257","0.0-53.0-1.0","SS1613100524463","trial","","40","800","2372.025000001304","images/stimuli/spore_stims/complex_11_B_a.gif","images/stimuli/spore_stims/complex_11_A_a.gif","","","","","15","complex_similar","images/stimuli/spore_stims/complex_11_A_a.gif","left","","","","",""
"","null","html-keyboard-response","280","517147","0.0-53.0-0.1","SS1613100524463","","","null","","","","","<p><img src= images/blank.png width =""200"" height = ""200"" style = ""float:right""></p><p><img src=images/blank.png width =""800"" height = ""200""></p>","","","","","","","","","","","",""
"","648.1299999868497","sequential-stimulus-presentation","281","518632","0.0-53.0-1.1","SS1613100524463","trial","","40","800","1448.1299999868497","images/stimuli/spore_stims/complex_11_B_a.gif","images/stimuli/spore_stims/complex_11_A_a.gif","","","","","15","complex_similar","images/stimuli/spore_stims/complex_11_A_a.gif","left","","","","",""
"","null","html-keyboard-response","282","519588","0.0-53.0-0.2","SS1613100524463","","","null","","","","","<p><img src= images/blank.png width =""200"" height = ""200"" style = ""float:right""></p><p><img src=images/blank.png width =""800"" height = ""200""></p>","","","","","","","","","","","",""
"","987.3199999565259","sequential-stimulus-presentation","283","521555","0.0-53.0-1.2","SS1613100524463","trial","","40","800","1787.3199999565259","images/stimuli/spore_stims/complex_11_B_a.gif","images/stimuli/spore_stims/complex_11_A_a.gif","","","","","15","complex_similar","images/stimuli/spore_stims/complex_11_B_a.gif","middle","","","","",""
"","null","html-keyboard-response","284","522752","0.0-53.0-0.3","SS1613100524463","","","null","","","","","<p><img src= images/blank.png width =""200"" height = ""200"" style = ""float:right""></p><p><img src=images/blank.png width =""800"" height = ""200""></p>","","","","","","","","","","","",""
"","346.94499999750406","sequential-stimulus-presentation","285","523929","0.0-53.0-1.3","SS1613100524463","trial","","40","800","1146.944999997504","images/stimuli/spore_stims/complex_11_B_a.gif","images/stimuli/spore_stims/complex_11_A_a.gif","","","","","15","complex_similar","images/stimuli/spore_stims/complex_11_A_a.gif","left","","","","",""
"","null","html-keyboard-response","286","524965","0.0-53.0-0.4","SS1613100524463","","","null","","","","","<p><img src= images/blank.png width =""200"" height = ""200"" style = ""float:right""></p><p><img src=images/blank.png width =""800"" height = ""200""></p>","","","","","","","","","","","",""
"","459.3149999855086","sequential-stimulus-presentation","287","526253","0.0-53.0-1.4","SS1613100524463","trial","","40","800","1259.3149999855086","images/stimuli/spore_stims/complex_11_B_a.gif","images/stimuli/spore_stims/complex_11_A_a.gif","","","","","15","complex_similar","images/stimuli/spore_stims/complex_11_A_a.gif","left","","","","",""
"","null","html-keyboard-response","288","527249","0.0-53.0-0.5","SS1613100524463","","","null","","","","","<p><img src= images/blank.png width =""200"" height = ""200"" style = ""float:right""></p><p><img src=images/blank.png width =""800"" height = ""200""></p>","","","","","","","","","","","",""
"","324.214999913238","sequential-stimulus-presentation","289","528439","0.0-53.0-1.5","SS1613100524463","trial","","40","800","1124.214999913238","images/stimuli/spore_stims/complex_11_B_a.gif","images/stimuli/spore_stims/complex_11_A_a.gif","","","","","15","complex_similar","images/stimuli/spore_stims/complex_11_A_a.gif","left","","","","",""
"","null","html-keyboard-response","290","529392","0.0-53.0-0.6","SS1613100524463","","","null","","","","","<p><img src= images/blank.png width =""200"" height = ""200"" style = ""float:right""></p><p><img src=images/blank.png width =""800"" height = ""200""></p>","","","","","","","","","","","",""
"","1980.794999981299","sequential-stimulus-presentation","291","532200","0.0-53.0-1.6","SS1613100524463","trial","","40","800","2780.794999981299","images/stimuli/spore_stims/complex_11_B_a.gif","images/stimuli/spore_stims/complex_11_A_a.gif","","","","","15","complex_similar","images/stimuli/spore_stims/complex_11_A_a.gif","left","","","","",""
"","null","html-keyboard-response","292","533301","0.0-53.0-0.7","SS1613100524463","","","null","","","","","<p><img src= images/blank.png width =""200"" height = ""200"" style = ""float:right""></p><p><img src=images/blank.png width =""800"" height = ""200""></p>","","","","","","","","","","","",""
"","688.8850000686944","sequential-stimulus-presentation","293","534870","0.0-53.0-1.7","SS1613100524463","trial","","40","800","1488.8850000686944","images/stimuli/spore_stims/complex_11_B_a.gif","images/stimuli/spore_stims/complex_11_A_a.gif","","","","","15","complex_similar","images/stimuli/spore_stims/complex_11_A_a.gif","left","","","","",""
"","1247.7400000207126","html-keyboard-response","294","536140","0.0-54.0","SS1613100524463","pref_question","","51","","","","","<video width ='960' height = '540' style='padding-top:8%' autoplay muted><source src='images/stimuli/wall_pref.mp4' type='video/mp4'></video>","3","right","66%","15","","","","","","","",""
"","3270.295000053011","sequential-stimulus-presentation","295","540235","0.0-55.0","SS1613100524463","pref_reveal","","40","800","4070.295000053011","null","null","","","","","15","","","","novel","","","",""
"","null","html-keyboard-response","296","541068","0.0-56.0-0.0","SS1613100524463","","","null","","","","","<p><img src= images/blank.png width =""200"" height = ""200"" style = ""float:right""></p><p><img src=images/blank.png width =""800"" height = ""200""></p>","","","","","","","","","","","",""
"","1009.129999903962","sequential-stimulus-presentation","297","542981","0.0-56.0-1.0","SS1613100524463","trial","","40","800","1809.129999903962","images/stimuli/spore_stims/simple_01_B_d.gif","images/stimuli/spore_stims/simple_14_B_c.gif","","","","","16","simple_dissimilar","images/stimuli/spore_stims/simple_14_B_c.gif","left","","","","",""
"","null","html-keyboard-response","298","543948","0.0-56.0-0.1","SS1613100524463","","","null","","","","","<p><img src= images/blank.png width =""200"" height = ""200"" style = ""float:right""></p><p><img src=images/blank.png width =""800"" height = ""200""></p>","","","","","","","","","","","",""
"","260.4599999031052","sequential-stimulus-presentation","299","545036","0.0-56.0-1.1","SS1613100524463","trial","","40","800","1060.4599999031052","images/stimuli/spore_stims/simple_01_B_d.gif","images/stimuli/spore_stims/simple_14_B_c.gif","","","","","16","simple_dissimilar","images/stimuli/spore_stims/simple_14_B_c.gif","left","","","","",""
"","null","html-keyboard-response","300","546375","0.0-56.0-0.2","SS1613100524463","","","null","","","","","<p><img src= images/blank.png width =""200"" height = ""200"" style = ""float:right""></p><p><img src=images/blank.png width =""800"" height = ""200""></p>","","","","","","","","","","","",""
"","89.31000006850809","sequential-stimulus-presentation","301","547286","0.0-56.0-1.2","SS1613100524463","trial","","40","800","889.3100000685081","images/stimuli/spore_stims/simple_01_B_d.gif","images/stimuli/spore_stims/simple_14_B_c.gif","","","","","16","simple_dissimilar","images/stimuli/spore_stims/simple_14_B_c.gif","left","","","","",""
"","null","html-keyboard-response","302","548314","0.0-56.0-0.3","SS1613100524463","","","null","","","","","<p><img src= images/blank.png width =""200"" height = ""200"" style = ""float:right""></p><p><img src=images/blank.png width =""800"" height = ""200""></p>","","","","","","","","","","","",""
"","213.3499999763444","sequential-stimulus-presentation","303","549530","0.0-56.0-1.3","SS1613100524463","trial","","40","800","1013.3499999763444","images/stimuli/spore_stims/simple_01_B_d.gif","images/stimuli/spore_stims/simple_14_B_c.gif","","","","","16","simple_dissimilar","images/stimuli/spore_stims/simple_14_B_c.gif","left","","","","",""
"","null","html-keyboard-response","304","550375","0.0-56.0-0.4","SS1613100524463","","","null","","","","","<p><img src= images/blank.png width =""200"" height = ""200"" style = ""float:right""></p><p><img src=images/blank.png width =""800"" height = ""200""></p>","","","","","","","","","","","",""
"","1029.3749999254942","sequential-stimulus-presentation","305","552416","0.0-56.0-1.4","SS1613100524463","trial","","40","800","1829.3749999254942","images/stimuli/spore_stims/simple_01_B_d.gif","images/stimuli/spore_stims/simple_14_B_c.gif","","","","","16","simple_dissimilar","images/stimuli/spore_stims/simple_01_B_d.gif","middle","","","","",""
"","null","html-keyboard-response","306","553399","0.0-56.0-0.5","SS1613100524463","","","null","","","","","<p><img src= images/blank.png width =""200"" height = ""200"" style = ""float:right""></p><p><img src=images/blank.png width =""800"" height = ""200""></p>","","","","","","","","","","","",""
"","389.6950000198558","sequential-stimulus-presentation","307","554637","0.0-56.0-1.5","SS1613100524463","trial","","40","800","1189.6950000198558","images/stimuli/spore_stims/simple_01_B_d.gif","images/stimuli/spore_stims/simple_14_B_c.gif","","","","","16","simple_dissimilar","images/stimuli/spore_stims/simple_14_B_c.gif","left","","","","",""
"","null","html-keyboard-response","308","555769","0.0-56.0-0.6","SS1613100524463","","","null","","","","","<p><img src= images/blank.png width =""200"" height = ""200"" style = ""float:right""></p><p><img src=images/blank.png width =""800"" height = ""200""></p>","","","","","","","","","","","",""
"","407.7599999727681","sequential-stimulus-presentation","309","557024","0.0-56.0-1.6","SS1613100524463","trial","","40","800","1207.7599999727681","images/stimuli/spore_stims/simple_01_B_d.gif","images/stimuli/spore_stims/simple_14_B_c.gif","","","","","16","simple_dissimilar","images/stimuli/spore_stims/simple_14_B_c.gif","left","","","","",""
"","null","html-keyboard-response","310","558062","0.0-56.0-0.7","SS1613100524463","","","null","","","","","<p><img src= images/blank.png width =""200"" height = ""200"" style = ""float:right""></p><p><img src=images/blank.png width =""800"" height = ""200""></p>","","","","","","","","","","","",""
"","649.0600000834092","sequential-stimulus-presentation","311","559569","0.0-56.0-1.7","SS1613100524463","trial","","40","800","1449.0600000834092","images/stimuli/spore_stims/simple_01_B_d.gif","images/stimuli/spore_stims/simple_14_B_c.gif","","","","","16","simple_dissimilar","images/stimuli/spore_stims/simple_14_B_c.gif","left","","","","",""
"","1453.250000020489","html-keyboard-response","312","561067","0.0-57.0","SS1613100524463","pref_question","","51","","","","","<video width ='960' height = '540' style='padding-top:8%' autoplay muted><source src='images/stimuli/wall_pref.mp4' type='video/mp4'></video>","3","right","66%","16","","","","","","","",""
