"view_history","rt","trial_type","trial_index","time_elapsed","internal_node_id","subject","stimulus_type","trial_stimulus","key_press","minimum_viewing_duration","trial_looking_time","block_deviant","block_background","stimulus","wall_pref","location","location_percent","block_number","block_type","stimulus_displayed","position_displayed","stim_type_selected","responses","question_order","stimulus_left","stimulus_right"
"[{""page_index"":0,""viewing_time"":187824.82499999605}]","187825.71499999904","instructions","0","187831","0.0-0.0","SS1613102297354","","","","","","","","","","","","","","","","","","","",""
"[{""page_index"":0,""viewing_time"":1154.9700000032317},{""page_index"":1,""viewing_time"":4464.11999999691}]","5619.530000003579","instructions","1","195454","0.0-1.0","SS1613102297354","instructions","","","","","","","","","","","","","","","","","","",""
"","2102.0800000042072","sequential-stimulus-presentation","2","198362","0.0-2.0","SS1613102297354","","","40","800","2902.0800000042072","null","null","","","","","","","","","","","","",""
"","3.254999995988328","sequential-stimulus-presentation","3","199169","0.0-3.0","SS1613102297354","","","40","800","803.2549999959883","null","null","","","","","","","","","","","","",""
"[{""page_index"":0,""viewing_time"":961.8950000003679}]","962.4650000041584","instructions","4","200134","0.0-4.0","SS1613102297354","instructions","","","","","","","","","","","","","","","","","","",""
"","2407.4799999943934","html-keyboard-response","5","202545","0.0-5.0","SS1613102297354","instructions","","99","","","","","<video width ='960' height = '540' autoplay muted><source src='images/stimuli/wall_pref.mp4' type='video/mp4'></video>","3","right","66%","","","","","","","","",""
"","635.1750000030734","sequential-stimulus-presentation","6","203985","0.0-6.0","SS1613102297354","pref_reveal","","40","800","1435.1750000030734","null","null","","","","","","","","","","","","",""
"[{""page_index"":0,""viewing_time"":1265.8200000005309},{""page_index"":1,""viewing_time"":1095.6899999946472},{""page_index"":2,""viewing_time"":959.9600000001374},{""page_index"":3,""viewing_time"":951.9900000013877}]","4273.754999994708","instructions","7","208261","0.0-7.0","SS1613102297354","instructions","","","","","","","","","","","","","","","","","","",""
"","null","html-keyboard-response","8","209309","0.0-8.0-0.0","SS1613102297354","","","null","","","","","<p><img src= images/blank.png width =""200"" height = ""200"" style = ""float:right""></p><p><img src=images/blank.png width =""800"" height = ""200""></p>","","","","","","","","","","","",""
"","565.5850000039209","sequential-stimulus-presentation","9","210681","0.0-8.0-1.0","SS1613102297354","trial","","40","800","1365.5850000039209","images/stimuli/spore_stims/simple_08_A_b.gif","images/stimuli/spore_stims/simple_07_B_b.gif","","","","","0","simple_dissimilar","images/stimuli/spore_stims/simple_07_B_b.gif","right","","","","",""
"","null","html-keyboard-response","10","211607","0.0-8.0-0.1","SS1613102297354","","","null","","","","","<p><img src= images/blank.png width =""200"" height = ""200"" style = ""float:right""></p><p><img src=images/blank.png width =""800"" height = ""200""></p>","","","","","","","","","","","",""
"","446.1650000012014","sequential-stimulus-presentation","11","212857","0.0-8.0-1.1","SS1613102297354","trial","","40","800","1246.1650000012014","images/stimuli/spore_stims/simple_08_A_b.gif","images/stimuli/spore_stims/simple_07_B_b.gif","","","","","0","simple_dissimilar","images/stimuli/spore_stims/simple_07_B_b.gif","right","","","","",""
"","null","html-keyboard-response","12","213755","0.0-8.0-0.2","SS1613102297354","","","null","","","","","<p><img src= images/blank.png width =""200"" height = ""200"" style = ""float:right""></p><p><img src=images/blank.png width =""800"" height = ""200""></p>","","","","","","","","","","","",""
"","400.2099999997881","sequential-stimulus-presentation","13","214961","0.0-8.0-1.2","SS1613102297354","trial","","40","800","1200.2099999997881","images/stimuli/spore_stims/simple_08_A_b.gif","images/stimuli/spore_stims/simple_07_B_b.gif","","","","","0","simple_dissimilar","images/stimuli/spore_stims/simple_07_B_b.gif","right","","","","",""
"","null","html-keyboard-response","14","216075","0.0-8.0-0.3","SS1613102297354","","","null","","","","","<p><img src= images/blank.png width =""200"" height = ""200"" style = ""float:right""></p><p><img src=images/blank.png width =""800"" height = ""200""></p>","","","","","","","","","","","",""
"","798.9899999956833","sequential-stimulus-presentation","15","217681","0.0-8.0-1.3","SS1613102297354","trial","","40","800","1598.9899999956833","images/stimuli/spore_stims/simple_08_A_b.gif","images/stimuli/spore_stims/simple_07_B_b.gif","","","","","0","simple_dissimilar","images/stimuli/spore_stims/simple_07_B_b.gif","right","","","","",""
"","null","html-keyboard-response","16","218750","0.0-8.0-0.4","SS1613102297354","","","null","","","","","<p><img src= images/blank.png width =""200"" height = ""200"" style = ""float:right""></p><p><img src=images/blank.png width =""800"" height = ""200""></p>","","","","","","","","","","","",""
"","749.7650000004796","sequential-stimulus-presentation","17","220305","0.0-8.0-1.4","SS1613102297354","trial","","40","800","1549.7650000004796","images/stimuli/spore_stims/simple_08_A_b.gif","images/stimuli/spore_stims/simple_07_B_b.gif","","","","","0","simple_dissimilar","images/stimuli/spore_stims/simple_08_A_b.gif","left","","","","",""
"","null","html-keyboard-response","18","221453","0.0-8.0-0.5","SS1613102297354","","","null","","","","","<p><img src= images/blank.png width =""200"" height = ""200"" style = ""float:right""></p><p><img src=images/blank.png width =""800"" height = ""200""></p>","","","","","","","","","","","",""
"","31.76499999972293","sequential-stimulus-presentation","19","222289","0.0-8.0-1.5","SS1613102297354","trial","","40","800","831.7649999997229","images/stimuli/spore_stims/simple_08_A_b.gif","images/stimuli/spore_stims/simple_07_B_b.gif","","","","","0","simple_dissimilar","images/stimuli/spore_stims/simple_07_B_b.gif","right","","","","",""
"","null","html-keyboard-response","20","223493","0.0-8.0-0.6","SS1613102297354","","","null","","","","","<p><img src= images/blank.png width =""200"" height = ""200"" style = ""float:right""></p><p><img src=images/blank.png width =""800"" height = ""200""></p>","","","","","","","","","","","",""
"","1039.3850000036764","sequential-stimulus-presentation","21","225336","0.0-8.0-1.6","SS1613102297354","trial","","40","800","1839.3850000036764","images/stimuli/spore_stims/simple_08_A_b.gif","images/stimuli/spore_stims/simple_07_B_b.gif","","","","","0","simple_dissimilar","images/stimuli/spore_stims/simple_07_B_b.gif","right","","","","",""
"","null","html-keyboard-response","22","226272","0.0-8.0-0.7","SS1613102297354","","","null","","","","","<p><img src= images/blank.png width =""200"" height = ""200"" style = ""float:right""></p><p><img src=images/blank.png width =""800"" height = ""200""></p>","","","","","","","","","","","",""
"","443.3900000003632","sequential-stimulus-presentation","23","227521","0.0-8.0-1.7","SS1613102297354","trial","","40","800","1243.3900000003632","images/stimuli/spore_stims/simple_08_A_b.gif","images/stimuli/spore_stims/simple_07_B_b.gif","","","","","0","simple_dissimilar","images/stimuli/spore_stims/simple_07_B_b.gif","right","","","","",""
"","21330.24000000296","html-keyboard-response","24","248858","0.0-9.0","SS1613102297354","pref_question","","99","","","","","<video width ='960' height = '540' style='padding-top:8%' autoplay muted><source src='images/stimuli/wall_pref.mp4' type='video/mp4'></video>","3","right","66%","0","","","","","","","",""
"","338.145000001532","sequential-stimulus-presentation","25","250001","0.0-10.0","SS1613102297354","pref_reveal","","40","800","1138.145000001532","null","null","","","","","0","","","","background","","","",""
"","null","html-keyboard-response","26","251159","0.0-11.0-0.0","SS1613102297354","","","null","","","","","<p><img src= images/blank.png width =""200"" height = ""200"" style = ""float:right""></p><p><img src=images/blank.png width =""800"" height = ""200""></p>","","","","","","","","","","","",""
"","1477.405000005092","sequential-stimulus-presentation","27","253442","0.0-11.0-1.0","SS1613102297354","trial","","40","800","2277.405000005092","images/stimuli/spore_stims/complex_12_A_a.gif","images/stimuli/spore_stims/complex_12_B_a.gif","","","","","1","complex_similar","images/stimuli/spore_stims/complex_12_B_a.gif","left","","","","",""
"","null","html-keyboard-response","28","254679","0.0-11.0-0.1","SS1613102297354","","","null","","","","","<p><img src= images/blank.png width =""200"" height = ""200"" style = ""float:right""></p><p><img src=images/blank.png width =""800"" height = ""200""></p>","","","","","","","","","","","",""
"","707.750000001397","sequential-stimulus-presentation","29","256193","0.0-11.0-1.1","SS1613102297354","trial","","40","800","1507.750000001397","images/stimuli/spore_stims/complex_12_A_a.gif","images/stimuli/spore_stims/complex_12_B_a.gif","","","","","1","complex_similar","images/stimuli/spore_stims/complex_12_B_a.gif","left","","","","",""
"","null","html-keyboard-response","30","257371","0.0-11.0-0.2","SS1613102297354","","","null","","","","","<p><img src= images/blank.png width =""200"" height = ""200"" style = ""float:right""></p><p><img src=images/blank.png width =""800"" height = ""200""></p>","","","","","","","","","","","",""
"","609.6849999958067","sequential-stimulus-presentation","31","258785","0.0-11.0-1.2","SS1613102297354","trial","","40","800","1409.6849999958067","images/stimuli/spore_stims/complex_12_A_a.gif","images/stimuli/spore_stims/complex_12_B_a.gif","","","","","1","complex_similar","images/stimuli/spore_stims/complex_12_A_a.gif","middle","","","","",""
"","null","html-keyboard-response","32","259992","0.0-11.0-0.3","SS1613102297354","","","null","","","","","<p><img src= images/blank.png width =""200"" height = ""200"" style = ""float:right""></p><p><img src=images/blank.png width =""800"" height = ""200""></p>","","","","","","","","","","","",""
"","483.619999999064","sequential-stimulus-presentation","33","261281","0.0-11.0-1.3","SS1613102297354","trial","","40","800","1283.619999999064","images/stimuli/spore_stims/complex_12_A_a.gif","images/stimuli/spore_stims/complex_12_B_a.gif","","","","","1","complex_similar","images/stimuli/spore_stims/complex_12_B_a.gif","left","","","","",""
"","null","html-keyboard-response","34","262240","0.0-11.0-0.4","SS1613102297354","","","null","","","","","<p><img src= images/blank.png width =""200"" height = ""200"" style = ""float:right""></p><p><img src=images/blank.png width =""800"" height = ""200""></p>","","","","","","","","","","","",""
"","476.44999999465654","sequential-stimulus-presentation","35","263522","0.0-11.0-1.4","SS1613102297354","trial","","40","800","1276.4499999946565","images/stimuli/spore_stims/complex_12_A_a.gif","images/stimuli/spore_stims/complex_12_B_a.gif","","","","","1","complex_similar","images/stimuli/spore_stims/complex_12_B_a.gif","left","","","","",""
"","null","html-keyboard-response","36","264374","0.0-11.0-0.5","SS1613102297354","","","null","","","","","<p><img src= images/blank.png width =""200"" height = ""200"" style = ""float:right""></p><p><img src=images/blank.png width =""800"" height = ""200""></p>","","","","","","","","","","","",""
"","356.58500000135973","sequential-stimulus-presentation","37","265537","0.0-11.0-1.5","SS1613102297354","trial","","40","800","1156.5850000013597","images/stimuli/spore_stims/complex_12_A_a.gif","images/stimuli/spore_stims/complex_12_B_a.gif","","","","","1","complex_similar","images/stimuli/spore_stims/complex_12_B_a.gif","left","","","","",""
"","null","html-keyboard-response","38","266384","0.0-11.0-0.6","SS1613102297354","","","null","","","","","<p><img src= images/blank.png width =""200"" height = ""200"" style = ""float:right""></p><p><img src=images/blank.png width =""800"" height = ""200""></p>","","","","","","","","","","","",""
"","531.0599999938859","sequential-stimulus-presentation","39","267721","0.0-11.0-1.6","SS1613102297354","trial","","40","800","1331.0599999938859","images/stimuli/spore_stims/complex_12_A_a.gif","images/stimuli/spore_stims/complex_12_B_a.gif","","","","","1","complex_similar","images/stimuli/spore_stims/complex_12_B_a.gif","left","","","","",""
"","null","html-keyboard-response","40","268893","0.0-11.0-0.7","SS1613102297354","","","null","","","","","<p><img src= images/blank.png width =""200"" height = ""200"" style = ""float:right""></p><p><img src=images/blank.png width =""800"" height = ""200""></p>","","","","","","","","","","","",""
"","1078.9850000001024","sequential-stimulus-presentation","41","270777","0.0-11.0-1.7","SS1613102297354","trial","","40","800","1878.9850000001024","images/stimuli/spore_stims/complex_12_A_a.gif","images/stimuli/spore_stims/complex_12_B_a.gif","","","","","1","complex_similar","images/stimuli/spore_stims/complex_12_B_a.gif","left","","","","",""
"","10692.690000003495","html-keyboard-response","42","281473","0.0-12.0","SS1613102297354","pref_question","","98","","","","","<video width ='960' height = '540' style='padding-top:8%' autoplay muted><source src='images/stimuli/wall_pref.mp4' type='video/mp4'></video>","2","middle","45%","1","","","","","","","",""
"","437.21999999979744","sequential-stimulus-presentation","43","282715","0.0-13.0","SS1613102297354","pref_reveal","","40","800","1237.2199999997974","null","null","","","","","1","","","","deviant","","","",""
"","null","html-keyboard-response","44","283994","0.0-14.0-0.0","SS1613102297354","","","null","","","","","<p><img src= images/blank.png width =""200"" height = ""200"" style = ""float:right""></p><p><img src=images/blank.png width =""800"" height = ""200""></p>","","","","","","","","","","","",""
"","632.0049999994808","sequential-stimulus-presentation","45","285433","0.0-14.0-1.0","SS1613102297354","trial","","40","800","1432.0049999994808","images/stimuli/spore_stims/complex_15_B_a.gif","images/stimuli/spore_stims/complex_15_A_a.gif","","","","","2","complex_similar","images/stimuli/spore_stims/complex_15_A_a.gif","middle","","","","",""
"","null","html-keyboard-response","46","286237","0.0-14.0-0.1","SS1613102297354","","","null","","","","","<p><img src= images/blank.png width =""200"" height = ""200"" style = ""float:right""></p><p><img src=images/blank.png width =""800"" height = ""200""></p>","","","","","","","","","","","",""
"","1197.9900000005728","sequential-stimulus-presentation","47","288241","0.0-14.0-1.1","SS1613102297354","trial","","40","800","1997.9900000005728","images/stimuli/spore_stims/complex_15_B_a.gif","images/stimuli/spore_stims/complex_15_A_a.gif","","","","","2","complex_similar","images/stimuli/spore_stims/complex_15_A_a.gif","middle","","","","",""
"","null","html-keyboard-response","48","289084","0.0-14.0-0.2","SS1613102297354","","","null","","","","","<p><img src= images/blank.png width =""200"" height = ""200"" style = ""float:right""></p><p><img src=images/blank.png width =""800"" height = ""200""></p>","","","","","","","","","","","",""
"","589.7949999998673","sequential-stimulus-presentation","49","290483","0.0-14.0-1.2","SS1613102297354","trial","","40","800","1389.7949999998673","images/stimuli/spore_stims/complex_15_B_a.gif","images/stimuli/spore_stims/complex_15_A_a.gif","","","","","2","complex_similar","images/stimuli/spore_stims/complex_15_A_a.gif","middle","","","","",""
"","null","html-keyboard-response","50","291479","0.0-14.0-0.3","SS1613102297354","","","null","","","","","<p><img src= images/blank.png width =""200"" height = ""200"" style = ""float:right""></p><p><img src=images/blank.png width =""800"" height = ""200""></p>","","","","","","","","","","","",""
"","618.1700000015553","sequential-stimulus-presentation","51","292905","0.0-14.0-1.3","SS1613102297354","trial","","40","800","1418.1700000015553","images/stimuli/spore_stims/complex_15_B_a.gif","images/stimuli/spore_stims/complex_15_A_a.gif","","","","","2","complex_similar","images/stimuli/spore_stims/complex_15_A_a.gif","middle","","","","",""
"","null","html-keyboard-response","52","294054","0.0-14.0-0.4","SS1613102297354","","","null","","","","","<p><img src= images/blank.png width =""200"" height = ""200"" style = ""float:right""></p><p><img src=images/blank.png width =""800"" height = ""200""></p>","","","","","","","","","","","",""
"","564.7650000028079","sequential-stimulus-presentation","53","295425","0.0-14.0-1.4","SS1613102297354","trial","","40","800","1364.765000002808","images/stimuli/spore_stims/complex_15_B_a.gif","images/stimuli/spore_stims/complex_15_A_a.gif","","","","","2","complex_similar","images/stimuli/spore_stims/complex_15_A_a.gif","middle","","","","",""
"","null","html-keyboard-response","54","296482","0.0-14.0-0.5","SS1613102297354","","","null","","","","","<p><img src= images/blank.png width =""200"" height = ""200"" style = ""float:right""></p><p><img src=images/blank.png width =""800"" height = ""200""></p>","","","","","","","","","","","",""
"","330.44499999959953","sequential-stimulus-presentation","55","297633","0.0-14.0-1.5","SS1613102297354","trial","","40","800","1130.4449999995995","images/stimuli/spore_stims/complex_15_B_a.gif","images/stimuli/spore_stims/complex_15_A_a.gif","","","","","2","complex_similar","images/stimuli/spore_stims/complex_15_A_a.gif","middle","","","","",""
"","null","html-keyboard-response","56","298725","0.0-14.0-0.6","SS1613102297354","","","null","","","","","<p><img src= images/blank.png width =""200"" height = ""200"" style = ""float:right""></p><p><img src=images/blank.png width =""800"" height = ""200""></p>","","","","","","","","","","","",""
"","583.3649999985937","sequential-stimulus-presentation","57","300113","0.0-14.0-1.6","SS1613102297354","trial","","40","800","1383.3649999985937","images/stimuli/spore_stims/complex_15_B_a.gif","images/stimuli/spore_stims/complex_15_A_a.gif","","","","","2","complex_similar","images/stimuli/spore_stims/complex_15_A_a.gif","middle","","","","",""
"","null","html-keyboard-response","58","301076","0.0-14.0-0.7","SS1613102297354","","","null","","","","","<p><img src= images/blank.png width =""200"" height = ""200"" style = ""float:right""></p><p><img src=images/blank.png width =""800"" height = ""200""></p>","","","","","","","","","","","",""
"","383.12999999470776","sequential-stimulus-presentation","59","302265","0.0-14.0-1.7","SS1613102297354","trial","","40","800","1183.1299999947078","images/stimuli/spore_stims/complex_15_B_a.gif","images/stimuli/spore_stims/complex_15_A_a.gif","","","","","2","complex_similar","images/stimuli/spore_stims/complex_15_B_a.gif","left","","","","",""
"","2531.954999998561","html-keyboard-response","60","304801","0.0-15.0","SS1613102297354","pref_question","","98","","","","","<video width ='960' height = '540' style='padding-top:8%' autoplay muted><source src='images/stimuli/wall_pref.mp4' type='video/mp4'></video>","2","middle","45%","2","","","","","","","",""
"","499.0250000046217","sequential-stimulus-presentation","61","306105","0.0-16.0","SS1613102297354","pref_reveal","","40","800","1299.0250000046217","null","null","","","","","2","","","","background","","","",""
"","null","html-keyboard-response","62","307391","0.0-17.0-0.0","SS1613102297354","","","null","","","","","<p><img src= images/blank.png width =""200"" height = ""200"" style = ""float:right""></p><p><img src=images/blank.png width =""800"" height = ""200""></p>","","","","","","","","","","","",""
"","966.7649999973946","sequential-stimulus-presentation","63","309185","0.0-17.0-1.0","SS1613102297354","trial","","40","800","1766.7649999973946","images/stimuli/spore_stims/complex_11_B_a.gif","images/stimuli/spore_stims/complex_11_A_a.gif","","","","","3","complex_similar","images/stimuli/spore_stims/complex_11_A_a.gif","middle","","","","",""
"","null","html-keyboard-response","64","310326","0.0-17.0-0.1","SS1613102297354","","","null","","","","","<p><img src= images/blank.png width =""200"" height = ""200"" style = ""float:right""></p><p><img src=images/blank.png width =""800"" height = ""200""></p>","","","","","","","","","","","",""
"","851.265000004787","sequential-stimulus-presentation","65","311985","0.0-17.0-1.1","SS1613102297354","trial","","40","800","1651.265000004787","images/stimuli/spore_stims/complex_11_B_a.gif","images/stimuli/spore_stims/complex_11_A_a.gif","","","","","3","complex_similar","images/stimuli/spore_stims/complex_11_A_a.gif","middle","","","","",""
"","null","html-keyboard-response","66","312924","0.0-17.0-0.2","SS1613102297354","","","null","","","","","<p><img src= images/blank.png width =""200"" height = ""200"" style = ""float:right""></p><p><img src=images/blank.png width =""800"" height = ""200""></p>","","","","","","","","","","","",""
"","1189.314999995986","sequential-stimulus-presentation","67","314922","0.0-17.0-1.2","SS1613102297354","trial","","40","800","1989.314999995986","images/stimuli/spore_stims/complex_11_B_a.gif","images/stimuli/spore_stims/complex_11_A_a.gif","","","","","3","complex_similar","images/stimuli/spore_stims/complex_11_A_a.gif","middle","","","","",""
"","null","html-keyboard-response","68","315865","0.0-17.0-0.3","SS1613102297354","","","null","","","","","<p><img src= images/blank.png width =""200"" height = ""200"" style = ""float:right""></p><p><img src=images/blank.png width =""800"" height = ""200""></p>","","","","","","","","","","","",""
"","461.15999999892665","sequential-stimulus-presentation","69","317137","0.0-17.0-1.3","SS1613102297354","trial","","40","800","1261.1599999989267","images/stimuli/spore_stims/complex_11_B_a.gif","images/stimuli/spore_stims/complex_11_A_a.gif","","","","","3","complex_similar","images/stimuli/spore_stims/complex_11_B_a.gif","right","","","","",""
"","null","html-keyboard-response","70","318076","0.0-17.0-0.4","SS1613102297354","","","null","","","","","<p><img src= images/blank.png width =""200"" height = ""200"" style = ""float:right""></p><p><img src=images/blank.png width =""800"" height = ""200""></p>","","","","","","","","","","","",""
"","630.6699999986449","sequential-stimulus-presentation","71","319531","0.0-17.0-1.4","SS1613102297354","trial","","40","800","1430.669999998645","images/stimuli/spore_stims/complex_11_B_a.gif","images/stimuli/spore_stims/complex_11_A_a.gif","","","","","3","complex_similar","images/stimuli/spore_stims/complex_11_A_a.gif","middle","","","","",""
"","null","html-keyboard-response","72","320368","0.0-17.0-0.5","SS1613102297354","","","null","","","","","<p><img src= images/blank.png width =""200"" height = ""200"" style = ""float:right""></p><p><img src=images/blank.png width =""800"" height = ""200""></p>","","","","","","","","","","","",""
"","97.20499999821186","sequential-stimulus-presentation","73","321273","0.0-17.0-1.5","SS1613102297354","trial","","40","800","897.2049999982119","images/stimuli/spore_stims/complex_11_B_a.gif","images/stimuli/spore_stims/complex_11_A_a.gif","","","","","3","complex_similar","images/stimuli/spore_stims/complex_11_A_a.gif","middle","","","","",""
"","null","html-keyboard-response","74","322356","0.0-17.0-0.6","SS1613102297354","","","null","","","","","<p><img src= images/blank.png width =""200"" height = ""200"" style = ""float:right""></p><p><img src=images/blank.png width =""800"" height = ""200""></p>","","","","","","","","","","","",""
"","373.34499999997206","sequential-stimulus-presentation","75","323537","0.0-17.0-1.6","SS1613102297354","trial","","40","800","1173.344999999972","images/stimuli/spore_stims/complex_11_B_a.gif","images/stimuli/spore_stims/complex_11_A_a.gif","","","","","3","complex_similar","images/stimuli/spore_stims/complex_11_A_a.gif","middle","","","","",""
"","null","html-keyboard-response","76","324624","0.0-17.0-0.7","SS1613102297354","","","null","","","","","<p><img src= images/blank.png width =""200"" height = ""200"" style = ""float:right""></p><p><img src=images/blank.png width =""800"" height = ""200""></p>","","","","","","","","","","","",""
"","79.68000000255415","sequential-stimulus-presentation","77","325513","0.0-17.0-1.7","SS1613102297354","trial","","40","800","879.6800000025542","images/stimuli/spore_stims/complex_11_B_a.gif","images/stimuli/spore_stims/complex_11_A_a.gif","","","","","3","complex_similar","images/stimuli/spore_stims/complex_11_A_a.gif","middle","","","","",""
"","3371.644999999262","html-keyboard-response","78","328897","0.0-18.0","SS1613102297354","pref_question","","99","","","","","<video width ='960' height = '540' style='padding-top:8%' autoplay muted><source src='images/stimuli/wall_pref.mp4' type='video/mp4'></video>","3","right","66%","3","","","","","","","",""
"","245.76999999408145","sequential-stimulus-presentation","79","329953","0.0-19.0","SS1613102297354","pref_reveal","","40","800","1045.7699999940814","null","null","","","","","3","","","","deviant","","","",""
"","null","html-keyboard-response","80","330943","0.0-20.0-0.0","SS1613102297354","","","null","","","","","<p><img src= images/blank.png width =""200"" height = ""200"" style = ""float:right""></p><p><img src=images/blank.png width =""800"" height = ""200""></p>","","","","","","","","","","","",""
"","897.7500000037253","sequential-stimulus-presentation","81","332649","0.0-20.0-1.0","SS1613102297354","trial","","40","800","1697.7500000037253","images/stimuli/spore_stims/simple_17_B_d.gif","images/stimuli/spore_stims/simple_20_B_d.gif","","","","","4","simple_dissimilar","images/stimuli/spore_stims/simple_20_B_d.gif","left","","","","",""
"","null","html-keyboard-response","82","333835","0.0-20.0-0.1","SS1613102297354","","","null","","","","","<p><img src= images/blank.png width =""200"" height = ""200"" style = ""float:right""></p><p><img src=images/blank.png width =""800"" height = ""200""></p>","","","","","","","","","","","",""
"","228.62000000168337","sequential-stimulus-presentation","83","334874","0.0-20.0-1.1","SS1613102297354","trial","","40","800","1028.6200000016834","images/stimuli/spore_stims/simple_17_B_d.gif","images/stimuli/spore_stims/simple_20_B_d.gif","","","","","4","simple_dissimilar","images/stimuli/spore_stims/simple_20_B_d.gif","left","","","","",""
"","null","html-keyboard-response","84","335790","0.0-20.0-0.2","SS1613102297354","","","null","","","","","<p><img src= images/blank.png width =""200"" height = ""200"" style = ""float:right""></p><p><img src=images/blank.png width =""800"" height = ""200""></p>","","","","","","","","","","","",""
"","161.51499999978114","sequential-stimulus-presentation","85","336761","0.0-20.0-1.2","SS1613102297354","trial","","40","800","961.5149999997811","images/stimuli/spore_stims/simple_17_B_d.gif","images/stimuli/spore_stims/simple_20_B_d.gif","","","","","4","simple_dissimilar","images/stimuli/spore_stims/simple_20_B_d.gif","left","","","","",""
"","null","html-keyboard-response","86","337953","0.0-20.0-0.3","SS1613102297354","","","null","","","","","<p><img src= images/blank.png width =""200"" height = ""200"" style = ""float:right""></p><p><img src=images/blank.png width =""800"" height = ""200""></p>","","","","","","","","","","","",""
"","2326.085000000603","sequential-stimulus-presentation","87","341089","0.0-20.0-1.3","SS1613102297354","trial","","40","800","3126.085000000603","images/stimuli/spore_stims/simple_17_B_d.gif","images/stimuli/spore_stims/simple_20_B_d.gif","","","","","4","simple_dissimilar","images/stimuli/spore_stims/simple_17_B_d.gif","right","","","","",""
"","null","html-keyboard-response","88","342017","0.0-20.0-0.4","SS1613102297354","","","null","","","","","<p><img src= images/blank.png width =""200"" height = ""200"" style = ""float:right""></p><p><img src=images/blank.png width =""800"" height = ""200""></p>","","","","","","","","","","","",""
"","972.5249999974039","sequential-stimulus-presentation","89","343801","0.0-20.0-1.4","SS1613102297354","trial","","40","800","1772.524999997404","images/stimuli/spore_stims/simple_17_B_d.gif","images/stimuli/spore_stims/simple_20_B_d.gif","","","","","4","simple_dissimilar","images/stimuli/spore_stims/simple_20_B_d.gif","left","","","","",""
"","null","html-keyboard-response","90","344666","0.0-20.0-0.5","SS1613102297354","","","null","","","","","<p><img src= images/blank.png width =""200"" height = ""200"" style = ""float:right""></p><p><img src=images/blank.png width =""800"" height = ""200""></p>","","","","","","","","","","","",""
"","1045.8399999988615","sequential-stimulus-presentation","91","346521","0.0-20.0-1.5","SS1613102297354","trial","","40","800","1845.8399999988615","images/stimuli/spore_stims/simple_17_B_d.gif","images/stimuli/spore_stims/simple_20_B_d.gif","","","","","4","simple_dissimilar","images/stimuli/spore_stims/simple_20_B_d.gif","left","","","","",""
"","null","html-keyboard-response","92","347598","0.0-20.0-0.6","SS1613102297354","","","null","","","","","<p><img src= images/blank.png width =""200"" height = ""200"" style = ""float:right""></p><p><img src=images/blank.png width =""800"" height = ""200""></p>","","","","","","","","","","","",""
"","308.4549999985029","sequential-stimulus-presentation","93","348713","0.0-20.0-1.6","SS1613102297354","trial","","40","800","1108.454999998503","images/stimuli/spore_stims/simple_17_B_d.gif","images/stimuli/spore_stims/simple_20_B_d.gif","","","","","4","simple_dissimilar","images/stimuli/spore_stims/simple_20_B_d.gif","left","","","","",""
"","null","html-keyboard-response","94","349790","0.0-20.0-0.7","SS1613102297354","","","null","","","","","<p><img src= images/blank.png width =""200"" height = ""200"" style = ""float:right""></p><p><img src=images/blank.png width =""800"" height = ""200""></p>","","","","","","","","","","","",""
"","693.5949999970035","sequential-stimulus-presentation","95","351289","0.0-20.0-1.7","SS1613102297354","trial","","40","800","1493.5949999970035","images/stimuli/spore_stims/simple_17_B_d.gif","images/stimuli/spore_stims/simple_20_B_d.gif","","","","","4","simple_dissimilar","images/stimuli/spore_stims/simple_20_B_d.gif","left","","","","",""
"","1442.8100000004633","html-keyboard-response","96","352736","0.0-21.0","SS1613102297354","pref_question","","97","","","","","<video width ='960' height = '540' style='padding-top:8%' autoplay muted><source src='images/stimuli/wall_pref.mp4' type='video/mp4'></video>","1","left","25%","4","","","","","","","",""
"","195.2099999980419","sequential-stimulus-presentation","97","353736","0.0-22.0","SS1613102297354","pref_reveal","","40","800","995.2099999980419","null","null","","","","","4","","","","background","","","",""
"","null","html-keyboard-response","98","354841","0.0-23.0-0.0","SS1613102297354","","","null","","","","","<p><img src= images/blank.png width =""200"" height = ""200"" style = ""float:right""></p><p><img src=images/blank.png width =""800"" height = ""200""></p>","","","","","","","","","","","",""
"","614.7000000055414","sequential-stimulus-presentation","99","356264","0.0-23.0-1.0","SS1613102297354","trial","","40","800","1414.7000000055414","images/stimuli/spore_stims/simple_06_B_a.gif","images/stimuli/spore_stims/simple_04_B_c.gif","","","","","5","simple_dissimilar","images/stimuli/spore_stims/simple_04_B_c.gif","right","","","","",""
"","null","html-keyboard-response","100","357542","0.0-23.0-0.1","SS1613102297354","","","null","","","","","<p><img src= images/blank.png width =""200"" height = ""200"" style = ""float:right""></p><p><img src=images/blank.png width =""800"" height = ""200""></p>","","","","","","","","","","","",""
"","130.8950000020559","sequential-stimulus-presentation","101","358480","0.0-23.0-1.1","SS1613102297354","trial","","40","800","930.8950000020559","images/stimuli/spore_stims/simple_06_B_a.gif","images/stimuli/spore_stims/simple_04_B_c.gif","","","","","5","simple_dissimilar","images/stimuli/spore_stims/simple_04_B_c.gif","right","","","","",""
"","null","html-keyboard-response","102","359699","0.0-23.0-0.2","SS1613102297354","","","null","","","","","<p><img src= images/blank.png width =""200"" height = ""200"" style = ""float:right""></p><p><img src=images/blank.png width =""800"" height = ""200""></p>","","","","","","","","","","","",""
"","336.8300000001909","sequential-stimulus-presentation","103","360841","0.0-23.0-1.2","SS1613102297354","trial","","40","800","1136.830000000191","images/stimuli/spore_stims/simple_06_B_a.gif","images/stimuli/spore_stims/simple_04_B_c.gif","","","","","5","simple_dissimilar","images/stimuli/spore_stims/simple_04_B_c.gif","right","","","","",""
"","null","html-keyboard-response","104","361802","0.0-23.0-0.3","SS1613102297354","","","null","","","","","<p><img src= images/blank.png width =""200"" height = ""200"" style = ""float:right""></p><p><img src=images/blank.png width =""800"" height = ""200""></p>","","","","","","","","","","","",""
"","623.6949999947683","sequential-stimulus-presentation","105","363232","0.0-23.0-1.3","SS1613102297354","trial","","40","800","1423.6949999947683","images/stimuli/spore_stims/simple_06_B_a.gif","images/stimuli/spore_stims/simple_04_B_c.gif","","","","","5","simple_dissimilar","images/stimuli/spore_stims/simple_04_B_c.gif","right","","","","",""
"","null","html-keyboard-response","106","364134","0.0-23.0-0.4","SS1613102297354","","","null","","","","","<p><img src= images/blank.png width =""200"" height = ""200"" style = ""float:right""></p><p><img src=images/blank.png width =""800"" height = ""200""></p>","","","","","","","","","","","",""
"","444.5300000006682","sequential-stimulus-presentation","107","365384","0.0-23.0-1.4","SS1613102297354","trial","","40","800","1244.5300000006682","images/stimuli/spore_stims/simple_06_B_a.gif","images/stimuli/spore_stims/simple_04_B_c.gif","","","","","5","simple_dissimilar","images/stimuli/spore_stims/simple_06_B_a.gif","middle","","","","",""
"","null","html-keyboard-response","108","366558","0.0-23.0-0.5","SS1613102297354","","","null","","","","","<p><img src= images/blank.png width =""200"" height = ""200"" style = ""float:right""></p><p><img src=images/blank.png width =""800"" height = ""200""></p>","","","","","","","","","","","",""
"","649.570000001404","sequential-stimulus-presentation","109","368018","0.0-23.0-1.5","SS1613102297354","trial","","40","800","1449.570000001404","images/stimuli/spore_stims/simple_06_B_a.gif","images/stimuli/spore_stims/simple_04_B_c.gif","","","","","5","simple_dissimilar","images/stimuli/spore_stims/simple_04_B_c.gif","right","","","","",""
"","null","html-keyboard-response","110","368934","0.0-23.0-0.6","SS1613102297354","","","null","","","","","<p><img src= images/blank.png width =""200"" height = ""200"" style = ""float:right""></p><p><img src=images/blank.png width =""800"" height = ""200""></p>","","","","","","","","","","","",""
"","485.19500000111293","sequential-stimulus-presentation","111","370226","0.0-23.0-1.6","SS1613102297354","trial","","40","800","1285.195000001113","images/stimuli/spore_stims/simple_06_B_a.gif","images/stimuli/spore_stims/simple_04_B_c.gif","","","","","5","simple_dissimilar","images/stimuli/spore_stims/simple_04_B_c.gif","right","","","","",""
"","null","html-keyboard-response","112","371297","0.0-23.0-0.7","SS1613102297354","","","null","","","","","<p><img src= images/blank.png width =""200"" height = ""200"" style = ""float:right""></p><p><img src=images/blank.png width =""800"" height = ""200""></p>","","","","","","","","","","","",""
"","435.22500000108266","sequential-stimulus-presentation","113","372537","0.0-23.0-1.7","SS1613102297354","trial","","40","800","1235.2250000010827","images/stimuli/spore_stims/simple_06_B_a.gif","images/stimuli/spore_stims/simple_04_B_c.gif","","","","","5","simple_dissimilar","images/stimuli/spore_stims/simple_04_B_c.gif","right","","","","",""
"","1428.2149999999092","html-keyboard-response","114","373970","0.0-24.0","SS1613102297354","pref_question","","98","","","","","<video width ='960' height = '540' style='padding-top:8%' autoplay muted><source src='images/stimuli/wall_pref.mp4' type='video/mp4'></video>","2","middle","45%","5","","","","","","","",""
"","527.074999998149","sequential-stimulus-presentation","115","375306","0.0-25.0","SS1613102297354","pref_reveal","","40","800","1327.074999998149","null","null","","","","","5","","","","deviant","","","",""
"","null","html-keyboard-response","116","376485","0.0-26.0-0.0","SS1613102297354","","","null","","","","","<p><img src= images/blank.png width =""200"" height = ""200"" style = ""float:right""></p><p><img src=images/blank.png width =""800"" height = ""200""></p>","","","","","","","","","","","",""
"","981.3100000028498","sequential-stimulus-presentation","117","378274","0.0-26.0-1.0","SS1613102297354","trial","","40","800","1781.3100000028498","images/stimuli/spore_stims/complex_20_B_d.gif","images/stimuli/spore_stims/complex_13_B_a.gif","","","","","6","complex_dissimilar","images/stimuli/spore_stims/complex_13_B_a.gif","left","","","","",""
"","null","html-keyboard-response","118","379212","0.0-26.0-0.1","SS1613102297354","","","null","","","","","<p><img src= images/blank.png width =""200"" height = ""200"" style = ""float:right""></p><p><img src=images/blank.png width =""800"" height = ""200""></p>","","","","","","","","","","","",""
"","703.6200000002282","sequential-stimulus-presentation","119","380721","0.0-26.0-1.1","SS1613102297354","trial","","40","800","1503.6200000002282","images/stimuli/spore_stims/complex_20_B_d.gif","images/stimuli/spore_stims/complex_13_B_a.gif","","","","","6","complex_dissimilar","images/stimuli/spore_stims/complex_13_B_a.gif","left","","","","",""
"","null","html-keyboard-response","120","381570","0.0-26.0-0.2","SS1613102297354","","","null","","","","","<p><img src= images/blank.png width =""200"" height = ""200"" style = ""float:right""></p><p><img src=images/blank.png width =""800"" height = ""200""></p>","","","","","","","","","","","",""
"","1302.6500000050873","sequential-stimulus-presentation","121","383681","0.0-26.0-1.2","SS1613102297354","trial","","40","800","2102.6500000050873","images/stimuli/spore_stims/complex_20_B_d.gif","images/stimuli/spore_stims/complex_13_B_a.gif","","","","","6","complex_dissimilar","images/stimuli/spore_stims/complex_13_B_a.gif","left","","","","",""
"","null","html-keyboard-response","122","384670","0.0-26.0-0.3","SS1613102297354","","","null","","","","","<p><img src= images/blank.png width =""200"" height = ""200"" style = ""float:right""></p><p><img src=images/blank.png width =""800"" height = ""200""></p>","","","","","","","","","","","",""
"","158.30000000278233","sequential-stimulus-presentation","123","385642","0.0-26.0-1.3","SS1613102297354","trial","","40","800","958.3000000027823","images/stimuli/spore_stims/complex_20_B_d.gif","images/stimuli/spore_stims/complex_13_B_a.gif","","","","","6","complex_dissimilar","images/stimuli/spore_stims/complex_20_B_d.gif","right","","","","",""
"","null","html-keyboard-response","124","386620","0.0-26.0-0.4","SS1613102297354","","","null","","","","","<p><img src= images/blank.png width =""200"" height = ""200"" style = ""float:right""></p><p><img src=images/blank.png width =""800"" height = ""200""></p>","","","","","","","","","","","",""
"","1156.6000000020722","sequential-stimulus-presentation","125","388586","0.0-26.0-1.4","SS1613102297354","trial","","40","800","1956.6000000020722","images/stimuli/spore_stims/complex_20_B_d.gif","images/stimuli/spore_stims/complex_13_B_a.gif","","","","","6","complex_dissimilar","images/stimuli/spore_stims/complex_13_B_a.gif","left","","","","",""
"","null","html-keyboard-response","126","389617","0.0-26.0-0.5","SS1613102297354","","","null","","","","","<p><img src= images/blank.png width =""200"" height = ""200"" style = ""float:right""></p><p><img src=images/blank.png width =""800"" height = ""200""></p>","","","","","","","","","","","",""
"","612.0500000033644","sequential-stimulus-presentation","127","391041","0.0-26.0-1.5","SS1613102297354","trial","","40","800","1412.0500000033644","images/stimuli/spore_stims/complex_20_B_d.gif","images/stimuli/spore_stims/complex_13_B_a.gif","","","","","6","complex_dissimilar","images/stimuli/spore_stims/complex_13_B_a.gif","left","","","","",""
"","null","html-keyboard-response","128","392334","0.0-26.0-0.6","SS1613102297354","","","null","","","","","<p><img src= images/blank.png width =""200"" height = ""200"" style = ""float:right""></p><p><img src=images/blank.png width =""800"" height = ""200""></p>","","","","","","","","","","","",""
"","916.7899999956717","sequential-stimulus-presentation","129","394057","0.0-26.0-1.6","SS1613102297354","trial","","40","800","1716.7899999956717","images/stimuli/spore_stims/complex_20_B_d.gif","images/stimuli/spore_stims/complex_13_B_a.gif","","","","","6","complex_dissimilar","images/stimuli/spore_stims/complex_13_B_a.gif","left","","","","",""
"","null","html-keyboard-response","130","395116","0.0-26.0-0.7","SS1613102297354","","","null","","","","","<p><img src= images/blank.png width =""200"" height = ""200"" style = ""float:right""></p><p><img src=images/blank.png width =""800"" height = ""200""></p>","","","","","","","","","","","",""
"","710.5999999985215","sequential-stimulus-presentation","131","396633","0.0-26.0-1.7","SS1613102297354","trial","","40","800","1510.5999999985215","images/stimuli/spore_stims/complex_20_B_d.gif","images/stimuli/spore_stims/complex_13_B_a.gif","","","","","6","complex_dissimilar","images/stimuli/spore_stims/complex_13_B_a.gif","left","","","","",""
"","1819.020000002638","html-keyboard-response","132","398457","0.0-27.0","SS1613102297354","pref_question","","99","","","","","<video width ='960' height = '540' style='padding-top:8%' autoplay muted><source src='images/stimuli/wall_pref.mp4' type='video/mp4'></video>","3","right","66%","6","","","","","","","",""
"","1121.6399999975692","sequential-stimulus-presentation","133","400385","0.0-28.0","SS1613102297354","pref_reveal","","40","800","1921.6399999975692","null","null","","","","","6","","","","deviant","","","",""
"","null","html-keyboard-response","134","401553","0.0-29.0-0.0","SS1613102297354","","","null","","","","","<p><img src= images/blank.png width =""200"" height = ""200"" style = ""float:right""></p><p><img src=images/blank.png width =""800"" height = ""200""></p>","","","","","","","","","","","",""
"","574.4599999961792","sequential-stimulus-presentation","135","402937","0.0-29.0-1.0","SS1613102297354","trial","","40","800","1374.4599999961792","images/stimuli/spore_stims/complex_08_A_a.gif","images/stimuli/spore_stims/complex_06_B_d.gif","","","","","7","complex_dissimilar","images/stimuli/spore_stims/complex_06_B_d.gif","right","","","","",""
"","null","html-keyboard-response","136","403832","0.0-29.0-0.1","SS1613102297354","","","null","","","","","<p><img src= images/blank.png width =""200"" height = ""200"" style = ""float:right""></p><p><img src=images/blank.png width =""800"" height = ""200""></p>","","","","","","","","","","","",""
"","409.2099999979837","sequential-stimulus-presentation","137","405049","0.0-29.0-1.1","SS1613102297354","trial","","40","800","1209.2099999979837","images/stimuli/spore_stims/complex_08_A_a.gif","images/stimuli/spore_stims/complex_06_B_d.gif","","","","","7","complex_dissimilar","images/stimuli/spore_stims/complex_06_B_d.gif","right","","","","",""
"","null","html-keyboard-response","138","406099","0.0-29.0-0.2","SS1613102297354","","","null","","","","","<p><img src= images/blank.png width =""200"" height = ""200"" style = ""float:right""></p><p><img src=images/blank.png width =""800"" height = ""200""></p>","","","","","","","","","","","",""
"","349.8650000037742","sequential-stimulus-presentation","139","407257","0.0-29.0-1.2","SS1613102297354","trial","","40","800","1149.8650000037742","images/stimuli/spore_stims/complex_08_A_a.gif","images/stimuli/spore_stims/complex_06_B_d.gif","","","","","7","complex_dissimilar","images/stimuli/spore_stims/complex_06_B_d.gif","right","","","","",""
"","null","html-keyboard-response","140","408456","0.0-29.0-0.3","SS1613102297354","","","null","","","","","<p><img src= images/blank.png width =""200"" height = ""200"" style = ""float:right""></p><p><img src=images/blank.png width =""800"" height = ""200""></p>","","","","","","","","","","","",""
"","379.43999999697553","sequential-stimulus-presentation","141","409641","0.0-29.0-1.3","SS1613102297354","trial","","40","800","1179.4399999969755","images/stimuli/spore_stims/complex_08_A_a.gif","images/stimuli/spore_stims/complex_06_B_d.gif","","","","","7","complex_dissimilar","images/stimuli/spore_stims/complex_06_B_d.gif","right","","","","",""
"","null","html-keyboard-response","142","410524","0.0-29.0-0.4","SS1613102297354","","","null","","","","","<p><img src= images/blank.png width =""200"" height = ""200"" style = ""float:right""></p><p><img src=images/blank.png width =""800"" height = ""200""></p>","","","","","","","","","","","",""
"","542.8650000030757","sequential-stimulus-presentation","143","411873","0.0-29.0-1.4","SS1613102297354","trial","","40","800","1342.8650000030757","images/stimuli/spore_stims/complex_08_A_a.gif","images/stimuli/spore_stims/complex_06_B_d.gif","","","","","7","complex_dissimilar","images/stimuli/spore_stims/complex_06_B_d.gif","right","","","","",""
"","null","html-keyboard-response","144","413068","0.0-29.0-0.5","SS1613102297354","","","null","","","","","<p><img src= images/blank.png width =""200"" height = ""200"" style = ""float:right""></p><p><img src=images/blank.png width =""800"" height = ""200""></p>","","","","","","","","","","","",""
"","114.20999999972992","sequential-stimulus-presentation","145","413993","0.0-29.0-1.5","SS1613102297354","trial","","40","800","914.2099999997299","images/stimuli/spore_stims/complex_08_A_a.gif","images/stimuli/spore_stims/complex_06_B_d.gif","","","","","7","complex_dissimilar","images/stimuli/spore_stims/complex_06_B_d.gif","right","","","","",""
"","null","html-keyboard-response","146","415039","0.0-29.0-0.6","SS1613102297354","","","null","","","","","<p><img src= images/blank.png width =""200"" height = ""200"" style = ""float:right""></p><p><img src=images/blank.png width =""800"" height = ""200""></p>","","","","","","","","","","","",""
"","410.75500000442844","sequential-stimulus-presentation","147","416257","0.0-29.0-1.6","SS1613102297354","trial","","40","800","1210.7550000044284","images/stimuli/spore_stims/complex_08_A_a.gif","images/stimuli/spore_stims/complex_06_B_d.gif","","","","","7","complex_dissimilar","images/stimuli/spore_stims/complex_08_A_a.gif","left","","","","",""
"","null","html-keyboard-response","148","417113","0.0-29.0-0.7","SS1613102297354","","","null","","","","","<p><img src= images/blank.png width =""200"" height = ""200"" style = ""float:right""></p><p><img src=images/blank.png width =""800"" height = ""200""></p>","","","","","","","","","","","",""
"","176.50000000139698","sequential-stimulus-presentation","149","418097","0.0-29.0-1.7","SS1613102297354","trial","","40","800","976.500000001397","images/stimuli/spore_stims/complex_08_A_a.gif","images/stimuli/spore_stims/complex_06_B_d.gif","","","","","7","complex_dissimilar","images/stimuli/spore_stims/complex_06_B_d.gif","right","","","","",""
"","1104.7299999991083","html-keyboard-response","150","419209","0.0-30.0","SS1613102297354","pref_question","","99","","","","","<video width ='960' height = '540' style='padding-top:8%' autoplay muted><source src='images/stimuli/wall_pref.mp4' type='video/mp4'></video>","3","right","66%","7","","","","","","","",""
"","793.5250000009546","sequential-stimulus-presentation","151","420809","0.0-31.0","SS1613102297354","pref_reveal","","40","800","1593.5250000009546","null","null","","","","","7","","","","background","","","",""
"","null","html-keyboard-response","152","421996","0.0-32.0-0.0","SS1613102297354","","","null","","","","","<p><img src= images/blank.png width =""200"" height = ""200"" style = ""float:right""></p><p><img src=images/blank.png width =""800"" height = ""200""></p>","","","","","","","","","","","",""
"","886.1499999984517","sequential-stimulus-presentation","153","423689","0.0-32.0-1.0","SS1613102297354","trial","","40","800","1686.1499999984517","images/stimuli/spore_stims/complex_01_A_d.gif","images/stimuli/spore_stims/complex_17_B_d.gif","","","","","8","complex_dissimilar","images/stimuli/spore_stims/complex_17_B_d.gif","left","","","","",""
"","null","html-keyboard-response","154","424638","0.0-32.0-0.1","SS1613102297354","","","null","","","","","<p><img src= images/blank.png width =""200"" height = ""200"" style = ""float:right""></p><p><img src=images/blank.png width =""800"" height = ""200""></p>","","","","","","","","","","","",""
"","663.6299999954645","sequential-stimulus-presentation","155","426113","0.0-32.0-1.1","SS1613102297354","trial","","40","800","1463.6299999954645","images/stimuli/spore_stims/complex_01_A_d.gif","images/stimuli/spore_stims/complex_17_B_d.gif","","","","","8","complex_dissimilar","images/stimuli/spore_stims/complex_17_B_d.gif","left","","","","",""
"","null","html-keyboard-response","156","427043","0.0-32.0-0.2","SS1613102297354","","","null","","","","","<p><img src= images/blank.png width =""200"" height = ""200"" style = ""float:right""></p><p><img src=images/blank.png width =""800"" height = ""200""></p>","","","","","","","","","","","",""
"","612.780000003113","sequential-stimulus-presentation","157","428465","0.0-32.0-1.2","SS1613102297354","trial","","40","800","1412.780000003113","images/stimuli/spore_stims/complex_01_A_d.gif","images/stimuli/spore_stims/complex_17_B_d.gif","","","","","8","complex_dissimilar","images/stimuli/spore_stims/complex_17_B_d.gif","left","","","","",""
"","null","html-keyboard-response","158","429730","0.0-32.0-0.3","SS1613102297354","","","null","","","","","<p><img src= images/blank.png width =""200"" height = ""200"" style = ""float:right""></p><p><img src=images/blank.png width =""800"" height = ""200""></p>","","","","","","","","","","","",""
"","896.8200000017532","sequential-stimulus-presentation","159","431433","0.0-32.0-1.3","SS1613102297354","trial","","40","800","1696.8200000017532","images/stimuli/spore_stims/complex_01_A_d.gif","images/stimuli/spore_stims/complex_17_B_d.gif","","","","","8","complex_dissimilar","images/stimuli/spore_stims/complex_17_B_d.gif","left","","","","",""
"","null","html-keyboard-response","160","432651","0.0-32.0-0.4","SS1613102297354","","","null","","","","","<p><img src= images/blank.png width =""200"" height = ""200"" style = ""float:right""></p><p><img src=images/blank.png width =""800"" height = ""200""></p>","","","","","","","","","","","",""
"","63.64999999641441","sequential-stimulus-presentation","161","433521","0.0-32.0-1.4","SS1613102297354","trial","","40","800","863.6499999964144","images/stimuli/spore_stims/complex_01_A_d.gif","images/stimuli/spore_stims/complex_17_B_d.gif","","","","","8","complex_dissimilar","images/stimuli/spore_stims/complex_17_B_d.gif","left","","","","",""
"","null","html-keyboard-response","162","434816","0.0-32.0-0.5","SS1613102297354","","","null","","","","","<p><img src= images/blank.png width =""200"" height = ""200"" style = ""float:right""></p><p><img src=images/blank.png width =""800"" height = ""200""></p>","","","","","","","","","","","",""
"","896.5299999981653","sequential-stimulus-presentation","163","436521","0.0-32.0-1.5","SS1613102297354","trial","","40","800","1696.5299999981653","images/stimuli/spore_stims/complex_01_A_d.gif","images/stimuli/spore_stims/complex_17_B_d.gif","","","","","8","complex_dissimilar","images/stimuli/spore_stims/complex_01_A_d.gif","middle","","","","",""
"","null","html-keyboard-response","164","437818","0.0-32.0-0.6","SS1613102297354","","","null","","","","","<p><img src= images/blank.png width =""200"" height = ""200"" style = ""float:right""></p><p><img src=images/blank.png width =""800"" height = ""200""></p>","","","","","","","","","","","",""
"","711.2649999980931","sequential-stimulus-presentation","165","439337","0.0-32.0-1.6","SS1613102297354","trial","","40","800","1511.2649999980931","images/stimuli/spore_stims/complex_01_A_d.gif","images/stimuli/spore_stims/complex_17_B_d.gif","","","","","8","complex_dissimilar","images/stimuli/spore_stims/complex_17_B_d.gif","left","","","","",""
"","null","html-keyboard-response","166","440208","0.0-32.0-0.7","SS1613102297354","","","null","","","","","<p><img src= images/blank.png width =""200"" height = ""200"" style = ""float:right""></p><p><img src=images/blank.png width =""800"" height = ""200""></p>","","","","","","","","","","","",""
"","664.4599999999627","sequential-stimulus-presentation","167","441681","0.0-32.0-1.7","SS1613102297354","trial","","40","800","1464.4599999999627","images/stimuli/spore_stims/complex_01_A_d.gif","images/stimuli/spore_stims/complex_17_B_d.gif","","","","","8","complex_dissimilar","images/stimuli/spore_stims/complex_17_B_d.gif","left","","","","",""
"","1617.6350000023376","html-keyboard-response","168","443305","0.0-33.0","SS1613102297354","pref_question","","99","","","","","<video width ='960' height = '540' style='padding-top:8%' autoplay muted><source src='images/stimuli/wall_pref.mp4' type='video/mp4'></video>","3","right","66%","8","","","","","","","",""
"","545.9950000004028","sequential-stimulus-presentation","169","444657","0.0-34.0","SS1613102297354","pref_reveal","","40","800","1345.9950000004028","null","null","","","","","8","","","","novel","","","",""
"","null","html-keyboard-response","170","445771","0.0-35.0-0.0","SS1613102297354","","","null","","","","","<p><img src= images/blank.png width =""200"" height = ""200"" style = ""float:right""></p><p><img src=images/blank.png width =""800"" height = ""200""></p>","","","","","","","","","","","",""
"","295.89999999734573","sequential-stimulus-presentation","171","446873","0.0-35.0-1.0","SS1613102297354","trial","","40","800","1095.8999999973457","images/stimuli/spore_stims/simple_01_B_a.gif","images/stimuli/spore_stims/simple_01_A_a.gif","","","","","9","simple_similar","images/stimuli/spore_stims/simple_01_A_a.gif","middle","","","","",""
"","null","html-keyboard-response","172","447728","0.0-35.0-0.1","SS1613102297354","","","null","","","","","<p><img src= images/blank.png width =""200"" height = ""200"" style = ""float:right""></p><p><img src=images/blank.png width =""800"" height = ""200""></p>","","","","","","","","","","","",""
"","850.7299999982934","sequential-stimulus-presentation","173","449385","0.0-35.0-1.1","SS1613102297354","trial","","40","800","1650.7299999982934","images/stimuli/spore_stims/simple_01_B_a.gif","images/stimuli/spore_stims/simple_01_A_a.gif","","","","","9","simple_similar","images/stimuli/spore_stims/simple_01_A_a.gif","middle","","","","",""
"","null","html-keyboard-response","174","450650","0.0-35.0-0.2","SS1613102297354","","","null","","","","","<p><img src= images/blank.png width =""200"" height = ""200"" style = ""float:right""></p><p><img src=images/blank.png width =""800"" height = ""200""></p>","","","","","","","","","","","",""
"","240.7149999999092","sequential-stimulus-presentation","175","451697","0.0-35.0-1.2","SS1613102297354","trial","","40","800","1040.7149999999092","images/stimuli/spore_stims/simple_01_B_a.gif","images/stimuli/spore_stims/simple_01_A_a.gif","","","","","9","simple_similar","images/stimuli/spore_stims/simple_01_A_a.gif","middle","","","","",""
"","null","html-keyboard-response","176","452710","0.0-35.0-0.3","SS1613102297354","","","null","","","","","<p><img src= images/blank.png width =""200"" height = ""200"" style = ""float:right""></p><p><img src=images/blank.png width =""800"" height = ""200""></p>","","","","","","","","","","","",""
"","673.6400000008871","sequential-stimulus-presentation","177","454201","0.0-35.0-1.3","SS1613102297354","trial","","40","800","1473.640000000887","images/stimuli/spore_stims/simple_01_B_a.gif","images/stimuli/spore_stims/simple_01_A_a.gif","","","","","9","simple_similar","images/stimuli/spore_stims/simple_01_A_a.gif","middle","","","","",""
"","null","html-keyboard-response","178","455196","0.0-35.0-0.4","SS1613102297354","","","null","","","","","<p><img src= images/blank.png width =""200"" height = ""200"" style = ""float:right""></p><p><img src=images/blank.png width =""800"" height = ""200""></p>","","","","","","","","","","","",""
"","558.3900000056019","sequential-stimulus-presentation","179","456561","0.0-35.0-1.4","SS1613102297354","trial","","40","800","1358.390000005602","images/stimuli/spore_stims/simple_01_B_a.gif","images/stimuli/spore_stims/simple_01_A_a.gif","","","","","9","simple_similar","images/stimuli/spore_stims/simple_01_B_a.gif","right","","","","",""
"","null","html-keyboard-response","180","457756","0.0-35.0-0.5","SS1613102297354","","","null","","","","","<p><img src= images/blank.png width =""200"" height = ""200"" style = ""float:right""></p><p><img src=images/blank.png width =""800"" height = ""200""></p>","","","","","","","","","","","",""
"","741.5600000022096","sequential-stimulus-presentation","181","459305","0.0-35.0-1.5","SS1613102297354","trial","","40","800","1541.5600000022096","images/stimuli/spore_stims/simple_01_B_a.gif","images/stimuli/spore_stims/simple_01_A_a.gif","","","","","9","simple_similar","images/stimuli/spore_stims/simple_01_A_a.gif","middle","","","","",""
"","null","html-keyboard-response","182","460219","0.0-35.0-0.6","SS1613102297354","","","null","","","","","<p><img src= images/blank.png width =""200"" height = ""200"" style = ""float:right""></p><p><img src=images/blank.png width =""800"" height = ""200""></p>","","","","","","","","","","","",""
"","118.30999999801861","sequential-stimulus-presentation","183","461145","0.0-35.0-1.6","SS1613102297354","trial","","40","800","918.3099999980186","images/stimuli/spore_stims/simple_01_B_a.gif","images/stimuli/spore_stims/simple_01_A_a.gif","","","","","9","simple_similar","images/stimuli/spore_stims/simple_01_A_a.gif","middle","","","","",""
"","null","html-keyboard-response","184","462211","0.0-35.0-0.7","SS1613102297354","","","null","","","","","<p><img src= images/blank.png width =""200"" height = ""200"" style = ""float:right""></p><p><img src=images/blank.png width =""800"" height = ""200""></p>","","","","","","","","","","","",""
"","574.8999999996158","sequential-stimulus-presentation","185","463601","0.0-35.0-1.7","SS1613102297354","trial","","40","800","1374.8999999996158","images/stimuli/spore_stims/simple_01_B_a.gif","images/stimuli/spore_stims/simple_01_A_a.gif","","","","","9","simple_similar","images/stimuli/spore_stims/simple_01_A_a.gif","middle","","","","",""
"","752.3300000029849","html-keyboard-response","186","464361","0.0-36.0","SS1613102297354","pref_question","","99","","","","","<video width ='960' height = '540' style='padding-top:8%' autoplay muted><source src='images/stimuli/wall_pref.mp4' type='video/mp4'></video>","3","right","66%","9","","","","","","","",""
"","742.8199999994831","sequential-stimulus-presentation","187","465913","0.0-37.0","SS1613102297354","pref_reveal","","40","800","1542.8199999994831","null","null","","","","","9","","","","deviant","","","",""
"","null","html-keyboard-response","188","467204","0.0-38.0-0.0","SS1613102297354","","","null","","","","","<p><img src= images/blank.png width =""200"" height = ""200"" style = ""float:right""></p><p><img src=images/blank.png width =""800"" height = ""200""></p>","","","","","","","","","","","",""
"","269.78000000235625","sequential-stimulus-presentation","189","468281","0.0-38.0-1.0","SS1613102297354","trial","","40","800","1069.7800000023562","images/stimuli/spore_stims/simple_08_B_a.gif","images/stimuli/spore_stims/simple_13_B_d.gif","","","","","10","simple_dissimilar","images/stimuli/spore_stims/simple_13_B_d.gif","right","","","","",""
"","null","html-keyboard-response","190","469455","0.0-38.0-0.1","SS1613102297354","","","null","","","","","<p><img src= images/blank.png width =""200"" height = ""200"" style = ""float:right""></p><p><img src=images/blank.png width =""800"" height = ""200""></p>","","","","","","","","","","","",""
"","219.5449999999255","sequential-stimulus-presentation","191","470481","0.0-38.0-1.1","SS1613102297354","trial","","40","800","1019.5449999999255","images/stimuli/spore_stims/simple_08_B_a.gif","images/stimuli/spore_stims/simple_13_B_d.gif","","","","","10","simple_dissimilar","images/stimuli/spore_stims/simple_13_B_d.gif","right","","","","",""
"","null","html-keyboard-response","192","471365","0.0-38.0-0.2","SS1613102297354","","","null","","","","","<p><img src= images/blank.png width =""200"" height = ""200"" style = ""float:right""></p><p><img src=images/blank.png width =""800"" height = ""200""></p>","","","","","","","","","","","",""
"","164.48500000115018","sequential-stimulus-presentation","193","472337","0.0-38.0-1.2","SS1613102297354","trial","","40","800","964.4850000011502","images/stimuli/spore_stims/simple_08_B_a.gif","images/stimuli/spore_stims/simple_13_B_d.gif","","","","","10","simple_dissimilar","images/stimuli/spore_stims/simple_13_B_d.gif","right","","","","",""
"","null","html-keyboard-response","194","473236","0.0-38.0-0.3","SS1613102297354","","","null","","","","","<p><img src= images/blank.png width =""200"" height = ""200"" style = ""float:right""></p><p><img src=images/blank.png width =""800"" height = ""200""></p>","","","","","","","","","","","",""
"","652.2899999981746","sequential-stimulus-presentation","195","474697","0.0-38.0-1.3","SS1613102297354","trial","","40","800","1452.2899999981746","images/stimuli/spore_stims/simple_08_B_a.gif","images/stimuli/spore_stims/simple_13_B_d.gif","","","","","10","simple_dissimilar","images/stimuli/spore_stims/simple_08_B_a.gif","left","","","","",""
"","null","html-keyboard-response","196","475965","0.0-38.0-0.4","SS1613102297354","","","null","","","","","<p><img src= images/blank.png width =""200"" height = ""200"" style = ""float:right""></p><p><img src=images/blank.png width =""800"" height = ""200""></p>","","","","","","","","","","","",""
"","626.9350000002305","sequential-stimulus-presentation","197","477401","0.0-38.0-1.4","SS1613102297354","trial","","40","800","1426.9350000002305","images/stimuli/spore_stims/simple_08_B_a.gif","images/stimuli/spore_stims/simple_13_B_d.gif","","","","","10","simple_dissimilar","images/stimuli/spore_stims/simple_13_B_d.gif","right","","","","",""
"","null","html-keyboard-response","198","478438","0.0-38.0-0.5","SS1613102297354","","","null","","","","","<p><img src= images/blank.png width =""200"" height = ""200"" style = ""float:right""></p><p><img src=images/blank.png width =""800"" height = ""200""></p>","","","","","","","","","","","",""
"","635.7799999968847","sequential-stimulus-presentation","199","479881","0.0-38.0-1.5","SS1613102297354","trial","","40","800","1435.7799999968847","images/stimuli/spore_stims/simple_08_B_a.gif","images/stimuli/spore_stims/simple_13_B_d.gif","","","","","10","simple_dissimilar","images/stimuli/spore_stims/simple_13_B_d.gif","right","","","","",""
"","null","html-keyboard-response","200","480941","0.0-38.0-0.6","SS1613102297354","","","null","","","","","<p><img src= images/blank.png width =""200"" height = ""200"" style = ""float:right""></p><p><img src=images/blank.png width =""800"" height = ""200""></p>","","","","","","","","","","","",""
"","1434.835000000021","sequential-stimulus-presentation","201","483184","0.0-38.0-1.6","SS1613102297354","trial","","40","800","2234.835000000021","images/stimuli/spore_stims/simple_08_B_a.gif","images/stimuli/spore_stims/simple_13_B_d.gif","","","","","10","simple_dissimilar","images/stimuli/spore_stims/simple_13_B_d.gif","right","","","","",""
"","null","html-keyboard-response","202","483992","0.0-38.0-0.7","SS1613102297354","","","null","","","","","<p><img src= images/blank.png width =""200"" height = ""200"" style = ""float:right""></p><p><img src=images/blank.png width =""800"" height = ""200""></p>","","","","","","","","","","","",""
"","956.6950000007637","sequential-stimulus-presentation","203","485760","0.0-38.0-1.7","SS1613102297354","trial","","40","800","1756.6950000007637","images/stimuli/spore_stims/simple_08_B_a.gif","images/stimuli/spore_stims/simple_13_B_d.gif","","","","","10","simple_dissimilar","images/stimuli/spore_stims/simple_13_B_d.gif","right","","","","",""
"","954.1650000028312","html-keyboard-response","204","486720","0.0-39.0","SS1613102297354","pref_question","","99","","","","","<video width ='960' height = '540' style='padding-top:8%' autoplay muted><source src='images/stimuli/wall_pref.mp4' type='video/mp4'></video>","3","right","66%","10","","","","","","","",""
"","1168.4849999946891","sequential-stimulus-presentation","205","488697","0.0-40.0","SS1613102297354","pref_reveal","","40","800","1968.4849999946891","null","null","","","","","10","","","","background","","","",""
"","null","html-keyboard-response","206","489509","0.0-41.0-0.0","SS1613102297354","","","null","","","","","<p><img src= images/blank.png width =""200"" height = ""200"" style = ""float:right""></p><p><img src=images/blank.png width =""800"" height = ""200""></p>","","","","","","","","","","","",""
"","115.42499999632128","sequential-stimulus-presentation","207","490433","0.0-41.0-1.0","SS1613102297354","trial","","40","800","915.4249999963213","images/stimuli/spore_stims/complex_10_A_a.gif","images/stimuli/spore_stims/complex_03_A_b.gif","","","","","11","complex_dissimilar","images/stimuli/spore_stims/complex_03_A_b.gif","middle","","","","",""
"","null","html-keyboard-response","208","491475","0.0-41.0-0.1","SS1613102297354","","","null","","","","","<p><img src= images/blank.png width =""200"" height = ""200"" style = ""float:right""></p><p><img src=images/blank.png width =""800"" height = ""200""></p>","","","","","","","","","","","",""
"","829.3100000009872","sequential-stimulus-presentation","209","493113","0.0-41.0-1.1","SS1613102297354","trial","","40","800","1629.3100000009872","images/stimuli/spore_stims/complex_10_A_a.gif","images/stimuli/spore_stims/complex_03_A_b.gif","","","","","11","complex_dissimilar","images/stimuli/spore_stims/complex_03_A_b.gif","middle","","","","",""
"","null","html-keyboard-response","210","494245","0.0-41.0-0.2","SS1613102297354","","","null","","","","","<p><img src= images/blank.png width =""200"" height = ""200"" style = ""float:right""></p><p><img src=images/blank.png width =""800"" height = ""200""></p>","","","","","","","","","","","",""
"","121.54500000178814","sequential-stimulus-presentation","211","495185","0.0-41.0-1.2","SS1613102297354","trial","","40","800","921.5450000017881","images/stimuli/spore_stims/complex_10_A_a.gif","images/stimuli/spore_stims/complex_03_A_b.gif","","","","","11","complex_dissimilar","images/stimuli/spore_stims/complex_03_A_b.gif","middle","","","","",""
"","null","html-keyboard-response","212","496224","0.0-41.0-0.3","SS1613102297354","","","null","","","","","<p><img src= images/blank.png width =""200"" height = ""200"" style = ""float:right""></p><p><img src=images/blank.png width =""800"" height = ""200""></p>","","","","","","","","","","","",""
"","505.12500000325963","sequential-stimulus-presentation","213","497537","0.0-41.0-1.3","SS1613102297354","trial","","40","800","1305.1250000032596","images/stimuli/spore_stims/complex_10_A_a.gif","images/stimuli/spore_stims/complex_03_A_b.gif","","","","","11","complex_dissimilar","images/stimuli/spore_stims/complex_03_A_b.gif","middle","","","","",""
"","null","html-keyboard-response","214","498838","0.0-41.0-0.4","SS1613102297354","","","null","","","","","<p><img src= images/blank.png width =""200"" height = ""200"" style = ""float:right""></p><p><img src=images/blank.png width =""800"" height = ""200""></p>","","","","","","","","","","","",""
"","515.6699999934062","sequential-stimulus-presentation","215","500161","0.0-41.0-1.4","SS1613102297354","trial","","40","800","1315.6699999934062","images/stimuli/spore_stims/complex_10_A_a.gif","images/stimuli/spore_stims/complex_03_A_b.gif","","","","","11","complex_dissimilar","images/stimuli/spore_stims/complex_10_A_a.gif","right","","","","",""
"","null","html-keyboard-response","216","501104","0.0-41.0-0.5","SS1613102297354","","","null","","","","","<p><img src= images/blank.png width =""200"" height = ""200"" style = ""float:right""></p><p><img src=images/blank.png width =""800"" height = ""200""></p>","","","","","","","","","","","",""
"","7.519999999203719","sequential-stimulus-presentation","217","501922","0.0-41.0-1.5","SS1613102297354","trial","","40","800","807.5199999992037","images/stimuli/spore_stims/complex_10_A_a.gif","images/stimuli/spore_stims/complex_03_A_b.gif","","","","","11","complex_dissimilar","images/stimuli/spore_stims/complex_03_A_b.gif","middle","","","","",""
"","null","html-keyboard-response","218","503044","0.0-41.0-0.6","SS1613102297354","","","null","","","","","<p><img src= images/blank.png width =""200"" height = ""200"" style = ""float:right""></p><p><img src=images/blank.png width =""800"" height = ""200""></p>","","","","","","","","","","","",""
"","60.39500000048429","sequential-stimulus-presentation","219","503913","0.0-41.0-1.6","SS1613102297354","trial","","40","800","860.3950000004843","images/stimuli/spore_stims/complex_10_A_a.gif","images/stimuli/spore_stims/complex_03_A_b.gif","","","","","11","complex_dissimilar","images/stimuli/spore_stims/complex_03_A_b.gif","middle","","","","",""
"","null","html-keyboard-response","220","505214","0.0-41.0-0.7","SS1613102297354","","","null","","","","","<p><img src= images/blank.png width =""200"" height = ""200"" style = ""float:right""></p><p><img src=images/blank.png width =""800"" height = ""200""></p>","","","","","","","","","","","",""
"","147.5849999987986","sequential-stimulus-presentation","221","506177","0.0-41.0-1.7","SS1613102297354","trial","","40","800","947.5849999987986","images/stimuli/spore_stims/complex_10_A_a.gif","images/stimuli/spore_stims/complex_03_A_b.gif","","","","","11","complex_dissimilar","images/stimuli/spore_stims/complex_03_A_b.gif","middle","","","","",""
"","1230.8750000011642","html-keyboard-response","222","507417","0.0-42.0","SS1613102297354","pref_question","","99","","","","","<video width ='960' height = '540' style='padding-top:8%' autoplay muted><source src='images/stimuli/wall_pref.mp4' type='video/mp4'></video>","3","right","66%","11","","","","","","","",""
"","536.3599999982398","sequential-stimulus-presentation","223","508761","0.0-43.0","SS1613102297354","pref_reveal","","40","800","1336.3599999982398","null","null","","","","","11","","","","deviant","","","",""
"","null","html-keyboard-response","224","509689","0.0-44.0-0.0","SS1613102297354","","","null","","","","","<p><img src= images/blank.png width =""200"" height = ""200"" style = ""float:right""></p><p><img src=images/blank.png width =""800"" height = ""200""></p>","","","","","","","","","","","",""
"","496.2749999978114","sequential-stimulus-presentation","225","510992","0.0-44.0-1.0","SS1613102297354","trial","","40","800","1296.2749999978114","images/stimuli/spore_stims/complex_05_A_a.gif","images/stimuli/spore_stims/complex_05_B_a.gif","","","","","12","complex_similar","images/stimuli/spore_stims/complex_05_B_a.gif","right","","","","",""
"","null","html-keyboard-response","226","511902","0.0-44.0-0.1","SS1613102297354","","","null","","","","","<p><img src= images/blank.png width =""200"" height = ""200"" style = ""float:right""></p><p><img src=images/blank.png width =""800"" height = ""200""></p>","","","","","","","","","","","",""
"","673.2199999969453","sequential-stimulus-presentation","227","513385","0.0-44.0-1.1","SS1613102297354","trial","","40","800","1473.2199999969453","images/stimuli/spore_stims/complex_05_A_a.gif","images/stimuli/spore_stims/complex_05_B_a.gif","","","","","12","complex_similar","images/stimuli/spore_stims/complex_05_B_a.gif","right","","","","",""
"","null","html-keyboard-response","228","514490","0.0-44.0-0.2","SS1613102297354","","","null","","","","","<p><img src= images/blank.png width =""200"" height = ""200"" style = ""float:right""></p><p><img src=images/blank.png width =""800"" height = ""200""></p>","","","","","","","","","","","",""
"","2037.0100000000093","sequential-stimulus-presentation","229","517336","0.0-44.0-1.2","SS1613102297354","trial","","40","800","2837.0100000000093","images/stimuli/spore_stims/complex_05_A_a.gif","images/stimuli/spore_stims/complex_05_B_a.gif","","","","","12","complex_similar","images/stimuli/spore_stims/complex_05_B_a.gif","right","","","","",""
"","null","html-keyboard-response","230","518280","0.0-44.0-0.3","SS1613102297354","","","null","","","","","<p><img src= images/blank.png width =""200"" height = ""200"" style = ""float:right""></p><p><img src=images/blank.png width =""800"" height = ""200""></p>","","","","","","","","","","","",""
"","486.84000000497326","sequential-stimulus-presentation","231","519576","0.0-44.0-1.3","SS1613102297354","trial","","40","800","1286.8400000049733","images/stimuli/spore_stims/complex_05_A_a.gif","images/stimuli/spore_stims/complex_05_B_a.gif","","","","","12","complex_similar","images/stimuli/spore_stims/complex_05_A_a.gif","middle","","","","",""
"","null","html-keyboard-response","232","520662","0.0-44.0-0.4","SS1613102297354","","","null","","","","","<p><img src= images/blank.png width =""200"" height = ""200"" style = ""float:right""></p><p><img src=images/blank.png width =""800"" height = ""200""></p>","","","","","","","","","","","",""
"","756.6250000017462","sequential-stimulus-presentation","233","522232","0.0-44.0-1.4","SS1613102297354","trial","","40","800","1556.6250000017462","images/stimuli/spore_stims/complex_05_A_a.gif","images/stimuli/spore_stims/complex_05_B_a.gif","","","","","12","complex_similar","images/stimuli/spore_stims/complex_05_B_a.gif","right","","","","",""
"","null","html-keyboard-response","234","523185","0.0-44.0-0.5","SS1613102297354","","","null","","","","","<p><img src= images/blank.png width =""200"" height = ""200"" style = ""float:right""></p><p><img src=images/blank.png width =""800"" height = ""200""></p>","","","","","","","","","","","",""
"","847.4150000037625","sequential-stimulus-presentation","235","524840","0.0-44.0-1.5","SS1613102297354","trial","","40","800","1647.4150000037625","images/stimuli/spore_stims/complex_05_A_a.gif","images/stimuli/spore_stims/complex_05_B_a.gif","","","","","12","complex_similar","images/stimuli/spore_stims/complex_05_B_a.gif","right","","","","",""
"","null","html-keyboard-response","236","526107","0.0-44.0-0.6","SS1613102297354","","","null","","","","","<p><img src= images/blank.png width =""200"" height = ""200"" style = ""float:right""></p><p><img src=images/blank.png width =""800"" height = ""200""></p>","","","","","","","","","","","",""
"","413.334999997518","sequential-stimulus-presentation","237","527328","0.0-44.0-1.6","SS1613102297354","trial","","40","800","1213.334999997518","images/stimuli/spore_stims/complex_05_A_a.gif","images/stimuli/spore_stims/complex_05_B_a.gif","","","","","12","complex_similar","images/stimuli/spore_stims/complex_05_B_a.gif","right","","","","",""
"","null","html-keyboard-response","238","528412","0.0-44.0-0.7","SS1613102297354","","","null","","","","","<p><img src= images/blank.png width =""200"" height = ""200"" style = ""float:right""></p><p><img src=images/blank.png width =""800"" height = ""200""></p>","","","","","","","","","","","",""
"","156.88499999674968","sequential-stimulus-presentation","239","529384","0.0-44.0-1.7","SS1613102297354","trial","","40","800","956.8849999967497","images/stimuli/spore_stims/complex_05_A_a.gif","images/stimuli/spore_stims/complex_05_B_a.gif","","","","","12","complex_similar","images/stimuli/spore_stims/complex_05_B_a.gif","right","","","","",""
"","807.954999996582","html-keyboard-response","240","530208","0.0-45.0","SS1613102297354","pref_question","","99","","","","","<video width ='960' height = '540' style='padding-top:8%' autoplay muted><source src='images/stimuli/wall_pref.mp4' type='video/mp4'></video>","3","right","66%","12","","","","","","","",""
"","487.1350000030361","sequential-stimulus-presentation","241","531504","0.0-46.0","SS1613102297354","pref_reveal","","40","800","1287.135000003036","null","null","","","","","12","","","","background","","","",""
"","null","html-keyboard-response","242","532607","0.0-47.0-0.0","SS1613102297354","","","null","","","","","<p><img src= images/blank.png width =""200"" height = ""200"" style = ""float:right""></p><p><img src=images/blank.png width =""800"" height = ""200""></p>","","","","","","","","","","","",""
"","817.3050000041258","sequential-stimulus-presentation","243","534232","0.0-47.0-1.0","SS1613102297354","trial","","40","800","1617.3050000041258","images/stimuli/spore_stims/simple_16_B_c.gif","images/stimuli/spore_stims/simple_16_A_c.gif","","","","","13","simple_similar","images/stimuli/spore_stims/simple_16_A_c.gif","middle","","","","",""
"","null","html-keyboard-response","244","535226","0.0-47.0-0.1","SS1613102297354","","","null","","","","","<p><img src= images/blank.png width =""200"" height = ""200"" style = ""float:right""></p><p><img src=images/blank.png width =""800"" height = ""200""></p>","","","","","","","","","","","",""
"","486.7700000030454","sequential-stimulus-presentation","245","536520","0.0-47.0-1.1","SS1613102297354","trial","","40","800","1286.7700000030454","images/stimuli/spore_stims/simple_16_B_c.gif","images/stimuli/spore_stims/simple_16_A_c.gif","","","","","13","simple_similar","images/stimuli/spore_stims/simple_16_A_c.gif","middle","","","","",""
"","null","html-keyboard-response","246","537607","0.0-47.0-0.2","SS1613102297354","","","null","","","","","<p><img src= images/blank.png width =""200"" height = ""200"" style = ""float:right""></p><p><img src=images/blank.png width =""800"" height = ""200""></p>","","","","","","","","","","","",""
"","560.0449999982957","sequential-stimulus-presentation","247","538984","0.0-47.0-1.2","SS1613102297354","trial","","40","800","1360.0449999982957","images/stimuli/spore_stims/simple_16_B_c.gif","images/stimuli/spore_stims/simple_16_A_c.gif","","","","","13","simple_similar","images/stimuli/spore_stims/simple_16_A_c.gif","middle","","","","",""
"","null","html-keyboard-response","248","540173","0.0-47.0-0.3","SS1613102297354","","","null","","","","","<p><img src= images/blank.png width =""200"" height = ""200"" style = ""float:right""></p><p><img src=images/blank.png width =""800"" height = ""200""></p>","","","","","","","","","","","",""
"","291.26499999989755","sequential-stimulus-presentation","249","541273","0.0-47.0-1.3","SS1613102297354","trial","","40","800","1091.2649999998976","images/stimuli/spore_stims/simple_16_B_c.gif","images/stimuli/spore_stims/simple_16_A_c.gif","","","","","13","simple_similar","images/stimuli/spore_stims/simple_16_A_c.gif","middle","","","","",""
"","null","html-keyboard-response","250","542283","0.0-47.0-0.4","SS1613102297354","","","null","","","","","<p><img src= images/blank.png width =""200"" height = ""200"" style = ""float:right""></p><p><img src=images/blank.png width =""800"" height = ""200""></p>","","","","","","","","","","","",""
"","388.32499999995343","sequential-stimulus-presentation","251","543480","0.0-47.0-1.4","SS1613102297354","trial","","40","800","1188.3249999999534","images/stimuli/spore_stims/simple_16_B_c.gif","images/stimuli/spore_stims/simple_16_A_c.gif","","","","","13","simple_similar","images/stimuli/spore_stims/simple_16_A_c.gif","middle","","","","",""
"","null","html-keyboard-response","252","544520","0.0-47.0-0.5","SS1613102297354","","","null","","","","","<p><img src= images/blank.png width =""200"" height = ""200"" style = ""float:right""></p><p><img src=images/blank.png width =""800"" height = ""200""></p>","","","","","","","","","","","",""
"","604.6500000011874","sequential-stimulus-presentation","253","545936","0.0-47.0-1.5","SS1613102297354","trial","","40","800","1404.6500000011874","images/stimuli/spore_stims/simple_16_B_c.gif","images/stimuli/spore_stims/simple_16_A_c.gif","","","","","13","simple_similar","images/stimuli/spore_stims/simple_16_A_c.gif","middle","","","","",""
"","null","html-keyboard-response","254","547151","0.0-47.0-0.6","SS1613102297354","","","null","","","","","<p><img src= images/blank.png width =""200"" height = ""200"" style = ""float:right""></p><p><img src=images/blank.png width =""800"" height = ""200""></p>","","","","","","","","","","","",""
"","1131.4799999963725","sequential-stimulus-presentation","255","549097","0.0-47.0-1.6","SS1613102297354","trial","","40","800","1931.4799999963725","images/stimuli/spore_stims/simple_16_B_c.gif","images/stimuli/spore_stims/simple_16_A_c.gif","","","","","13","simple_similar","images/stimuli/spore_stims/simple_16_B_c.gif","right","","","","",""
"","null","html-keyboard-response","256","550022","0.0-47.0-0.7","SS1613102297354","","","null","","","","","<p><img src= images/blank.png width =""200"" height = ""200"" style = ""float:right""></p><p><img src=images/blank.png width =""800"" height = ""200""></p>","","","","","","","","","","","",""
"","1275.0649999943562","sequential-stimulus-presentation","257","552105","0.0-47.0-1.7","SS1613102297354","trial","","40","800","2075.064999994356","images/stimuli/spore_stims/simple_16_B_c.gif","images/stimuli/spore_stims/simple_16_A_c.gif","","","","","13","simple_similar","images/stimuli/spore_stims/simple_16_A_c.gif","middle","","","","",""
"","3016.739999999176","html-keyboard-response","258","555130","0.0-48.0","SS1613102297354","pref_question","","99","","","","","<video width ='960' height = '540' style='padding-top:8%' autoplay muted><source src='images/stimuli/wall_pref.mp4' type='video/mp4'></video>","3","right","66%","13","","","","","","","",""
"","374.22499999962747","sequential-stimulus-presentation","259","556313","0.0-49.0","SS1613102297354","pref_reveal","","40","800","1174.2249999996275","null","null","","","","","13","","","","deviant","","","",""
"","null","html-keyboard-response","260","557575","0.0-50.0-0.0","SS1613102297354","","","null","","","","","<p><img src= images/blank.png width =""200"" height = ""200"" style = ""float:right""></p><p><img src=images/blank.png width =""800"" height = ""200""></p>","","","","","","","","","","","",""
"","289.51499999687076","sequential-stimulus-presentation","261","558673","0.0-50.0-1.0","SS1613102297354","trial","","40","800","1089.5149999968708","images/stimuli/spore_stims/simple_02_A_c.gif","images/stimuli/spore_stims/simple_02_B_c.gif","","","","","14","simple_similar","images/stimuli/spore_stims/simple_02_B_c.gif","left","","","","",""
"","null","html-keyboard-response","262","559489","0.0-50.0-0.1","SS1613102297354","","","null","","","","","<p><img src= images/blank.png width =""200"" height = ""200"" style = ""float:right""></p><p><img src=images/blank.png width =""800"" height = ""200""></p>","","","","","","","","","","","",""
"","577.6999999943655","sequential-stimulus-presentation","263","560874","0.0-50.0-1.1","SS1613102297354","trial","","40","800","1377.6999999943655","images/stimuli/spore_stims/simple_02_A_c.gif","images/stimuli/spore_stims/simple_02_B_c.gif","","","","","14","simple_similar","images/stimuli/spore_stims/simple_02_B_c.gif","left","","","","",""
"","null","html-keyboard-response","264","561686","0.0-50.0-0.2","SS1613102297354","","","null","","","","","<p><img src= images/blank.png width =""200"" height = ""200"" style = ""float:right""></p><p><img src=images/blank.png width =""800"" height = ""200""></p>","","","","","","","","","","","",""
"","66.2049999954179","sequential-stimulus-presentation","265","562561","0.0-50.0-1.2","SS1613102297354","trial","","40","800","866.2049999954179","images/stimuli/spore_stims/simple_02_A_c.gif","images/stimuli/spore_stims/simple_02_B_c.gif","","","","","14","simple_similar","images/stimuli/spore_stims/simple_02_B_c.gif","left","","","","",""
"","null","html-keyboard-response","266","563725","0.0-50.0-0.3","SS1613102297354","","","null","","","","","<p><img src= images/blank.png width =""200"" height = ""200"" style = ""float:right""></p><p><img src=images/blank.png width =""800"" height = ""200""></p>","","","","","","","","","","","",""
"","531.2800000028219","sequential-stimulus-presentation","267","565065","0.0-50.0-1.3","SS1613102297354","trial","","40","800","1331.280000002822","images/stimuli/spore_stims/simple_02_A_c.gif","images/stimuli/spore_stims/simple_02_B_c.gif","","","","","14","simple_similar","images/stimuli/spore_stims/simple_02_A_c.gif","middle","","","","",""
"","null","html-keyboard-response","268","565969","0.0-50.0-0.4","SS1613102297354","","","null","","","","","<p><img src= images/blank.png width =""200"" height = ""200"" style = ""float:right""></p><p><img src=images/blank.png width =""800"" height = ""200""></p>","","","","","","","","","","","",""
"","55.01000000361819","sequential-stimulus-presentation","269","566833","0.0-50.0-1.4","SS1613102297354","trial","","40","800","855.0100000036182","images/stimuli/spore_stims/simple_02_A_c.gif","images/stimuli/spore_stims/simple_02_B_c.gif","","","","","14","simple_similar","images/stimuli/spore_stims/simple_02_B_c.gif","left","","","","",""
"","null","html-keyboard-response","270","567662","0.0-50.0-0.5","SS1613102297354","","","null","","","","","<p><img src= images/blank.png width =""200"" height = ""200"" style = ""float:right""></p><p><img src=images/blank.png width =""800"" height = ""200""></p>","","","","","","","","","","","",""
"","193.94499999901745","sequential-stimulus-presentation","271","568665","0.0-50.0-1.5","SS1613102297354","trial","","40","800","993.9449999990175","images/stimuli/spore_stims/simple_02_A_c.gif","images/stimuli/spore_stims/simple_02_B_c.gif","","","","","14","simple_similar","images/stimuli/spore_stims/simple_02_B_c.gif","left","","","","",""
"","null","html-keyboard-response","272","569905","0.0-50.0-0.6","SS1613102297354","","","null","","","","","<p><img src= images/blank.png width =""200"" height = ""200"" style = ""float:right""></p><p><img src=images/blank.png width =""800"" height = ""200""></p>","","","","","","","","","","","",""
"","230.8550000016112","sequential-stimulus-presentation","273","570945","0.0-50.0-1.6","SS1613102297354","trial","","40","800","1030.8550000016112","images/stimuli/spore_stims/simple_02_A_c.gif","images/stimuli/spore_stims/simple_02_B_c.gif","","","","","14","simple_similar","images/stimuli/spore_stims/simple_02_B_c.gif","left","","","","",""
"","null","html-keyboard-response","274","571983","0.0-50.0-0.7","SS1613102297354","","","null","","","","","<p><img src= images/blank.png width =""200"" height = ""200"" style = ""float:right""></p><p><img src=images/blank.png width =""800"" height = ""200""></p>","","","","","","","","","","","",""
"","633.6100000042934","sequential-stimulus-presentation","275","573425","0.0-50.0-1.7","SS1613102297354","trial","","40","800","1433.6100000042934","images/stimuli/spore_stims/simple_02_A_c.gif","images/stimuli/spore_stims/simple_02_B_c.gif","","","","","14","simple_similar","images/stimuli/spore_stims/simple_02_B_c.gif","left","","","","",""
"","3017.0650000000605","html-keyboard-response","276","576449","0.0-51.0","SS1613102297354","pref_question","","97","","","","","<video width ='960' height = '540' style='padding-top:8%' autoplay muted><source src='images/stimuli/wall_pref.mp4' type='video/mp4'></video>","1","left","25%","14","","","","","","","",""
"","1309.4550000022864","sequential-stimulus-presentation","277","578569","0.0-52.0","SS1613102297354","pref_reveal","","40","800","2109.4550000022864","null","null","","","","","14","","","","background","","","",""
"","null","html-keyboard-response","278","579825","0.0-53.0-0.0","SS1613102297354","","","null","","","","","<p><img src= images/blank.png width =""200"" height = ""200"" style = ""float:right""></p><p><img src=images/blank.png width =""800"" height = ""200""></p>","","","","","","","","","","","",""
"","398.9300000029616","sequential-stimulus-presentation","279","581033","0.0-53.0-1.0","SS1613102297354","trial","","40","800","1198.9300000029616","images/stimuli/spore_stims/complex_03_A_b.gif","images/stimuli/spore_stims/complex_03_B_b.gif","","","","","15","complex_similar","images/stimuli/spore_stims/complex_03_B_b.gif","right","","","","",""
"","null","html-keyboard-response","280","581873","0.0-53.0-0.1","SS1613102297354","","","null","","","","","<p><img src= images/blank.png width =""200"" height = ""200"" style = ""float:right""></p><p><img src=images/blank.png width =""800"" height = ""200""></p>","","","","","","","","","","","",""
"","2447.0799999980954","sequential-stimulus-presentation","281","585129","0.0-53.0-1.1","SS1613102297354","trial","","40","800","3247.0799999980954","images/stimuli/spore_stims/complex_03_A_b.gif","images/stimuli/spore_stims/complex_03_B_b.gif","","","","","15","complex_similar","images/stimuli/spore_stims/complex_03_B_b.gif","right","","","","",""
"","null","html-keyboard-response","282","586318","0.0-53.0-0.2","SS1613102297354","","","null","","","","","<p><img src= images/blank.png width =""200"" height = ""200"" style = ""float:right""></p><p><img src=images/blank.png width =""800"" height = ""200""></p>","","","","","","","","","","","",""
"","1200.8799999966286","sequential-stimulus-presentation","283","588328","0.0-53.0-1.2","SS1613102297354","trial","","40","800","2000.8799999966286","images/stimuli/spore_stims/complex_03_A_b.gif","images/stimuli/spore_stims/complex_03_B_b.gif","","","","","15","complex_similar","images/stimuli/spore_stims/complex_03_B_b.gif","right","","","","",""
"","null","html-keyboard-response","284","589250","0.0-53.0-0.3","SS1613102297354","","","null","","","","","<p><img src= images/blank.png width =""200"" height = ""200"" style = ""float:right""></p><p><img src=images/blank.png width =""800"" height = ""200""></p>","","","","","","","","","","","",""
"","525.5550000001676","sequential-stimulus-presentation","285","590584","0.0-53.0-1.3","SS1613102297354","trial","","40","800","1325.5550000001676","images/stimuli/spore_stims/complex_03_A_b.gif","images/stimuli/spore_stims/complex_03_B_b.gif","","","","","15","complex_similar","images/stimuli/spore_stims/complex_03_B_b.gif","right","","","","",""
"","null","html-keyboard-response","286","591443","0.0-53.0-0.4","SS1613102297354","","","null","","","","","<p><img src= images/blank.png width =""200"" height = ""200"" style = ""float:right""></p><p><img src=images/blank.png width =""800"" height = ""200""></p>","","","","","","","","","","","",""
"","449.5849999948405","sequential-stimulus-presentation","287","592704","0.0-53.0-1.4","SS1613102297354","trial","","40","800","1249.5849999948405","images/stimuli/spore_stims/complex_03_A_b.gif","images/stimuli/spore_stims/complex_03_B_b.gif","","","","","15","complex_similar","images/stimuli/spore_stims/complex_03_A_b.gif","middle","","","","",""
"","null","html-keyboard-response","288","593802","0.0-53.0-0.5","SS1613102297354","","","null","","","","","<p><img src= images/blank.png width =""200"" height = ""200"" style = ""float:right""></p><p><img src=images/blank.png width =""800"" height = ""200""></p>","","","","","","","","","","","",""
"","446.4250000019092","sequential-stimulus-presentation","289","595056","0.0-53.0-1.5","SS1613102297354","trial","","40","800","1246.4250000019092","images/stimuli/spore_stims/complex_03_A_b.gif","images/stimuli/spore_stims/complex_03_B_b.gif","","","","","15","complex_similar","images/stimuli/spore_stims/complex_03_B_b.gif","right","","","","",""
"","null","html-keyboard-response","290","596006","0.0-53.0-0.6","SS1613102297354","","","null","","","","","<p><img src= images/blank.png width =""200"" height = ""200"" style = ""float:right""></p><p><img src=images/blank.png width =""800"" height = ""200""></p>","","","","","","","","","","","",""
"","831.5999999976484","sequential-stimulus-presentation","291","597649","0.0-53.0-1.6","SS1613102297354","trial","","40","800","1631.5999999976484","images/stimuli/spore_stims/complex_03_A_b.gif","images/stimuli/spore_stims/complex_03_B_b.gif","","","","","15","complex_similar","images/stimuli/spore_stims/complex_03_B_b.gif","right","","","","",""
"","null","html-keyboard-response","292","598763","0.0-53.0-0.7","SS1613102297354","","","null","","","","","<p><img src= images/blank.png width =""200"" height = ""200"" style = ""float:right""></p><p><img src=images/blank.png width =""800"" height = ""200""></p>","","","","","","","","","","","",""
"","702.1649999951478","sequential-stimulus-presentation","293","600272","0.0-53.0-1.7","SS1613102297354","trial","","40","800","1502.1649999951478","images/stimuli/spore_stims/complex_03_A_b.gif","images/stimuli/spore_stims/complex_03_B_b.gif","","","","","15","complex_similar","images/stimuli/spore_stims/complex_03_B_b.gif","right","","","","",""
"","1528.5950000034645","html-keyboard-response","294","601808","0.0-54.0","SS1613102297354","pref_question","","98","","","","","<video width ='960' height = '540' style='padding-top:8%' autoplay muted><source src='images/stimuli/wall_pref.mp4' type='video/mp4'></video>","2","middle","45%","15","","","","","","","",""
"","400.19500000204425","sequential-stimulus-presentation","295","603016","0.0-55.0","SS1613102297354","pref_reveal","","40","800","1200.1950000020443","null","null","","","","","15","","","","deviant","","","",""
"","null","html-keyboard-response","296","604090","0.0-56.0-0.0","SS1613102297354","","","null","","","","","<p><img src= images/blank.png width =""200"" height = ""200"" style = ""float:right""></p><p><img src=images/blank.png width =""800"" height = ""200""></p>","","","","","","","","","","","",""
"","764.9850000014994","sequential-stimulus-presentation","297","605672","0.0-56.0-1.0","SS1613102297354","trial","","40","800","1564.9850000014994","images/stimuli/spore_stims/simple_12_A_d.gif","images/stimuli/spore_stims/simple_12_B_d.gif","","","","","16","simple_similar","images/stimuli/spore_stims/simple_12_B_d.gif","left","","","","",""
"","null","html-keyboard-response","298","606755","0.0-56.0-0.1","SS1613102297354","","","null","","","","","<p><img src= images/blank.png width =""200"" height = ""200"" style = ""float:right""></p><p><img src=images/blank.png width =""800"" height = ""200""></p>","","","","","","","","","","","",""
"","829.0800000032177","sequential-stimulus-presentation","299","608394","0.0-56.0-1.1","SS1613102297354","trial","","40","800","1629.0800000032177","images/stimuli/spore_stims/simple_12_A_d.gif","images/stimuli/spore_stims/simple_12_B_d.gif","","","","","16","simple_similar","images/stimuli/spore_stims/simple_12_B_d.gif","left","","","","",""
"","null","html-keyboard-response","300","609540","0.0-56.0-0.2","SS1613102297354","","","null","","","","","<p><img src= images/blank.png width =""200"" height = ""200"" style = ""float:right""></p><p><img src=images/blank.png width =""800"" height = ""200""></p>","","","","","","","","","","","",""
"","405.38499999814667","sequential-stimulus-presentation","301","610754","0.0-56.0-1.2","SS1613102297354","trial","","40","800","1205.3849999981467","images/stimuli/spore_stims/simple_12_A_d.gif","images/stimuli/spore_stims/simple_12_B_d.gif","","","","","16","simple_similar","images/stimuli/spore_stims/simple_12_B_d.gif","left","","","","",""
"","null","html-keyboard-response","302","611771","0.0-56.0-0.3","SS1613102297354","","","null","","","","","<p><img src= images/blank.png width =""200"" height = ""200"" style = ""float:right""></p><p><img src=images/blank.png width =""800"" height = ""200""></p>","","","","","","","","","","","",""
"","44.459999997285195","sequential-stimulus-presentation","303","612626","0.0-56.0-1.3","SS1613102297354","trial","","40","800","844.4599999972852","images/stimuli/spore_stims/simple_12_A_d.gif","images/stimuli/spore_stims/simple_12_B_d.gif","","","","","16","simple_similar","images/stimuli/spore_stims/simple_12_B_d.gif","left","","","","",""
"","null","html-keyboard-response","304","613585","0.0-56.0-0.4","SS1613102297354","","","null","","","","","<p><img src= images/blank.png width =""200"" height = ""200"" style = ""float:right""></p><p><img src=images/blank.png width =""800"" height = ""200""></p>","","","","","","","","","","","",""
"","219.27500000305008","sequential-stimulus-presentation","305","614626","0.0-56.0-1.4","SS1613102297354","trial","","40","800","1019.2750000030501","images/stimuli/spore_stims/simple_12_A_d.gif","images/stimuli/spore_stims/simple_12_B_d.gif","","","","","16","simple_similar","images/stimuli/spore_stims/simple_12_B_d.gif","left","","","","",""
"","null","html-keyboard-response","306","615663","0.0-56.0-0.5","SS1613102297354","","","null","","","","","<p><img src= images/blank.png width =""200"" height = ""200"" style = ""float:right""></p><p><img src=images/blank.png width =""800"" height = ""200""></p>","","","","","","","","","","","",""
"","463.04000000236556","sequential-stimulus-presentation","307","616938","0.0-56.0-1.5","SS1613102297354","trial","","40","800","1263.0400000023656","images/stimuli/spore_stims/simple_12_A_d.gif","images/stimuli/spore_stims/simple_12_B_d.gif","","","","","16","simple_similar","images/stimuli/spore_stims/simple_12_A_d.gif","right","","","","",""
"","null","html-keyboard-response","308","617906","0.0-56.0-0.6","SS1613102297354","","","null","","","","","<p><img src= images/blank.png width =""200"" height = ""200"" style = ""float:right""></p><p><img src=images/blank.png width =""800"" height = ""200""></p>","","","","","","","","","","","",""
"","192.2599999961676","sequential-stimulus-presentation","309","618907","0.0-56.0-1.6","SS1613102297354","trial","","40","800","992.2599999961676","images/stimuli/spore_stims/simple_12_A_d.gif","images/stimuli/spore_stims/simple_12_B_d.gif","","","","","16","simple_similar","images/stimuli/spore_stims/simple_12_B_d.gif","left","","","","",""
"","null","html-keyboard-response","310","619927","0.0-56.0-0.7","SS1613102297354","","","null","","","","","<p><img src= images/blank.png width =""200"" height = ""200"" style = ""float:right""></p><p><img src=images/blank.png width =""800"" height = ""200""></p>","","","","","","","","","","","",""
"","383.99500000383705","sequential-stimulus-presentation","311","621123","0.0-56.0-1.7","SS1613102297354","trial","","40","800","1183.995000003837","images/stimuli/spore_stims/simple_12_A_d.gif","images/stimuli/spore_stims/simple_12_B_d.gif","","","","","16","simple_similar","images/stimuli/spore_stims/simple_12_B_d.gif","left","","","","",""
