"view_history","rt","trial_type","trial_index","time_elapsed","internal_node_id","subject","stimulus_type","trial_stimulus","key_press","minimum_viewing_duration","trial_looking_time","block_deviant","block_background","stimulus","wall_pref","location","location_percent","block_number","block_type","stimulus_displayed","position_displayed","stim_type_selected","responses","question_order","stimulus_left","stimulus_right"
"[{""page_index"":0,""viewing_time"":3141.9999999998254}]","3141.9999999998254","instructions","0","3144","0.0-0.0","SS1613176315936","","","","","","","","","","","","","","","","","","","",""
"[{""page_index"":0,""viewing_time"":1436.9999999980791},{""page_index"":1,""viewing_time"":2601.0000000023865}]","4038.0000000004657","instructions","1","9192","0.0-1.0","SS1613176315936","instructions","","","","","","","","","","","","","","","","","","",""
"","2281.9999999992433","sequential-stimulus-presentation","2","12303","0.0-2.0","SS1613176315936","","","40","800","3081.9999999992433","null","null","","","","","","","","","","","","",""
"","444.0000000031432","sequential-stimulus-presentation","3","13553","0.0-3.0","SS1613176315936","","","40","800","1244.0000000031432","null","null","","","","","","","","","","","","",""
"[{""page_index"":0,""viewing_time"":463.9999999999418}]","479.99999999592546","instructions","4","14036","0.0-4.0","SS1613176315936","instructions","","","","","","","","","","","","","","","","","","",""
"","6720.000000001164","html-keyboard-response","5","20757","0.0-5.0","SS1613176315936","instructions","","50","","","","","<video width ='960' height = '540' autoplay muted><source src='images/stimuli/wall_pref.mp4' type='video/mp4'></video>","2","middle","45%","","","","","","","","",""
"","1101.9999999989523","sequential-stimulus-presentation","6","22686","0.0-6.0","SS1613176315936","pref_reveal","","40","800","1901.9999999989523","null","null","","","","","","","","","","","","",""
"[{""page_index"":0,""viewing_time"":1141.9999999998254},{""page_index"":1,""viewing_time"":597.0000000015716},{""page_index"":2,""viewing_time"":1423.9999999990687},{""page_index"":3,""viewing_time"":745.0000000026193}]","3908.000000003085","instructions","7","26597","0.0-7.0","SS1613176315936","instructions","","","","","","","","","","","","","","","","","","",""
"","null","html-keyboard-response","8","27874","0.0-8.0-0.0","SS1613176315936","","","null","","","","","<p><img src= images/blank.png width =""200"" height = ""200"" style = ""float:right""></p><p><img src=images/blank.png width =""800"" height = ""200""></p>","","","","","","","","","","","",""
"","3167.0000000012806","sequential-stimulus-presentation","9","31845","0.0-8.0-1.0","SS1613176315936","trial","","40","800","3967.0000000012806","images/stimuli/spore_stims/complex_10_A_d.gif","images/stimuli/spore_stims/complex_10_B_d.gif","","","","","0","complex_similar","images/stimuli/spore_stims/complex_10_B_d.gif","right","","","","",""
"","null","html-keyboard-response","10","33149","0.0-8.0-0.1","SS1613176315936","","","null","","","","","<p><img src= images/blank.png width =""200"" height = ""200"" style = ""float:right""></p><p><img src=images/blank.png width =""800"" height = ""200""></p>","","","","","","","","","","","",""
"","425.99999999947613","sequential-stimulus-presentation","11","34380","0.0-8.0-1.1","SS1613176315936","trial","","40","800","1225.9999999994761","images/stimuli/spore_stims/complex_10_A_d.gif","images/stimuli/spore_stims/complex_10_B_d.gif","","","","","0","complex_similar","images/stimuli/spore_stims/complex_10_B_d.gif","right","","","","",""
"","null","html-keyboard-response","12","35548","0.0-8.0-0.2","SS1613176315936","","","null","","","","","<p><img src= images/blank.png width =""200"" height = ""200"" style = ""float:right""></p><p><img src=images/blank.png width =""800"" height = ""200""></p>","","","","","","","","","","","",""
"","431.99999999342253","sequential-stimulus-presentation","13","36781","0.0-8.0-1.2","SS1613176315936","trial","","40","800","1231.9999999934225","images/stimuli/spore_stims/complex_10_A_d.gif","images/stimuli/spore_stims/complex_10_B_d.gif","","","","","0","complex_similar","images/stimuli/spore_stims/complex_10_B_d.gif","right","","","","",""
"","null","html-keyboard-response","14","37932","0.0-8.0-0.3","SS1613176315936","","","null","","","","","<p><img src= images/blank.png width =""200"" height = ""200"" style = ""float:right""></p><p><img src=images/blank.png width =""800"" height = ""200""></p>","","","","","","","","","","","",""
"","419.99999999825377","sequential-stimulus-presentation","15","39177","0.0-8.0-1.3","SS1613176315936","trial","","40","800","1219.9999999982538","images/stimuli/spore_stims/complex_10_A_d.gif","images/stimuli/spore_stims/complex_10_B_d.gif","","","","","0","complex_similar","images/stimuli/spore_stims/complex_10_A_d.gif","middle","","","","",""
"","null","html-keyboard-response","16","40279","0.0-8.0-0.4","SS1613176315936","","","null","","","","","<p><img src= images/blank.png width =""200"" height = ""200"" style = ""float:right""></p><p><img src=images/blank.png width =""800"" height = ""200""></p>","","","","","","","","","","","",""
"","292.00000000128057","sequential-stimulus-presentation","17","41375","0.0-8.0-1.4","SS1613176315936","trial","","40","800","1092.0000000012806","images/stimuli/spore_stims/complex_10_A_d.gif","images/stimuli/spore_stims/complex_10_B_d.gif","","","","","0","complex_similar","images/stimuli/spore_stims/complex_10_B_d.gif","right","","","","",""
"","null","html-keyboard-response","18","42400","0.0-8.0-0.5","SS1613176315936","","","null","","","","","<p><img src= images/blank.png width =""200"" height = ""200"" style = ""float:right""></p><p><img src=images/blank.png width =""800"" height = ""200""></p>","","","","","","","","","","","",""
"","184.00000000110595","sequential-stimulus-presentation","19","43396","0.0-8.0-1.5","SS1613176315936","trial","","40","800","984.000000001106","images/stimuli/spore_stims/complex_10_A_d.gif","images/stimuli/spore_stims/complex_10_B_d.gif","","","","","0","complex_similar","images/stimuli/spore_stims/complex_10_B_d.gif","right","","","","",""
"","null","html-keyboard-response","20","44608","0.0-8.0-0.6","SS1613176315936","","","null","","","","","<p><img src= images/blank.png width =""200"" height = ""200"" style = ""float:right""></p><p><img src=images/blank.png width =""800"" height = ""200""></p>","","","","","","","","","","","",""
"","91.00000000034925","sequential-stimulus-presentation","21","45510","0.0-8.0-1.6","SS1613176315936","trial","","40","800","891.0000000003492","images/stimuli/spore_stims/complex_10_A_d.gif","images/stimuli/spore_stims/complex_10_B_d.gif","","","","","0","complex_similar","images/stimuli/spore_stims/complex_10_B_d.gif","right","","","","",""
"","null","html-keyboard-response","22","46368","0.0-8.0-0.7","SS1613176315936","","","null","","","","","<p><img src= images/blank.png width =""200"" height = ""200"" style = ""float:right""></p><p><img src=images/blank.png width =""800"" height = ""200""></p>","","","","","","","","","","","",""
"","320.9999999962747","sequential-stimulus-presentation","23","47496","0.0-8.0-1.7","SS1613176315936","trial","","40","800","1120.9999999962747","images/stimuli/spore_stims/complex_10_A_d.gif","images/stimuli/spore_stims/complex_10_B_d.gif","","","","","0","complex_similar","images/stimuli/spore_stims/complex_10_B_d.gif","right","","","","",""
"","896.0000000006403","html-keyboard-response","24","48397","0.0-9.0","SS1613176315936","pref_question","","49","","","","","<video width ='960' height = '540' style='padding-top:8%' autoplay muted><source src='images/stimuli/wall_pref.mp4' type='video/mp4'></video>","1","left","25%","0","","","","","","","",""
"","593.0000000007567","sequential-stimulus-presentation","25","49796","0.0-10.0","SS1613176315936","pref_reveal","","40","800","1393.0000000007567","null","null","","","","","0","","","","novel","","","",""
"","null","html-keyboard-response","26","50701","0.0-11.0-0.0","SS1613176315936","","","null","","","","","<p><img src= images/blank.png width =""200"" height = ""200"" style = ""float:right""></p><p><img src=images/blank.png width =""800"" height = ""200""></p>","","","","","","","","","","","",""
"","548.0000000025029","sequential-stimulus-presentation","27","52172","0.0-11.0-1.0","SS1613176315936","trial","","40","800","1348.000000002503","images/stimuli/spore_stims/complex_12_B_d.gif","images/stimuli/spore_stims/complex_20_B_a.gif","","","","","1","complex_dissimilar","images/stimuli/spore_stims/complex_20_B_a.gif","left","","","","",""
"","null","html-keyboard-response","28","53327","0.0-11.0-0.1","SS1613176315936","","","null","","","","","<p><img src= images/blank.png width =""200"" height = ""200"" style = ""float:right""></p><p><img src=images/blank.png width =""800"" height = ""200""></p>","","","","","","","","","","","",""
"","360.0000000005821","sequential-stimulus-presentation","29","54501","0.0-11.0-1.1","SS1613176315936","trial","","40","800","1160.000000000582","images/stimuli/spore_stims/complex_12_B_d.gif","images/stimuli/spore_stims/complex_20_B_a.gif","","","","","1","complex_dissimilar","images/stimuli/spore_stims/complex_20_B_a.gif","left","","","","",""
"","null","html-keyboard-response","30","55701","0.0-11.0-0.2","SS1613176315936","","","null","","","","","<p><img src= images/blank.png width =""200"" height = ""200"" style = ""float:right""></p><p><img src=images/blank.png width =""800"" height = ""200""></p>","","","","","","","","","","","",""
"","10.999999998603016","sequential-stimulus-presentation","31","56512","0.0-11.0-1.2","SS1613176315936","trial","","40","800","810.999999998603","images/stimuli/spore_stims/complex_12_B_d.gif","images/stimuli/spore_stims/complex_20_B_a.gif","","","","","1","complex_dissimilar","images/stimuli/spore_stims/complex_20_B_a.gif","left","","","","",""
"","null","html-keyboard-response","32","57428","0.0-11.0-0.3","SS1613176315936","","","null","","","","","<p><img src= images/blank.png width =""200"" height = ""200"" style = ""float:right""></p><p><img src=images/blank.png width =""800"" height = ""200""></p>","","","","","","","","","","","",""
"","527.9999999984284","sequential-stimulus-presentation","33","58771","0.0-11.0-1.3","SS1613176315936","trial","","40","800","1327.9999999984284","images/stimuli/spore_stims/complex_12_B_d.gif","images/stimuli/spore_stims/complex_20_B_a.gif","","","","","1","complex_dissimilar","images/stimuli/spore_stims/complex_20_B_a.gif","left","","","","",""
"","null","html-keyboard-response","34","59756","0.0-11.0-0.4","SS1613176315936","","","null","","","","","<p><img src= images/blank.png width =""200"" height = ""200"" style = ""float:right""></p><p><img src=images/blank.png width =""800"" height = ""200""></p>","","","","","","","","","","","",""
"","2838.999999999942","sequential-stimulus-presentation","35","63406","0.0-11.0-1.4","SS1613176315936","trial","","40","800","3638.999999999942","images/stimuli/spore_stims/complex_12_B_d.gif","images/stimuli/spore_stims/complex_20_B_a.gif","","","","","1","complex_dissimilar","images/stimuli/spore_stims/complex_12_B_d.gif","middle","","","","",""
"","null","html-keyboard-response","36","64288","0.0-11.0-0.5","SS1613176315936","","","null","","","","","<p><img src= images/blank.png width =""200"" height = ""200"" style = ""float:right""></p><p><img src=images/blank.png width =""800"" height = ""200""></p>","","","","","","","","","","","",""
"","350.99999999511056","sequential-stimulus-presentation","37","65608","0.0-11.0-1.5","SS1613176315936","trial","","40","800","1150.9999999951106","images/stimuli/spore_stims/complex_12_B_d.gif","images/stimuli/spore_stims/complex_20_B_a.gif","","","","","1","complex_dissimilar","images/stimuli/spore_stims/complex_20_B_a.gif","left","","","","",""
"","null","html-keyboard-response","38","66813","0.0-11.0-0.6","SS1613176315936","","","null","","","","","<p><img src= images/blank.png width =""200"" height = ""200"" style = ""float:right""></p><p><img src=images/blank.png width =""800"" height = ""200""></p>","","","","","","","","","","","",""
"","285.00000000349246","sequential-stimulus-presentation","39","67915","0.0-11.0-1.6","SS1613176315936","trial","","40","800","1085.0000000034925","images/stimuli/spore_stims/complex_12_B_d.gif","images/stimuli/spore_stims/complex_20_B_a.gif","","","","","1","complex_dissimilar","images/stimuli/spore_stims/complex_20_B_a.gif","left","","","","",""
"","null","html-keyboard-response","40","68746","0.0-11.0-0.7","SS1613176315936","","","null","","","","","<p><img src= images/blank.png width =""200"" height = ""200"" style = ""float:right""></p><p><img src=images/blank.png width =""800"" height = ""200""></p>","","","","","","","","","","","",""
"","559.000000001106","sequential-stimulus-presentation","41","70165","0.0-11.0-1.7","SS1613176315936","trial","","40","800","1359.000000001106","images/stimuli/spore_stims/complex_12_B_d.gif","images/stimuli/spore_stims/complex_20_B_a.gif","","","","","1","complex_dissimilar","images/stimuli/spore_stims/complex_20_B_a.gif","left","","","","",""
"","535601.0000000023","html-keyboard-response","42","605768","0.0-12.0","SS1613176315936","pref_question","","50","","","","","<video width ='960' height = '540' style='padding-top:8%' autoplay muted><source src='images/stimuli/wall_pref.mp4' type='video/mp4'></video>","2","middle","45%","1","","","","","","","",""
"","304.9999999930151","sequential-stimulus-presentation","43","606894","0.0-13.0","SS1613176315936","pref_reveal","","40","800","1104.999999993015","null","null","","","","","1","","","","deviant","","","",""
"","null","html-keyboard-response","44","607977","0.0-14.0-0.0","SS1613176315936","","","null","","","","","<p><img src= images/blank.png width =""200"" height = ""200"" style = ""float:right""></p><p><img src=images/blank.png width =""800"" height = ""200""></p>","","","","","","","","","","","",""
"","69.00000000325963","sequential-stimulus-presentation","45","608857","0.0-14.0-1.0","SS1613176315936","trial","","40","800","869.0000000032596","images/stimuli/spore_stims/simple_04_B_c.gif","images/stimuli/spore_stims/simple_04_A_c.gif","","","","","2","simple_similar","images/stimuli/spore_stims/simple_04_A_c.gif","right","","","","",""
"","null","html-keyboard-response","46","609904","0.0-14.0-0.1","SS1613176315936","","","null","","","","","<p><img src= images/blank.png width =""200"" height = ""200"" style = ""float:right""></p><p><img src=images/blank.png width =""800"" height = ""200""></p>","","","","","","","","","","","",""
"","245.00000000267755","sequential-stimulus-presentation","47","611047","0.0-14.0-1.1","SS1613176315936","trial","","40","800","1045.0000000026776","images/stimuli/spore_stims/simple_04_B_c.gif","images/stimuli/spore_stims/simple_04_A_c.gif","","","","","2","simple_similar","images/stimuli/spore_stims/simple_04_A_c.gif","right","","","","",""
"","null","html-keyboard-response","48","612184","0.0-14.0-0.2","SS1613176315936","","","null","","","","","<p><img src= images/blank.png width =""200"" height = ""200"" style = ""float:right""></p><p><img src=images/blank.png width =""800"" height = ""200""></p>","","","","","","","","","","","",""
"","558.99999999383","sequential-stimulus-presentation","49","613550","0.0-14.0-1.2","SS1613176315936","trial","","40","800","1358.99999999383","images/stimuli/spore_stims/simple_04_B_c.gif","images/stimuli/spore_stims/simple_04_A_c.gif","","","","","2","simple_similar","images/stimuli/spore_stims/simple_04_A_c.gif","right","","","","",""
"","null","html-keyboard-response","50","614619","0.0-14.0-0.3","SS1613176315936","","","null","","","","","<p><img src= images/blank.png width =""200"" height = ""200"" style = ""float:right""></p><p><img src=images/blank.png width =""800"" height = ""200""></p>","","","","","","","","","","","",""
"","202.00000000477303","sequential-stimulus-presentation","51","615636","0.0-14.0-1.3","SS1613176315936","trial","","40","800","1002.000000004773","images/stimuli/spore_stims/simple_04_B_c.gif","images/stimuli/spore_stims/simple_04_A_c.gif","","","","","2","simple_similar","images/stimuli/spore_stims/simple_04_A_c.gif","right","","","","",""
"","null","html-keyboard-response","52","616632","0.0-14.0-0.4","SS1613176315936","","","null","","","","","<p><img src= images/blank.png width =""200"" height = ""200"" style = ""float:right""></p><p><img src=images/blank.png width =""800"" height = ""200""></p>","","","","","","","","","","","",""
"","139.99999999953434","sequential-stimulus-presentation","53","617577","0.0-14.0-1.4","SS1613176315936","trial","","40","800","939.9999999995343","images/stimuli/spore_stims/simple_04_B_c.gif","images/stimuli/spore_stims/simple_04_A_c.gif","","","","","2","simple_similar","images/stimuli/spore_stims/simple_04_B_c.gif","middle","","","","",""
"","null","html-keyboard-response","54","618583","0.0-14.0-0.5","SS1613176315936","","","null","","","","","<p><img src= images/blank.png width =""200"" height = ""200"" style = ""float:right""></p><p><img src=images/blank.png width =""800"" height = ""200""></p>","","","","","","","","","","","",""
"","341.00000000046566","sequential-stimulus-presentation","55","619982","0.0-14.0-1.5","SS1613176315936","trial","","40","800","1141.0000000004657","images/stimuli/spore_stims/simple_04_B_c.gif","images/stimuli/spore_stims/simple_04_A_c.gif","","","","","2","simple_similar","images/stimuli/spore_stims/simple_04_A_c.gif","right","","","","",""
"","null","html-keyboard-response","56","621089","0.0-14.0-0.6","SS1613176315936","","","null","","","","","<p><img src= images/blank.png width =""200"" height = ""200"" style = ""float:right""></p><p><img src=images/blank.png width =""800"" height = ""200""></p>","","","","","","","","","","","",""
"","98.9999999946449","sequential-stimulus-presentation","57","622001","0.0-14.0-1.6","SS1613176315936","trial","","40","800","898.9999999946449","images/stimuli/spore_stims/simple_04_B_c.gif","images/stimuli/spore_stims/simple_04_A_c.gif","","","","","2","simple_similar","images/stimuli/spore_stims/simple_04_A_c.gif","right","","","","",""
"","null","html-keyboard-response","58","622816","0.0-14.0-0.7","SS1613176315936","","","null","","","","","<p><img src= images/blank.png width =""200"" height = ""200"" style = ""float:right""></p><p><img src=images/blank.png width =""800"" height = ""200""></p>","","","","","","","","","","","",""
"","336.0000000030268","sequential-stimulus-presentation","59","623972","0.0-14.0-1.7","SS1613176315936","trial","","40","800","1136.0000000030268","images/stimuli/spore_stims/simple_04_B_c.gif","images/stimuli/spore_stims/simple_04_A_c.gif","","","","","2","simple_similar","images/stimuli/spore_stims/simple_04_A_c.gif","right","","","","",""
"","18262.999999998952","html-keyboard-response","60","642304","0.0-15.0","SS1613176315936","pref_question","","49","","","","","<video width ='960' height = '540' style='padding-top:8%' autoplay muted><source src='images/stimuli/wall_pref.mp4' type='video/mp4'></video>","1","left","25%","2","","","","","","","",""
"","9218.999999997439","sequential-stimulus-presentation","61","652417","0.0-16.0","SS1613176315936","pref_reveal","","40","800","10018.999999997439","null","null","","","","","2","","","","novel","","","",""
"","null","html-keyboard-response","62","653415","0.0-17.0-0.0","SS1613176315936","","","null","","","","","<p><img src= images/blank.png width =""200"" height = ""200"" style = ""float:right""></p><p><img src=images/blank.png width =""800"" height = ""200""></p>","","","","","","","","","","","",""
"","7663.000000000466","sequential-stimulus-presentation","63","662104","0.0-17.0-1.0","SS1613176315936","trial","","40","800","8463.000000000466","images/stimuli/spore_stims/simple_15_A_c.gif","images/stimuli/spore_stims/simple_01_B_d.gif","","","","","3","simple_dissimilar","images/stimuli/spore_stims/simple_01_B_d.gif","left","","","","",""
"","null","html-keyboard-response","64","663216","0.0-17.0-0.1","SS1613176315936","","","null","","","","","<p><img src= images/blank.png width =""200"" height = ""200"" style = ""float:right""></p><p><img src=images/blank.png width =""800"" height = ""200""></p>","","","","","","","","","","","",""
"","4969.999999993946","sequential-stimulus-presentation","65","668996","0.0-17.0-1.1","SS1613176315936","trial","","40","800","5769.999999993946","images/stimuli/spore_stims/simple_15_A_c.gif","images/stimuli/spore_stims/simple_01_B_d.gif","","","","","3","simple_dissimilar","images/stimuli/spore_stims/simple_01_B_d.gif","left","","","","",""
"","null","html-keyboard-response","66","669803","0.0-17.0-0.2","SS1613176315936","","","null","","","","","<p><img src= images/blank.png width =""200"" height = ""200"" style = ""float:right""></p><p><img src=images/blank.png width =""800"" height = ""200""></p>","","","","","","","","","","","",""
"","448.0000000039581","sequential-stimulus-presentation","67","671071","0.0-17.0-1.2","SS1613176315936","trial","","40","800","1248.0000000039581","images/stimuli/spore_stims/simple_15_A_c.gif","images/stimuli/spore_stims/simple_01_B_d.gif","","","","","3","simple_dissimilar","images/stimuli/spore_stims/simple_01_B_d.gif","left","","","","",""
"","null","html-keyboard-response","68","672161","0.0-17.0-0.3","SS1613176315936","","","null","","","","","<p><img src= images/blank.png width =""200"" height = ""200"" style = ""float:right""></p><p><img src=images/blank.png width =""800"" height = ""200""></p>","","","","","","","","","","","",""
"","1199.0000000004657","sequential-stimulus-presentation","69","674168","0.0-17.0-1.3","SS1613176315936","trial","","40","800","1999.0000000004657","images/stimuli/spore_stims/simple_15_A_c.gif","images/stimuli/spore_stims/simple_01_B_d.gif","","","","","3","simple_dissimilar","images/stimuli/spore_stims/simple_01_B_d.gif","left","","","","",""
"","null","html-keyboard-response","70","675319","0.0-17.0-0.4","SS1613176315936","","","null","","","","","<p><img src= images/blank.png width =""200"" height = ""200"" style = ""float:right""></p><p><img src=images/blank.png width =""800"" height = ""200""></p>","","","","","","","","","","","",""
"","780.9999999953434","sequential-stimulus-presentation","71","677003","0.0-17.0-1.4","SS1613176315936","trial","","40","800","1580.9999999953434","images/stimuli/spore_stims/simple_15_A_c.gif","images/stimuli/spore_stims/simple_01_B_d.gif","","","","","3","simple_dissimilar","images/stimuli/spore_stims/simple_15_A_c.gif","right","","","","",""
"","null","html-keyboard-response","72","677935","0.0-17.0-0.5","SS1613176315936","","","null","","","","","<p><img src= images/blank.png width =""200"" height = ""200"" style = ""float:right""></p><p><img src=images/blank.png width =""800"" height = ""200""></p>","","","","","","","","","","","",""
"","6542.999999997788","sequential-stimulus-presentation","73","685289","0.0-17.0-1.5","SS1613176315936","trial","","40","800","7342.999999997788","images/stimuli/spore_stims/simple_15_A_c.gif","images/stimuli/spore_stims/simple_01_B_d.gif","","","","","3","simple_dissimilar","images/stimuli/spore_stims/simple_01_B_d.gif","left","","","","",""
"","null","html-keyboard-response","74","686563","0.0-17.0-0.6","SS1613176315936","","","null","","","","","<p><img src= images/blank.png width =""200"" height = ""200"" style = ""float:right""></p><p><img src=images/blank.png width =""800"" height = ""200""></p>","","","","","","","","","","","",""
"","161.99999999662396","sequential-stimulus-presentation","75","687541","0.0-17.0-1.6","SS1613176315936","trial","","40","800","961.999999996624","images/stimuli/spore_stims/simple_15_A_c.gif","images/stimuli/spore_stims/simple_01_B_d.gif","","","","","3","simple_dissimilar","images/stimuli/spore_stims/simple_01_B_d.gif","left","","","","",""
"","null","html-keyboard-response","76","688558","0.0-17.0-0.7","SS1613176315936","","","null","","","","","<p><img src= images/blank.png width =""200"" height = ""200"" style = ""float:right""></p><p><img src=images/blank.png width =""800"" height = ""200""></p>","","","","","","","","","","","",""
"","1067.9999999993015","sequential-stimulus-presentation","77","690451","0.0-17.0-1.7","SS1613176315936","trial","","40","800","1867.9999999993015","images/stimuli/spore_stims/simple_15_A_c.gif","images/stimuli/spore_stims/simple_01_B_d.gif","","","","","3","simple_dissimilar","images/stimuli/spore_stims/simple_01_B_d.gif","left","","","","",""
"","35.00000000349246","html-keyboard-response","78","690615","0.0-18.0","SS1613176315936","pref_question","","51","","","","","<video width ='960' height = '540' style='padding-top:8%' autoplay muted><source src='images/stimuli/wall_pref.mp4' type='video/mp4'></video>","3","right","66%","3","","","","","","","",""
"","2256.000000001164","sequential-stimulus-presentation","79","693681","0.0-19.0","SS1613176315936","pref_reveal","","40","800","3056.000000001164","null","null","","","","","3","","","","deviant","","","",""
"","null","html-keyboard-response","80","694781","0.0-20.0-0.0","SS1613176315936","","","null","","","","","<p><img src= images/blank.png width =""200"" height = ""200"" style = ""float:right""></p><p><img src=images/blank.png width =""800"" height = ""200""></p>","","","","","","","","","","","",""
"","10190.999999998836","sequential-stimulus-presentation","81","705966","0.0-20.0-1.0","SS1613176315936","trial","","40","800","10990.999999998836","images/stimuli/spore_stims/complex_16_A_a.gif","images/stimuli/spore_stims/complex_10_A_b.gif","","","","","4","complex_dissimilar","images/stimuli/spore_stims/complex_10_A_b.gif","left","","","","",""
"","null","html-keyboard-response","82","706889","0.0-20.0-0.1","SS1613176315936","","","null","","","","","<p><img src= images/blank.png width =""200"" height = ""200"" style = ""float:right""></p><p><img src=images/blank.png width =""800"" height = ""200""></p>","","","","","","","","","","","",""
"","845.0000000011642","sequential-stimulus-presentation","83","708545","0.0-20.0-1.1","SS1613176315936","trial","","40","800","1645.0000000011642","images/stimuli/spore_stims/complex_16_A_a.gif","images/stimuli/spore_stims/complex_10_A_b.gif","","","","","4","complex_dissimilar","images/stimuli/spore_stims/complex_10_A_b.gif","left","","","","",""
"","null","html-keyboard-response","84","709682","0.0-20.0-0.2","SS1613176315936","","","null","","","","","<p><img src= images/blank.png width =""200"" height = ""200"" style = ""float:right""></p><p><img src=images/blank.png width =""800"" height = ""200""></p>","","","","","","","","","","","",""
"","2370.999999999185","sequential-stimulus-presentation","85","712866","0.0-20.0-1.2","SS1613176315936","trial","","40","800","3170.999999999185","images/stimuli/spore_stims/complex_16_A_a.gif","images/stimuli/spore_stims/complex_10_A_b.gif","","","","","4","complex_dissimilar","images/stimuli/spore_stims/complex_10_A_b.gif","left","","","","",""
"","null","html-keyboard-response","86","713953","0.0-20.0-0.3","SS1613176315936","","","null","","","","","<p><img src= images/blank.png width =""200"" height = ""200"" style = ""float:right""></p><p><img src=images/blank.png width =""800"" height = ""200""></p>","","","","","","","","","","","",""
"","2241.0000000018626","sequential-stimulus-presentation","87","717252","0.0-20.0-1.3","SS1613176315936","trial","","40","800","3041.0000000018626","images/stimuli/spore_stims/complex_16_A_a.gif","images/stimuli/spore_stims/complex_10_A_b.gif","","","","","4","complex_dissimilar","images/stimuli/spore_stims/complex_16_A_a.gif","right","","","","",""
"","null","html-keyboard-response","88","718185","0.0-20.0-0.4","SS1613176315936","","","null","","","","","<p><img src= images/blank.png width =""200"" height = ""200"" style = ""float:right""></p><p><img src=images/blank.png width =""800"" height = ""200""></p>","","","","","","","","","","","",""
"","1226.0000000024447","sequential-stimulus-presentation","89","720226","0.0-20.0-1.4","SS1613176315936","trial","","40","800","2026.0000000024447","images/stimuli/spore_stims/complex_16_A_a.gif","images/stimuli/spore_stims/complex_10_A_b.gif","","","","","4","complex_dissimilar","images/stimuli/spore_stims/complex_10_A_b.gif","left","","","","",""
"","null","html-keyboard-response","90","721528","0.0-20.0-0.5","SS1613176315936","","","null","","","","","<p><img src= images/blank.png width =""200"" height = ""200"" style = ""float:right""></p><p><img src=images/blank.png width =""800"" height = ""200""></p>","","","","","","","","","","","",""
"","1326.0000000009313","sequential-stimulus-presentation","91","723666","0.0-20.0-1.5","SS1613176315936","trial","","40","800","2126.0000000009313","images/stimuli/spore_stims/complex_16_A_a.gif","images/stimuli/spore_stims/complex_10_A_b.gif","","","","","4","complex_dissimilar","images/stimuli/spore_stims/complex_10_A_b.gif","left","","","","",""
"","null","html-keyboard-response","92","724780","0.0-20.0-0.6","SS1613176315936","","","null","","","","","<p><img src= images/blank.png width =""200"" height = ""200"" style = ""float:right""></p><p><img src=images/blank.png width =""800"" height = ""200""></p>","","","","","","","","","","","",""
"","575.0000000043074","sequential-stimulus-presentation","93","726166","0.0-20.0-1.6","SS1613176315936","trial","","40","800","1375.0000000043074","images/stimuli/spore_stims/complex_16_A_a.gif","images/stimuli/spore_stims/complex_10_A_b.gif","","","","","4","complex_dissimilar","images/stimuli/spore_stims/complex_10_A_b.gif","left","","","","",""
"","null","html-keyboard-response","94","726987","0.0-20.0-0.7","SS1613176315936","","","null","","","","","<p><img src= images/blank.png width =""200"" height = ""200"" style = ""float:right""></p><p><img src=images/blank.png width =""800"" height = ""200""></p>","","","","","","","","","","","",""
"","593.0000000006985","sequential-stimulus-presentation","95","728397","0.0-20.0-1.7","SS1613176315936","trial","","40","800","1393.0000000006985","images/stimuli/spore_stims/complex_16_A_a.gif","images/stimuli/spore_stims/complex_10_A_b.gif","","","","","4","complex_dissimilar","images/stimuli/spore_stims/complex_10_A_b.gif","left","","","","",""
"","882.0000000051223","html-keyboard-response","96","729290","0.0-21.0","SS1613176315936","pref_question","","51","","","","","<video width ='960' height = '540' style='padding-top:8%' autoplay muted><source src='images/stimuli/wall_pref.mp4' type='video/mp4'></video>","3","right","66%","4","","","","","","","",""
"","625","sequential-stimulus-presentation","97","730763","0.0-22.0","SS1613176315936","pref_reveal","","40","800","1425","null","null","","","","","4","","","","deviant","","","",""
"","null","html-keyboard-response","98","731773","0.0-23.0-0.0","SS1613176315936","","","null","","","","","<p><img src= images/blank.png width =""200"" height = ""200"" style = ""float:right""></p><p><img src=images/blank.png width =""800"" height = ""200""></p>","","","","","","","","","","","",""
"","425.99999999953434","sequential-stimulus-presentation","99","733162","0.0-23.0-1.0","SS1613176315936","trial","","40","800","1225.9999999995343","images/stimuli/spore_stims/complex_03_A_a.gif","images/stimuli/spore_stims/complex_11_A_c.gif","","","","","5","complex_dissimilar","images/stimuli/spore_stims/complex_11_A_c.gif","right","","","","",""
"","null","html-keyboard-response","100","734140","0.0-23.0-0.1","SS1613176315936","","","null","","","","","<p><img src= images/blank.png width =""200"" height = ""200"" style = ""float:right""></p><p><img src=images/blank.png width =""800"" height = ""200""></p>","","","","","","","","","","","",""
"","2395.000000004191","sequential-stimulus-presentation","101","737347","0.0-23.0-1.1","SS1613176315936","trial","","40","800","3195.000000004191","images/stimuli/spore_stims/complex_03_A_a.gif","images/stimuli/spore_stims/complex_11_A_c.gif","","","","","5","complex_dissimilar","images/stimuli/spore_stims/complex_11_A_c.gif","right","","","","",""
"","null","html-keyboard-response","102","738656","0.0-23.0-0.2","SS1613176315936","","","null","","","","","<p><img src= images/blank.png width =""200"" height = ""200"" style = ""float:right""></p><p><img src=images/blank.png width =""800"" height = ""200""></p>","","","","","","","","","","","",""
"","618.9999999988358","sequential-stimulus-presentation","103","740155","0.0-23.0-1.2","SS1613176315936","trial","","40","800","1418.9999999988358","images/stimuli/spore_stims/complex_03_A_a.gif","images/stimuli/spore_stims/complex_11_A_c.gif","","","","","5","complex_dissimilar","images/stimuli/spore_stims/complex_11_A_c.gif","right","","","","",""
"","null","html-keyboard-response","104","741279","0.0-23.0-0.3","SS1613176315936","","","null","","","","","<p><img src= images/blank.png width =""200"" height = ""200"" style = ""float:right""></p><p><img src=images/blank.png width =""800"" height = ""200""></p>","","","","","","","","","","","",""
"","485.0000000005821","sequential-stimulus-presentation","105","742595","0.0-23.0-1.3","SS1613176315936","trial","","40","800","1285.000000000582","images/stimuli/spore_stims/complex_03_A_a.gif","images/stimuli/spore_stims/complex_11_A_c.gif","","","","","5","complex_dissimilar","images/stimuli/spore_stims/complex_11_A_c.gif","right","","","","",""
"","null","html-keyboard-response","106","743872","0.0-23.0-0.4","SS1613176315936","","","null","","","","","<p><img src= images/blank.png width =""200"" height = ""200"" style = ""float:right""></p><p><img src=images/blank.png width =""800"" height = ""200""></p>","","","","","","","","","","","",""
"","292.000000001397","sequential-stimulus-presentation","107","744975","0.0-23.0-1.4","SS1613176315936","trial","","40","800","1092.000000001397","images/stimuli/spore_stims/complex_03_A_a.gif","images/stimuli/spore_stims/complex_11_A_c.gif","","","","","5","complex_dissimilar","images/stimuli/spore_stims/complex_11_A_c.gif","right","","","","",""
"","null","html-keyboard-response","108","745940","0.0-23.0-0.5","SS1613176315936","","","null","","","","","<p><img src= images/blank.png width =""200"" height = ""200"" style = ""float:right""></p><p><img src=images/blank.png width =""800"" height = ""200""></p>","","","","","","","","","","","",""
"","3072.0000000001164","sequential-stimulus-presentation","109","749940","0.0-23.0-1.5","SS1613176315936","trial","","40","800","3872.0000000001164","images/stimuli/spore_stims/complex_03_A_a.gif","images/stimuli/spore_stims/complex_11_A_c.gif","","","","","5","complex_dissimilar","images/stimuli/spore_stims/complex_03_A_a.gif","middle","","","","",""
"","null","html-keyboard-response","110","751249","0.0-23.0-0.6","SS1613176315936","","","null","","","","","<p><img src= images/blank.png width =""200"" height = ""200"" style = ""float:right""></p><p><img src=images/blank.png width =""800"" height = ""200""></p>","","","","","","","","","","","",""
"","2351.9999999989523","sequential-stimulus-presentation","111","754420","0.0-23.0-1.6","SS1613176315936","trial","","40","800","3151.9999999989523","images/stimuli/spore_stims/complex_03_A_a.gif","images/stimuli/spore_stims/complex_11_A_c.gif","","","","","5","complex_dissimilar","images/stimuli/spore_stims/complex_11_A_c.gif","right","","","","",""
"","null","html-keyboard-response","112","755597","0.0-23.0-0.7","SS1613176315936","","","null","","","","","<p><img src= images/blank.png width =""200"" height = ""200"" style = ""float:right""></p><p><img src=images/blank.png width =""800"" height = ""200""></p>","","","","","","","","","","","",""
"","6118.999999998719","sequential-stimulus-presentation","113","762556","0.0-23.0-1.7","SS1613176315936","trial","","40","800","6918.999999998719","images/stimuli/spore_stims/complex_03_A_a.gif","images/stimuli/spore_stims/complex_11_A_c.gif","","","","","5","complex_dissimilar","images/stimuli/spore_stims/complex_11_A_c.gif","right","","","","",""
"","889.9999999994179","html-keyboard-response","114","763461","0.0-24.0","SS1613176315936","pref_question","","51","","","","","<video width ='960' height = '540' style='padding-top:8%' autoplay muted><source src='images/stimuli/wall_pref.mp4' type='video/mp4'></video>","3","right","66%","5","","","","","","","",""
"","718.0000000006985","sequential-stimulus-presentation","115","764990","0.0-25.0","SS1613176315936","pref_reveal","","40","800","1518.0000000006985","null","null","","","","","5","","","","background","","","",""
"","null","html-keyboard-response","116","766210","0.0-26.0-0.0","SS1613176315936","","","null","","","","","<p><img src= images/blank.png width =""200"" height = ""200"" style = ""float:right""></p><p><img src=images/blank.png width =""800"" height = ""200""></p>","","","","","","","","","","","",""
"","349.0000000020955","sequential-stimulus-presentation","117","767404","0.0-26.0-1.0","SS1613176315936","trial","","40","800","1149.0000000020955","images/stimuli/spore_stims/simple_18_B_b.gif","images/stimuli/spore_stims/simple_18_A_b.gif","","","","","6","simple_similar","images/stimuli/spore_stims/simple_18_A_b.gif","right","","","","",""
"","null","html-keyboard-response","118","768329","0.0-26.0-0.1","SS1613176315936","","","null","","","","","<p><img src= images/blank.png width =""200"" height = ""200"" style = ""float:right""></p><p><img src=images/blank.png width =""800"" height = ""200""></p>","","","","","","","","","","","",""
"","191.9999999954598","sequential-stimulus-presentation","119","769348","0.0-26.0-1.1","SS1613176315936","trial","","40","800","991.9999999954598","images/stimuli/spore_stims/simple_18_B_b.gif","images/stimuli/spore_stims/simple_18_A_b.gif","","","","","6","simple_similar","images/stimuli/spore_stims/simple_18_A_b.gif","right","","","","",""
"","null","html-keyboard-response","120","770236","0.0-26.0-0.2","SS1613176315936","","","null","","","","","<p><img src= images/blank.png width =""200"" height = ""200"" style = ""float:right""></p><p><img src=images/blank.png width =""800"" height = ""200""></p>","","","","","","","","","","","",""
"","787.9999999931315","sequential-stimulus-presentation","121","771836","0.0-26.0-1.2","SS1613176315936","trial","","40","800","1587.9999999931315","images/stimuli/spore_stims/simple_18_B_b.gif","images/stimuli/spore_stims/simple_18_A_b.gif","","","","","6","simple_similar","images/stimuli/spore_stims/simple_18_A_b.gif","right","","","","",""
"","null","html-keyboard-response","122","773078","0.0-26.0-0.3","SS1613176315936","","","null","","","","","<p><img src= images/blank.png width =""200"" height = ""200"" style = ""float:right""></p><p><img src=images/blank.png width =""800"" height = ""200""></p>","","","","","","","","","","","",""
"","432.0000000006985","sequential-stimulus-presentation","123","774349","0.0-26.0-1.3","SS1613176315936","trial","","40","800","1232.0000000006985","images/stimuli/spore_stims/simple_18_B_b.gif","images/stimuli/spore_stims/simple_18_A_b.gif","","","","","6","simple_similar","images/stimuli/spore_stims/simple_18_A_b.gif","right","","","","",""
"","null","html-keyboard-response","124","775391","0.0-26.0-0.4","SS1613176315936","","","null","","","","","<p><img src= images/blank.png width =""200"" height = ""200"" style = ""float:right""></p><p><img src=images/blank.png width =""800"" height = ""200""></p>","","","","","","","","","","","",""
"","973.0000000054715","sequential-stimulus-presentation","125","777204","0.0-26.0-1.4","SS1613176315936","trial","","40","800","1773.0000000054715","images/stimuli/spore_stims/simple_18_B_b.gif","images/stimuli/spore_stims/simple_18_A_b.gif","","","","","6","simple_similar","images/stimuli/spore_stims/simple_18_B_b.gif","middle","","","","",""
"","null","html-keyboard-response","126","778055","0.0-26.0-0.5","SS1613176315936","","","null","","","","","<p><img src= images/blank.png width =""200"" height = ""200"" style = ""float:right""></p><p><img src=images/blank.png width =""800"" height = ""200""></p>","","","","","","","","","","","",""
"","99.00000000197906","sequential-stimulus-presentation","127","778973","0.0-26.0-1.5","SS1613176315936","trial","","40","800","899.0000000019791","images/stimuli/spore_stims/simple_18_B_b.gif","images/stimuli/spore_stims/simple_18_A_b.gif","","","","","6","simple_similar","images/stimuli/spore_stims/simple_18_A_b.gif","right","","","","",""
"","null","html-keyboard-response","128","780005","0.0-26.0-0.6","SS1613176315936","","","null","","","","","<p><img src= images/blank.png width =""200"" height = ""200"" style = ""float:right""></p><p><img src=images/blank.png width =""800"" height = ""200""></p>","","","","","","","","","","","",""
"","459.9999999991851","sequential-stimulus-presentation","129","781300","0.0-26.0-1.6","SS1613176315936","trial","","40","800","1259.999999999185","images/stimuli/spore_stims/simple_18_B_b.gif","images/stimuli/spore_stims/simple_18_A_b.gif","","","","","6","simple_similar","images/stimuli/spore_stims/simple_18_A_b.gif","right","","","","",""
"","null","html-keyboard-response","130","782433","0.0-26.0-0.7","SS1613176315936","","","null","","","","","<p><img src= images/blank.png width =""200"" height = ""200"" style = ""float:right""></p><p><img src=images/blank.png width =""800"" height = ""200""></p>","","","","","","","","","","","",""
"","466.00000000046566","sequential-stimulus-presentation","131","783725","0.0-26.0-1.7","SS1613176315936","trial","","40","800","1266.0000000004657","images/stimuli/spore_stims/simple_18_B_b.gif","images/stimuli/spore_stims/simple_18_A_b.gif","","","","","6","simple_similar","images/stimuli/spore_stims/simple_18_A_b.gif","right","","","","",""
"","1021.0000000005821","html-keyboard-response","132","784756","0.0-27.0","SS1613176315936","pref_question","","51","","","","","<video width ='960' height = '540' style='padding-top:8%' autoplay muted><source src='images/stimuli/wall_pref.mp4' type='video/mp4'></video>","3","right","66%","6","","","","","","","",""
"","463.9999999998836","sequential-stimulus-presentation","133","786069","0.0-28.0","SS1613176315936","pref_reveal","","40","800","1263.9999999998836","null","null","","","","","6","","","","background","","","",""
"","null","html-keyboard-response","134","786968","0.0-29.0-0.0","SS1613176315936","","","null","","","","","<p><img src= images/blank.png width =""200"" height = ""200"" style = ""float:right""></p><p><img src=images/blank.png width =""800"" height = ""200""></p>","","","","","","","","","","","",""
"","533.0000000031432","sequential-stimulus-presentation","135","788348","0.0-29.0-1.0","SS1613176315936","trial","","40","800","1333.0000000031432","images/stimuli/spore_stims/complex_20_B_d.gif","images/stimuli/spore_stims/complex_20_A_d.gif","","","","","7","complex_similar","images/stimuli/spore_stims/complex_20_A_d.gif","left","","","","",""
"","null","html-keyboard-response","136","789619","0.0-29.0-0.1","SS1613176315936","","","null","","","","","<p><img src= images/blank.png width =""200"" height = ""200"" style = ""float:right""></p><p><img src=images/blank.png width =""800"" height = ""200""></p>","","","","","","","","","","","",""
"","161.99999999650754","sequential-stimulus-presentation","137","790596","0.0-29.0-1.1","SS1613176315936","trial","","40","800","961.9999999965075","images/stimuli/spore_stims/complex_20_B_d.gif","images/stimuli/spore_stims/complex_20_A_d.gif","","","","","7","complex_similar","images/stimuli/spore_stims/complex_20_A_d.gif","left","","","","",""
"","null","html-keyboard-response","138","791733","0.0-29.0-0.2","SS1613176315936","","","null","","","","","<p><img src= images/blank.png width =""200"" height = ""200"" style = ""float:right""></p><p><img src=images/blank.png width =""800"" height = ""200""></p>","","","","","","","","","","","",""
"","384.9999999946449","sequential-stimulus-presentation","139","792932","0.0-29.0-1.2","SS1613176315936","trial","","40","800","1184.999999994645","images/stimuli/spore_stims/complex_20_B_d.gif","images/stimuli/spore_stims/complex_20_A_d.gif","","","","","7","complex_similar","images/stimuli/spore_stims/complex_20_A_d.gif","left","","","","",""
"","null","html-keyboard-response","140","793880","0.0-29.0-0.3","SS1613176315936","","","null","","","","","<p><img src= images/blank.png width =""200"" height = ""200"" style = ""float:right""></p><p><img src=images/blank.png width =""800"" height = ""200""></p>","","","","","","","","","","","",""
"","952.000000004773","sequential-stimulus-presentation","141","795700","0.0-29.0-1.3","SS1613176315936","trial","","40","800","1752.000000004773","images/stimuli/spore_stims/complex_20_B_d.gif","images/stimuli/spore_stims/complex_20_A_d.gif","","","","","7","complex_similar","images/stimuli/spore_stims/complex_20_B_d.gif","middle","","","","",""
"","null","html-keyboard-response","142","796553","0.0-29.0-0.4","SS1613176315936","","","null","","","","","<p><img src= images/blank.png width =""200"" height = ""200"" style = ""float:right""></p><p><img src=images/blank.png width =""800"" height = ""200""></p>","","","","","","","","","","","",""
"","290.0000000008149","sequential-stimulus-presentation","143","797740","0.0-29.0-1.4","SS1613176315936","trial","","40","800","1090.000000000815","images/stimuli/spore_stims/complex_20_B_d.gif","images/stimuli/spore_stims/complex_20_A_d.gif","","","","","7","complex_similar","images/stimuli/spore_stims/complex_20_A_d.gif","left","","","","",""
"","null","html-keyboard-response","144","798737","0.0-29.0-0.5","SS1613176315936","","","null","","","","","<p><img src= images/blank.png width =""200"" height = ""200"" style = ""float:right""></p><p><img src=images/blank.png width =""800"" height = ""200""></p>","","","","","","","","","","","",""
"","128.00000000430737","sequential-stimulus-presentation","145","799686","0.0-29.0-1.5","SS1613176315936","trial","","40","800","928.0000000043074","images/stimuli/spore_stims/complex_20_B_d.gif","images/stimuli/spore_stims/complex_20_A_d.gif","","","","","7","complex_similar","images/stimuli/spore_stims/complex_20_A_d.gif","left","","","","",""
"","null","html-keyboard-response","146","800754","0.0-29.0-0.6","SS1613176315936","","","null","","","","","<p><img src= images/blank.png width =""200"" height = ""200"" style = ""float:right""></p><p><img src=images/blank.png width =""800"" height = ""200""></p>","","","","","","","","","","","",""
"","2171.999999998603","sequential-stimulus-presentation","147","803750","0.0-29.0-1.6","SS1613176315936","trial","","40","800","2971.999999998603","images/stimuli/spore_stims/complex_20_B_d.gif","images/stimuli/spore_stims/complex_20_A_d.gif","","","","","7","complex_similar","images/stimuli/spore_stims/complex_20_A_d.gif","left","","","","",""
"","null","html-keyboard-response","148","805019","0.0-29.0-0.7","SS1613176315936","","","null","","","","","<p><img src= images/blank.png width =""200"" height = ""200"" style = ""float:right""></p><p><img src=images/blank.png width =""800"" height = ""200""></p>","","","","","","","","","","","",""
"","73.99999999324791","sequential-stimulus-presentation","149","805908","0.0-29.0-1.7","SS1613176315936","trial","","40","800","873.9999999932479","images/stimuli/spore_stims/complex_20_B_d.gif","images/stimuli/spore_stims/complex_20_A_d.gif","","","","","7","complex_similar","images/stimuli/spore_stims/complex_20_A_d.gif","left","","","","",""
"","2978.000000002794","html-keyboard-response","150","808897","0.0-30.0","SS1613176315936","pref_question","","51","","","","","<video width ='960' height = '540' style='padding-top:8%' autoplay muted><source src='images/stimuli/wall_pref.mp4' type='video/mp4'></video>","3","right","66%","7","","","","","","","",""
"","537.0000000039581","sequential-stimulus-presentation","151","810301","0.0-31.0","SS1613176315936","pref_reveal","","40","800","1337.0000000039581","null","null","","","","","7","","","","novel","","","",""
"","null","html-keyboard-response","152","811224","0.0-32.0-0.0","SS1613176315936","","","null","","","","","<p><img src= images/blank.png width =""200"" height = ""200"" style = ""float:right""></p><p><img src=images/blank.png width =""800"" height = ""200""></p>","","","","","","","","","","","",""
"","269694.99999999977","sequential-stimulus-presentation","153","1081822","0.0-32.0-1.0","SS1613176315936","trial","","40","800","270494.99999999977","images/stimuli/spore_stims/simple_13_A_c.gif","images/stimuli/spore_stims/simple_13_B_c.gif","","","","","8","simple_similar","images/stimuli/spore_stims/simple_13_B_c.gif","left","","","","",""
"","null","html-keyboard-response","154","1082988","0.0-32.0-0.1","SS1613176315936","","","null","","","","","<p><img src= images/blank.png width =""200"" height = ""200"" style = ""float:right""></p><p><img src=images/blank.png width =""800"" height = ""200""></p>","","","","","","","","","","","",""
"","2539.000000004191","sequential-stimulus-presentation","155","1086350","0.0-32.0-1.1","SS1613176315936","trial","","40","800","3339.000000004191","images/stimuli/spore_stims/simple_13_A_c.gif","images/stimuli/spore_stims/simple_13_B_c.gif","","","","","8","simple_similar","images/stimuli/spore_stims/simple_13_B_c.gif","left","","","","",""
"","null","html-keyboard-response","156","1087314","0.0-32.0-0.2","SS1613176315936","","","null","","","","","<p><img src= images/blank.png width =""200"" height = ""200"" style = ""float:right""></p><p><img src=images/blank.png width =""800"" height = ""200""></p>","","","","","","","","","","","",""
"","908.9999999995343","sequential-stimulus-presentation","157","1089039","0.0-32.0-1.2","SS1613176315936","trial","","40","800","1708.9999999995343","images/stimuli/spore_stims/simple_13_A_c.gif","images/stimuli/spore_stims/simple_13_B_c.gif","","","","","8","simple_similar","images/stimuli/spore_stims/simple_13_B_c.gif","left","","","","",""
"","null","html-keyboard-response","158","1090130","0.0-32.0-0.3","SS1613176315936","","","null","","","","","<p><img src= images/blank.png width =""200"" height = ""200"" style = ""float:right""></p><p><img src=images/blank.png width =""800"" height = ""200""></p>","","","","","","","","","","","",""
"","2469.0000000046566","sequential-stimulus-presentation","159","1093412","0.0-32.0-1.3","SS1613176315936","trial","","40","800","3269.0000000046566","images/stimuli/spore_stims/simple_13_A_c.gif","images/stimuli/spore_stims/simple_13_B_c.gif","","","","","8","simple_similar","images/stimuli/spore_stims/simple_13_B_c.gif","left","","","","",""
"","null","html-keyboard-response","160","1094522","0.0-32.0-0.4","SS1613176315936","","","null","","","","","<p><img src= images/blank.png width =""200"" height = ""200"" style = ""float:right""></p><p><img src=images/blank.png width =""800"" height = ""200""></p>","","","","","","","","","","","",""
"","910.0000000034925","sequential-stimulus-presentation","161","1096247","0.0-32.0-1.4","SS1613176315936","trial","","40","800","1710.0000000034925","images/stimuli/spore_stims/simple_13_A_c.gif","images/stimuli/spore_stims/simple_13_B_c.gif","","","","","8","simple_similar","images/stimuli/spore_stims/simple_13_B_c.gif","left","","","","",""
"","null","html-keyboard-response","162","1097343","0.0-32.0-0.5","SS1613176315936","","","null","","","","","<p><img src= images/blank.png width =""200"" height = ""200"" style = ""float:right""></p><p><img src=images/blank.png width =""800"" height = ""200""></p>","","","","","","","","","","","",""
"","145.00000000419095","sequential-stimulus-presentation","163","1098359","0.0-32.0-1.5","SS1613176315936","trial","","40","800","945.000000004191","images/stimuli/spore_stims/simple_13_A_c.gif","images/stimuli/spore_stims/simple_13_B_c.gif","","","","","8","simple_similar","images/stimuli/spore_stims/simple_13_A_c.gif","middle","","","","",""
"","null","html-keyboard-response","164","1099653","0.0-32.0-0.6","SS1613176315936","","","null","","","","","<p><img src= images/blank.png width =""200"" height = ""200"" style = ""float:right""></p><p><img src=images/blank.png width =""800"" height = ""200""></p>","","","","","","","","","","","",""
"","457.999999998603","sequential-stimulus-presentation","165","1100927","0.0-32.0-1.6","SS1613176315936","trial","","40","800","1257.999999998603","images/stimuli/spore_stims/simple_13_A_c.gif","images/stimuli/spore_stims/simple_13_B_c.gif","","","","","8","simple_similar","images/stimuli/spore_stims/simple_13_B_c.gif","left","","","","",""
"","null","html-keyboard-response","166","1101840","0.0-32.0-0.7","SS1613176315936","","","null","","","","","<p><img src= images/blank.png width =""200"" height = ""200"" style = ""float:right""></p><p><img src=images/blank.png width =""800"" height = ""200""></p>","","","","","","","","","","","",""
"","470.00000000116415","sequential-stimulus-presentation","167","1103111","0.0-32.0-1.7","SS1613176315936","trial","","40","800","1270.0000000011642","images/stimuli/spore_stims/simple_13_A_c.gif","images/stimuli/spore_stims/simple_13_B_c.gif","","","","","8","simple_similar","images/stimuli/spore_stims/simple_13_B_c.gif","left","","","","",""
"","1031.9999999993015","html-keyboard-response","168","1104159","0.0-33.0","SS1613176315936","pref_question","","50","","","","","<video width ='960' height = '540' style='padding-top:8%' autoplay muted><source src='images/stimuli/wall_pref.mp4' type='video/mp4'></video>","2","middle","45%","8","","","","","","","",""
"","353.9999999993015","sequential-stimulus-presentation","169","1105344","0.0-34.0","SS1613176315936","pref_reveal","","40","800","1153.9999999993015","null","null","","","","","8","","","","deviant","","","",""
"","null","html-keyboard-response","170","1106549","0.0-35.0-0.0","SS1613176315936","","","null","","","","","<p><img src= images/blank.png width =""200"" height = ""200"" style = ""float:right""></p><p><img src=images/blank.png width =""800"" height = ""200""></p>","","","","","","","","","","","",""
"","250","sequential-stimulus-presentation","171","1107756","0.0-35.0-1.0","SS1613176315936","trial","","40","800","1050","images/stimuli/spore_stims/simple_17_A_b.gif","images/stimuli/spore_stims/simple_06_B_d.gif","","","","","9","simple_dissimilar","images/stimuli/spore_stims/simple_06_B_d.gif","left","","","","",""
"","null","html-keyboard-response","172","1109071","0.0-35.0-0.1","SS1613176315936","","","null","","","","","<p><img src= images/blank.png width =""200"" height = ""200"" style = ""float:right""></p><p><img src=images/blank.png width =""800"" height = ""200""></p>","","","","","","","","","","","",""
"","565.0000000023283","sequential-stimulus-presentation","173","1110455","0.0-35.0-1.1","SS1613176315936","trial","","40","800","1365.0000000023283","images/stimuli/spore_stims/simple_17_A_b.gif","images/stimuli/spore_stims/simple_06_B_d.gif","","","","","9","simple_dissimilar","images/stimuli/spore_stims/simple_06_B_d.gif","left","","","","",""
"","null","html-keyboard-response","174","1111643","0.0-35.0-0.2","SS1613176315936","","","null","","","","","<p><img src= images/blank.png width =""200"" height = ""200"" style = ""float:right""></p><p><img src=images/blank.png width =""800"" height = ""200""></p>","","","","","","","","","","","",""
"","207.00000000209548","sequential-stimulus-presentation","175","1112651","0.0-35.0-1.2","SS1613176315936","trial","","40","800","1007.0000000020955","images/stimuli/spore_stims/simple_17_A_b.gif","images/stimuli/spore_stims/simple_06_B_d.gif","","","","","9","simple_dissimilar","images/stimuli/spore_stims/simple_06_B_d.gif","left","","","","",""
"","null","html-keyboard-response","176","1113525","0.0-35.0-0.3","SS1613176315936","","","null","","","","","<p><img src= images/blank.png width =""200"" height = ""200"" style = ""float:right""></p><p><img src=images/blank.png width =""800"" height = ""200""></p>","","","","","","","","","","","",""
"","251.0000000037253","sequential-stimulus-presentation","177","1114593","0.0-35.0-1.3","SS1613176315936","trial","","40","800","1051.0000000037253","images/stimuli/spore_stims/simple_17_A_b.gif","images/stimuli/spore_stims/simple_06_B_d.gif","","","","","9","simple_dissimilar","images/stimuli/spore_stims/simple_06_B_d.gif","left","","","","",""
"","null","html-keyboard-response","178","1115533","0.0-35.0-0.4","SS1613176315936","","","null","","","","","<p><img src= images/blank.png width =""200"" height = ""200"" style = ""float:right""></p><p><img src=images/blank.png width =""800"" height = ""200""></p>","","","","","","","","","","","",""
"","138.00000000628643","sequential-stimulus-presentation","179","1116476","0.0-35.0-1.4","SS1613176315936","trial","","40","800","938.0000000062864","images/stimuli/spore_stims/simple_17_A_b.gif","images/stimuli/spore_stims/simple_06_B_d.gif","","","","","9","simple_dissimilar","images/stimuli/spore_stims/simple_06_B_d.gif","left","","","","",""
"","null","html-keyboard-response","180","1117661","0.0-35.0-0.5","SS1613176315936","","","null","","","","","<p><img src= images/blank.png width =""200"" height = ""200"" style = ""float:right""></p><p><img src=images/blank.png width =""800"" height = ""200""></p>","","","","","","","","","","","",""
"","42.00000000116415","sequential-stimulus-presentation","181","1118504","0.0-35.0-1.5","SS1613176315936","trial","","40","800","842.0000000011642","images/stimuli/spore_stims/simple_17_A_b.gif","images/stimuli/spore_stims/simple_06_B_d.gif","","","","","9","simple_dissimilar","images/stimuli/spore_stims/simple_06_B_d.gif","left","","","","",""
"","null","html-keyboard-response","182","1119650","0.0-35.0-0.6","SS1613176315936","","","null","","","","","<p><img src= images/blank.png width =""200"" height = ""200"" style = ""float:right""></p><p><img src=images/blank.png width =""800"" height = ""200""></p>","","","","","","","","","","","",""
"","212.99999999604188","sequential-stimulus-presentation","183","1120697","0.0-35.0-1.6","SS1613176315936","trial","","40","800","1012.9999999960419","images/stimuli/spore_stims/simple_17_A_b.gif","images/stimuli/spore_stims/simple_06_B_d.gif","","","","","9","simple_dissimilar","images/stimuli/spore_stims/simple_06_B_d.gif","left","","","","",""
"","null","html-keyboard-response","184","1121902","0.0-35.0-0.7","SS1613176315936","","","null","","","","","<p><img src= images/blank.png width =""200"" height = ""200"" style = ""float:right""></p><p><img src=images/blank.png width =""800"" height = ""200""></p>","","","","","","","","","","","",""
"","110.99999999720603","sequential-stimulus-presentation","185","1123016","0.0-35.0-1.7","SS1613176315936","trial","","40","800","910.999999997206","images/stimuli/spore_stims/simple_17_A_b.gif","images/stimuli/spore_stims/simple_06_B_d.gif","","","","","9","simple_dissimilar","images/stimuli/spore_stims/simple_17_A_b.gif","middle","","","","",""
"","771.999999997206","html-keyboard-response","186","1123803","0.0-36.0","SS1613176315936","pref_question","","51","","","","","<video width ='960' height = '540' style='padding-top:8%' autoplay muted><source src='images/stimuli/wall_pref.mp4' type='video/mp4'></video>","3","right","66%","9","","","","","","","",""
"","31.999999999301508","sequential-stimulus-presentation","187","1125148","0.0-37.0","SS1613176315936","pref_reveal","","40","800","831.9999999993015","null","null","","","","","9","","","","novel","","","",""
"","null","html-keyboard-response","188","1126319","0.0-38.0-0.0","SS1613176315936","","","null","","","","","<p><img src= images/blank.png width =""200"" height = ""200"" style = ""float:right""></p><p><img src=images/blank.png width =""800"" height = ""200""></p>","","","","","","","","","","","",""
"","151.9999999946449","sequential-stimulus-presentation","189","1127304","0.0-38.0-1.0","SS1613176315936","trial","","40","800","951.9999999946449","images/stimuli/spore_stims/complex_19_B_a.gif","images/stimuli/spore_stims/complex_19_A_a.gif","","","","","10","complex_similar","images/stimuli/spore_stims/complex_19_A_a.gif","right","","","","",""
"","null","html-keyboard-response","190","1128254","0.0-38.0-0.1","SS1613176315936","","","null","","","","","<p><img src= images/blank.png width =""200"" height = ""200"" style = ""float:right""></p><p><img src=images/blank.png width =""800"" height = ""200""></p>","","","","","","","","","","","",""
"","394.00000000023283","sequential-stimulus-presentation","191","1129448","0.0-38.0-1.1","SS1613176315936","trial","","40","800","1194.0000000002328","images/stimuli/spore_stims/complex_19_B_a.gif","images/stimuli/spore_stims/complex_19_A_a.gif","","","","","10","complex_similar","images/stimuli/spore_stims/complex_19_A_a.gif","right","","","","",""
"","null","html-keyboard-response","192","1130340","0.0-38.0-0.2","SS1613176315936","","","null","","","","","<p><img src= images/blank.png width =""200"" height = ""200"" style = ""float:right""></p><p><img src=images/blank.png width =""800"" height = ""200""></p>","","","","","","","","","","","",""
"","95.00000000116415","sequential-stimulus-presentation","193","1131240","0.0-38.0-1.2","SS1613176315936","trial","","40","800","895.0000000011642","images/stimuli/spore_stims/complex_19_B_a.gif","images/stimuli/spore_stims/complex_19_A_a.gif","","","","","10","complex_similar","images/stimuli/spore_stims/complex_19_A_a.gif","right","","","","",""
"","null","html-keyboard-response","194","1132159","0.0-38.0-0.3","SS1613176315936","","","null","","","","","<p><img src= images/blank.png width =""200"" height = ""200"" style = ""float:right""></p><p><img src=images/blank.png width =""800"" height = ""200""></p>","","","","","","","","","","","",""
"","300.00000000279397","sequential-stimulus-presentation","195","1133400","0.0-38.0-1.3","SS1613176315936","trial","","40","800","1100.000000002794","images/stimuli/spore_stims/complex_19_B_a.gif","images/stimuli/spore_stims/complex_19_A_a.gif","","","","","10","complex_similar","images/stimuli/spore_stims/complex_19_B_a.gif","left","","","","",""
"","null","html-keyboard-response","196","1134553","0.0-38.0-0.4","SS1613176315936","","","null","","","","","<p><img src= images/blank.png width =""200"" height = ""200"" style = ""float:right""></p><p><img src=images/blank.png width =""800"" height = ""200""></p>","","","","","","","","","","","",""
"","165.99999999743886","sequential-stimulus-presentation","197","1135535","0.0-38.0-1.4","SS1613176315936","trial","","40","800","965.9999999974389","images/stimuli/spore_stims/complex_19_B_a.gif","images/stimuli/spore_stims/complex_19_A_a.gif","","","","","10","complex_similar","images/stimuli/spore_stims/complex_19_A_a.gif","right","","","","",""
"","null","html-keyboard-response","198","1136757","0.0-38.0-0.5","SS1613176315936","","","null","","","","","<p><img src= images/blank.png width =""200"" height = ""200"" style = ""float:right""></p><p><img src=images/blank.png width =""800"" height = ""200""></p>","","","","","","","","","","","",""
"","74.00000000069849","sequential-stimulus-presentation","199","1137649","0.0-38.0-1.5","SS1613176315936","trial","","40","800","874.0000000006985","images/stimuli/spore_stims/complex_19_B_a.gif","images/stimuli/spore_stims/complex_19_A_a.gif","","","","","10","complex_similar","images/stimuli/spore_stims/complex_19_A_a.gif","right","","","","",""
"","null","html-keyboard-response","200","1138469","0.0-38.0-0.6","SS1613176315936","","","null","","","","","<p><img src= images/blank.png width =""200"" height = ""200"" style = ""float:right""></p><p><img src=images/blank.png width =""800"" height = ""200""></p>","","","","","","","","","","","",""
"","297.9999999953434","sequential-stimulus-presentation","201","1139609","0.0-38.0-1.6","SS1613176315936","trial","","40","800","1097.9999999953434","images/stimuli/spore_stims/complex_19_B_a.gif","images/stimuli/spore_stims/complex_19_A_a.gif","","","","","10","complex_similar","images/stimuli/spore_stims/complex_19_A_a.gif","right","","","","",""
"","null","html-keyboard-response","202","1140649","0.0-38.0-0.7","SS1613176315936","","","null","","","","","<p><img src= images/blank.png width =""200"" height = ""200"" style = ""float:right""></p><p><img src=images/blank.png width =""800"" height = ""200""></p>","","","","","","","","","","","",""
"","207.99999999860302","sequential-stimulus-presentation","203","1141699","0.0-38.0-1.7","SS1613176315936","trial","","40","800","1007.999999998603","images/stimuli/spore_stims/complex_19_B_a.gif","images/stimuli/spore_stims/complex_19_A_a.gif","","","","","10","complex_similar","images/stimuli/spore_stims/complex_19_A_a.gif","right","","","","",""
"","817.9999999993015","html-keyboard-response","204","1142533","0.0-39.0","SS1613176315936","pref_question","","50","","","","","<video width ='960' height = '540' style='padding-top:8%' autoplay muted><source src='images/stimuli/wall_pref.mp4' type='video/mp4'></video>","2","middle","45%","10","","","","","","","",""
"","216.00000000023283","sequential-stimulus-presentation","205","1143721","0.0-40.0","SS1613176315936","pref_reveal","","40","800","1016.0000000002328","null","null","","","","","10","","","","novel","","","",""
"","null","html-keyboard-response","206","1144917","0.0-41.0-0.0","SS1613176315936","","","null","","","","","<p><img src= images/blank.png width =""200"" height = ""200"" style = ""float:right""></p><p><img src=images/blank.png width =""800"" height = ""200""></p>","","","","","","","","","","","",""
"","277.00000000186265","sequential-stimulus-presentation","207","1146065","0.0-41.0-1.0","SS1613176315936","trial","","40","800","1077.0000000018626","images/stimuli/spore_stims/simple_08_A_d.gif","images/stimuli/spore_stims/simple_05_B_b.gif","","","","","11","simple_dissimilar","images/stimuli/spore_stims/simple_05_B_b.gif","left","","","","",""
"","null","html-keyboard-response","208","1147384","0.0-41.0-0.1","SS1613176315936","","","null","","","","","<p><img src= images/blank.png width =""200"" height = ""200"" style = ""float:right""></p><p><img src=images/blank.png width =""800"" height = ""200""></p>","","","","","","","","","","","",""
"","377.00000000046566","sequential-stimulus-presentation","209","1148583","0.0-41.0-1.1","SS1613176315936","trial","","40","800","1177.0000000004657","images/stimuli/spore_stims/simple_08_A_d.gif","images/stimuli/spore_stims/simple_05_B_b.gif","","","","","11","simple_dissimilar","images/stimuli/spore_stims/simple_05_B_b.gif","left","","","","",""
"","null","html-keyboard-response","210","1149905","0.0-41.0-0.2","SS1613176315936","","","null","","","","","<p><img src= images/blank.png width =""200"" height = ""200"" style = ""float:right""></p><p><img src=images/blank.png width =""800"" height = ""200""></p>","","","","","","","","","","","",""
"","133.99999999813735","sequential-stimulus-presentation","211","1150856","0.0-41.0-1.2","SS1613176315936","trial","","40","800","933.9999999981374","images/stimuli/spore_stims/simple_08_A_d.gif","images/stimuli/spore_stims/simple_05_B_b.gif","","","","","11","simple_dissimilar","images/stimuli/spore_stims/simple_05_B_b.gif","left","","","","",""
"","null","html-keyboard-response","212","1151902","0.0-41.0-0.3","SS1613176315936","","","null","","","","","<p><img src= images/blank.png width =""200"" height = ""200"" style = ""float:right""></p><p><img src=images/blank.png width =""800"" height = ""200""></p>","","","","","","","","","","","",""
"","665.9999999974389","sequential-stimulus-presentation","213","1153368","0.0-41.0-1.3","SS1613176315936","trial","","40","800","1465.9999999974389","images/stimuli/spore_stims/simple_08_A_d.gif","images/stimuli/spore_stims/simple_05_B_b.gif","","","","","11","simple_dissimilar","images/stimuli/spore_stims/simple_05_B_b.gif","left","","","","",""
"","null","html-keyboard-response","214","1154307","0.0-41.0-0.4","SS1613176315936","","","null","","","","","<p><img src= images/blank.png width =""200"" height = ""200"" style = ""float:right""></p><p><img src=images/blank.png width =""800"" height = ""200""></p>","","","","","","","","","","","",""
"","210.99999999580905","sequential-stimulus-presentation","215","1155420","0.0-41.0-1.4","SS1613176315936","trial","","40","800","1010.999999995809","images/stimuli/spore_stims/simple_08_A_d.gif","images/stimuli/spore_stims/simple_05_B_b.gif","","","","","11","simple_dissimilar","images/stimuli/spore_stims/simple_08_A_d.gif","right","","","","",""
"","null","html-keyboard-response","216","1156391","0.0-41.0-0.5","SS1613176315936","","","null","","","","","<p><img src= images/blank.png width =""200"" height = ""200"" style = ""float:right""></p><p><img src=images/blank.png width =""800"" height = ""200""></p>","","","","","","","","","","","",""
"","129.0000000006985","sequential-stimulus-presentation","217","1157337","0.0-41.0-1.5","SS1613176315936","trial","","40","800","929.0000000006985","images/stimuli/spore_stims/simple_08_A_d.gif","images/stimuli/spore_stims/simple_05_B_b.gif","","","","","11","simple_dissimilar","images/stimuli/spore_stims/simple_05_B_b.gif","left","","","","",""
"","null","html-keyboard-response","218","1158513","0.0-41.0-0.6","SS1613176315936","","","null","","","","","<p><img src= images/blank.png width =""200"" height = ""200"" style = ""float:right""></p><p><img src=images/blank.png width =""800"" height = ""200""></p>","","","","","","","","","","","",""
"","415.0000000009313","sequential-stimulus-presentation","219","1159761","0.0-41.0-1.6","SS1613176315936","trial","","40","800","1215.0000000009313","images/stimuli/spore_stims/simple_08_A_d.gif","images/stimuli/spore_stims/simple_05_B_b.gif","","","","","11","simple_dissimilar","images/stimuli/spore_stims/simple_05_B_b.gif","left","","","","",""
"","null","html-keyboard-response","220","1160975","0.0-41.0-0.7","SS1613176315936","","","null","","","","","<p><img src= images/blank.png width =""200"" height = ""200"" style = ""float:right""></p><p><img src=images/blank.png width =""800"" height = ""200""></p>","","","","","","","","","","","",""
"","340.0000000037253","sequential-stimulus-presentation","221","1162145","0.0-41.0-1.7","SS1613176315936","trial","","40","800","1140.0000000037253","images/stimuli/spore_stims/simple_08_A_d.gif","images/stimuli/spore_stims/simple_05_B_b.gif","","","","","11","simple_dissimilar","images/stimuli/spore_stims/simple_05_B_b.gif","left","","","","",""
"","1009.9999999948777","html-keyboard-response","222","1163179","0.0-42.0","SS1613176315936","pref_question","","49","","","","","<video width ='960' height = '540' style='padding-top:8%' autoplay muted><source src='images/stimuli/wall_pref.mp4' type='video/mp4'></video>","1","left","25%","11","","","","","","","",""
"","180.9999999969732","sequential-stimulus-presentation","223","1164257","0.0-43.0","SS1613176315936","pref_reveal","","40","800","980.9999999969732","null","null","","","","","11","","","","background","","","",""
"","null","html-keyboard-response","224","1165559","0.0-44.0-0.0","SS1613176315936","","","null","","","","","<p><img src= images/blank.png width =""200"" height = ""200"" style = ""float:right""></p><p><img src=images/blank.png width =""800"" height = ""200""></p>","","","","","","","","","","","",""
"","4.999999997438863","sequential-stimulus-presentation","225","1166513","0.0-44.0-1.0","SS1613176315936","trial","","40","800","804.9999999974389","images/stimuli/spore_stims/simple_09_B_a.gif","images/stimuli/spore_stims/simple_09_A_a.gif","","","","","12","simple_similar","images/stimuli/spore_stims/simple_09_A_a.gif","middle","","","","",""
"","null","html-keyboard-response","226","1167426","0.0-44.0-0.1","SS1613176315936","","","null","","","","","<p><img src= images/blank.png width =""200"" height = ""200"" style = ""float:right""></p><p><img src=images/blank.png width =""800"" height = ""200""></p>","","","","","","","","","","","",""
"","161","sequential-stimulus-presentation","227","1168417","0.0-44.0-1.1","SS1613176315936","trial","","40","800","961","images/stimuli/spore_stims/simple_09_B_a.gif","images/stimuli/spore_stims/simple_09_A_a.gif","","","","","12","simple_similar","images/stimuli/spore_stims/simple_09_A_a.gif","middle","","","","",""
"","null","html-keyboard-response","228","1169354","0.0-44.0-0.2","SS1613176315936","","","null","","","","","<p><img src= images/blank.png width =""200"" height = ""200"" style = ""float:right""></p><p><img src=images/blank.png width =""800"" height = ""200""></p>","","","","","","","","","","","",""
"","50.00000000279397","sequential-stimulus-presentation","229","1170204","0.0-44.0-1.2","SS1613176315936","trial","","40","800","850.000000002794","images/stimuli/spore_stims/simple_09_B_a.gif","images/stimuli/spore_stims/simple_09_A_a.gif","","","","","12","simple_similar","images/stimuli/spore_stims/simple_09_A_a.gif","middle","","","","",""
"","null","html-keyboard-response","230","1171344","0.0-44.0-0.3","SS1613176315936","","","null","","","","","<p><img src= images/blank.png width =""200"" height = ""200"" style = ""float:right""></p><p><img src=images/blank.png width =""800"" height = ""200""></p>","","","","","","","","","","","",""
"","96.00000000488944","sequential-stimulus-presentation","231","1172281","0.0-44.0-1.3","SS1613176315936","trial","","40","800","896.0000000048894","images/stimuli/spore_stims/simple_09_B_a.gif","images/stimuli/spore_stims/simple_09_A_a.gif","","","","","12","simple_similar","images/stimuli/spore_stims/simple_09_A_a.gif","middle","","","","",""
"","null","html-keyboard-response","232","1173216","0.0-44.0-0.4","SS1613176315936","","","null","","","","","<p><img src= images/blank.png width =""200"" height = ""200"" style = ""float:right""></p><p><img src=images/blank.png width =""800"" height = ""200""></p>","","","","","","","","","","","",""
"","340.0000000039581","sequential-stimulus-presentation","233","1174365","0.0-44.0-1.4","SS1613176315936","trial","","40","800","1140.0000000039581","images/stimuli/spore_stims/simple_09_B_a.gif","images/stimuli/spore_stims/simple_09_A_a.gif","","","","","12","simple_similar","images/stimuli/spore_stims/simple_09_A_a.gif","middle","","","","",""
"","null","html-keyboard-response","234","1175181","0.0-44.0-0.5","SS1613176315936","","","null","","","","","<p><img src= images/blank.png width =""200"" height = ""200"" style = ""float:right""></p><p><img src=images/blank.png width =""800"" height = ""200""></p>","","","","","","","","","","","",""
"","309.00000000116415","sequential-stimulus-presentation","235","1176307","0.0-44.0-1.5","SS1613176315936","trial","","40","800","1109.0000000011642","images/stimuli/spore_stims/simple_09_B_a.gif","images/stimuli/spore_stims/simple_09_A_a.gif","","","","","12","simple_similar","images/stimuli/spore_stims/simple_09_A_a.gif","middle","","","","",""
"","null","html-keyboard-response","236","1177376","0.0-44.0-0.6","SS1613176315936","","","null","","","","","<p><img src= images/blank.png width =""200"" height = ""200"" style = ""float:right""></p><p><img src=images/blank.png width =""800"" height = ""200""></p>","","","","","","","","","","","",""
"","136.00000000582077","sequential-stimulus-presentation","237","1178489","0.0-44.0-1.6","SS1613176315936","trial","","40","800","936.0000000058208","images/stimuli/spore_stims/simple_09_B_a.gif","images/stimuli/spore_stims/simple_09_A_a.gif","","","","","12","simple_similar","images/stimuli/spore_stims/simple_09_B_a.gif","left","","","","",""
"","null","html-keyboard-response","238","1179558","0.0-44.0-0.7","SS1613176315936","","","null","","","","","<p><img src= images/blank.png width =""200"" height = ""200"" style = ""float:right""></p><p><img src=images/blank.png width =""800"" height = ""200""></p>","","","","","","","","","","","",""
"","42.999999997904524","sequential-stimulus-presentation","239","1180421","0.0-44.0-1.7","SS1613176315936","trial","","40","800","842.9999999979045","images/stimuli/spore_stims/simple_09_B_a.gif","images/stimuli/spore_stims/simple_09_A_a.gif","","","","","12","simple_similar","images/stimuli/spore_stims/simple_09_A_a.gif","middle","","","","",""
"","915.0000000006985","html-keyboard-response","240","1181352","0.0-45.0","SS1613176315936","pref_question","","49","","","","","<video width ='960' height = '540' style='padding-top:8%' autoplay muted><source src='images/stimuli/wall_pref.mp4' type='video/mp4'></video>","1","left","25%","12","","","","","","","",""
"","209.99999999906868","sequential-stimulus-presentation","241","1182418","0.0-46.0","SS1613176315936","pref_reveal","","40","800","1009.9999999990687","null","null","","","","","12","","","","deviant","","","",""
"","null","html-keyboard-response","242","1183400","0.0-47.0-0.0","SS1613176315936","","","null","","","","","<p><img src= images/blank.png width =""200"" height = ""200"" style = ""float:right""></p><p><img src=images/blank.png width =""800"" height = ""200""></p>","","","","","","","","","","","",""
"","430.00000000046566","sequential-stimulus-presentation","243","1184705","0.0-47.0-1.0","SS1613176315936","trial","","40","800","1230.0000000004657","images/stimuli/spore_stims/complex_05_A_a.gif","images/stimuli/spore_stims/complex_05_B_a.gif","","","","","13","complex_similar","images/stimuli/spore_stims/complex_05_B_a.gif","right","","","","",""
"","null","html-keyboard-response","244","1185881","0.0-47.0-0.1","SS1613176315936","","","null","","","","","<p><img src= images/blank.png width =""200"" height = ""200"" style = ""float:right""></p><p><img src=images/blank.png width =""800"" height = ""200""></p>","","","","","","","","","","","",""
"","74.9999999969732","sequential-stimulus-presentation","245","1186798","0.0-47.0-1.1","SS1613176315936","trial","","40","800","874.9999999969732","images/stimuli/spore_stims/complex_05_A_a.gif","images/stimuli/spore_stims/complex_05_B_a.gif","","","","","13","complex_similar","images/stimuli/spore_stims/complex_05_B_a.gif","right","","","","",""
"","null","html-keyboard-response","246","1187788","0.0-47.0-0.2","SS1613176315936","","","null","","","","","<p><img src= images/blank.png width =""200"" height = ""200"" style = ""float:right""></p><p><img src=images/blank.png width =""800"" height = ""200""></p>","","","","","","","","","","","",""
"","178","sequential-stimulus-presentation","247","1188771","0.0-47.0-1.2","SS1613176315936","trial","","40","800","978","images/stimuli/spore_stims/complex_05_A_a.gif","images/stimuli/spore_stims/complex_05_B_a.gif","","","","","13","complex_similar","images/stimuli/spore_stims/complex_05_B_a.gif","right","","","","",""
"","null","html-keyboard-response","248","1189731","0.0-47.0-0.3","SS1613176315936","","","null","","","","","<p><img src= images/blank.png width =""200"" height = ""200"" style = ""float:right""></p><p><img src=images/blank.png width =""800"" height = ""200""></p>","","","","","","","","","","","",""
"","476.0000000023283","sequential-stimulus-presentation","249","1191025","0.0-47.0-1.3","SS1613176315936","trial","","40","800","1276.0000000023283","images/stimuli/spore_stims/complex_05_A_a.gif","images/stimuli/spore_stims/complex_05_B_a.gif","","","","","13","complex_similar","images/stimuli/spore_stims/complex_05_B_a.gif","right","","","","",""
"","null","html-keyboard-response","250","1191879","0.0-47.0-0.4","SS1613176315936","","","null","","","","","<p><img src= images/blank.png width =""200"" height = ""200"" style = ""float:right""></p><p><img src=images/blank.png width =""800"" height = ""200""></p>","","","","","","","","","","","",""
"","53.99999999650754","sequential-stimulus-presentation","251","1192886","0.0-47.0-1.4","SS1613176315936","trial","","40","800","853.9999999965075","images/stimuli/spore_stims/complex_05_A_a.gif","images/stimuli/spore_stims/complex_05_B_a.gif","","","","","13","complex_similar","images/stimuli/spore_stims/complex_05_A_a.gif","middle","","","","",""
"","null","html-keyboard-response","252","1193808","0.0-47.0-0.5","SS1613176315936","","","null","","","","","<p><img src= images/blank.png width =""200"" height = ""200"" style = ""float:right""></p><p><img src=images/blank.png width =""800"" height = ""200""></p>","","","","","","","","","","","",""
"","19.00000000023283","sequential-stimulus-presentation","253","1194668","0.0-47.0-1.5","SS1613176315936","trial","","40","800","819.0000000002328","images/stimuli/spore_stims/complex_05_A_a.gif","images/stimuli/spore_stims/complex_05_B_a.gif","","","","","13","complex_similar","images/stimuli/spore_stims/complex_05_B_a.gif","right","","","","",""
"","null","html-keyboard-response","254","1195781","0.0-47.0-0.6","SS1613176315936","","","null","","","","","<p><img src= images/blank.png width =""200"" height = ""200"" style = ""float:right""></p><p><img src=images/blank.png width =""800"" height = ""200""></p>","","","","","","","","","","","",""
"","226.0000000023283","sequential-stimulus-presentation","255","1196858","0.0-47.0-1.6","SS1613176315936","trial","","40","800","1026.0000000023283","images/stimuli/spore_stims/complex_05_A_a.gif","images/stimuli/spore_stims/complex_05_B_a.gif","","","","","13","complex_similar","images/stimuli/spore_stims/complex_05_B_a.gif","right","","","","",""
"","null","html-keyboard-response","256","1198155","0.0-47.0-0.7","SS1613176315936","","","null","","","","","<p><img src= images/blank.png width =""200"" height = ""200"" style = ""float:right""></p><p><img src=images/blank.png width =""800"" height = ""200""></p>","","","","","","","","","","","",""
"","411.99999999650754","sequential-stimulus-presentation","257","1199385","0.0-47.0-1.7","SS1613176315936","trial","","40","800","1211.9999999965075","images/stimuli/spore_stims/complex_05_A_a.gif","images/stimuli/spore_stims/complex_05_B_a.gif","","","","","13","complex_similar","images/stimuli/spore_stims/complex_05_B_a.gif","right","","","","",""
"","7819.999999999767","html-keyboard-response","258","1207214","0.0-48.0","SS1613176315936","pref_question","","49","","","","","<video width ='960' height = '540' style='padding-top:8%' autoplay muted><source src='images/stimuli/wall_pref.mp4' type='video/mp4'></video>","1","left","25%","13","","","","","","","",""
"","542.000000001397","sequential-stimulus-presentation","259","1208627","0.0-49.0","SS1613176315936","pref_reveal","","40","800","1342.000000001397","null","null","","","","","13","","","","novel","","","",""
"","null","html-keyboard-response","260","1209657","0.0-50.0-0.0","SS1613176315936","","","null","","","","","<p><img src= images/blank.png width =""200"" height = ""200"" style = ""float:right""></p><p><img src=images/blank.png width =""800"" height = ""200""></p>","","","","","","","","","","","",""
"","794.9999999981374","sequential-stimulus-presentation","261","1211498","0.0-50.0-1.0","SS1613176315936","trial","","40","800","1594.9999999981374","images/stimuli/spore_stims/complex_17_B_b.gif","images/stimuli/spore_stims/complex_17_A_b.gif","","","","","14","complex_similar","images/stimuli/spore_stims/complex_17_A_b.gif","middle","","","","",""
"","null","html-keyboard-response","262","1212568","0.0-50.0-0.1","SS1613176315936","","","null","","","","","<p><img src= images/blank.png width =""200"" height = ""200"" style = ""float:right""></p><p><img src=images/blank.png width =""800"" height = ""200""></p>","","","","","","","","","","","",""
"","91.99999999674037","sequential-stimulus-presentation","263","1213479","0.0-50.0-1.1","SS1613176315936","trial","","40","800","891.9999999967404","images/stimuli/spore_stims/complex_17_B_b.gif","images/stimuli/spore_stims/complex_17_A_b.gif","","","","","14","complex_similar","images/stimuli/spore_stims/complex_17_A_b.gif","middle","","","","",""
"","null","html-keyboard-response","264","1214496","0.0-50.0-0.2","SS1613176315936","","","null","","","","","<p><img src= images/blank.png width =""200"" height = ""200"" style = ""float:right""></p><p><img src=images/blank.png width =""800"" height = ""200""></p>","","","","","","","","","","","",""
"","77.9999999939464","sequential-stimulus-presentation","265","1215444","0.0-50.0-1.2","SS1613176315936","trial","","40","800","877.9999999939464","images/stimuli/spore_stims/complex_17_B_b.gif","images/stimuli/spore_stims/complex_17_A_b.gif","","","","","14","complex_similar","images/stimuli/spore_stims/complex_17_A_b.gif","middle","","","","",""
"","null","html-keyboard-response","266","1216409","0.0-50.0-0.3","SS1613176315936","","","null","","","","","<p><img src= images/blank.png width =""200"" height = ""200"" style = ""float:right""></p><p><img src=images/blank.png width =""800"" height = ""200""></p>","","","","","","","","","","","",""
"","413.00000000046566","sequential-stimulus-presentation","267","1217651","0.0-50.0-1.3","SS1613176315936","trial","","40","800","1213.0000000004657","images/stimuli/spore_stims/complex_17_B_b.gif","images/stimuli/spore_stims/complex_17_A_b.gif","","","","","14","complex_similar","images/stimuli/spore_stims/complex_17_A_b.gif","middle","","","","",""
"","null","html-keyboard-response","268","1218937","0.0-50.0-0.4","SS1613176315936","","","null","","","","","<p><img src= images/blank.png width =""200"" height = ""200"" style = ""float:right""></p><p><img src=images/blank.png width =""800"" height = ""200""></p>","","","","","","","","","","","",""
"","612.0000000011642","sequential-stimulus-presentation","269","1220365","0.0-50.0-1.4","SS1613176315936","trial","","40","800","1412.0000000011642","images/stimuli/spore_stims/complex_17_B_b.gif","images/stimuli/spore_stims/complex_17_A_b.gif","","","","","14","complex_similar","images/stimuli/spore_stims/complex_17_A_b.gif","middle","","","","",""
"","null","html-keyboard-response","270","1221339","0.0-50.0-0.5","SS1613176315936","","","null","","","","","<p><img src= images/blank.png width =""200"" height = ""200"" style = ""float:right""></p><p><img src=images/blank.png width =""800"" height = ""200""></p>","","","","","","","","","","","",""
"","673.0000000025611","sequential-stimulus-presentation","271","1222860","0.0-50.0-1.5","SS1613176315936","trial","","40","800","1473.0000000025611","images/stimuli/spore_stims/complex_17_B_b.gif","images/stimuli/spore_stims/complex_17_A_b.gif","","","","","14","complex_similar","images/stimuli/spore_stims/complex_17_A_b.gif","middle","","","","",""
"","null","html-keyboard-response","272","1223778","0.0-50.0-0.6","SS1613176315936","","","null","","","","","<p><img src= images/blank.png width =""200"" height = ""200"" style = ""float:right""></p><p><img src=images/blank.png width =""800"" height = ""200""></p>","","","","","","","","","","","",""
"","217.00000000419095","sequential-stimulus-presentation","273","1224851","0.0-50.0-1.6","SS1613176315936","trial","","40","800","1017.000000004191","images/stimuli/spore_stims/complex_17_B_b.gif","images/stimuli/spore_stims/complex_17_A_b.gif","","","","","14","complex_similar","images/stimuli/spore_stims/complex_17_B_b.gif","left","","","","",""
"","null","html-keyboard-response","274","1225753","0.0-50.0-0.7","SS1613176315936","","","null","","","","","<p><img src= images/blank.png width =""200"" height = ""200"" style = ""float:right""></p><p><img src=images/blank.png width =""800"" height = ""200""></p>","","","","","","","","","","","",""
"","165.99999999743886","sequential-stimulus-presentation","275","1226742","0.0-50.0-1.7","SS1613176315936","trial","","40","800","965.9999999974389","images/stimuli/spore_stims/complex_17_B_b.gif","images/stimuli/spore_stims/complex_17_A_b.gif","","","","","14","complex_similar","images/stimuli/spore_stims/complex_17_A_b.gif","middle","","","","",""
"","160.0000000037253","html-keyboard-response","276","1226965","0.0-51.0","SS1613176315936","pref_question","","50","","","","","<video width ='960' height = '540' style='padding-top:8%' autoplay muted><source src='images/stimuli/wall_pref.mp4' type='video/mp4'></video>","2","middle","45%","14","","","","","","","",""
"","478.9999999993015","sequential-stimulus-presentation","277","1228277","0.0-52.0","SS1613176315936","pref_reveal","","40","800","1278.9999999993015","null","null","","","","","14","","","","background","","","",""
"","null","html-keyboard-response","278","1229339","0.0-53.0-0.0","SS1613176315936","","","null","","","","","<p><img src= images/blank.png width =""200"" height = ""200"" style = ""float:right""></p><p><img src=images/blank.png width =""800"" height = ""200""></p>","","","","","","","","","","","",""
"","253.00000000419095","sequential-stimulus-presentation","279","1230596","0.0-53.0-1.0","SS1613176315936","trial","","40","800","1053.000000004191","images/stimuli/spore_stims/simple_10_B_a.gif","images/stimuli/spore_stims/simple_10_A_a.gif","","","","","15","simple_similar","images/stimuli/spore_stims/simple_10_A_a.gif","right","","","","",""
"","null","html-keyboard-response","280","1231883","0.0-53.0-0.1","SS1613176315936","","","null","","","","","<p><img src= images/blank.png width =""200"" height = ""200"" style = ""float:right""></p><p><img src=images/blank.png width =""800"" height = ""200""></p>","","","","","","","","","","","",""
"","470.9999999976717","sequential-stimulus-presentation","281","1233155","0.0-53.0-1.1","SS1613176315936","trial","","40","800","1270.9999999976717","images/stimuli/spore_stims/simple_10_B_a.gif","images/stimuli/spore_stims/simple_10_A_a.gif","","","","","15","simple_similar","images/stimuli/spore_stims/simple_10_A_a.gif","right","","","","",""
"","null","html-keyboard-response","282","1234300","0.0-53.0-0.2","SS1613176315936","","","null","","","","","<p><img src= images/blank.png width =""200"" height = ""200"" style = ""float:right""></p><p><img src=images/blank.png width =""800"" height = ""200""></p>","","","","","","","","","","","",""
"","934.9999999976717","sequential-stimulus-presentation","283","1236426","0.0-53.0-1.2","SS1613176315936","trial","","40","800","1734.9999999976717","images/stimuli/spore_stims/simple_10_B_a.gif","images/stimuli/spore_stims/simple_10_A_a.gif","","","","","15","simple_similar","images/stimuli/spore_stims/simple_10_B_a.gif","middle","","","","",""
"","null","html-keyboard-response","284","1237600","0.0-53.0-0.3","SS1613176315936","","","null","","","","","<p><img src= images/blank.png width =""200"" height = ""200"" style = ""float:right""></p><p><img src=images/blank.png width =""800"" height = ""200""></p>","","","","","","","","","","","",""
"","317.9999999993015","sequential-stimulus-presentation","285","1239348","0.0-53.0-1.3","SS1613176315936","trial","","40","800","1117.9999999993015","images/stimuli/spore_stims/simple_10_B_a.gif","images/stimuli/spore_stims/simple_10_A_a.gif","","","","","15","simple_similar","images/stimuli/spore_stims/simple_10_A_a.gif","right","","","","",""
"","null","html-keyboard-response","286","1240596","0.0-53.0-0.4","SS1613176315936","","","null","","","","","<p><img src= images/blank.png width =""200"" height = ""200"" style = ""float:right""></p><p><img src=images/blank.png width =""800"" height = ""200""></p>","","","","","","","","","","","",""
"","146.99999999720603","sequential-stimulus-presentation","287","1241573","0.0-53.0-1.4","SS1613176315936","trial","","40","800","946.999999997206","images/stimuli/spore_stims/simple_10_B_a.gif","images/stimuli/spore_stims/simple_10_A_a.gif","","","","","15","simple_similar","images/stimuli/spore_stims/simple_10_A_a.gif","right","","","","",""
"","null","html-keyboard-response","288","1242833","0.0-53.0-0.5","SS1613176315936","","","null","","","","","<p><img src= images/blank.png width =""200"" height = ""200"" style = ""float:right""></p><p><img src=images/blank.png width =""800"" height = ""200""></p>","","","","","","","","","","","",""
"","187.9999999946449","sequential-stimulus-presentation","289","1243840","0.0-53.0-1.5","SS1613176315936","trial","","40","800","987.9999999946449","images/stimuli/spore_stims/simple_10_B_a.gif","images/stimuli/spore_stims/simple_10_A_a.gif","","","","","15","simple_similar","images/stimuli/spore_stims/simple_10_A_a.gif","right","","","","",""
"","null","html-keyboard-response","290","1244892","0.0-53.0-0.6","SS1613176315936","","","null","","","","","<p><img src= images/blank.png width =""200"" height = ""200"" style = ""float:right""></p><p><img src=images/blank.png width =""800"" height = ""200""></p>","","","","","","","","","","","",""
"","286.99999999650754","sequential-stimulus-presentation","291","1245999","0.0-53.0-1.6","SS1613176315936","trial","","40","800","1086.9999999965075","images/stimuli/spore_stims/simple_10_B_a.gif","images/stimuli/spore_stims/simple_10_A_a.gif","","","","","15","simple_similar","images/stimuli/spore_stims/simple_10_A_a.gif","right","","","","",""
"","null","html-keyboard-response","292","1247162","0.0-53.0-0.7","SS1613176315936","","","null","","","","","<p><img src= images/blank.png width =""200"" height = ""200"" style = ""float:right""></p><p><img src=images/blank.png width =""800"" height = ""200""></p>","","","","","","","","","","","",""
"","87.99999999627471","sequential-stimulus-presentation","293","1248067","0.0-53.0-1.7","SS1613176315936","trial","","40","800","887.9999999962747","images/stimuli/spore_stims/simple_10_B_a.gif","images/stimuli/spore_stims/simple_10_A_a.gif","","","","","15","simple_similar","images/stimuli/spore_stims/simple_10_A_a.gif","right","","","","",""
"","802.9999999997672","html-keyboard-response","294","1248883","0.0-54.0","SS1613176315936","pref_question","","51","","","","","<video width ='960' height = '540' style='padding-top:8%' autoplay muted><source src='images/stimuli/wall_pref.mp4' type='video/mp4'></video>","3","right","66%","15","","","","","","","",""
"","788.999999997206","sequential-stimulus-presentation","295","1250532","0.0-55.0","SS1613176315936","pref_reveal","","40","800","1588.999999997206","null","null","","","","","15","","","","background","","","",""
"","null","html-keyboard-response","296","1251721","0.0-56.0-0.0","SS1613176315936","","","null","","","","","<p><img src= images/blank.png width =""200"" height = ""200"" style = ""float:right""></p><p><img src=images/blank.png width =""800"" height = ""200""></p>","","","","","","","","","","","",""
"","212.0000000067521","sequential-stimulus-presentation","297","1252851","0.0-56.0-1.0","SS1613176315936","trial","","40","800","1012.0000000067521","images/stimuli/spore_stims/simple_17_B_a.gif","images/stimuli/spore_stims/simple_12_A_c.gif","","","","","16","simple_dissimilar","images/stimuli/spore_stims/simple_12_A_c.gif","left","","","","",""
"","null","html-keyboard-response","298","1254121","0.0-56.0-0.1","SS1613176315936","","","null","","","","","<p><img src= images/blank.png width =""200"" height = ""200"" style = ""float:right""></p><p><img src=images/blank.png width =""800"" height = ""200""></p>","","","","","","","","","","","",""
"","50.99999999953434","sequential-stimulus-presentation","299","1254991","0.0-56.0-1.1","SS1613176315936","trial","","40","800","850.9999999995343","images/stimuli/spore_stims/simple_17_B_a.gif","images/stimuli/spore_stims/simple_12_A_c.gif","","","","","16","simple_dissimilar","images/stimuli/spore_stims/simple_12_A_c.gif","left","","","","",""
"","null","html-keyboard-response","300","1255830","0.0-56.0-0.2","SS1613176315936","","","null","","","","","<p><img src= images/blank.png width =""200"" height = ""200"" style = ""float:right""></p><p><img src=images/blank.png width =""800"" height = ""200""></p>","","","","","","","","","","","",""
"","110.00000000069849","sequential-stimulus-presentation","301","1256757","0.0-56.0-1.2","SS1613176315936","trial","","40","800","910.0000000006985","images/stimuli/spore_stims/simple_17_B_a.gif","images/stimuli/spore_stims/simple_12_A_c.gif","","","","","16","simple_dissimilar","images/stimuli/spore_stims/simple_12_A_c.gif","left","","","","",""
"","null","html-keyboard-response","302","1257660","0.0-56.0-0.3","SS1613176315936","","","null","","","","","<p><img src= images/blank.png width =""200"" height = ""200"" style = ""float:right""></p><p><img src=images/blank.png width =""800"" height = ""200""></p>","","","","","","","","","","","",""
"","124.00000000325963","sequential-stimulus-presentation","303","1258609","0.0-56.0-1.3","SS1613176315936","trial","","40","800","924.0000000032596","images/stimuli/spore_stims/simple_17_B_a.gif","images/stimuli/spore_stims/simple_12_A_c.gif","","","","","16","simple_dissimilar","images/stimuli/spore_stims/simple_12_A_c.gif","left","","","","",""
"","null","html-keyboard-response","304","1259591","0.0-56.0-0.4","SS1613176315936","","","null","","","","","<p><img src= images/blank.png width =""200"" height = ""200"" style = ""float:right""></p><p><img src=images/blank.png width =""800"" height = ""200""></p>","","","","","","","","","","","",""
"","455.99999999813735","sequential-stimulus-presentation","305","1260988","0.0-56.0-1.4","SS1613176315936","trial","","40","800","1255.9999999981374","images/stimuli/spore_stims/simple_17_B_a.gif","images/stimuli/spore_stims/simple_12_A_c.gif","","","","","16","simple_dissimilar","images/stimuli/spore_stims/simple_17_B_a.gif","right","","","","",""
"","null","html-keyboard-response","306","1262210","0.0-56.0-0.5","SS1613176315936","","","null","","","","","<p><img src= images/blank.png width =""200"" height = ""200"" style = ""float:right""></p><p><img src=images/blank.png width =""800"" height = ""200""></p>","","","","","","","","","","","",""
"","351.99999999883585","sequential-stimulus-presentation","307","1263407","0.0-56.0-1.5","SS1613176315936","trial","","40","800","1151.9999999988358","images/stimuli/spore_stims/simple_17_B_a.gif","images/stimuli/spore_stims/simple_12_A_c.gif","","","","","16","simple_dissimilar","images/stimuli/spore_stims/simple_12_A_c.gif","left","","","","",""
"","null","html-keyboard-response","308","1264501","0.0-56.0-0.6","SS1613176315936","","","null","","","","","<p><img src= images/blank.png width =""200"" height = ""200"" style = ""float:right""></p><p><img src=images/blank.png width =""800"" height = ""200""></p>","","","","","","","","","","","",""
"","93.99999999720603","sequential-stimulus-presentation","309","1265411","0.0-56.0-1.6","SS1613176315936","trial","","40","800","893.999999997206","images/stimuli/spore_stims/simple_17_B_a.gif","images/stimuli/spore_stims/simple_12_A_c.gif","","","","","16","simple_dissimilar","images/stimuli/spore_stims/simple_12_A_c.gif","left","","","","",""
"","null","html-keyboard-response","310","1266633","0.0-56.0-0.7","SS1613176315936","","","null","","","","","<p><img src= images/blank.png width =""200"" height = ""200"" style = ""float:right""></p><p><img src=images/blank.png width =""800"" height = ""200""></p>","","","","","","","","","","","",""
"","934.9999999976717","sequential-stimulus-presentation","311","1268388","0.0-56.0-1.7","SS1613176315936","trial","","40","800","1734.9999999976717","images/stimuli/spore_stims/simple_17_B_a.gif","images/stimuli/spore_stims/simple_12_A_c.gif","","","","","16","simple_dissimilar","images/stimuli/spore_stims/simple_12_A_c.gif","left","","","","",""
"","1853.9999999993015","html-keyboard-response","312","1270252","0.0-57.0","SS1613176315936","pref_question","","51","","","","","<video width ='960' height = '540' style='padding-top:8%' autoplay muted><source src='images/stimuli/wall_pref.mp4' type='video/mp4'></video>","3","right","66%","16","","","","","","","",""
