"view_history","rt","trial_type","trial_index","time_elapsed","internal_node_id","subject","stimulus_type","trial_stimulus","key_press","minimum_viewing_duration","trial_looking_time","block_deviant","block_background","stimulus","wall_pref","location","location_percent","block_number","block_type","stimulus_displayed","position_displayed","stim_type_selected","responses","question_order","stimulus_left","stimulus_right"
"[{""page_index"":0,""viewing_time"":12455.970000009984}]","12457.249999977648","instructions","0","12461","0.0-0.0","SS1613082123346","","","","","","","","","","","","","","","","","","","",""
"[{""page_index"":0,""viewing_time"":10667.055000085384},{""page_index"":1,""viewing_time"":20733.259999891743}]","31400.804999982938","instructions","1","45867","0.0-1.0","SS1613082123346","instructions","","","","","","","","","","","","","","","","","","",""
"","12510.709999827668","sequential-stimulus-presentation","2","59246","0.0-2.0","SS1613082123346","","","40","800","13310.709999827668","null","null","","","","","","","","","","","","",""
"","19511.62500004284","sequential-stimulus-presentation","3","79566","0.0-3.0","SS1613082123346","","","40","800","20311.62500004284","null","null","","","","","","","","","","","","",""
"[{""page_index"":0,""viewing_time"":4392.334999982268}]","4392.920000012964","instructions","4","83961","0.0-4.0","SS1613082123346","instructions","","","","","","","","","","","","","","","","","","",""
"","14131.550000049174","html-keyboard-response","5","98101","0.0-5.0","SS1613082123346","instructions","","98","","","","","<video width ='960' height = '540' autoplay muted><source src='images/stimuli/wall_pref.mp4' type='video/mp4'></video>","2","middle","45%","","","","","","","","",""
"","2301.3949999585748","sequential-stimulus-presentation","6","101219","0.0-6.0","SS1613082123346","pref_reveal","","40","800","3101.3949999585748","null","null","","","","","","","","","","","","",""
"[{""page_index"":0,""viewing_time"":49674.88500010222},{""page_index"":1,""viewing_time"":6697.464999975637},{""page_index"":2,""viewing_time"":4451.815000036731},{""page_index"":3,""viewing_time"":1517.9699999280274}]","62342.76999998838","instructions","7","163565","0.0-7.0","SS1613082123346","instructions","","","","","","","","","","","","","","","","","","",""
"","null","html-keyboard-response","8","164497","0.0-8.0-0.0","SS1613082123346","","","null","","","","","<p><img src= images/blank.png width =""200"" height = ""200"" style = ""float:right""></p><p><img src=images/blank.png width =""800"" height = ""200""></p>","","","","","","","","","","","",""
"","1930.2449999377131","sequential-stimulus-presentation","9","167243","0.0-8.0-1.0","SS1613082123346","trial","","40","800","2730.244999937713","images/stimuli/spore_stims/simple_13_B_d.gif","images/stimuli/spore_stims/simple_13_A_d.gif","","","","","0","simple_similar","images/stimuli/spore_stims/simple_13_A_d.gif","middle","","","","",""
"","null","html-keyboard-response","10","168415","0.0-8.0-0.1","SS1613082123346","","","null","","","","","<p><img src= images/blank.png width =""200"" height = ""200"" style = ""float:right""></p><p><img src=images/blank.png width =""800"" height = ""200""></p>","","","","","","","","","","","",""
"","2554.7899999655783","sequential-stimulus-presentation","11","171779","0.0-8.0-1.1","SS1613082123346","trial","","40","800","3354.7899999655783","images/stimuli/spore_stims/simple_13_B_d.gif","images/stimuli/spore_stims/simple_13_A_d.gif","","","","","0","simple_similar","images/stimuli/spore_stims/simple_13_A_d.gif","middle","","","","",""
"","null","html-keyboard-response","12","173090","0.0-8.0-0.2","SS1613082123346","","","null","","","","","<p><img src= images/blank.png width =""200"" height = ""200"" style = ""float:right""></p><p><img src=images/blank.png width =""800"" height = ""200""></p>","","","","","","","","","","","",""
"","5639.399999985471","sequential-stimulus-presentation","13","179540","0.0-8.0-1.2","SS1613082123346","trial","","40","800","6439.399999985471","images/stimuli/spore_stims/simple_13_B_d.gif","images/stimuli/spore_stims/simple_13_A_d.gif","","","","","0","simple_similar","images/stimuli/spore_stims/simple_13_B_d.gif","left","","","","",""
"","null","html-keyboard-response","14","180801","0.0-8.0-0.3","SS1613082123346","","","null","","","","","<p><img src= images/blank.png width =""200"" height = ""200"" style = ""float:right""></p><p><img src=images/blank.png width =""800"" height = ""200""></p>","","","","","","","","","","","",""
"","5559.6300000324845","sequential-stimulus-presentation","15","187173","0.0-8.0-1.3","SS1613082123346","trial","","40","800","6359.6300000324845","images/stimuli/spore_stims/simple_13_B_d.gif","images/stimuli/spore_stims/simple_13_A_d.gif","","","","","0","simple_similar","images/stimuli/spore_stims/simple_13_A_d.gif","middle","","","","",""
"","null","html-keyboard-response","16","187988","0.0-8.0-0.4","SS1613082123346","","","null","","","","","<p><img src= images/blank.png width =""200"" height = ""200"" style = ""float:right""></p><p><img src=images/blank.png width =""800"" height = ""200""></p>","","","","","","","","","","","",""
"","3316.2249999586493","sequential-stimulus-presentation","17","192114","0.0-8.0-1.4","SS1613082123346","trial","","40","800","4116.224999958649","images/stimuli/spore_stims/simple_13_B_d.gif","images/stimuli/spore_stims/simple_13_A_d.gif","","","","","0","simple_similar","images/stimuli/spore_stims/simple_13_A_d.gif","middle","","","","",""
"","null","html-keyboard-response","18","193043","0.0-8.0-0.5","SS1613082123346","","","null","","","","","<p><img src= images/blank.png width =""200"" height = ""200"" style = ""float:right""></p><p><img src=images/blank.png width =""800"" height = ""200""></p>","","","","","","","","","","","",""
"","1842.1849999576807","sequential-stimulus-presentation","19","195692","0.0-8.0-1.5","SS1613082123346","trial","","40","800","2642.1849999576807","images/stimuli/spore_stims/simple_13_B_d.gif","images/stimuli/spore_stims/simple_13_A_d.gif","","","","","0","simple_similar","images/stimuli/spore_stims/simple_13_A_d.gif","middle","","","","",""
"","null","html-keyboard-response","20","196567","0.0-8.0-0.6","SS1613082123346","","","null","","","","","<p><img src= images/blank.png width =""200"" height = ""200"" style = ""float:right""></p><p><img src=images/blank.png width =""800"" height = ""200""></p>","","","","","","","","","","","",""
"","3715.139999985695","sequential-stimulus-presentation","21","201099","0.0-8.0-1.6","SS1613082123346","trial","","40","800","4515.139999985695","images/stimuli/spore_stims/simple_13_B_d.gif","images/stimuli/spore_stims/simple_13_A_d.gif","","","","","0","simple_similar","images/stimuli/spore_stims/simple_13_A_d.gif","middle","","","","",""
"","null","html-keyboard-response","22","202161","0.0-8.0-0.7","SS1613082123346","","","null","","","","","<p><img src= images/blank.png width =""200"" height = ""200"" style = ""float:right""></p><p><img src=images/blank.png width =""800"" height = ""200""></p>","","","","","","","","","","","",""
"","1460.7900001574308","sequential-stimulus-presentation","23","204427","0.0-8.0-1.7","SS1613082123346","trial","","40","800","2260.7900001574308","images/stimuli/spore_stims/simple_13_B_d.gif","images/stimuli/spore_stims/simple_13_A_d.gif","","","","","0","simple_similar","images/stimuli/spore_stims/simple_13_A_d.gif","middle","","","","",""
"","1900.4050001967698","html-keyboard-response","24","206332","0.0-9.0","SS1613082123346","pref_question","","98","","","","","<video width ='960' height = '540' style='padding-top:8%' autoplay muted><source src='images/stimuli/wall_pref.mp4' type='video/mp4'></video>","2","middle","45%","0","","","","","","","",""
"","2931.9649999961257","sequential-stimulus-presentation","25","210076","0.0-10.0","SS1613082123346","pref_reveal","","40","800","3731.9649999961257","null","null","","","","","0","","","","background","","","",""
"","null","html-keyboard-response","26","211113","0.0-11.0-0.0","SS1613082123346","","","null","","","","","<p><img src= images/blank.png width =""200"" height = ""200"" style = ""float:right""></p><p><img src=images/blank.png width =""800"" height = ""200""></p>","","","","","","","","","","","",""
"","9215.439999941736","sequential-stimulus-presentation","27","221140","0.0-11.0-1.0","SS1613082123346","trial","","40","800","10015.439999941736","images/stimuli/spore_stims/complex_14_B_d.gif","images/stimuli/spore_stims/complex_14_A_d.gif","","","","","1","complex_similar","images/stimuli/spore_stims/complex_14_A_d.gif","left","","","","",""
"","null","html-keyboard-response","28","222313","0.0-11.0-0.1","SS1613082123346","","","null","","","","","<p><img src= images/blank.png width =""200"" height = ""200"" style = ""float:right""></p><p><img src=images/blank.png width =""800"" height = ""200""></p>","","","","","","","","","","","",""
"","2422.560000093654","sequential-stimulus-presentation","29","225550","0.0-11.0-1.1","SS1613082123346","trial","","40","800","3222.560000093654","images/stimuli/spore_stims/complex_14_B_d.gif","images/stimuli/spore_stims/complex_14_A_d.gif","","","","","1","complex_similar","images/stimuli/spore_stims/complex_14_A_d.gif","left","","","","",""
"","null","html-keyboard-response","30","226618","0.0-11.0-0.2","SS1613082123346","","","null","","","","","<p><img src= images/blank.png width =""200"" height = ""200"" style = ""float:right""></p><p><img src=images/blank.png width =""800"" height = ""200""></p>","","","","","","","","","","","",""
"","1154.850000049919","sequential-stimulus-presentation","31","228579","0.0-11.0-1.2","SS1613082123346","trial","","40","800","1954.850000049919","images/stimuli/spore_stims/complex_14_B_d.gif","images/stimuli/spore_stims/complex_14_A_d.gif","","","","","1","complex_similar","images/stimuli/spore_stims/complex_14_A_d.gif","left","","","","",""
"","null","html-keyboard-response","32","229671","0.0-11.0-0.3","SS1613082123346","","","null","","","","","<p><img src= images/blank.png width =""200"" height = ""200"" style = ""float:right""></p><p><img src=images/blank.png width =""800"" height = ""200""></p>","","","","","","","","","","","",""
"","2337.7000000327826","sequential-stimulus-presentation","33","232819","0.0-11.0-1.3","SS1613082123346","trial","","40","800","3137.7000000327826","images/stimuli/spore_stims/complex_14_B_d.gif","images/stimuli/spore_stims/complex_14_A_d.gif","","","","","1","complex_similar","images/stimuli/spore_stims/complex_14_A_d.gif","left","","","","",""
"","null","html-keyboard-response","34","233878","0.0-11.0-0.4","SS1613082123346","","","null","","","","","<p><img src= images/blank.png width =""200"" height = ""200"" style = ""float:right""></p><p><img src=images/blank.png width =""800"" height = ""200""></p>","","","","","","","","","","","",""
"","2574.555000057444","sequential-stimulus-presentation","35","237261","0.0-11.0-1.4","SS1613082123346","trial","","40","800","3374.555000057444","images/stimuli/spore_stims/complex_14_B_d.gif","images/stimuli/spore_stims/complex_14_A_d.gif","","","","","1","complex_similar","images/stimuli/spore_stims/complex_14_A_d.gif","left","","","","",""
"","null","html-keyboard-response","36","238102","0.0-11.0-0.5","SS1613082123346","","","null","","","","","<p><img src= images/blank.png width =""200"" height = ""200"" style = ""float:right""></p><p><img src=images/blank.png width =""800"" height = ""200""></p>","","","","","","","","","","","",""
"","2450.765000190586","sequential-stimulus-presentation","37","241364","0.0-11.0-1.5","SS1613082123346","trial","","40","800","3250.765000190586","images/stimuli/spore_stims/complex_14_B_d.gif","images/stimuli/spore_stims/complex_14_A_d.gif","","","","","1","complex_similar","images/stimuli/spore_stims/complex_14_A_d.gif","left","","","","",""
"","null","html-keyboard-response","38","242377","0.0-11.0-0.6","SS1613082123346","","","null","","","","","<p><img src= images/blank.png width =""200"" height = ""200"" style = ""float:right""></p><p><img src=images/blank.png width =""800"" height = ""200""></p>","","","","","","","","","","","",""
"","8028.704999946058","sequential-stimulus-presentation","39","251221","0.0-11.0-1.6","SS1613082123346","trial","","40","800","8828.704999946058","images/stimuli/spore_stims/complex_14_B_d.gif","images/stimuli/spore_stims/complex_14_A_d.gif","","","","","1","complex_similar","images/stimuli/spore_stims/complex_14_B_d.gif","right","","","","",""
"","null","html-keyboard-response","40","252300","0.0-11.0-0.7","SS1613082123346","","","null","","","","","<p><img src= images/blank.png width =""200"" height = ""200"" style = ""float:right""></p><p><img src=images/blank.png width =""800"" height = ""200""></p>","","","","","","","","","","","",""
"","3444.5099998265505","sequential-stimulus-presentation","41","256555","0.0-11.0-1.7","SS1613082123346","trial","","40","800","4244.5099998265505","images/stimuli/spore_stims/complex_14_B_d.gif","images/stimuli/spore_stims/complex_14_A_d.gif","","","","","1","complex_similar","images/stimuli/spore_stims/complex_14_A_d.gif","left","","","","",""
"","1750.9849998168647","html-keyboard-response","42","258315","0.0-12.0","SS1613082123346","pref_question","","97","","","","","<video width ='960' height = '540' style='padding-top:8%' autoplay muted><source src='images/stimuli/wall_pref.mp4' type='video/mp4'></video>","1","left","25%","1","","","","","","","",""
"","837.9500000737607","sequential-stimulus-presentation","43","259963","0.0-13.0","SS1613082123346","pref_reveal","","40","800","1637.9500000737607","null","null","","","","","1","","","","background","","","",""
"","null","html-keyboard-response","44","260794","0.0-14.0-0.0","SS1613082123346","","","null","","","","","<p><img src= images/blank.png width =""200"" height = ""200"" style = ""float:right""></p><p><img src=images/blank.png width =""800"" height = ""200""></p>","","","","","","","","","","","",""
"","4062.5899999868125","sequential-stimulus-presentation","45","265700","0.0-14.0-1.0","SS1613082123346","trial","","40","800","4862.5899999868125","images/stimuli/spore_stims/complex_04_B_a.gif","images/stimuli/spore_stims/complex_04_A_b.gif","","","","","2","complex_dissimilar","images/stimuli/spore_stims/complex_04_A_b.gif","right","","","","",""
"","null","html-keyboard-response","46","266643","0.0-14.0-0.1","SS1613082123346","","","null","","","","","<p><img src= images/blank.png width =""200"" height = ""200"" style = ""float:right""></p><p><img src=images/blank.png width =""800"" height = ""200""></p>","","","","","","","","","","","",""
"","3765.085000079125","sequential-stimulus-presentation","47","271220","0.0-14.0-1.1","SS1613082123346","trial","","40","800","4565.085000079125","images/stimuli/spore_stims/complex_04_B_a.gif","images/stimuli/spore_stims/complex_04_A_b.gif","","","","","2","complex_dissimilar","images/stimuli/spore_stims/complex_04_A_b.gif","right","","","","",""
"","null","html-keyboard-response","48","272284","0.0-14.0-0.2","SS1613082123346","","","null","","","","","<p><img src= images/blank.png width =""200"" height = ""200"" style = ""float:right""></p><p><img src=images/blank.png width =""800"" height = ""200""></p>","","","","","","","","","","","",""
"","5175.649999873713","sequential-stimulus-presentation","49","278270","0.0-14.0-1.2","SS1613082123346","trial","","40","800","5975.649999873713","images/stimuli/spore_stims/complex_04_B_a.gif","images/stimuli/spore_stims/complex_04_A_b.gif","","","","","2","complex_dissimilar","images/stimuli/spore_stims/complex_04_A_b.gif","right","","","","",""
"","null","html-keyboard-response","50","279480","0.0-14.0-0.3","SS1613082123346","","","null","","","","","<p><img src= images/blank.png width =""200"" height = ""200"" style = ""float:right""></p><p><img src=images/blank.png width =""800"" height = ""200""></p>","","","","","","","","","","","",""
"","1000.5000000819564","sequential-stimulus-presentation","51","281292","0.0-14.0-1.3","SS1613082123346","trial","","40","800","1800.5000000819564","images/stimuli/spore_stims/complex_04_B_a.gif","images/stimuli/spore_stims/complex_04_A_b.gif","","","","","2","complex_dissimilar","images/stimuli/spore_stims/complex_04_A_b.gif","right","","","","",""
"","null","html-keyboard-response","52","282293","0.0-14.0-0.4","SS1613082123346","","","null","","","","","<p><img src= images/blank.png width =""200"" height = ""200"" style = ""float:right""></p><p><img src=images/blank.png width =""800"" height = ""200""></p>","","","","","","","","","","","",""
"","4051.865000044927","sequential-stimulus-presentation","53","287156","0.0-14.0-1.4","SS1613082123346","trial","","40","800","4851.865000044927","images/stimuli/spore_stims/complex_04_B_a.gif","images/stimuli/spore_stims/complex_04_A_b.gif","","","","","2","complex_dissimilar","images/stimuli/spore_stims/complex_04_B_a.gif","left","","","","",""
"","null","html-keyboard-response","54","288180","0.0-14.0-0.5","SS1613082123346","","","null","","","","","<p><img src= images/blank.png width =""200"" height = ""200"" style = ""float:right""></p><p><img src=images/blank.png width =""800"" height = ""200""></p>","","","","","","","","","","","",""
"","1612.9149999469519","sequential-stimulus-presentation","55","290604","0.0-14.0-1.5","SS1613082123346","trial","","40","800","2412.914999946952","images/stimuli/spore_stims/complex_04_B_a.gif","images/stimuli/spore_stims/complex_04_A_b.gif","","","","","2","complex_dissimilar","images/stimuli/spore_stims/complex_04_A_b.gif","right","","","","",""
"","null","html-keyboard-response","56","291727","0.0-14.0-0.6","SS1613082123346","","","null","","","","","<p><img src= images/blank.png width =""200"" height = ""200"" style = ""float:right""></p><p><img src=images/blank.png width =""800"" height = ""200""></p>","","","","","","","","","","","",""
"","2688.8850000686944","sequential-stimulus-presentation","57","295229","0.0-14.0-1.6","SS1613082123346","trial","","40","800","3488.8850000686944","images/stimuli/spore_stims/complex_04_B_a.gif","images/stimuli/spore_stims/complex_04_A_b.gif","","","","","2","complex_dissimilar","images/stimuli/spore_stims/complex_04_A_b.gif","right","","","","",""
"","null","html-keyboard-response","58","296240","0.0-14.0-0.7","SS1613082123346","","","null","","","","","<p><img src= images/blank.png width =""200"" height = ""200"" style = ""float:right""></p><p><img src=images/blank.png width =""800"" height = ""200""></p>","","","","","","","","","","","",""
"","4457.200000062585","sequential-stimulus-presentation","59","301509","0.0-14.0-1.7","SS1613082123346","trial","","40","800","5257.200000062585","images/stimuli/spore_stims/complex_04_B_a.gif","images/stimuli/spore_stims/complex_04_A_b.gif","","","","","2","complex_dissimilar","images/stimuli/spore_stims/complex_04_A_b.gif","right","","","","",""
"","2414.809999987483","html-keyboard-response","60","303932","0.0-15.0","SS1613082123346","pref_question","","99","","","","","<video width ='960' height = '540' style='padding-top:8%' autoplay muted><source src='images/stimuli/wall_pref.mp4' type='video/mp4'></video>","3","right","66%","2","","","","","","","",""
"","3124.945000046864","sequential-stimulus-presentation","61","307868","0.0-16.0","SS1613082123346","pref_reveal","","40","800","3924.945000046864","null","null","","","","","2","","","","background","","","",""
"","null","html-keyboard-response","62","309109","0.0-17.0-0.0","SS1613082123346","","","null","","","","","<p><img src= images/blank.png width =""200"" height = ""200"" style = ""float:right""></p><p><img src=images/blank.png width =""800"" height = ""200""></p>","","","","","","","","","","","",""
"","7547.834999859333","sequential-stimulus-presentation","63","317471","0.0-17.0-1.0","SS1613082123346","trial","","40","800","8347.834999859333","images/stimuli/spore_stims/complex_09_B_b.gif","images/stimuli/spore_stims/complex_09_A_b.gif","","","","","3","complex_similar","images/stimuli/spore_stims/complex_09_A_b.gif","left","","","","",""
"","null","html-keyboard-response","64","318693","0.0-17.0-0.1","SS1613082123346","","","null","","","","","<p><img src= images/blank.png width =""200"" height = ""200"" style = ""float:right""></p><p><img src=images/blank.png width =""800"" height = ""200""></p>","","","","","","","","","","","",""
"","2203.154999995604","sequential-stimulus-presentation","65","321708","0.0-17.0-1.1","SS1613082123346","trial","","40","800","3003.154999995604","images/stimuli/spore_stims/complex_09_B_b.gif","images/stimuli/spore_stims/complex_09_A_b.gif","","","","","3","complex_similar","images/stimuli/spore_stims/complex_09_A_b.gif","left","","","","",""
"","null","html-keyboard-response","66","322964","0.0-17.0-0.2","SS1613082123346","","","null","","","","","<p><img src= images/blank.png width =""200"" height = ""200"" style = ""float:right""></p><p><img src=images/blank.png width =""800"" height = ""200""></p>","","","","","","","","","","","",""
"","3082.865000003949","sequential-stimulus-presentation","67","326861","0.0-17.0-1.2","SS1613082123346","trial","","40","800","3882.865000003949","images/stimuli/spore_stims/complex_09_B_b.gif","images/stimuli/spore_stims/complex_09_A_b.gif","","","","","3","complex_similar","images/stimuli/spore_stims/complex_09_A_b.gif","left","","","","",""
"","null","html-keyboard-response","68","327733","0.0-17.0-0.3","SS1613082123346","","","null","","","","","<p><img src= images/blank.png width =""200"" height = ""200"" style = ""float:right""></p><p><img src=images/blank.png width =""800"" height = ""200""></p>","","","","","","","","","","","",""
"","1900.9300000034273","sequential-stimulus-presentation","69","330446","0.0-17.0-1.3","SS1613082123346","trial","","40","800","2700.9300000034273","images/stimuli/spore_stims/complex_09_B_b.gif","images/stimuli/spore_stims/complex_09_A_b.gif","","","","","3","complex_similar","images/stimuli/spore_stims/complex_09_A_b.gif","left","","","","",""
"","null","html-keyboard-response","70","331480","0.0-17.0-0.4","SS1613082123346","","","null","","","","","<p><img src= images/blank.png width =""200"" height = ""200"" style = ""float:right""></p><p><img src=images/blank.png width =""800"" height = ""200""></p>","","","","","","","","","","","",""
"","2949.6549998875707","sequential-stimulus-presentation","71","335244","0.0-17.0-1.4","SS1613082123346","trial","","40","800","3749.6549998875707","images/stimuli/spore_stims/complex_09_B_b.gif","images/stimuli/spore_stims/complex_09_A_b.gif","","","","","3","complex_similar","images/stimuli/spore_stims/complex_09_A_b.gif","left","","","","",""
"","null","html-keyboard-response","72","336299","0.0-17.0-0.5","SS1613082123346","","","null","","","","","<p><img src= images/blank.png width =""200"" height = ""200"" style = ""float:right""></p><p><img src=images/blank.png width =""800"" height = ""200""></p>","","","","","","","","","","","",""
"","3739.0449999365956","sequential-stimulus-presentation","73","340847","0.0-17.0-1.5","SS1613082123346","trial","","40","800","4539.044999936596","images/stimuli/spore_stims/complex_09_B_b.gif","images/stimuli/spore_stims/complex_09_A_b.gif","","","","","3","complex_similar","images/stimuli/spore_stims/complex_09_A_b.gif","left","","","","",""
"","null","html-keyboard-response","74","342100","0.0-17.0-0.6","SS1613082123346","","","null","","","","","<p><img src= images/blank.png width =""200"" height = ""200"" style = ""float:right""></p><p><img src=images/blank.png width =""800"" height = ""200""></p>","","","","","","","","","","","",""
"","1173.380000051111","sequential-stimulus-presentation","75","344084","0.0-17.0-1.6","SS1613082123346","trial","","40","800","1973.380000051111","images/stimuli/spore_stims/complex_09_B_b.gif","images/stimuli/spore_stims/complex_09_A_b.gif","","","","","3","complex_similar","images/stimuli/spore_stims/complex_09_B_b.gif","middle","","","","",""
"","null","html-keyboard-response","76","345160","0.0-17.0-0.7","SS1613082123346","","","null","","","","","<p><img src= images/blank.png width =""200"" height = ""200"" style = ""float:right""></p><p><img src=images/blank.png width =""800"" height = ""200""></p>","","","","","","","","","","","",""
"","2575.4499998874962","sequential-stimulus-presentation","77","348548","0.0-17.0-1.7","SS1613082123346","trial","","40","800","3375.4499998874962","images/stimuli/spore_stims/complex_09_B_b.gif","images/stimuli/spore_stims/complex_09_A_b.gif","","","","","3","complex_similar","images/stimuli/spore_stims/complex_09_A_b.gif","left","","","","",""
"","1742.020000005141","html-keyboard-response","78","350300","0.0-18.0","SS1613082123346","pref_question","","98","","","","","<video width ='960' height = '540' style='padding-top:8%' autoplay muted><source src='images/stimuli/wall_pref.mp4' type='video/mp4'></video>","2","middle","45%","3","","","","","","","",""
"","6828.669999958947","sequential-stimulus-presentation","79","357941","0.0-19.0","SS1613082123346","pref_reveal","","40","800","7628.669999958947","null","null","","","","","3","","","","deviant","","","",""
"","null","html-keyboard-response","80","359028","0.0-20.0-0.0","SS1613082123346","","","null","","","","","<p><img src= images/blank.png width =""200"" height = ""200"" style = ""float:right""></p><p><img src=images/blank.png width =""800"" height = ""200""></p>","","","","","","","","","","","",""
"","7392.630000133067","sequential-stimulus-presentation","81","367235","0.0-20.0-1.0","SS1613082123346","trial","","40","800","8192.630000133067","images/stimuli/spore_stims/simple_02_B_d.gif","images/stimuli/spore_stims/simple_02_A_d.gif","","","","","4","simple_similar","images/stimuli/spore_stims/simple_02_A_d.gif","right","","","","",""
"","null","html-keyboard-response","82","368538","0.0-20.0-0.1","SS1613082123346","","","null","","","","","<p><img src= images/blank.png width =""200"" height = ""200"" style = ""float:right""></p><p><img src=images/blank.png width =""800"" height = ""200""></p>","","","","","","","","","","","",""
"","5487.130000023171","sequential-stimulus-presentation","83","374838","0.0-20.0-1.1","SS1613082123346","trial","","40","800","6287.130000023171","images/stimuli/spore_stims/simple_02_B_d.gif","images/stimuli/spore_stims/simple_02_A_d.gif","","","","","4","simple_similar","images/stimuli/spore_stims/simple_02_A_d.gif","right","","","","",""
"","null","html-keyboard-response","84","375941","0.0-20.0-0.2","SS1613082123346","","","null","","","","","<p><img src= images/blank.png width =""200"" height = ""200"" style = ""float:right""></p><p><img src=images/blank.png width =""800"" height = ""200""></p>","","","","","","","","","","","",""
"","5226.640000008047","sequential-stimulus-presentation","85","381979","0.0-20.0-1.2","SS1613082123346","trial","","40","800","6026.640000008047","images/stimuli/spore_stims/simple_02_B_d.gif","images/stimuli/spore_stims/simple_02_A_d.gif","","","","","4","simple_similar","images/stimuli/spore_stims/simple_02_A_d.gif","right","","","","",""
"","null","html-keyboard-response","86","382932","0.0-20.0-0.3","SS1613082123346","","","null","","","","","<p><img src= images/blank.png width =""200"" height = ""200"" style = ""float:right""></p><p><img src=images/blank.png width =""800"" height = ""200""></p>","","","","","","","","","","","",""
"","3692.2849998809397","sequential-stimulus-presentation","87","387437","0.0-20.0-1.3","SS1613082123346","trial","","40","800","4492.28499988094","images/stimuli/spore_stims/simple_02_B_d.gif","images/stimuli/spore_stims/simple_02_A_d.gif","","","","","4","simple_similar","images/stimuli/spore_stims/simple_02_A_d.gif","right","","","","",""
"","null","html-keyboard-response","88","388326","0.0-20.0-0.4","SS1613082123346","","","null","","","","","<p><img src= images/blank.png width =""200"" height = ""200"" style = ""float:right""></p><p><img src=images/blank.png width =""800"" height = ""200""></p>","","","","","","","","","","","",""
"","3584.0099998749793","sequential-stimulus-presentation","89","392747","0.0-20.0-1.4","SS1613082123346","trial","","40","800","4384.009999874979","images/stimuli/spore_stims/simple_02_B_d.gif","images/stimuli/spore_stims/simple_02_A_d.gif","","","","","4","simple_similar","images/stimuli/spore_stims/simple_02_A_d.gif","right","","","","",""
"","null","html-keyboard-response","90","393697","0.0-20.0-0.5","SS1613082123346","","","null","","","","","<p><img src= images/blank.png width =""200"" height = ""200"" style = ""float:right""></p><p><img src=images/blank.png width =""800"" height = ""200""></p>","","","","","","","","","","","",""
"","3465.3400001116097","sequential-stimulus-presentation","91","397974","0.0-20.0-1.5","SS1613082123346","trial","","40","800","4265.34000011161","images/stimuli/spore_stims/simple_02_B_d.gif","images/stimuli/spore_stims/simple_02_A_d.gif","","","","","4","simple_similar","images/stimuli/spore_stims/simple_02_A_d.gif","right","","","","",""
"","null","html-keyboard-response","92","399142","0.0-20.0-0.6","SS1613082123346","","","null","","","","","<p><img src= images/blank.png width =""200"" height = ""200"" style = ""float:right""></p><p><img src=images/blank.png width =""800"" height = ""200""></p>","","","","","","","","","","","",""
"","1942.8000000771135","sequential-stimulus-presentation","93","401892","0.0-20.0-1.6","SS1613082123346","trial","","40","800","2742.8000000771135","images/stimuli/spore_stims/simple_02_B_d.gif","images/stimuli/spore_stims/simple_02_A_d.gif","","","","","4","simple_similar","images/stimuli/spore_stims/simple_02_B_d.gif","middle","","","","",""
"","null","html-keyboard-response","94","402904","0.0-20.0-0.7","SS1613082123346","","","null","","","","","<p><img src= images/blank.png width =""200"" height = ""200"" style = ""float:right""></p><p><img src=images/blank.png width =""800"" height = ""200""></p>","","","","","","","","","","","",""
"","1746.6899999417365","sequential-stimulus-presentation","95","405464","0.0-20.0-1.7","SS1613082123346","trial","","40","800","2546.6899999417365","images/stimuli/spore_stims/simple_02_B_d.gif","images/stimuli/spore_stims/simple_02_A_d.gif","","","","","4","simple_similar","images/stimuli/spore_stims/simple_02_A_d.gif","right","","","","",""
"","4157.2999998461455","html-keyboard-response","96","409629","0.0-21.0","SS1613082123346","pref_question","","99","","","","","<video width ='960' height = '540' style='padding-top:8%' autoplay muted><source src='images/stimuli/wall_pref.mp4' type='video/mp4'></video>","3","right","66%","4","","","","","","","",""
"","10176.740000024438","sequential-stimulus-presentation","97","420619","0.0-22.0","SS1613082123346","pref_reveal","","40","800","10976.740000024438","null","null","","","","","4","","","","background","","","",""
"","null","html-keyboard-response","98","421898","0.0-23.0-0.0","SS1613082123346","","","null","","","","","<p><img src= images/blank.png width =""200"" height = ""200"" style = ""float:right""></p><p><img src=images/blank.png width =""800"" height = ""200""></p>","","","","","","","","","","","",""
"","4643.604999873787","sequential-stimulus-presentation","99","427356","0.0-23.0-1.0","SS1613082123346","trial","","40","800","5443.604999873787","images/stimuli/spore_stims/complex_03_B_d.gif","images/stimuli/spore_stims/complex_05_B_c.gif","","","","","5","complex_dissimilar","images/stimuli/spore_stims/complex_05_B_c.gif","left","","","","",""
"","null","html-keyboard-response","100","428601","0.0-23.0-0.1","SS1613082123346","","","null","","","","","<p><img src= images/blank.png width =""200"" height = ""200"" style = ""float:right""></p><p><img src=images/blank.png width =""800"" height = ""200""></p>","","","","","","","","","","","",""
"","4429.995000129566","sequential-stimulus-presentation","101","433845","0.0-23.0-1.1","SS1613082123346","trial","","40","800","5229.995000129566","images/stimuli/spore_stims/complex_03_B_d.gif","images/stimuli/spore_stims/complex_05_B_c.gif","","","","","5","complex_dissimilar","images/stimuli/spore_stims/complex_05_B_c.gif","left","","","","",""
"","null","html-keyboard-response","102","434943","0.0-23.0-0.2","SS1613082123346","","","null","","","","","<p><img src= images/blank.png width =""200"" height = ""200"" style = ""float:right""></p><p><img src=images/blank.png width =""800"" height = ""200""></p>","","","","","","","","","","","",""
"","3463.0899999756366","sequential-stimulus-presentation","103","439219","0.0-23.0-1.2","SS1613082123346","trial","","40","800","4263.089999975637","images/stimuli/spore_stims/complex_03_B_d.gif","images/stimuli/spore_stims/complex_05_B_c.gif","","","","","5","complex_dissimilar","images/stimuli/spore_stims/complex_03_B_d.gif","right","","","","",""
"","null","html-keyboard-response","104","440192","0.0-23.0-0.3","SS1613082123346","","","null","","","","","<p><img src= images/blank.png width =""200"" height = ""200"" style = ""float:right""></p><p><img src=images/blank.png width =""800"" height = ""200""></p>","","","","","","","","","","","",""
"","5482.835000148043","sequential-stimulus-presentation","105","446486","0.0-23.0-1.3","SS1613082123346","trial","","40","800","6282.835000148043","images/stimuli/spore_stims/complex_03_B_d.gif","images/stimuli/spore_stims/complex_05_B_c.gif","","","","","5","complex_dissimilar","images/stimuli/spore_stims/complex_05_B_c.gif","left","","","","",""
"","null","html-keyboard-response","106","447296","0.0-23.0-0.4","SS1613082123346","","","null","","","","","<p><img src= images/blank.png width =""200"" height = ""200"" style = ""float:right""></p><p><img src=images/blank.png width =""800"" height = ""200""></p>","","","","","","","","","","","",""
"","4885.750000132248","sequential-stimulus-presentation","107","452995","0.0-23.0-1.4","SS1613082123346","trial","","40","800","5685.750000132248","images/stimuli/spore_stims/complex_03_B_d.gif","images/stimuli/spore_stims/complex_05_B_c.gif","","","","","5","complex_dissimilar","images/stimuli/spore_stims/complex_05_B_c.gif","left","","","","",""
"","null","html-keyboard-response","108","454201","0.0-23.0-0.5","SS1613082123346","","","null","","","","","<p><img src= images/blank.png width =""200"" height = ""200"" style = ""float:right""></p><p><img src=images/blank.png width =""800"" height = ""200""></p>","","","","","","","","","","","",""
"","4846.505000023171","sequential-stimulus-presentation","109","459862","0.0-23.0-1.5","SS1613082123346","trial","","40","800","5646.505000023171","images/stimuli/spore_stims/complex_03_B_d.gif","images/stimuli/spore_stims/complex_05_B_c.gif","","","","","5","complex_dissimilar","images/stimuli/spore_stims/complex_05_B_c.gif","left","","","","",""
"","null","html-keyboard-response","110","461147","0.0-23.0-0.6","SS1613082123346","","","null","","","","","<p><img src= images/blank.png width =""200"" height = ""200"" style = ""float:right""></p><p><img src=images/blank.png width =""800"" height = ""200""></p>","","","","","","","","","","","",""
"","3338.2999999448657","sequential-stimulus-presentation","111","465299","0.0-23.0-1.6","SS1613082123346","trial","","40","800","4138.299999944866","images/stimuli/spore_stims/complex_03_B_d.gif","images/stimuli/spore_stims/complex_05_B_c.gif","","","","","5","complex_dissimilar","images/stimuli/spore_stims/complex_05_B_c.gif","left","","","","",""
"","null","html-keyboard-response","112","466342","0.0-23.0-0.7","SS1613082123346","","","null","","","","","<p><img src= images/blank.png width =""200"" height = ""200"" style = ""float:right""></p><p><img src=images/blank.png width =""800"" height = ""200""></p>","","","","","","","","","","","",""
"","8232.949999859557","sequential-stimulus-presentation","113","475389","0.0-23.0-1.7","SS1613082123346","trial","","40","800","9032.949999859557","images/stimuli/spore_stims/complex_03_B_d.gif","images/stimuli/spore_stims/complex_05_B_c.gif","","","","","5","complex_dissimilar","images/stimuli/spore_stims/complex_05_B_c.gif","left","","","","",""
"","1570.744999917224","html-keyboard-response","114","476971","0.0-24.0","SS1613082123346","pref_question","","97","","","","","<video width ='960' height = '540' style='padding-top:8%' autoplay muted><source src='images/stimuli/wall_pref.mp4' type='video/mp4'></video>","1","left","25%","5","","","","","","","",""
"","6099.579999921843","sequential-stimulus-presentation","115","483883","0.0-25.0","SS1613082123346","pref_reveal","","40","800","6899.579999921843","null","null","","","","","5","","","","background","","","",""
"","null","html-keyboard-response","116","484856","0.0-26.0-0.0","SS1613082123346","","","null","","","","","<p><img src= images/blank.png width =""200"" height = ""200"" style = ""float:right""></p><p><img src=images/blank.png width =""800"" height = ""200""></p>","","","","","","","","","","","",""
"","3996.4149999432266","sequential-stimulus-presentation","117","489667","0.0-26.0-1.0","SS1613082123346","trial","","40","800","4796.414999943227","images/stimuli/spore_stims/complex_02_B_a.gif","images/stimuli/spore_stims/complex_08_A_a.gif","","","","","6","complex_dissimilar","images/stimuli/spore_stims/complex_08_A_a.gif","middle","","","","",""
"","null","html-keyboard-response","118","490473","0.0-26.0-0.1","SS1613082123346","","","null","","","","","<p><img src= images/blank.png width =""200"" height = ""200"" style = ""float:right""></p><p><img src=images/blank.png width =""800"" height = ""200""></p>","","","","","","","","","","","",""
"","3283.1700001843274","sequential-stimulus-presentation","119","494578","0.0-26.0-1.1","SS1613082123346","trial","","40","800","4083.1700001843274","images/stimuli/spore_stims/complex_02_B_a.gif","images/stimuli/spore_stims/complex_08_A_a.gif","","","","","6","complex_dissimilar","images/stimuli/spore_stims/complex_08_A_a.gif","middle","","","","",""
"","null","html-keyboard-response","120","495650","0.0-26.0-0.2","SS1613082123346","","","null","","","","","<p><img src= images/blank.png width =""200"" height = ""200"" style = ""float:right""></p><p><img src=images/blank.png width =""800"" height = ""200""></p>","","","","","","","","","","","",""
"","3145.6949999555945","sequential-stimulus-presentation","121","499611","0.0-26.0-1.2","SS1613082123346","trial","","40","800","3945.6949999555945","images/stimuli/spore_stims/complex_02_B_a.gif","images/stimuli/spore_stims/complex_08_A_a.gif","","","","","6","complex_dissimilar","images/stimuli/spore_stims/complex_08_A_a.gif","middle","","","","",""
"","null","html-keyboard-response","122","500604","0.0-26.0-0.3","SS1613082123346","","","null","","","","","<p><img src= images/blank.png width =""200"" height = ""200"" style = ""float:right""></p><p><img src=images/blank.png width =""800"" height = ""200""></p>","","","","","","","","","","","",""
"","4728.260000003502","sequential-stimulus-presentation","123","506166","0.0-26.0-1.3","SS1613082123346","trial","","40","800","5528.260000003502","images/stimuli/spore_stims/complex_02_B_a.gif","images/stimuli/spore_stims/complex_08_A_a.gif","","","","","6","complex_dissimilar","images/stimuli/spore_stims/complex_08_A_a.gif","middle","","","","",""
"","null","html-keyboard-response","124","507419","0.0-26.0-0.4","SS1613082123346","","","null","","","","","<p><img src= images/blank.png width =""200"" height = ""200"" style = ""float:right""></p><p><img src=images/blank.png width =""800"" height = ""200""></p>","","","","","","","","","","","",""
"","4079.6550000086427","sequential-stimulus-presentation","125","512316","0.0-26.0-1.4","SS1613082123346","trial","","40","800","4879.655000008643","images/stimuli/spore_stims/complex_02_B_a.gif","images/stimuli/spore_stims/complex_08_A_a.gif","","","","","6","complex_dissimilar","images/stimuli/spore_stims/complex_08_A_a.gif","middle","","","","",""
"","null","html-keyboard-response","126","513206","0.0-26.0-0.5","SS1613082123346","","","null","","","","","<p><img src= images/blank.png width =""200"" height = ""200"" style = ""float:right""></p><p><img src=images/blank.png width =""800"" height = ""200""></p>","","","","","","","","","","","",""
"","2800.5450000055134","sequential-stimulus-presentation","127","516820","0.0-26.0-1.5","SS1613082123346","trial","","40","800","3600.5450000055134","images/stimuli/spore_stims/complex_02_B_a.gif","images/stimuli/spore_stims/complex_08_A_a.gif","","","","","6","complex_dissimilar","images/stimuli/spore_stims/complex_08_A_a.gif","middle","","","","",""
"","null","html-keyboard-response","128","517796","0.0-26.0-0.6","SS1613082123346","","","null","","","","","<p><img src= images/blank.png width =""200"" height = ""200"" style = ""float:right""></p><p><img src=images/blank.png width =""800"" height = ""200""></p>","","","","","","","","","","","",""
"","4335.740000009537","sequential-stimulus-presentation","129","522948","0.0-26.0-1.6","SS1613082123346","trial","","40","800","5135.740000009537","images/stimuli/spore_stims/complex_02_B_a.gif","images/stimuli/spore_stims/complex_08_A_a.gif","","","","","6","complex_dissimilar","images/stimuli/spore_stims/complex_08_A_a.gif","middle","","","","",""
"","null","html-keyboard-response","130","524024","0.0-26.0-0.7","SS1613082123346","","","null","","","","","<p><img src= images/blank.png width =""200"" height = ""200"" style = ""float:right""></p><p><img src=images/blank.png width =""800"" height = ""200""></p>","","","","","","","","","","","",""
"","3735.554999904707","sequential-stimulus-presentation","131","528572","0.0-26.0-1.7","SS1613082123346","trial","","40","800","4535.554999904707","images/stimuli/spore_stims/complex_02_B_a.gif","images/stimuli/spore_stims/complex_08_A_a.gif","","","","","6","complex_dissimilar","images/stimuli/spore_stims/complex_02_B_a.gif","left","","","","",""
"","1560.204999987036","html-keyboard-response","132","530140","0.0-27.0","SS1613082123346","pref_question","","97","","","","","<video width ='960' height = '540' style='padding-top:8%' autoplay muted><source src='images/stimuli/wall_pref.mp4' type='video/mp4'></video>","1","left","25%","6","","","","","","","",""
"","9042.350000003353","sequential-stimulus-presentation","133","539997","0.0-28.0","SS1613082123346","pref_reveal","","40","800","9842.350000003353","null","null","","","","","6","","","","deviant","","","",""
"","null","html-keyboard-response","134","541194","0.0-29.0-0.0","SS1613082123346","","","null","","","","","<p><img src= images/blank.png width =""200"" height = ""200"" style = ""float:right""></p><p><img src=images/blank.png width =""800"" height = ""200""></p>","","","","","","","","","","","",""
"","6073.910000035539","sequential-stimulus-presentation","135","548083","0.0-29.0-1.0","SS1613082123346","trial","","40","800","6873.910000035539","images/stimuli/spore_stims/complex_08_B_d.gif","images/stimuli/spore_stims/complex_19_A_a.gif","","","","","7","complex_dissimilar","images/stimuli/spore_stims/complex_19_A_a.gif","right","","","","",""
"","null","html-keyboard-response","136","549202","0.0-29.0-0.1","SS1613082123346","","","null","","","","","<p><img src= images/blank.png width =""200"" height = ""200"" style = ""float:right""></p><p><img src=images/blank.png width =""800"" height = ""200""></p>","","","","","","","","","","","",""
"","4645.679999841377","sequential-stimulus-presentation","137","554668","0.0-29.0-1.1","SS1613082123346","trial","","40","800","5445.679999841377","images/stimuli/spore_stims/complex_08_B_d.gif","images/stimuli/spore_stims/complex_19_A_a.gif","","","","","7","complex_dissimilar","images/stimuli/spore_stims/complex_19_A_a.gif","right","","","","",""
"","null","html-keyboard-response","138","555541","0.0-29.0-0.2","SS1613082123346","","","null","","","","","<p><img src= images/blank.png width =""200"" height = ""200"" style = ""float:right""></p><p><img src=images/blank.png width =""800"" height = ""200""></p>","","","","","","","","","","","",""
"","3910.4899999219924","sequential-stimulus-presentation","139","560266","0.0-29.0-1.2","SS1613082123346","trial","","40","800","4710.489999921992","images/stimuli/spore_stims/complex_08_B_d.gif","images/stimuli/spore_stims/complex_19_A_a.gif","","","","","7","complex_dissimilar","images/stimuli/spore_stims/complex_08_B_d.gif","left","","","","",""
"","null","html-keyboard-response","140","561565","0.0-29.0-0.3","SS1613082123346","","","null","","","","","<p><img src= images/blank.png width =""200"" height = ""200"" style = ""float:right""></p><p><img src=images/blank.png width =""800"" height = ""200""></p>","","","","","","","","","","","",""
"","6681.815000018105","sequential-stimulus-presentation","141","569062","0.0-29.0-1.3","SS1613082123346","trial","","40","800","7481.815000018105","images/stimuli/spore_stims/complex_08_B_d.gif","images/stimuli/spore_stims/complex_19_A_a.gif","","","","","7","complex_dissimilar","images/stimuli/spore_stims/complex_19_A_a.gif","right","","","","",""
"","null","html-keyboard-response","142","570329","0.0-29.0-0.4","SS1613082123346","","","null","","","","","<p><img src= images/blank.png width =""200"" height = ""200"" style = ""float:right""></p><p><img src=images/blank.png width =""800"" height = ""200""></p>","","","","","","","","","","","",""
"","4074.0799999330193","sequential-stimulus-presentation","143","575219","0.0-29.0-1.4","SS1613082123346","trial","","40","800","4874.079999933019","images/stimuli/spore_stims/complex_08_B_d.gif","images/stimuli/spore_stims/complex_19_A_a.gif","","","","","7","complex_dissimilar","images/stimuli/spore_stims/complex_19_A_a.gif","right","","","","",""
"","null","html-keyboard-response","144","576163","0.0-29.0-0.5","SS1613082123346","","","null","","","","","<p><img src= images/blank.png width =""200"" height = ""200"" style = ""float:right""></p><p><img src=images/blank.png width =""800"" height = ""200""></p>","","","","","","","","","","","",""
"","3034.3700000084937","sequential-stimulus-presentation","145","580013","0.0-29.0-1.5","SS1613082123346","trial","","40","800","3834.3700000084937","images/stimuli/spore_stims/complex_08_B_d.gif","images/stimuli/spore_stims/complex_19_A_a.gif","","","","","7","complex_dissimilar","images/stimuli/spore_stims/complex_19_A_a.gif","right","","","","",""
"","null","html-keyboard-response","146","581141","0.0-29.0-0.6","SS1613082123346","","","null","","","","","<p><img src= images/blank.png width =""200"" height = ""200"" style = ""float:right""></p><p><img src=images/blank.png width =""800"" height = ""200""></p>","","","","","","","","","","","",""
"","3281.829999992624","sequential-stimulus-presentation","147","585267","0.0-29.0-1.6","SS1613082123346","trial","","40","800","4081.829999992624","images/stimuli/spore_stims/complex_08_B_d.gif","images/stimuli/spore_stims/complex_19_A_a.gif","","","","","7","complex_dissimilar","images/stimuli/spore_stims/complex_19_A_a.gif","right","","","","",""
"","null","html-keyboard-response","148","586504","0.0-29.0-0.7","SS1613082123346","","","null","","","","","<p><img src= images/blank.png width =""200"" height = ""200"" style = ""float:right""></p><p><img src=images/blank.png width =""800"" height = ""200""></p>","","","","","","","","","","","",""
"","836.7099999450147","sequential-stimulus-presentation","149","588156","0.0-29.0-1.7","SS1613082123346","trial","","40","800","1636.7099999450147","images/stimuli/spore_stims/complex_08_B_d.gif","images/stimuli/spore_stims/complex_19_A_a.gif","","","","","7","complex_dissimilar","images/stimuli/spore_stims/complex_19_A_a.gif","right","","","","",""
"","2013.7999998405576","html-keyboard-response","150","590182","0.0-30.0","SS1613082123346","pref_question","","99","","","","","<video width ='960' height = '540' style='padding-top:8%' autoplay muted><source src='images/stimuli/wall_pref.mp4' type='video/mp4'></video>","3","right","66%","7","","","","","","","",""
"","4382.089999970049","sequential-stimulus-presentation","151","595380","0.0-31.0","SS1613082123346","pref_reveal","","40","800","5182.089999970049","null","null","","","","","7","","","","background","","","",""
"","null","html-keyboard-response","152","596602","0.0-32.0-0.0","SS1613082123346","","","null","","","","","<p><img src= images/blank.png width =""200"" height = ""200"" style = ""float:right""></p><p><img src=images/blank.png width =""800"" height = ""200""></p>","","","","","","","","","","","",""
"","3484.104999806732","sequential-stimulus-presentation","153","600901","0.0-32.0-1.0","SS1613082123346","trial","","40","800","4284.104999806732","images/stimuli/spore_stims/complex_10_B_c.gif","images/stimuli/spore_stims/complex_10_A_c.gif","","","","","8","complex_similar","images/stimuli/spore_stims/complex_10_A_c.gif","right","","","","",""
"","null","html-keyboard-response","154","602024","0.0-32.0-0.1","SS1613082123346","","","null","","","","","<p><img src= images/blank.png width =""200"" height = ""200"" style = ""float:right""></p><p><img src=images/blank.png width =""800"" height = ""200""></p>","","","","","","","","","","","",""
"","1140.0299998931587","sequential-stimulus-presentation","155","603979","0.0-32.0-1.1","SS1613082123346","trial","","40","800","1940.0299998931587","images/stimuli/spore_stims/complex_10_B_c.gif","images/stimuli/spore_stims/complex_10_A_c.gif","","","","","8","complex_similar","images/stimuli/spore_stims/complex_10_A_c.gif","right","","","","",""
"","null","html-keyboard-response","156","605183","0.0-32.0-0.2","SS1613082123346","","","null","","","","","<p><img src= images/blank.png width =""200"" height = ""200"" style = ""float:right""></p><p><img src=images/blank.png width =""800"" height = ""200""></p>","","","","","","","","","","","",""
"","1731.4649999607354","sequential-stimulus-presentation","157","607730","0.0-32.0-1.2","SS1613082123346","trial","","40","800","2531.4649999607354","images/stimuli/spore_stims/complex_10_B_c.gif","images/stimuli/spore_stims/complex_10_A_c.gif","","","","","8","complex_similar","images/stimuli/spore_stims/complex_10_A_c.gif","right","","","","",""
"","null","html-keyboard-response","158","609011","0.0-32.0-0.3","SS1613082123346","","","null","","","","","<p><img src= images/blank.png width =""200"" height = ""200"" style = ""float:right""></p><p><img src=images/blank.png width =""800"" height = ""200""></p>","","","","","","","","","","","",""
"","2834.955000085756","sequential-stimulus-presentation","159","612660","0.0-32.0-1.3","SS1613082123346","trial","","40","800","3634.955000085756","images/stimuli/spore_stims/complex_10_B_c.gif","images/stimuli/spore_stims/complex_10_A_c.gif","","","","","8","complex_similar","images/stimuli/spore_stims/complex_10_A_c.gif","right","","","","",""
"","null","html-keyboard-response","160","613761","0.0-32.0-0.4","SS1613082123346","","","null","","","","","<p><img src= images/blank.png width =""200"" height = ""200"" style = ""float:right""></p><p><img src=images/blank.png width =""800"" height = ""200""></p>","","","","","","","","","","","",""
"","2536.4350001327693","sequential-stimulus-presentation","161","617115","0.0-32.0-1.4","SS1613082123346","trial","","40","800","3336.4350001327693","images/stimuli/spore_stims/complex_10_B_c.gif","images/stimuli/spore_stims/complex_10_A_c.gif","","","","","8","complex_similar","images/stimuli/spore_stims/complex_10_A_c.gif","right","","","","",""
"","null","html-keyboard-response","162","618425","0.0-32.0-0.5","SS1613082123346","","","null","","","","","<p><img src= images/blank.png width =""200"" height = ""200"" style = ""float:right""></p><p><img src=images/blank.png width =""800"" height = ""200""></p>","","","","","","","","","","","",""
"","2758.540000068024","sequential-stimulus-presentation","163","621995","0.0-32.0-1.5","SS1613082123346","trial","","40","800","3558.540000068024","images/stimuli/spore_stims/complex_10_B_c.gif","images/stimuli/spore_stims/complex_10_A_c.gif","","","","","8","complex_similar","images/stimuli/spore_stims/complex_10_B_c.gif","left","","","","",""
"","null","html-keyboard-response","164","623286","0.0-32.0-0.6","SS1613082123346","","","null","","","","","<p><img src= images/blank.png width =""200"" height = ""200"" style = ""float:right""></p><p><img src=images/blank.png width =""800"" height = ""200""></p>","","","","","","","","","","","",""
"","4024.955000029877","sequential-stimulus-presentation","165","628126","0.0-32.0-1.6","SS1613082123346","trial","","40","800","4824.955000029877","images/stimuli/spore_stims/complex_10_B_c.gif","images/stimuli/spore_stims/complex_10_A_c.gif","","","","","8","complex_similar","images/stimuli/spore_stims/complex_10_A_c.gif","right","","","","",""
"","null","html-keyboard-response","166","629020","0.0-32.0-0.7","SS1613082123346","","","null","","","","","<p><img src= images/blank.png width =""200"" height = ""200"" style = ""float:right""></p><p><img src=images/blank.png width =""800"" height = ""200""></p>","","","","","","","","","","","",""
"","4864.019999979064","sequential-stimulus-presentation","167","634700","0.0-32.0-1.7","SS1613082123346","trial","","40","800","5664.019999979064","images/stimuli/spore_stims/complex_10_B_c.gif","images/stimuli/spore_stims/complex_10_A_c.gif","","","","","8","complex_similar","images/stimuli/spore_stims/complex_10_A_c.gif","right","","","","",""
"","1715.1300001423806","html-keyboard-response","168","636428","0.0-33.0","SS1613082123346","pref_question","","99","","","","","<video width ='960' height = '540' style='padding-top:8%' autoplay muted><source src='images/stimuli/wall_pref.mp4' type='video/mp4'></video>","3","right","66%","8","","","","","","","",""
"","2135.9899998642504","sequential-stimulus-presentation","169","639380","0.0-34.0","SS1613082123346","pref_reveal","","40","800","2935.9899998642504","null","null","","","","","8","","","","background","","","",""
"","null","html-keyboard-response","170","640392","0.0-35.0-0.0","SS1613082123346","","","null","","","","","<p><img src= images/blank.png width =""200"" height = ""200"" style = ""float:right""></p><p><img src=images/blank.png width =""800"" height = ""200""></p>","","","","","","","","","","","",""
"","2526.2699997983873","sequential-stimulus-presentation","171","643763","0.0-35.0-1.0","SS1613082123346","trial","","40","800","3326.2699997983873","images/stimuli/spore_stims/simple_17_A_a.gif","images/stimuli/spore_stims/simple_02_B_c.gif","","","","","9","simple_dissimilar","images/stimuli/spore_stims/simple_02_B_c.gif","left","","","","",""
"","null","html-keyboard-response","172","644652","0.0-35.0-0.1","SS1613082123346","","","null","","","","","<p><img src= images/blank.png width =""200"" height = ""200"" style = ""float:right""></p><p><img src=images/blank.png width =""800"" height = ""200""></p>","","","","","","","","","","","",""
"","3471.764999907464","sequential-stimulus-presentation","173","648939","0.0-35.0-1.1","SS1613082123346","trial","","40","800","4271.764999907464","images/stimuli/spore_stims/simple_17_A_a.gif","images/stimuli/spore_stims/simple_02_B_c.gif","","","","","9","simple_dissimilar","images/stimuli/spore_stims/simple_02_B_c.gif","left","","","","",""
"","null","html-keyboard-response","174","650175","0.0-35.0-0.2","SS1613082123346","","","null","","","","","<p><img src= images/blank.png width =""200"" height = ""200"" style = ""float:right""></p><p><img src=images/blank.png width =""800"" height = ""200""></p>","","","","","","","","","","","",""
"","3509.40000009723","sequential-stimulus-presentation","175","654493","0.0-35.0-1.2","SS1613082123346","trial","","40","800","4309.40000009723","images/stimuli/spore_stims/simple_17_A_a.gif","images/stimuli/spore_stims/simple_02_B_c.gif","","","","","9","simple_dissimilar","images/stimuli/spore_stims/simple_02_B_c.gif","left","","","","",""
"","null","html-keyboard-response","176","655677","0.0-35.0-0.3","SS1613082123346","","","null","","","","","<p><img src= images/blank.png width =""200"" height = ""200"" style = ""float:right""></p><p><img src=images/blank.png width =""800"" height = ""200""></p>","","","","","","","","","","","",""
"","3954.810000024736","sequential-stimulus-presentation","177","660451","0.0-35.0-1.3","SS1613082123346","trial","","40","800","4754.810000024736","images/stimuli/spore_stims/simple_17_A_a.gif","images/stimuli/spore_stims/simple_02_B_c.gif","","","","","9","simple_dissimilar","images/stimuli/spore_stims/simple_02_B_c.gif","left","","","","",""
"","null","html-keyboard-response","178","661702","0.0-35.0-0.4","SS1613082123346","","","null","","","","","<p><img src= images/blank.png width =""200"" height = ""200"" style = ""float:right""></p><p><img src=images/blank.png width =""800"" height = ""200""></p>","","","","","","","","","","","",""
"","2430.1799999084324","sequential-stimulus-presentation","179","664949","0.0-35.0-1.4","SS1613082123346","trial","","40","800","3230.1799999084324","images/stimuli/spore_stims/simple_17_A_a.gif","images/stimuli/spore_stims/simple_02_B_c.gif","","","","","9","simple_dissimilar","images/stimuli/spore_stims/simple_02_B_c.gif","left","","","","",""
"","null","html-keyboard-response","180","665821","0.0-35.0-0.5","SS1613082123346","","","null","","","","","<p><img src= images/blank.png width =""200"" height = ""200"" style = ""float:right""></p><p><img src=images/blank.png width =""800"" height = ""200""></p>","","","","","","","","","","","",""
"","3685.730000026524","sequential-stimulus-presentation","181","670323","0.0-35.0-1.5","SS1613082123346","trial","","40","800","4485.730000026524","images/stimuli/spore_stims/simple_17_A_a.gif","images/stimuli/spore_stims/simple_02_B_c.gif","","","","","9","simple_dissimilar","images/stimuli/spore_stims/simple_17_A_a.gif","right","","","","",""
"","null","html-keyboard-response","182","671298","0.0-35.0-0.6","SS1613082123346","","","null","","","","","<p><img src= images/blank.png width =""200"" height = ""200"" style = ""float:right""></p><p><img src=images/blank.png width =""800"" height = ""200""></p>","","","","","","","","","","","",""
"","27067.890000063926","sequential-stimulus-presentation","183","699182","0.0-35.0-1.6","SS1613082123346","trial","","40","800","27867.890000063926","images/stimuli/spore_stims/simple_17_A_a.gif","images/stimuli/spore_stims/simple_02_B_c.gif","","","","","9","simple_dissimilar","images/stimuli/spore_stims/simple_02_B_c.gif","left","","","","",""
"","null","html-keyboard-response","184","700373","0.0-35.0-0.7","SS1613082123346","","","null","","","","","<p><img src= images/blank.png width =""200"" height = ""200"" style = ""float:right""></p><p><img src=images/blank.png width =""800"" height = ""200""></p>","","","","","","","","","","","",""
"","7348.765000002459","sequential-stimulus-presentation","185","708540","0.0-35.0-1.7","SS1613082123346","trial","","40","800","8148.765000002459","images/stimuli/spore_stims/simple_17_A_a.gif","images/stimuli/spore_stims/simple_02_B_c.gif","","","","","9","simple_dissimilar","images/stimuli/spore_stims/simple_02_B_c.gif","left","","","","",""
"","1314.7199999075383","html-keyboard-response","186","709869","0.0-36.0","SS1613082123346","pref_question","","97","","","","","<video width ='960' height = '540' style='padding-top:8%' autoplay muted><source src='images/stimuli/wall_pref.mp4' type='video/mp4'></video>","1","left","25%","9","","","","","","","",""
"","4792.045000009239","sequential-stimulus-presentation","187","715476","0.0-37.0","SS1613082123346","pref_reveal","","40","800","5592.045000009239","null","null","","","","","9","","","","background","","","",""
"","null","html-keyboard-response","188","716746","0.0-38.0-0.0","SS1613082123346","","","null","","","","","<p><img src= images/blank.png width =""200"" height = ""200"" style = ""float:right""></p><p><img src=images/blank.png width =""800"" height = ""200""></p>","","","","","","","","","","","",""
"","2086.7249998264015","sequential-stimulus-presentation","189","719651","0.0-38.0-1.0","SS1613082123346","trial","","40","800","2886.7249998264015","images/stimuli/spore_stims/simple_19_A_a.gif","images/stimuli/spore_stims/simple_19_B_a.gif","","","","","10","simple_similar","images/stimuli/spore_stims/simple_19_B_a.gif","left","","","","",""
"","null","html-keyboard-response","190","720587","0.0-38.0-0.1","SS1613082123346","","","null","","","","","<p><img src= images/blank.png width =""200"" height = ""200"" style = ""float:right""></p><p><img src=images/blank.png width =""800"" height = ""200""></p>","","","","","","","","","","","",""
"","3104.049999965355","sequential-stimulus-presentation","191","724508","0.0-38.0-1.1","SS1613082123346","trial","","40","800","3904.049999965355","images/stimuli/spore_stims/simple_19_A_a.gif","images/stimuli/spore_stims/simple_19_B_a.gif","","","","","10","simple_similar","images/stimuli/spore_stims/simple_19_B_a.gif","left","","","","",""
"","null","html-keyboard-response","192","725512","0.0-38.0-0.2","SS1613082123346","","","null","","","","","<p><img src= images/blank.png width =""200"" height = ""200"" style = ""float:right""></p><p><img src=images/blank.png width =""800"" height = ""200""></p>","","","","","","","","","","","",""
"","1690.4450000729412","sequential-stimulus-presentation","193","728019","0.0-38.0-1.2","SS1613082123346","trial","","40","800","2490.445000072941","images/stimuli/spore_stims/simple_19_A_a.gif","images/stimuli/spore_stims/simple_19_B_a.gif","","","","","10","simple_similar","images/stimuli/spore_stims/simple_19_B_a.gif","left","","","","",""
"","null","html-keyboard-response","194","729095","0.0-38.0-0.3","SS1613082123346","","","null","","","","","<p><img src= images/blank.png width =""200"" height = ""200"" style = ""float:right""></p><p><img src=images/blank.png width =""800"" height = ""200""></p>","","","","","","","","","","","",""
"","7908.130000112578","sequential-stimulus-presentation","195","737821","0.0-38.0-1.3","SS1613082123346","trial","","40","800","8708.130000112578","images/stimuli/spore_stims/simple_19_A_a.gif","images/stimuli/spore_stims/simple_19_B_a.gif","","","","","10","simple_similar","images/stimuli/spore_stims/simple_19_A_a.gif","middle","","","","",""
"","null","html-keyboard-response","196","739057","0.0-38.0-0.4","SS1613082123346","","","null","","","","","<p><img src= images/blank.png width =""200"" height = ""200"" style = ""float:right""></p><p><img src=images/blank.png width =""800"" height = ""200""></p>","","","","","","","","","","","",""
"","5511.669999919832","sequential-stimulus-presentation","197","745419","0.0-38.0-1.4","SS1613082123346","trial","","40","800","6311.669999919832","images/stimuli/spore_stims/simple_19_A_a.gif","images/stimuli/spore_stims/simple_19_B_a.gif","","","","","10","simple_similar","images/stimuli/spore_stims/simple_19_B_a.gif","left","","","","",""
"","null","html-keyboard-response","198","746280","0.0-38.0-0.5","SS1613082123346","","","null","","","","","<p><img src= images/blank.png width =""200"" height = ""200"" style = ""float:right""></p><p><img src=images/blank.png width =""800"" height = ""200""></p>","","","","","","","","","","","",""
"","3275.4349999595433","sequential-stimulus-presentation","199","750373","0.0-38.0-1.5","SS1613082123346","trial","","40","800","4075.4349999595433","images/stimuli/spore_stims/simple_19_A_a.gif","images/stimuli/spore_stims/simple_19_B_a.gif","","","","","10","simple_similar","images/stimuli/spore_stims/simple_19_B_a.gif","left","","","","",""
"","null","html-keyboard-response","200","751262","0.0-38.0-0.6","SS1613082123346","","","null","","","","","<p><img src= images/blank.png width =""200"" height = ""200"" style = ""float:right""></p><p><img src=images/blank.png width =""800"" height = ""200""></p>","","","","","","","","","","","",""
"","587.5950001645833","sequential-stimulus-presentation","201","752668","0.0-38.0-1.6","SS1613082123346","trial","","40","800","1387.5950001645833","images/stimuli/spore_stims/simple_19_A_a.gif","images/stimuli/spore_stims/simple_19_B_a.gif","","","","","10","simple_similar","images/stimuli/spore_stims/simple_19_B_a.gif","left","","","","",""
"","null","html-keyboard-response","202","753636","0.0-38.0-0.7","SS1613082123346","","","null","","","","","<p><img src= images/blank.png width =""200"" height = ""200"" style = ""float:right""></p><p><img src=images/blank.png width =""800"" height = ""200""></p>","","","","","","","","","","","",""
"","772.7500000037253","sequential-stimulus-presentation","203","755228","0.0-38.0-1.7","SS1613082123346","trial","","40","800","1572.7500000037253","images/stimuli/spore_stims/simple_19_A_a.gif","images/stimuli/spore_stims/simple_19_B_a.gif","","","","","10","simple_similar","images/stimuli/spore_stims/simple_19_B_a.gif","left","","","","",""
"","1905.2999999839813","html-keyboard-response","204","757148","0.0-39.0","SS1613082123346","pref_question","","97","","","","","<video width ='960' height = '540' style='padding-top:8%' autoplay muted><source src='images/stimuli/wall_pref.mp4' type='video/mp4'></video>","1","left","25%","10","","","","","","","",""
"","3878.9649999234825","sequential-stimulus-presentation","205","761844","0.0-40.0","SS1613082123346","pref_reveal","","40","800","4678.9649999234825","null","null","","","","","10","","","","background","","","",""
"","null","html-keyboard-response","206","762916","0.0-41.0-0.0","SS1613082123346","","","null","","","","","<p><img src= images/blank.png width =""200"" height = ""200"" style = ""float:right""></p><p><img src=images/blank.png width =""800"" height = ""200""></p>","","","","","","","","","","","",""
"","9311.470000073314","sequential-stimulus-presentation","207","773045","0.0-41.0-1.0","SS1613082123346","trial","","40","800","10111.470000073314","images/stimuli/spore_stims/complex_07_A_c.gif","images/stimuli/spore_stims/complex_06_B_d.gif","","","","","11","complex_dissimilar","images/stimuli/spore_stims/complex_06_B_d.gif","left","","","","",""
"","null","html-keyboard-response","208","773909","0.0-41.0-0.1","SS1613082123346","","","null","","","","","<p><img src= images/blank.png width =""200"" height = ""200"" style = ""float:right""></p><p><img src=images/blank.png width =""800"" height = ""200""></p>","","","","","","","","","","","",""
"","7050.19999993965","sequential-stimulus-presentation","209","781779","0.0-41.0-1.1","SS1613082123346","trial","","40","800","7850.19999993965","images/stimuli/spore_stims/complex_07_A_c.gif","images/stimuli/spore_stims/complex_06_B_d.gif","","","","","11","complex_dissimilar","images/stimuli/spore_stims/complex_06_B_d.gif","left","","","","",""
"","null","html-keyboard-response","210","783030","0.0-41.0-0.2","SS1613082123346","","","null","","","","","<p><img src= images/blank.png width =""200"" height = ""200"" style = ""float:right""></p><p><img src=images/blank.png width =""800"" height = ""200""></p>","","","","","","","","","","","",""
"","7415.789999999106","sequential-stimulus-presentation","211","791261","0.0-41.0-1.2","SS1613082123346","trial","","40","800","8215.789999999106","images/stimuli/spore_stims/complex_07_A_c.gif","images/stimuli/spore_stims/complex_06_B_d.gif","","","","","11","complex_dissimilar","images/stimuli/spore_stims/complex_06_B_d.gif","left","","","","",""
"","null","html-keyboard-response","212","792341","0.0-41.0-0.3","SS1613082123346","","","null","","","","","<p><img src= images/blank.png width =""200"" height = ""200"" style = ""float:right""></p><p><img src=images/blank.png width =""800"" height = ""200""></p>","","","","","","","","","","","",""
"","3716.5999999269843","sequential-stimulus-presentation","213","796874","0.0-41.0-1.3","SS1613082123346","trial","","40","800","4516.599999926984","images/stimuli/spore_stims/complex_07_A_c.gif","images/stimuli/spore_stims/complex_06_B_d.gif","","","","","11","complex_dissimilar","images/stimuli/spore_stims/complex_07_A_c.gif","middle","","","","",""
"","null","html-keyboard-response","214","798111","0.0-41.0-0.4","SS1613082123346","","","null","","","","","<p><img src= images/blank.png width =""200"" height = ""200"" style = ""float:right""></p><p><img src=images/blank.png width =""800"" height = ""200""></p>","","","","","","","","","","","",""
"","4508.295000065118","sequential-stimulus-presentation","215","803438","0.0-41.0-1.4","SS1613082123346","trial","","40","800","5308.295000065118","images/stimuli/spore_stims/complex_07_A_c.gif","images/stimuli/spore_stims/complex_06_B_d.gif","","","","","11","complex_dissimilar","images/stimuli/spore_stims/complex_06_B_d.gif","left","","","","",""
"","null","html-keyboard-response","216","804581","0.0-41.0-0.5","SS1613082123346","","","null","","","","","<p><img src= images/blank.png width =""200"" height = ""200"" style = ""float:right""></p><p><img src=images/blank.png width =""800"" height = ""200""></p>","","","","","","","","","","","",""
"","1515.7149999868125","sequential-stimulus-presentation","217","806940","0.0-41.0-1.5","SS1613082123346","trial","","40","800","2315.7149999868125","images/stimuli/spore_stims/complex_07_A_c.gif","images/stimuli/spore_stims/complex_06_B_d.gif","","","","","11","complex_dissimilar","images/stimuli/spore_stims/complex_06_B_d.gif","left","","","","",""
"","null","html-keyboard-response","218","807798","0.0-41.0-0.6","SS1613082123346","","","null","","","","","<p><img src= images/blank.png width =""200"" height = ""200"" style = ""float:right""></p><p><img src=images/blank.png width =""800"" height = ""200""></p>","","","","","","","","","","","",""
"","21053.830000106245","sequential-stimulus-presentation","219","829670","0.0-41.0-1.6","SS1613082123346","trial","","40","800","21853.830000106245","images/stimuli/spore_stims/complex_07_A_c.gif","images/stimuli/spore_stims/complex_06_B_d.gif","","","","","11","complex_dissimilar","images/stimuli/spore_stims/complex_06_B_d.gif","left","","","","",""
"","null","html-keyboard-response","220","830572","0.0-41.0-0.7","SS1613082123346","","","null","","","","","<p><img src= images/blank.png width =""200"" height = ""200"" style = ""float:right""></p><p><img src=images/blank.png width =""800"" height = ""200""></p>","","","","","","","","","","","",""
"","4314.939999952912","sequential-stimulus-presentation","221","835707","0.0-41.0-1.7","SS1613082123346","trial","","40","800","5114.939999952912","images/stimuli/spore_stims/complex_07_A_c.gif","images/stimuli/spore_stims/complex_06_B_d.gif","","","","","11","complex_dissimilar","images/stimuli/spore_stims/complex_06_B_d.gif","left","","","","",""
"","1743.914999999106","html-keyboard-response","222","837468","0.0-42.0","SS1613082123346","pref_question","","97","","","","","<video width ='960' height = '540' style='padding-top:8%' autoplay muted><source src='images/stimuli/wall_pref.mp4' type='video/mp4'></video>","1","left","25%","11","","","","","","","",""
"","7762.284999946132","sequential-stimulus-presentation","223","846046","0.0-43.0","SS1613082123346","pref_reveal","","40","800","8562.284999946132","null","null","","","","","11","","","","background","","","",""
"","null","html-keyboard-response","224","847281","0.0-44.0-0.0","SS1613082123346","","","null","","","","","<p><img src= images/blank.png width =""200"" height = ""200"" style = ""float:right""></p><p><img src=images/blank.png width =""800"" height = ""200""></p>","","","","","","","","","","","",""
"","3612.4650000128895","sequential-stimulus-presentation","225","851707","0.0-44.0-1.0","SS1613082123346","trial","","40","800","4412.4650000128895","images/stimuli/spore_stims/simple_08_A_c.gif","images/stimuli/spore_stims/simple_04_A_b.gif","","","","","12","simple_dissimilar","images/stimuli/spore_stims/simple_04_A_b.gif","right","","","","",""
"","null","html-keyboard-response","226","852558","0.0-44.0-0.1","SS1613082123346","","","null","","","","","<p><img src= images/blank.png width =""200"" height = ""200"" style = ""float:right""></p><p><img src=images/blank.png width =""800"" height = ""200""></p>","","","","","","","","","","","",""
"","10681.250000139698","sequential-stimulus-presentation","227","864077","0.0-44.0-1.1","SS1613082123346","trial","","40","800","11481.250000139698","images/stimuli/spore_stims/simple_08_A_c.gif","images/stimuli/spore_stims/simple_04_A_b.gif","","","","","12","simple_dissimilar","images/stimuli/spore_stims/simple_04_A_b.gif","right","","","","",""
"","null","html-keyboard-response","228","864901","0.0-44.0-0.2","SS1613082123346","","","null","","","","","<p><img src= images/blank.png width =""200"" height = ""200"" style = ""float:right""></p><p><img src=images/blank.png width =""800"" height = ""200""></p>","","","","","","","","","","","",""
"","3763.780000153929","sequential-stimulus-presentation","229","869483","0.0-44.0-1.2","SS1613082123346","trial","","40","800","4563.780000153929","images/stimuli/spore_stims/simple_08_A_c.gif","images/stimuli/spore_stims/simple_04_A_b.gif","","","","","12","simple_dissimilar","images/stimuli/spore_stims/simple_04_A_b.gif","right","","","","",""
"","null","html-keyboard-response","230","870572","0.0-44.0-0.3","SS1613082123346","","","null","","","","","<p><img src= images/blank.png width =""200"" height = ""200"" style = ""float:right""></p><p><img src=images/blank.png width =""800"" height = ""200""></p>","","","","","","","","","","","",""
"","18310.65999995917","sequential-stimulus-presentation","231","889701","0.0-44.0-1.3","SS1613082123346","trial","","40","800","19110.65999995917","images/stimuli/spore_stims/simple_08_A_c.gif","images/stimuli/spore_stims/simple_04_A_b.gif","","","","","12","simple_dissimilar","images/stimuli/spore_stims/simple_08_A_c.gif","middle","","","","",""
"","null","html-keyboard-response","232","890612","0.0-44.0-0.4","SS1613082123346","","","null","","","","","<p><img src= images/blank.png width =""200"" height = ""200"" style = ""float:right""></p><p><img src=images/blank.png width =""800"" height = ""200""></p>","","","","","","","","","","","",""
"","30974.21499993652","sequential-stimulus-presentation","233","922405","0.0-44.0-1.4","SS1613082123346","trial","","40","800","31774.21499993652","images/stimuli/spore_stims/simple_08_A_c.gif","images/stimuli/spore_stims/simple_04_A_b.gif","","","","","12","simple_dissimilar","images/stimuli/spore_stims/simple_04_A_b.gif","right","","","","",""
"","null","html-keyboard-response","234","923417","0.0-44.0-0.5","SS1613082123346","","","null","","","","","<p><img src= images/blank.png width =""200"" height = ""200"" style = ""float:right""></p><p><img src=images/blank.png width =""800"" height = ""200""></p>","","","","","","","","","","","",""
"","1771.9699998851866","sequential-stimulus-presentation","235","926004","0.0-44.0-1.5","SS1613082123346","trial","","40","800","2571.9699998851866","images/stimuli/spore_stims/simple_08_A_c.gif","images/stimuli/spore_stims/simple_04_A_b.gif","","","","","12","simple_dissimilar","images/stimuli/spore_stims/simple_04_A_b.gif","right","","","","",""
"","null","html-keyboard-response","236","926822","0.0-44.0-0.6","SS1613082123346","","","null","","","","","<p><img src= images/blank.png width =""200"" height = ""200"" style = ""float:right""></p><p><img src=images/blank.png width =""800"" height = ""200""></p>","","","","","","","","","","","",""
"","7556.06499989517","sequential-stimulus-presentation","237","935196","0.0-44.0-1.6","SS1613082123346","trial","","40","800","8356.06499989517","images/stimuli/spore_stims/simple_08_A_c.gif","images/stimuli/spore_stims/simple_04_A_b.gif","","","","","12","simple_dissimilar","images/stimuli/spore_stims/simple_04_A_b.gif","right","","","","",""
"","null","html-keyboard-response","238","936076","0.0-44.0-0.7","SS1613082123346","","","null","","","","","<p><img src= images/blank.png width =""200"" height = ""200"" style = ""float:right""></p><p><img src=images/blank.png width =""800"" height = ""200""></p>","","","","","","","","","","","",""
"","10518.910000100732","sequential-stimulus-presentation","239","947414","0.0-44.0-1.7","SS1613082123346","trial","","40","800","11318.910000100732","images/stimuli/spore_stims/simple_08_A_c.gif","images/stimuli/spore_stims/simple_04_A_b.gif","","","","","12","simple_dissimilar","images/stimuli/spore_stims/simple_04_A_b.gif","right","","","","",""
"","22607.45000001043","html-keyboard-response","240","970037","0.0-45.0","SS1613082123346","pref_question","","99","","","","","<video width ='960' height = '540' style='padding-top:8%' autoplay muted><source src='images/stimuli/wall_pref.mp4' type='video/mp4'></video>","3","right","66%","12","","","","","","","",""
"","2388.2549998816103","sequential-stimulus-presentation","241","973243","0.0-46.0","SS1613082123346","pref_reveal","","40","800","3188.2549998816103","null","null","","","","","12","","","","background","","","",""
"","null","html-keyboard-response","242","974168","0.0-47.0-0.0","SS1613082123346","","","null","","","","","<p><img src= images/blank.png width =""200"" height = ""200"" style = ""float:right""></p><p><img src=images/blank.png width =""800"" height = ""200""></p>","","","","","","","","","","","",""
"","2678.340000100434","sequential-stimulus-presentation","243","977667","0.0-47.0-1.0","SS1613082123346","trial","","40","800","3478.340000100434","images/stimuli/spore_stims/complex_15_B_a.gif","images/stimuli/spore_stims/complex_15_A_a.gif","","","","","13","complex_similar","images/stimuli/spore_stims/complex_15_A_a.gif","right","","","","",""
"","null","html-keyboard-response","244","978579","0.0-47.0-0.1","SS1613082123346","","","null","","","","","<p><img src= images/blank.png width =""200"" height = ""200"" style = ""float:right""></p><p><img src=images/blank.png width =""800"" height = ""200""></p>","","","","","","","","","","","",""
"","2607.090000063181","sequential-stimulus-presentation","245","982005","0.0-47.0-1.1","SS1613082123346","trial","","40","800","3407.090000063181","images/stimuli/spore_stims/complex_15_B_a.gif","images/stimuli/spore_stims/complex_15_A_a.gif","","","","","13","complex_similar","images/stimuli/spore_stims/complex_15_A_a.gif","right","","","","",""
"","null","html-keyboard-response","246","982965","0.0-47.0-0.2","SS1613082123346","","","null","","","","","<p><img src= images/blank.png width =""200"" height = ""200"" style = ""float:right""></p><p><img src=images/blank.png width =""800"" height = ""200""></p>","","","","","","","","","","","",""
"","6242.4550000578165","sequential-stimulus-presentation","247","990028","0.0-47.0-1.2","SS1613082123346","trial","","40","800","7042.4550000578165","images/stimuli/spore_stims/complex_15_B_a.gif","images/stimuli/spore_stims/complex_15_A_a.gif","","","","","13","complex_similar","images/stimuli/spore_stims/complex_15_A_a.gif","right","","","","",""
"","null","html-keyboard-response","248","991141","0.0-47.0-0.3","SS1613082123346","","","null","","","","","<p><img src= images/blank.png width =""200"" height = ""200"" style = ""float:right""></p><p><img src=images/blank.png width =""800"" height = ""200""></p>","","","","","","","","","","","",""
"","3580.3649998269975","sequential-stimulus-presentation","249","995542","0.0-47.0-1.3","SS1613082123346","trial","","40","800","4380.3649998269975","images/stimuli/spore_stims/complex_15_B_a.gif","images/stimuli/spore_stims/complex_15_A_a.gif","","","","","13","complex_similar","images/stimuli/spore_stims/complex_15_A_a.gif","right","","","","",""
"","null","html-keyboard-response","250","996491","0.0-47.0-0.4","SS1613082123346","","","null","","","","","<p><img src= images/blank.png width =""200"" height = ""200"" style = ""float:right""></p><p><img src=images/blank.png width =""800"" height = ""200""></p>","","","","","","","","","","","",""
"","4255.5549999233335","sequential-stimulus-presentation","251","1001564","0.0-47.0-1.4","SS1613082123346","trial","","40","800","5055.5549999233335","images/stimuli/spore_stims/complex_15_B_a.gif","images/stimuli/spore_stims/complex_15_A_a.gif","","","","","13","complex_similar","images/stimuli/spore_stims/complex_15_A_a.gif","right","","","","",""
"","null","html-keyboard-response","252","1002698","0.0-47.0-0.5","SS1613082123346","","","null","","","","","<p><img src= images/blank.png width =""200"" height = ""200"" style = ""float:right""></p><p><img src=images/blank.png width =""800"" height = ""200""></p>","","","","","","","","","","","",""
"","2718.394999857992","sequential-stimulus-presentation","253","1006238","0.0-47.0-1.5","SS1613082123346","trial","","40","800","3518.394999857992","images/stimuli/spore_stims/complex_15_B_a.gif","images/stimuli/spore_stims/complex_15_A_a.gif","","","","","13","complex_similar","images/stimuli/spore_stims/complex_15_A_a.gif","right","","","","",""
"","null","html-keyboard-response","254","1007289","0.0-47.0-0.6","SS1613082123346","","","null","","","","","<p><img src= images/blank.png width =""200"" height = ""200"" style = ""float:right""></p><p><img src=images/blank.png width =""800"" height = ""200""></p>","","","","","","","","","","","",""
"","4407.164999982342","sequential-stimulus-presentation","255","1012514","0.0-47.0-1.6","SS1613082123346","trial","","40","800","5207.164999982342","images/stimuli/spore_stims/complex_15_B_a.gif","images/stimuli/spore_stims/complex_15_A_a.gif","","","","","13","complex_similar","images/stimuli/spore_stims/complex_15_B_a.gif","middle","","","","",""
"","null","html-keyboard-response","256","1013642","0.0-47.0-0.7","SS1613082123346","","","null","","","","","<p><img src= images/blank.png width =""200"" height = ""200"" style = ""float:right""></p><p><img src=images/blank.png width =""800"" height = ""200""></p>","","","","","","","","","","","",""
"","2961.8299999274313","sequential-stimulus-presentation","257","1017428","0.0-47.0-1.7","SS1613082123346","trial","","40","800","3761.8299999274313","images/stimuli/spore_stims/complex_15_B_a.gif","images/stimuli/spore_stims/complex_15_A_a.gif","","","","","13","complex_similar","images/stimuli/spore_stims/complex_15_A_a.gif","right","","","","",""
"","1928.6049997899681","html-keyboard-response","258","1019371","0.0-48.0","SS1613082123346","pref_question","","99","","","","","<video width ='960' height = '540' style='padding-top:8%' autoplay muted><source src='images/stimuli/wall_pref.mp4' type='video/mp4'></video>","3","right","66%","13","","","","","","","",""
"","7589.404999976978","sequential-stimulus-presentation","259","1027781","0.0-49.0","SS1613082123346","pref_reveal","","40","800","8389.404999976978","null","null","","","","","13","","","","background","","","",""
"","null","html-keyboard-response","260","1029067","0.0-50.0-0.0","SS1613082123346","","","null","","","","","<p><img src= images/blank.png width =""200"" height = ""200"" style = ""float:right""></p><p><img src=images/blank.png width =""800"" height = ""200""></p>","","","","","","","","","","","",""
"","6957.265000091866","sequential-stimulus-presentation","261","1036843","0.0-50.0-1.0","SS1613082123346","trial","","40","800","7757.265000091866","images/stimuli/spore_stims/complex_18_B_c.gif","images/stimuli/spore_stims/complex_18_A_c.gif","","","","","14","complex_similar","images/stimuli/spore_stims/complex_18_A_c.gif","middle","","","","",""
"","null","html-keyboard-response","262","1037961","0.0-50.0-0.1","SS1613082123346","","","null","","","","","<p><img src= images/blank.png width =""200"" height = ""200"" style = ""float:right""></p><p><img src=images/blank.png width =""800"" height = ""200""></p>","","","","","","","","","","","",""
"","5166.169999865815","sequential-stimulus-presentation","263","1043950","0.0-50.0-1.1","SS1613082123346","trial","","40","800","5966.169999865815","images/stimuli/spore_stims/complex_18_B_c.gif","images/stimuli/spore_stims/complex_18_A_c.gif","","","","","14","complex_similar","images/stimuli/spore_stims/complex_18_A_c.gif","middle","","","","",""
"","null","html-keyboard-response","264","1044828","0.0-50.0-0.2","SS1613082123346","","","null","","","","","<p><img src= images/blank.png width =""200"" height = ""200"" style = ""float:right""></p><p><img src=images/blank.png width =""800"" height = ""200""></p>","","","","","","","","","","","",""
"","11708.540000021458","sequential-stimulus-presentation","265","1057381","0.0-50.0-1.2","SS1613082123346","trial","","40","800","12508.540000021458","images/stimuli/spore_stims/complex_18_B_c.gif","images/stimuli/spore_stims/complex_18_A_c.gif","","","","","14","complex_similar","images/stimuli/spore_stims/complex_18_A_c.gif","middle","","","","",""
"","null","html-keyboard-response","266","1058462","0.0-50.0-0.3","SS1613082123346","","","null","","","","","<p><img src= images/blank.png width =""200"" height = ""200"" style = ""float:right""></p><p><img src=images/blank.png width =""800"" height = ""200""></p>","","","","","","","","","","","",""
"","6297.444999916479","sequential-stimulus-presentation","267","1065580","0.0-50.0-1.3","SS1613082123346","trial","","40","800","7097.444999916479","images/stimuli/spore_stims/complex_18_B_c.gif","images/stimuli/spore_stims/complex_18_A_c.gif","","","","","14","complex_similar","images/stimuli/spore_stims/complex_18_A_c.gif","middle","","","","",""
"","null","html-keyboard-response","268","1066467","0.0-50.0-0.4","SS1613082123346","","","null","","","","","<p><img src= images/blank.png width =""200"" height = ""200"" style = ""float:right""></p><p><img src=images/blank.png width =""800"" height = ""200""></p>","","","","","","","","","","","",""
"","11177.644999930635","sequential-stimulus-presentation","269","1078469","0.0-50.0-1.4","SS1613082123346","trial","","40","800","11977.644999930635","images/stimuli/spore_stims/complex_18_B_c.gif","images/stimuli/spore_stims/complex_18_A_c.gif","","","","","14","complex_similar","images/stimuli/spore_stims/complex_18_A_c.gif","middle","","","","",""
"","null","html-keyboard-response","270","1079762","0.0-50.0-0.5","SS1613082123346","","","null","","","","","<p><img src= images/blank.png width =""200"" height = ""200"" style = ""float:right""></p><p><img src=images/blank.png width =""800"" height = ""200""></p>","","","","","","","","","","","",""
"","1455.5399999953806","sequential-stimulus-presentation","271","1082036","0.0-50.0-1.5","SS1613082123346","trial","","40","800","2255.5399999953806","images/stimuli/spore_stims/complex_18_B_c.gif","images/stimuli/spore_stims/complex_18_A_c.gif","","","","","14","complex_similar","images/stimuli/spore_stims/complex_18_A_c.gif","middle","","","","",""
"","null","html-keyboard-response","272","1082956","0.0-50.0-0.6","SS1613082123346","","","null","","","","","<p><img src= images/blank.png width =""200"" height = ""200"" style = ""float:right""></p><p><img src=images/blank.png width =""800"" height = ""200""></p>","","","","","","","","","","","",""
"","6350.205000024289","sequential-stimulus-presentation","273","1090127","0.0-50.0-1.6","SS1613082123346","trial","","40","800","7150.205000024289","images/stimuli/spore_stims/complex_18_B_c.gif","images/stimuli/spore_stims/complex_18_A_c.gif","","","","","14","complex_similar","images/stimuli/spore_stims/complex_18_A_c.gif","middle","","","","",""
"","null","html-keyboard-response","274","1091411","0.0-50.0-0.7","SS1613082123346","","","null","","","","","<p><img src= images/blank.png width =""200"" height = ""200"" style = ""float:right""></p><p><img src=images/blank.png width =""800"" height = ""200""></p>","","","","","","","","","","","",""
"","7736.840000143275","sequential-stimulus-presentation","275","1099971","0.0-50.0-1.7","SS1613082123346","trial","","40","800","8536.840000143275","images/stimuli/spore_stims/complex_18_B_c.gif","images/stimuli/spore_stims/complex_18_A_c.gif","","","","","14","complex_similar","images/stimuli/spore_stims/complex_18_B_c.gif","left","","","","",""
"","1287.8149999305606","html-keyboard-response","276","1101277","0.0-51.0","SS1613082123346","pref_question","","97","","","","","<video width ='960' height = '540' style='padding-top:8%' autoplay muted><source src='images/stimuli/wall_pref.mp4' type='video/mp4'></video>","1","left","25%","14","","","","","","","",""
"","6034.95500003919","sequential-stimulus-presentation","277","1108133","0.0-52.0","SS1613082123346","pref_reveal","","40","800","6834.95500003919","null","null","","","","","14","","","","deviant","","","",""
"","null","html-keyboard-response","278","1109442","0.0-53.0-0.0","SS1613082123346","","","null","","","","","<p><img src= images/blank.png width =""200"" height = ""200"" style = ""float:right""></p><p><img src=images/blank.png width =""800"" height = ""200""></p>","","","","","","","","","","","",""
"","2222.5649999454618","sequential-stimulus-presentation","279","1112485","0.0-53.0-1.0","SS1613082123346","trial","","40","800","3022.5649999454618","images/stimuli/spore_stims/simple_08_A_d.gif","images/stimuli/spore_stims/simple_08_B_d.gif","","","","","15","simple_similar","images/stimuli/spore_stims/simple_08_B_d.gif","right","","","","",""
"","null","html-keyboard-response","280","1113791","0.0-53.0-0.1","SS1613082123346","","","null","","","","","<p><img src= images/blank.png width =""200"" height = ""200"" style = ""float:right""></p><p><img src=images/blank.png width =""800"" height = ""200""></p>","","","","","","","","","","","",""
"","807.740000076592","sequential-stimulus-presentation","281","1115420","0.0-53.0-1.1","SS1613082123346","trial","","40","800","1607.740000076592","images/stimuli/spore_stims/simple_08_A_d.gif","images/stimuli/spore_stims/simple_08_B_d.gif","","","","","15","simple_similar","images/stimuli/spore_stims/simple_08_B_d.gif","right","","","","",""
"","null","html-keyboard-response","282","1116646","0.0-53.0-0.2","SS1613082123346","","","null","","","","","<p><img src= images/blank.png width =""200"" height = ""200"" style = ""float:right""></p><p><img src=images/blank.png width =""800"" height = ""200""></p>","","","","","","","","","","","",""
"","1584.7249999642372","sequential-stimulus-presentation","283","1119052","0.0-53.0-1.2","SS1613082123346","trial","","40","800","2384.724999964237","images/stimuli/spore_stims/simple_08_A_d.gif","images/stimuli/spore_stims/simple_08_B_d.gif","","","","","15","simple_similar","images/stimuli/spore_stims/simple_08_B_d.gif","right","","","","",""
"","null","html-keyboard-response","284","1119974","0.0-53.0-0.3","SS1613082123346","","","null","","","","","<p><img src= images/blank.png width =""200"" height = ""200"" style = ""float:right""></p><p><img src=images/blank.png width =""800"" height = ""200""></p>","","","","","","","","","","","",""
"","1405.1699999254197","sequential-stimulus-presentation","285","1122196","0.0-53.0-1.3","SS1613082123346","trial","","40","800","2205.1699999254197","images/stimuli/spore_stims/simple_08_A_d.gif","images/stimuli/spore_stims/simple_08_B_d.gif","","","","","15","simple_similar","images/stimuli/spore_stims/simple_08_B_d.gif","right","","","","",""
"","null","html-keyboard-response","286","1123368","0.0-53.0-0.4","SS1613082123346","","","null","","","","","<p><img src= images/blank.png width =""200"" height = ""200"" style = ""float:right""></p><p><img src=images/blank.png width =""800"" height = ""200""></p>","","","","","","","","","","","",""
"","4297.0499999355525","sequential-stimulus-presentation","287","1128485","0.0-53.0-1.4","SS1613082123346","trial","","40","800","5097.0499999355525","images/stimuli/spore_stims/simple_08_A_d.gif","images/stimuli/spore_stims/simple_08_B_d.gif","","","","","15","simple_similar","images/stimuli/spore_stims/simple_08_B_d.gif","right","","","","",""
"","null","html-keyboard-response","288","1129618","0.0-53.0-0.5","SS1613082123346","","","null","","","","","<p><img src= images/blank.png width =""200"" height = ""200"" style = ""float:right""></p><p><img src=images/blank.png width =""800"" height = ""200""></p>","","","","","","","","","","","",""
"","1786.0850000288337","sequential-stimulus-presentation","289","1132218","0.0-53.0-1.5","SS1613082123346","trial","","40","800","2586.0850000288337","images/stimuli/spore_stims/simple_08_A_d.gif","images/stimuli/spore_stims/simple_08_B_d.gif","","","","","15","simple_similar","images/stimuli/spore_stims/simple_08_B_d.gif","right","","","","",""
"","null","html-keyboard-response","290","1133415","0.0-53.0-0.6","SS1613082123346","","","null","","","","","<p><img src= images/blank.png width =""200"" height = ""200"" style = ""float:right""></p><p><img src=images/blank.png width =""800"" height = ""200""></p>","","","","","","","","","","","",""
"","1449.1400001570582","sequential-stimulus-presentation","291","1135682","0.0-53.0-1.6","SS1613082123346","trial","","40","800","2249.1400001570582","images/stimuli/spore_stims/simple_08_A_d.gif","images/stimuli/spore_stims/simple_08_B_d.gif","","","","","15","simple_similar","images/stimuli/spore_stims/simple_08_A_d.gif","left","","","","",""
"","null","html-keyboard-response","292","1136575","0.0-53.0-0.7","SS1613082123346","","","null","","","","","<p><img src= images/blank.png width =""200"" height = ""200"" style = ""float:right""></p><p><img src=images/blank.png width =""800"" height = ""200""></p>","","","","","","","","","","","",""
"","774.1149999201298","sequential-stimulus-presentation","293","1138171","0.0-53.0-1.7","SS1613082123346","trial","","40","800","1574.1149999201298","images/stimuli/spore_stims/simple_08_A_d.gif","images/stimuli/spore_stims/simple_08_B_d.gif","","","","","15","simple_similar","images/stimuli/spore_stims/simple_08_B_d.gif","right","","","","",""
"","1269.0200000070035","html-keyboard-response","294","1139452","0.0-54.0","SS1613082123346","pref_question","","97","","","","","<video width ='960' height = '540' style='padding-top:8%' autoplay muted><source src='images/stimuli/wall_pref.mp4' type='video/mp4'></video>","1","left","25%","15","","","","","","","",""
"","25.734999915584922","sequential-stimulus-presentation","295","1140330","0.0-55.0","SS1613082123346","pref_reveal","","40","800","825.7349999155849","null","null","","","","","15","","","","deviant","","","",""
"","null","html-keyboard-response","296","1141450","0.0-56.0-0.0","SS1613082123346","","","null","","","","","<p><img src= images/blank.png width =""200"" height = ""200"" style = ""float:right""></p><p><img src=images/blank.png width =""800"" height = ""200""></p>","","","","","","","","","","","",""
"","888.0099998787045","sequential-stimulus-presentation","297","1143155","0.0-56.0-1.0","SS1613082123346","trial","","40","800","1688.0099998787045","images/stimuli/spore_stims/simple_05_B_c.gif","images/stimuli/spore_stims/simple_18_A_a.gif","","","","","16","simple_dissimilar","images/stimuli/spore_stims/simple_18_A_a.gif","middle","","","","",""
"","null","html-keyboard-response","298","1144287","0.0-56.0-0.1","SS1613082123346","","","null","","","","","<p><img src= images/blank.png width =""200"" height = ""200"" style = ""float:right""></p><p><img src=images/blank.png width =""800"" height = ""200""></p>","","","","","","","","","","","",""
"","749.4349998887628","sequential-stimulus-presentation","299","1145859","0.0-56.0-1.1","SS1613082123346","trial","","40","800","1549.4349998887628","images/stimuli/spore_stims/simple_05_B_c.gif","images/stimuli/spore_stims/simple_18_A_a.gif","","","","","16","simple_dissimilar","images/stimuli/spore_stims/simple_18_A_a.gif","middle","","","","",""
"","null","html-keyboard-response","300","1146962","0.0-56.0-0.2","SS1613082123346","","","null","","","","","<p><img src= images/blank.png width =""200"" height = ""200"" style = ""float:right""></p><p><img src=images/blank.png width =""800"" height = ""200""></p>","","","","","","","","","","","",""
"","1131.6349999979138","sequential-stimulus-presentation","301","1148938","0.0-56.0-1.2","SS1613082123346","trial","","40","800","1931.6349999979138","images/stimuli/spore_stims/simple_05_B_c.gif","images/stimuli/spore_stims/simple_18_A_a.gif","","","","","16","simple_dissimilar","images/stimuli/spore_stims/simple_18_A_a.gif","middle","","","","",""
"","null","html-keyboard-response","302","1150067","0.0-56.0-0.3","SS1613082123346","","","null","","","","","<p><img src= images/blank.png width =""200"" height = ""200"" style = ""float:right""></p><p><img src=images/blank.png width =""800"" height = ""200""></p>","","","","","","","","","","","",""
"","389.29999992251396","sequential-stimulus-presentation","303","1151274","0.0-56.0-1.3","SS1613082123346","trial","","40","800","1189.299999922514","images/stimuli/spore_stims/simple_05_B_c.gif","images/stimuli/spore_stims/simple_18_A_a.gif","","","","","16","simple_dissimilar","images/stimuli/spore_stims/simple_18_A_a.gif","middle","","","","",""
"","null","html-keyboard-response","304","1152298","0.0-56.0-0.4","SS1613082123346","","","null","","","","","<p><img src= images/blank.png width =""200"" height = ""200"" style = ""float:right""></p><p><img src=images/blank.png width =""800"" height = ""200""></p>","","","","","","","","","","","",""
"","98.60999998636544","sequential-stimulus-presentation","305","1153209","0.0-56.0-1.4","SS1613082123346","trial","","40","800","898.6099999863654","images/stimuli/spore_stims/simple_05_B_c.gif","images/stimuli/spore_stims/simple_18_A_a.gif","","","","","16","simple_dissimilar","images/stimuli/spore_stims/simple_18_A_a.gif","middle","","","","",""
"","null","html-keyboard-response","306","1154110","0.0-56.0-0.5","SS1613082123346","","","null","","","","","<p><img src= images/blank.png width =""200"" height = ""200"" style = ""float:right""></p><p><img src=images/blank.png width =""800"" height = ""200""></p>","","","","","","","","","","","",""
"","169.63500017300248","sequential-stimulus-presentation","307","1155100","0.0-56.0-1.5","SS1613082123346","trial","","40","800","969.6350001730025","images/stimuli/spore_stims/simple_05_B_c.gif","images/stimuli/spore_stims/simple_18_A_a.gif","","","","","16","simple_dissimilar","images/stimuli/spore_stims/simple_05_B_c.gif","left","","","","",""
"","null","html-keyboard-response","308","1156024","0.0-56.0-0.6","SS1613082123346","","","null","","","","","<p><img src= images/blank.png width =""200"" height = ""200"" style = ""float:right""></p><p><img src=images/blank.png width =""800"" height = ""200""></p>","","","","","","","","","","","",""
"","200.93500008806586","sequential-stimulus-presentation","309","1157042","0.0-56.0-1.6","SS1613082123346","trial","","40","800","1000.9350000880659","images/stimuli/spore_stims/simple_05_B_c.gif","images/stimuli/spore_stims/simple_18_A_a.gif","","","","","16","simple_dissimilar","images/stimuli/spore_stims/simple_18_A_a.gif","middle","","","","",""
"","null","html-keyboard-response","310","1158265","0.0-56.0-0.7","SS1613082123346","","","null","","","","","<p><img src= images/blank.png width =""200"" height = ""200"" style = ""float:right""></p><p><img src=images/blank.png width =""800"" height = ""200""></p>","","","","","","","","","","","",""
"","405.1250000484288","sequential-stimulus-presentation","311","1159482","0.0-56.0-1.7","SS1613082123346","trial","","40","800","1205.1250000484288","images/stimuli/spore_stims/simple_05_B_c.gif","images/stimuli/spore_stims/simple_18_A_a.gif","","","","","16","simple_dissimilar","images/stimuli/spore_stims/simple_18_A_a.gif","middle","","","","",""
