"view_history","rt","trial_type","trial_index","time_elapsed","internal_node_id","subject","stimulus_type","trial_stimulus","key_press","minimum_viewing_duration","trial_looking_time","block_deviant","block_background","stimulus","wall_pref","location","location_percent","block_number","block_type","stimulus_displayed","position_displayed","stim_type_selected","responses","question_order","stimulus_left","stimulus_right"
"[{""page_index"":0,""viewing_time"":5934.129999950528}]","5935.035000089556","instructions","0","5937","0.0-0.0","SS1613079990976","","","","","","","","","","","","","","","","","","","",""
"[{""page_index"":0,""viewing_time"":3879.3100002221763},{""page_index"":1,""viewing_time"":9518.054999876767}]","13397.65499997884","instructions","1","21338","0.0-1.0","SS1613079990976","instructions","","","","","","","","","","","","","","","","","","",""
"","4167.9600002244115","sequential-stimulus-presentation","2","26405","0.0-2.0","SS1613079990976","","","40","800","4967.9600002244115","null","null","","","","","","","","","","","","",""
"","1192.8350003436208","sequential-stimulus-presentation","3","28405","0.0-3.0","SS1613079990976","","","40","800","1992.8350003436208","null","null","","","","","","","","","","","","",""
"[{""page_index"":0,""viewing_time"":1651.7650000751019}]","1652.0199999213219","instructions","4","30059","0.0-4.0","SS1613079990976","instructions","","","","","","","","","","","","","","","","","","",""
"","11233.750000130385","html-keyboard-response","5","41297","0.0-5.0","SS1613079990976","instructions","","50","","","","","<video width ='960' height = '540' autoplay muted><source src='images/stimuli/wall_pref.mp4' type='video/mp4'></video>","2","middle","45%","","","","","","","","",""
"","1386.9499997235835","sequential-stimulus-presentation","6","43494","0.0-6.0","SS1613079990976","pref_reveal","","40","800","2186.9499997235835","null","null","","","","","","","","","","","","",""
"[{""page_index"":0,""viewing_time"":1472.3950000479817},{""page_index"":1,""viewing_time"":3175.679999869317},{""page_index"":2,""viewing_time"":2702.440000139177},{""page_index"":3,""viewing_time"":977.5450001470745}]","8328.354999888688","instructions","7","51823","0.0-7.0","SS1613079990976","instructions","","","","","","","","","","","","","","","","","","",""
"","null","html-keyboard-response","8","53086","0.0-8.0-0.0","SS1613079990976","","","null","","","","","<p><img src= images/blank.png width =""200"" height = ""200"" style = ""float:right""></p><p><img src=images/blank.png width =""800"" height = ""200""></p>","","","","","","","","","","","",""
"","1821.059999987483","sequential-stimulus-presentation","9","55713","0.0-8.0-1.0","SS1613079990976","trial","","40","800","2621.059999987483","images/stimuli/spore_stims/simple_03_A_a.gif","images/stimuli/spore_stims/simple_08_A_a.gif","","","","","0","simple_dissimilar","images/stimuli/spore_stims/simple_08_A_a.gif","left","","","","",""
"","null","html-keyboard-response","10","56837","0.0-8.0-0.1","SS1613079990976","","","null","","","","","<p><img src= images/blank.png width =""200"" height = ""200"" style = ""float:right""></p><p><img src=images/blank.png width =""800"" height = ""200""></p>","","","","","","","","","","","",""
"","850.0350001268089","sequential-stimulus-presentation","11","58499","0.0-8.0-1.1","SS1613079990976","trial","","40","800","1650.0350001268089","images/stimuli/spore_stims/simple_03_A_a.gif","images/stimuli/spore_stims/simple_08_A_a.gif","","","","","0","simple_dissimilar","images/stimuli/spore_stims/simple_08_A_a.gif","left","","","","",""
"","null","html-keyboard-response","12","59435","0.0-8.0-0.2","SS1613079990976","","","null","","","","","<p><img src= images/blank.png width =""200"" height = ""200"" style = ""float:right""></p><p><img src=images/blank.png width =""800"" height = ""200""></p>","","","","","","","","","","","",""
"","4312.4449998140335","sequential-stimulus-presentation","13","64554","0.0-8.0-1.2","SS1613079990976","trial","","40","800","5112.4449998140335","images/stimuli/spore_stims/simple_03_A_a.gif","images/stimuli/spore_stims/simple_08_A_a.gif","","","","","0","simple_dissimilar","images/stimuli/spore_stims/simple_08_A_a.gif","left","","","","",""
"","null","html-keyboard-response","14","65639","0.0-8.0-0.3","SS1613079990976","","","null","","","","","<p><img src= images/blank.png width =""200"" height = ""200"" style = ""float:right""></p><p><img src=images/blank.png width =""800"" height = ""200""></p>","","","","","","","","","","","",""
"","591.4850002154708","sequential-stimulus-presentation","15","67043","0.0-8.0-1.3","SS1613079990976","trial","","40","800","1391.4850002154708","images/stimuli/spore_stims/simple_03_A_a.gif","images/stimuli/spore_stims/simple_08_A_a.gif","","","","","0","simple_dissimilar","images/stimuli/spore_stims/simple_08_A_a.gif","left","","","","",""
"","null","html-keyboard-response","16","68113","0.0-8.0-0.4","SS1613079990976","","","null","","","","","<p><img src= images/blank.png width =""200"" height = ""200"" style = ""float:right""></p><p><img src=images/blank.png width =""800"" height = ""200""></p>","","","","","","","","","","","",""
"","729.154999833554","sequential-stimulus-presentation","17","69794","0.0-8.0-1.4","SS1613079990976","trial","","40","800","1529.154999833554","images/stimuli/spore_stims/simple_03_A_a.gif","images/stimuli/spore_stims/simple_08_A_a.gif","","","","","0","simple_dissimilar","images/stimuli/spore_stims/simple_08_A_a.gif","left","","","","",""
"","null","html-keyboard-response","18","70774","0.0-8.0-0.5","SS1613079990976","","","null","","","","","<p><img src= images/blank.png width =""200"" height = ""200"" style = ""float:right""></p><p><img src=images/blank.png width =""800"" height = ""200""></p>","","","","","","","","","","","",""
"","1481.9550001993775","sequential-stimulus-presentation","19","73066","0.0-8.0-1.5","SS1613079990976","trial","","40","800","2281.9550001993775","images/stimuli/spore_stims/simple_03_A_a.gif","images/stimuli/spore_stims/simple_08_A_a.gif","","","","","0","simple_dissimilar","images/stimuli/spore_stims/simple_03_A_a.gif","right","","","","",""
"","null","html-keyboard-response","20","74263","0.0-8.0-0.6","SS1613079990976","","","null","","","","","<p><img src= images/blank.png width =""200"" height = ""200"" style = ""float:right""></p><p><img src=images/blank.png width =""800"" height = ""200""></p>","","","","","","","","","","","",""
"","3239.6249999292195","sequential-stimulus-presentation","21","78394","0.0-8.0-1.6","SS1613079990976","trial","","40","800","4039.6249999292195","images/stimuli/spore_stims/simple_03_A_a.gif","images/stimuli/spore_stims/simple_08_A_a.gif","","","","","0","simple_dissimilar","images/stimuli/spore_stims/simple_08_A_a.gif","left","","","","",""
"","null","html-keyboard-response","22","79304","0.0-8.0-0.7","SS1613079990976","","","null","","","","","<p><img src= images/blank.png width =""200"" height = ""200"" style = ""float:right""></p><p><img src=images/blank.png width =""800"" height = ""200""></p>","","","","","","","","","","","",""
"","346.64000011980534","sequential-stimulus-presentation","23","80457","0.0-8.0-1.7","SS1613079990976","trial","","40","800","1146.6400001198053","images/stimuli/spore_stims/simple_03_A_a.gif","images/stimuli/spore_stims/simple_08_A_a.gif","","","","","0","simple_dissimilar","images/stimuli/spore_stims/simple_08_A_a.gif","left","","","","",""
"","1597.7749996818602","html-keyboard-response","24","82059","0.0-9.0","SS1613079990976","pref_question","","49","","","","","<video width ='960' height = '540' style='padding-top:8%' autoplay muted><source src='images/stimuli/wall_pref.mp4' type='video/mp4'></video>","1","left","25%","0","","","","","","","",""
"","472.88000024855137","sequential-stimulus-presentation","25","83336","0.0-10.0","SS1613079990976","pref_reveal","","40","800","1272.8800002485514","null","null","","","","","0","","","","background","","","",""
"","null","html-keyboard-response","26","84265","0.0-11.0-0.0","SS1613079990976","","","null","","","","","<p><img src= images/blank.png width =""200"" height = ""200"" style = ""float:right""></p><p><img src=images/blank.png width =""800"" height = ""200""></p>","","","","","","","","","","","",""
"","769.6099998429418","sequential-stimulus-presentation","27","85846","0.0-11.0-1.0","SS1613079990976","trial","","40","800","1569.6099998429418","images/stimuli/spore_stims/complex_10_A_a.gif","images/stimuli/spore_stims/complex_10_B_a.gif","","","","","1","complex_similar","images/stimuli/spore_stims/complex_10_B_a.gif","left","","","","",""
"","null","html-keyboard-response","28","86833","0.0-11.0-0.1","SS1613079990976","","","null","","","","","<p><img src= images/blank.png width =""200"" height = ""200"" style = ""float:right""></p><p><img src=images/blank.png width =""800"" height = ""200""></p>","","","","","","","","","","","",""
"","142.98000000417233","sequential-stimulus-presentation","29","87781","0.0-11.0-1.1","SS1613079990976","trial","","40","800","942.9800000041723","images/stimuli/spore_stims/complex_10_A_a.gif","images/stimuli/spore_stims/complex_10_B_a.gif","","","","","1","complex_similar","images/stimuli/spore_stims/complex_10_B_a.gif","left","","","","",""
"","null","html-keyboard-response","30","89005","0.0-11.0-0.2","SS1613079990976","","","null","","","","","<p><img src= images/blank.png width =""200"" height = ""200"" style = ""float:right""></p><p><img src=images/blank.png width =""800"" height = ""200""></p>","","","","","","","","","","","",""
"","1961.7250002920628","sequential-stimulus-presentation","31","91774","0.0-11.0-1.2","SS1613079990976","trial","","40","800","2761.7250002920628","images/stimuli/spore_stims/complex_10_A_a.gif","images/stimuli/spore_stims/complex_10_B_a.gif","","","","","1","complex_similar","images/stimuli/spore_stims/complex_10_B_a.gif","left","","","","",""
"","null","html-keyboard-response","32","92623","0.0-11.0-0.3","SS1613079990976","","","null","","","","","<p><img src= images/blank.png width =""200"" height = ""200"" style = ""float:right""></p><p><img src=images/blank.png width =""800"" height = ""200""></p>","","","","","","","","","","","",""
"","328.814999666065","sequential-stimulus-presentation","33","93757","0.0-11.0-1.3","SS1613079990976","trial","","40","800","1128.814999666065","images/stimuli/spore_stims/complex_10_A_a.gif","images/stimuli/spore_stims/complex_10_B_a.gif","","","","","1","complex_similar","images/stimuli/spore_stims/complex_10_B_a.gif","left","","","","",""
"","null","html-keyboard-response","34","95004","0.0-11.0-0.4","SS1613079990976","","","null","","","","","<p><img src= images/blank.png width =""200"" height = ""200"" style = ""float:right""></p><p><img src=images/blank.png width =""800"" height = ""200""></p>","","","","","","","","","","","",""
"","432.31500033289194","sequential-stimulus-presentation","35","96257","0.0-11.0-1.4","SS1613079990976","trial","","40","800","1232.315000332892","images/stimuli/spore_stims/complex_10_A_a.gif","images/stimuli/spore_stims/complex_10_B_a.gif","","","","","1","complex_similar","images/stimuli/spore_stims/complex_10_A_a.gif","middle","","","","",""
"","null","html-keyboard-response","36","97225","0.0-11.0-0.5","SS1613079990976","","","null","","","","","<p><img src= images/blank.png width =""200"" height = ""200"" style = ""float:right""></p><p><img src=images/blank.png width =""800"" height = ""200""></p>","","","","","","","","","","","",""
"","243.6850001104176","sequential-stimulus-presentation","37","98276","0.0-11.0-1.5","SS1613079990976","trial","","40","800","1043.6850001104176","images/stimuli/spore_stims/complex_10_A_a.gif","images/stimuli/spore_stims/complex_10_B_a.gif","","","","","1","complex_similar","images/stimuli/spore_stims/complex_10_B_a.gif","left","","","","",""
"","null","html-keyboard-response","38","99100","0.0-11.0-0.6","SS1613079990976","","","null","","","","","<p><img src= images/blank.png width =""200"" height = ""200"" style = ""float:right""></p><p><img src=images/blank.png width =""800"" height = ""200""></p>","","","","","","","","","","","",""
"","262.48000003397465","sequential-stimulus-presentation","39","100167","0.0-11.0-1.6","SS1613079990976","trial","","40","800","1062.4800000339746","images/stimuli/spore_stims/complex_10_A_a.gif","images/stimuli/spore_stims/complex_10_B_a.gif","","","","","1","complex_similar","images/stimuli/spore_stims/complex_10_B_a.gif","left","","","","",""
"","null","html-keyboard-response","40","101324","0.0-11.0-0.7","SS1613079990976","","","null","","","","","<p><img src= images/blank.png width =""200"" height = ""200"" style = ""float:right""></p><p><img src=images/blank.png width =""800"" height = ""200""></p>","","","","","","","","","","","",""
"","701.3599998317659","sequential-stimulus-presentation","41","102830","0.0-11.0-1.7","SS1613079990976","trial","","40","800","1501.359999831766","images/stimuli/spore_stims/complex_10_A_a.gif","images/stimuli/spore_stims/complex_10_B_a.gif","","","","","1","complex_similar","images/stimuli/spore_stims/complex_10_B_a.gif","left","","","","",""
"","5884.265000000596","html-keyboard-response","42","108719","0.0-12.0","SS1613079990976","pref_question","","49","","","","","<video width ='960' height = '540' style='padding-top:8%' autoplay muted><source src='images/stimuli/wall_pref.mp4' type='video/mp4'></video>","1","left","25%","1","","","","","","","",""
"","1821.7799998819828","sequential-stimulus-presentation","43","111347","0.0-13.0","SS1613079990976","pref_reveal","","40","800","2621.779999881983","null","null","","","","","1","","","","background","","","",""
"","null","html-keyboard-response","44","112203","0.0-14.0-0.0","SS1613079990976","","","null","","","","","<p><img src= images/blank.png width =""200"" height = ""200"" style = ""float:right""></p><p><img src=images/blank.png width =""800"" height = ""200""></p>","","","","","","","","","","","",""
"","114.37499988824129","sequential-stimulus-presentation","45","113126","0.0-14.0-1.0","SS1613079990976","trial","","40","800","914.3749998882413","images/stimuli/spore_stims/complex_13_B_a.gif","images/stimuli/spore_stims/complex_07_A_a.gif","","","","","2","complex_dissimilar","images/stimuli/spore_stims/complex_07_A_a.gif","right","","","","",""
"","null","html-keyboard-response","46","114067","0.0-14.0-0.1","SS1613079990976","","","null","","","","","<p><img src= images/blank.png width =""200"" height = ""200"" style = ""float:right""></p><p><img src=images/blank.png width =""800"" height = ""200""></p>","","","","","","","","","","","",""
"","541.0400000400841","sequential-stimulus-presentation","47","115418","0.0-14.0-1.1","SS1613079990976","trial","","40","800","1341.0400000400841","images/stimuli/spore_stims/complex_13_B_a.gif","images/stimuli/spore_stims/complex_07_A_a.gif","","","","","2","complex_dissimilar","images/stimuli/spore_stims/complex_07_A_a.gif","right","","","","",""
"","null","html-keyboard-response","48","116312","0.0-14.0-0.2","SS1613079990976","","","null","","","","","<p><img src= images/blank.png width =""200"" height = ""200"" style = ""float:right""></p><p><img src=images/blank.png width =""800"" height = ""200""></p>","","","","","","","","","","","",""
"","96.5699995867908","sequential-stimulus-presentation","49","117215","0.0-14.0-1.2","SS1613079990976","trial","","40","800","896.5699995867908","images/stimuli/spore_stims/complex_13_B_a.gif","images/stimuli/spore_stims/complex_07_A_a.gif","","","","","2","complex_dissimilar","images/stimuli/spore_stims/complex_07_A_a.gif","right","","","","",""
"","null","html-keyboard-response","50","118384","0.0-14.0-0.3","SS1613079990976","","","null","","","","","<p><img src= images/blank.png width =""200"" height = ""200"" style = ""float:right""></p><p><img src=images/blank.png width =""800"" height = ""200""></p>","","","","","","","","","","","",""
"","122.83500004559755","sequential-stimulus-presentation","51","119313","0.0-14.0-1.3","SS1613079990976","trial","","40","800","922.8350000455976","images/stimuli/spore_stims/complex_13_B_a.gif","images/stimuli/spore_stims/complex_07_A_a.gif","","","","","2","complex_dissimilar","images/stimuli/spore_stims/complex_07_A_a.gif","right","","","","",""
"","null","html-keyboard-response","52","120574","0.0-14.0-0.4","SS1613079990976","","","null","","","","","<p><img src= images/blank.png width =""200"" height = ""200"" style = ""float:right""></p><p><img src=images/blank.png width =""800"" height = ""200""></p>","","","","","","","","","","","",""
"","213.89500005170703","sequential-stimulus-presentation","53","121594","0.0-14.0-1.4","SS1613079990976","trial","","40","800","1013.895000051707","images/stimuli/spore_stims/complex_13_B_a.gif","images/stimuli/spore_stims/complex_07_A_a.gif","","","","","2","complex_dissimilar","images/stimuli/spore_stims/complex_13_B_a.gif","middle","","","","",""
"","null","html-keyboard-response","54","122743","0.0-14.0-0.5","SS1613079990976","","","null","","","","","<p><img src= images/blank.png width =""200"" height = ""200"" style = ""float:right""></p><p><img src=images/blank.png width =""800"" height = ""200""></p>","","","","","","","","","","","",""
"","110.70000007748604","sequential-stimulus-presentation","55","123801","0.0-14.0-1.5","SS1613079990976","trial","","40","800","910.700000077486","images/stimuli/spore_stims/complex_13_B_a.gif","images/stimuli/spore_stims/complex_07_A_a.gif","","","","","2","complex_dissimilar","images/stimuli/spore_stims/complex_07_A_a.gif","right","","","","",""
"","null","html-keyboard-response","56","125053","0.0-14.0-0.6","SS1613079990976","","","null","","","","","<p><img src= images/blank.png width =""200"" height = ""200"" style = ""float:right""></p><p><img src=images/blank.png width =""800"" height = ""200""></p>","","","","","","","","","","","",""
"","467.9650003090501","sequential-stimulus-presentation","57","126330","0.0-14.0-1.6","SS1613079990976","trial","","40","800","1267.96500030905","images/stimuli/spore_stims/complex_13_B_a.gif","images/stimuli/spore_stims/complex_07_A_a.gif","","","","","2","complex_dissimilar","images/stimuli/spore_stims/complex_07_A_a.gif","right","","","","",""
"","null","html-keyboard-response","58","127207","0.0-14.0-0.7","SS1613079990976","","","null","","","","","<p><img src= images/blank.png width =""200"" height = ""200"" style = ""float:right""></p><p><img src=images/blank.png width =""800"" height = ""200""></p>","","","","","","","","","","","",""
"","395.8499999716878","sequential-stimulus-presentation","59","128408","0.0-14.0-1.7","SS1613079990976","trial","","40","800","1195.8499999716878","images/stimuli/spore_stims/complex_13_B_a.gif","images/stimuli/spore_stims/complex_07_A_a.gif","","","","","2","complex_dissimilar","images/stimuli/spore_stims/complex_07_A_a.gif","right","","","","",""
"","0.599999912083149","html-keyboard-response","60","128417","0.0-15.0","SS1613079990976","pref_question","","49","","","","","<video width ='960' height = '540' style='padding-top:8%' autoplay muted><source src='images/stimuli/wall_pref.mp4' type='video/mp4'></video>","1","left","25%","2","","","","","","","",""
"","132.0999995805323","sequential-stimulus-presentation","61","129360","0.0-16.0","SS1613079990976","pref_reveal","","40","800","932.0999995805323","null","null","","","","","2","","","","novel","","","",""
"","null","html-keyboard-response","62","130323","0.0-17.0-0.0","SS1613079990976","","","null","","","","","<p><img src= images/blank.png width =""200"" height = ""200"" style = ""float:right""></p><p><img src=images/blank.png width =""800"" height = ""200""></p>","","","","","","","","","","","",""
"","635.6750000268221","sequential-stimulus-presentation","63","131789","0.0-17.0-1.0","SS1613079990976","trial","","40","800","1435.675000026822","images/stimuli/spore_stims/complex_18_A_d.gif","images/stimuli/spore_stims/complex_03_B_c.gif","","","","","3","complex_dissimilar","images/stimuli/spore_stims/complex_03_B_c.gif","middle","","","","",""
"","null","html-keyboard-response","64","132770","0.0-17.0-0.1","SS1613079990976","","","null","","","","","<p><img src= images/blank.png width =""200"" height = ""200"" style = ""float:right""></p><p><img src=images/blank.png width =""800"" height = ""200""></p>","","","","","","","","","","","",""
"","501.674999948591","sequential-stimulus-presentation","65","134078","0.0-17.0-1.1","SS1613079990976","trial","","40","800","1301.674999948591","images/stimuli/spore_stims/complex_18_A_d.gif","images/stimuli/spore_stims/complex_03_B_c.gif","","","","","3","complex_dissimilar","images/stimuli/spore_stims/complex_03_B_c.gif","middle","","","","",""
"","null","html-keyboard-response","66","135045","0.0-17.0-0.2","SS1613079990976","","","null","","","","","<p><img src= images/blank.png width =""200"" height = ""200"" style = ""float:right""></p><p><img src=images/blank.png width =""800"" height = ""200""></p>","","","","","","","","","","","",""
"","383.4200003184378","sequential-stimulus-presentation","67","136239","0.0-17.0-1.2","SS1613079990976","trial","","40","800","1183.4200003184378","images/stimuli/spore_stims/complex_18_A_d.gif","images/stimuli/spore_stims/complex_03_B_c.gif","","","","","3","complex_dissimilar","images/stimuli/spore_stims/complex_03_B_c.gif","middle","","","","",""
"","null","html-keyboard-response","68","137089","0.0-17.0-0.3","SS1613079990976","","","null","","","","","<p><img src= images/blank.png width =""200"" height = ""200"" style = ""float:right""></p><p><img src=images/blank.png width =""800"" height = ""200""></p>","","","","","","","","","","","",""
"","638.5000003501773","sequential-stimulus-presentation","69","138540","0.0-17.0-1.3","SS1613079990976","trial","","40","800","1438.5000003501773","images/stimuli/spore_stims/complex_18_A_d.gif","images/stimuli/spore_stims/complex_03_B_c.gif","","","","","3","complex_dissimilar","images/stimuli/spore_stims/complex_18_A_d.gif","right","","","","",""
"","null","html-keyboard-response","70","139814","0.0-17.0-0.4","SS1613079990976","","","null","","","","","<p><img src= images/blank.png width =""200"" height = ""200"" style = ""float:right""></p><p><img src=images/blank.png width =""800"" height = ""200""></p>","","","","","","","","","","","",""
"","1428.319999948144","sequential-stimulus-presentation","71","142048","0.0-17.0-1.4","SS1613079990976","trial","","40","800","2228.319999948144","images/stimuli/spore_stims/complex_18_A_d.gif","images/stimuli/spore_stims/complex_03_B_c.gif","","","","","3","complex_dissimilar","images/stimuli/spore_stims/complex_03_B_c.gif","middle","","","","",""
"","null","html-keyboard-response","72","142863","0.0-17.0-0.5","SS1613079990976","","","null","","","","","<p><img src= images/blank.png width =""200"" height = ""200"" style = ""float:right""></p><p><img src=images/blank.png width =""800"" height = ""200""></p>","","","","","","","","","","","",""
"","1586.2949998117983","sequential-stimulus-presentation","73","145260","0.0-17.0-1.5","SS1613079990976","trial","","40","800","2386.2949998117983","images/stimuli/spore_stims/complex_18_A_d.gif","images/stimuli/spore_stims/complex_03_B_c.gif","","","","","3","complex_dissimilar","images/stimuli/spore_stims/complex_03_B_c.gif","middle","","","","",""
"","null","html-keyboard-response","74","146255","0.0-17.0-0.6","SS1613079990976","","","null","","","","","<p><img src= images/blank.png width =""200"" height = ""200"" style = ""float:right""></p><p><img src=images/blank.png width =""800"" height = ""200""></p>","","","","","","","","","","","",""
"","735.7050003483891","sequential-stimulus-presentation","75","147797","0.0-17.0-1.6","SS1613079990976","trial","","40","800","1535.7050003483891","images/stimuli/spore_stims/complex_18_A_d.gif","images/stimuli/spore_stims/complex_03_B_c.gif","","","","","3","complex_dissimilar","images/stimuli/spore_stims/complex_03_B_c.gif","middle","","","","",""
"","null","html-keyboard-response","76","148835","0.0-17.0-0.7","SS1613079990976","","","null","","","","","<p><img src= images/blank.png width =""200"" height = ""200"" style = ""float:right""></p><p><img src=images/blank.png width =""800"" height = ""200""></p>","","","","","","","","","","","",""
"","740.4249999672174","sequential-stimulus-presentation","77","150382","0.0-17.0-1.7","SS1613079990976","trial","","40","800","1540.4249999672174","images/stimuli/spore_stims/complex_18_A_d.gif","images/stimuli/spore_stims/complex_03_B_c.gif","","","","","3","complex_dissimilar","images/stimuli/spore_stims/complex_03_B_c.gif","middle","","","","",""
"","1148.8749999552965","html-keyboard-response","78","151550","0.0-18.0","SS1613079990976","pref_question","","50","","","","","<video width ='960' height = '540' style='padding-top:8%' autoplay muted><source src='images/stimuli/wall_pref.mp4' type='video/mp4'></video>","2","middle","45%","3","","","","","","","",""
"","416.6500000283122","sequential-stimulus-presentation","79","152774","0.0-19.0","SS1613079990976","pref_reveal","","40","800","1216.6500000283122","null","null","","","","","3","","","","background","","","",""
"","null","html-keyboard-response","80","154043","0.0-20.0-0.0","SS1613079990976","","","null","","","","","<p><img src= images/blank.png width =""200"" height = ""200"" style = ""float:right""></p><p><img src=images/blank.png width =""800"" height = ""200""></p>","","","","","","","","","","","",""
"","155.86999990046024","sequential-stimulus-presentation","81","155007","0.0-20.0-1.0","SS1613079990976","trial","","40","800","955.8699999004602","images/stimuli/spore_stims/complex_20_B_c.gif","images/stimuli/spore_stims/complex_19_A_a.gif","","","","","4","complex_dissimilar","images/stimuli/spore_stims/complex_19_A_a.gif","right","","","","",""
"","null","html-keyboard-response","82","156282","0.0-20.0-0.1","SS1613079990976","","","null","","","","","<p><img src= images/blank.png width =""200"" height = ""200"" style = ""float:right""></p><p><img src=images/blank.png width =""800"" height = ""200""></p>","","","","","","","","","","","",""
"","827.080000191927","sequential-stimulus-presentation","83","157917","0.0-20.0-1.1","SS1613079990976","trial","","40","800","1627.080000191927","images/stimuli/spore_stims/complex_20_B_c.gif","images/stimuli/spore_stims/complex_19_A_a.gif","","","","","4","complex_dissimilar","images/stimuli/spore_stims/complex_19_A_a.gif","right","","","","",""
"","null","html-keyboard-response","84","158976","0.0-20.0-0.2","SS1613079990976","","","null","","","","","<p><img src= images/blank.png width =""200"" height = ""200"" style = ""float:right""></p><p><img src=images/blank.png width =""800"" height = ""200""></p>","","","","","","","","","","","",""
"","624.6400000527501","sequential-stimulus-presentation","85","160407","0.0-20.0-1.2","SS1613079990976","trial","","40","800","1424.64000005275","images/stimuli/spore_stims/complex_20_B_c.gif","images/stimuli/spore_stims/complex_19_A_a.gif","","","","","4","complex_dissimilar","images/stimuli/spore_stims/complex_19_A_a.gif","right","","","","",""
"","null","html-keyboard-response","86","161561","0.0-20.0-0.3","SS1613079990976","","","null","","","","","<p><img src= images/blank.png width =""200"" height = ""200"" style = ""float:right""></p><p><img src=images/blank.png width =""800"" height = ""200""></p>","","","","","","","","","","","",""
"","708.5549999028444","sequential-stimulus-presentation","87","163077","0.0-20.0-1.3","SS1613079990976","trial","","40","800","1508.5549999028444","images/stimuli/spore_stims/complex_20_B_c.gif","images/stimuli/spore_stims/complex_19_A_a.gif","","","","","4","complex_dissimilar","images/stimuli/spore_stims/complex_19_A_a.gif","right","","","","",""
"","null","html-keyboard-response","88","164048","0.0-20.0-0.4","SS1613079990976","","","null","","","","","<p><img src= images/blank.png width =""200"" height = ""200"" style = ""float:right""></p><p><img src=images/blank.png width =""800"" height = ""200""></p>","","","","","","","","","","","",""
"","1145.2549998648465","sequential-stimulus-presentation","89","166005","0.0-20.0-1.4","SS1613079990976","trial","","40","800","1945.2549998648465","images/stimuli/spore_stims/complex_20_B_c.gif","images/stimuli/spore_stims/complex_19_A_a.gif","","","","","4","complex_dissimilar","images/stimuli/spore_stims/complex_19_A_a.gif","right","","","","",""
"","null","html-keyboard-response","90","167247","0.0-20.0-0.5","SS1613079990976","","","null","","","","","<p><img src= images/blank.png width =""200"" height = ""200"" style = ""float:right""></p><p><img src=images/blank.png width =""800"" height = ""200""></p>","","","","","","","","","","","",""
"","128.37499985471368","sequential-stimulus-presentation","91","168184","0.0-20.0-1.5","SS1613079990976","trial","","40","800","928.3749998547137","images/stimuli/spore_stims/complex_20_B_c.gif","images/stimuli/spore_stims/complex_19_A_a.gif","","","","","4","complex_dissimilar","images/stimuli/spore_stims/complex_19_A_a.gif","right","","","","",""
"","null","html-keyboard-response","92","169464","0.0-20.0-0.6","SS1613079990976","","","null","","","","","<p><img src= images/blank.png width =""200"" height = ""200"" style = ""float:right""></p><p><img src=images/blank.png width =""800"" height = ""200""></p>","","","","","","","","","","","",""
"","1151.5199998393655","sequential-stimulus-presentation","93","171440","0.0-20.0-1.6","SS1613079990976","trial","","40","800","1951.5199998393655","images/stimuli/spore_stims/complex_20_B_c.gif","images/stimuli/spore_stims/complex_19_A_a.gif","","","","","4","complex_dissimilar","images/stimuli/spore_stims/complex_20_B_c.gif","middle","","","","",""
"","null","html-keyboard-response","94","172365","0.0-20.0-0.7","SS1613079990976","","","null","","","","","<p><img src= images/blank.png width =""200"" height = ""200"" style = ""float:right""></p><p><img src=images/blank.png width =""800"" height = ""200""></p>","","","","","","","","","","","",""
"","2396.2249998003244","sequential-stimulus-presentation","95","175568","0.0-20.0-1.7","SS1613079990976","trial","","40","800","3196.2249998003244","images/stimuli/spore_stims/complex_20_B_c.gif","images/stimuli/spore_stims/complex_19_A_a.gif","","","","","4","complex_dissimilar","images/stimuli/spore_stims/complex_19_A_a.gif","right","","","","",""
"","798.5600000247359","html-keyboard-response","96","176371","0.0-21.0","SS1613079990976","pref_question","","50","","","","","<video width ='960' height = '540' style='padding-top:8%' autoplay muted><source src='images/stimuli/wall_pref.mp4' type='video/mp4'></video>","2","middle","45%","4","","","","","","","",""
"","1428.1600001268089","sequential-stimulus-presentation","97","178605","0.0-22.0","SS1613079990976","pref_reveal","","40","800","2228.160000126809","null","null","","","","","4","","","","deviant","","","",""
"","null","html-keyboard-response","98","179803","0.0-23.0-0.0","SS1613079990976","","","null","","","","","<p><img src= images/blank.png width =""200"" height = ""200"" style = ""float:right""></p><p><img src=images/blank.png width =""800"" height = ""200""></p>","","","","","","","","","","","",""
"","844.8499999940395","sequential-stimulus-presentation","99","181457","0.0-23.0-1.0","SS1613079990976","trial","","40","800","1644.8499999940395","images/stimuli/spore_stims/simple_13_B_a.gif","images/stimuli/spore_stims/simple_13_A_a.gif","","","","","5","simple_similar","images/stimuli/spore_stims/simple_13_A_a.gif","right","","","","",""
"","null","html-keyboard-response","100","182588","0.0-23.0-0.1","SS1613079990976","","","null","","","","","<p><img src= images/blank.png width =""200"" height = ""200"" style = ""float:right""></p><p><img src=images/blank.png width =""800"" height = ""200""></p>","","","","","","","","","","","",""
"","1269.1550003364682","sequential-stimulus-presentation","101","184666","0.0-23.0-1.1","SS1613079990976","trial","","40","800","2069.155000336468","images/stimuli/spore_stims/simple_13_B_a.gif","images/stimuli/spore_stims/simple_13_A_a.gif","","","","","5","simple_similar","images/stimuli/spore_stims/simple_13_A_a.gif","right","","","","",""
"","null","html-keyboard-response","102","185886","0.0-23.0-0.2","SS1613079990976","","","null","","","","","<p><img src= images/blank.png width =""200"" height = ""200"" style = ""float:right""></p><p><img src=images/blank.png width =""800"" height = ""200""></p>","","","","","","","","","","","",""
"","838.9250002801418","sequential-stimulus-presentation","103","187531","0.0-23.0-1.2","SS1613079990976","trial","","40","800","1638.9250002801418","images/stimuli/spore_stims/simple_13_B_a.gif","images/stimuli/spore_stims/simple_13_A_a.gif","","","","","5","simple_similar","images/stimuli/spore_stims/simple_13_B_a.gif","middle","","","","",""
"","null","html-keyboard-response","104","188424","0.0-23.0-0.3","SS1613079990976","","","null","","","","","<p><img src= images/blank.png width =""200"" height = ""200"" style = ""float:right""></p><p><img src=images/blank.png width =""800"" height = ""200""></p>","","","","","","","","","","","",""
"","1485.9299999661744","sequential-stimulus-presentation","105","190745","0.0-23.0-1.3","SS1613079990976","trial","","40","800","2285.9299999661744","images/stimuli/spore_stims/simple_13_B_a.gif","images/stimuli/spore_stims/simple_13_A_a.gif","","","","","5","simple_similar","images/stimuli/spore_stims/simple_13_A_a.gif","right","","","","",""
"","null","html-keyboard-response","106","191755","0.0-23.0-0.4","SS1613079990976","","","null","","","","","<p><img src= images/blank.png width =""200"" height = ""200"" style = ""float:right""></p><p><img src=images/blank.png width =""800"" height = ""200""></p>","","","","","","","","","","","",""
"","1247.4350002594292","sequential-stimulus-presentation","107","193813","0.0-23.0-1.4","SS1613079990976","trial","","40","800","2047.4350002594292","images/stimuli/spore_stims/simple_13_B_a.gif","images/stimuli/spore_stims/simple_13_A_a.gif","","","","","5","simple_similar","images/stimuli/spore_stims/simple_13_A_a.gif","right","","","","",""
"","null","html-keyboard-response","108","194927","0.0-23.0-0.5","SS1613079990976","","","null","","","","","<p><img src= images/blank.png width =""200"" height = ""200"" style = ""float:right""></p><p><img src=images/blank.png width =""800"" height = ""200""></p>","","","","","","","","","","","",""
"","791.8050000444055","sequential-stimulus-presentation","109","196527","0.0-23.0-1.5","SS1613079990976","trial","","40","800","1591.8050000444055","images/stimuli/spore_stims/simple_13_B_a.gif","images/stimuli/spore_stims/simple_13_A_a.gif","","","","","5","simple_similar","images/stimuli/spore_stims/simple_13_A_a.gif","right","","","","",""
"","null","html-keyboard-response","110","197791","0.0-23.0-0.6","SS1613079990976","","","null","","","","","<p><img src= images/blank.png width =""200"" height = ""200"" style = ""float:right""></p><p><img src=images/blank.png width =""800"" height = ""200""></p>","","","","","","","","","","","",""
"","1071.2849996052682","sequential-stimulus-presentation","111","199670","0.0-23.0-1.6","SS1613079990976","trial","","40","800","1871.2849996052682","images/stimuli/spore_stims/simple_13_B_a.gif","images/stimuli/spore_stims/simple_13_A_a.gif","","","","","5","simple_similar","images/stimuli/spore_stims/simple_13_A_a.gif","right","","","","",""
"","null","html-keyboard-response","112","200703","0.0-23.0-0.7","SS1613079990976","","","null","","","","","<p><img src= images/blank.png width =""200"" height = ""200"" style = ""float:right""></p><p><img src=images/blank.png width =""800"" height = ""200""></p>","","","","","","","","","","","",""
"","712.8300000913441","sequential-stimulus-presentation","113","202227","0.0-23.0-1.7","SS1613079990976","trial","","40","800","1512.8300000913441","images/stimuli/spore_stims/simple_13_B_a.gif","images/stimuli/spore_stims/simple_13_A_a.gif","","","","","5","simple_similar","images/stimuli/spore_stims/simple_13_A_a.gif","right","","","","",""
"","788.8049995526671","html-keyboard-response","114","203030","0.0-24.0","SS1613079990976","pref_question","","50","","","","","<video width ='960' height = '540' style='padding-top:8%' autoplay muted><source src='images/stimuli/wall_pref.mp4' type='video/mp4'></video>","2","middle","45%","5","","","","","","","",""
"","765.1249999180436","sequential-stimulus-presentation","115","204606","0.0-25.0","SS1613079990976","pref_reveal","","40","800","1565.1249999180436","null","null","","","","","5","","","","deviant","","","",""
"","null","html-keyboard-response","116","205573","0.0-26.0-0.0","SS1613079990976","","","null","","","","","<p><img src= images/blank.png width =""200"" height = ""200"" style = ""float:right""></p><p><img src=images/blank.png width =""800"" height = ""200""></p>","","","","","","","","","","","",""
"","207.12499972432852","sequential-stimulus-presentation","117","206599","0.0-26.0-1.0","SS1613079990976","trial","","40","800","1007.1249997243285","images/stimuli/spore_stims/simple_15_A_b.gif","images/stimuli/spore_stims/simple_15_B_b.gif","","","","","6","simple_similar","images/stimuli/spore_stims/simple_15_B_b.gif","middle","","","","",""
"","null","html-keyboard-response","118","207516","0.0-26.0-0.1","SS1613079990976","","","null","","","","","<p><img src= images/blank.png width =""200"" height = ""200"" style = ""float:right""></p><p><img src=images/blank.png width =""800"" height = ""200""></p>","","","","","","","","","","","",""
"","545.4150000587106","sequential-stimulus-presentation","119","208889","0.0-26.0-1.1","SS1613079990976","trial","","40","800","1345.4150000587106","images/stimuli/spore_stims/simple_15_A_b.gif","images/stimuli/spore_stims/simple_15_B_b.gif","","","","","6","simple_similar","images/stimuli/spore_stims/simple_15_B_b.gif","middle","","","","",""
"","null","html-keyboard-response","120","210014","0.0-26.0-0.2","SS1613079990976","","","null","","","","","<p><img src= images/blank.png width =""200"" height = ""200"" style = ""float:right""></p><p><img src=images/blank.png width =""800"" height = ""200""></p>","","","","","","","","","","","",""
"","699.5950001291931","sequential-stimulus-presentation","121","211535","0.0-26.0-1.2","SS1613079990976","trial","","40","800","1499.595000129193","images/stimuli/spore_stims/simple_15_A_b.gif","images/stimuli/spore_stims/simple_15_B_b.gif","","","","","6","simple_similar","images/stimuli/spore_stims/simple_15_B_b.gif","middle","","","","",""
"","null","html-keyboard-response","122","212656","0.0-26.0-0.3","SS1613079990976","","","null","","","","","<p><img src= images/blank.png width =""200"" height = ""200"" style = ""float:right""></p><p><img src=images/blank.png width =""800"" height = ""200""></p>","","","","","","","","","","","",""
"","1979.4499999843538","sequential-stimulus-presentation","123","215443","0.0-26.0-1.3","SS1613079990976","trial","","40","800","2779.449999984354","images/stimuli/spore_stims/simple_15_A_b.gif","images/stimuli/spore_stims/simple_15_B_b.gif","","","","","6","simple_similar","images/stimuli/spore_stims/simple_15_B_b.gif","middle","","","","",""
"","null","html-keyboard-response","124","216323","0.0-26.0-0.4","SS1613079990976","","","null","","","","","<p><img src= images/blank.png width =""200"" height = ""200"" style = ""float:right""></p><p><img src=images/blank.png width =""800"" height = ""200""></p>","","","","","","","","","","","",""
"","546.1849998682737","sequential-stimulus-presentation","125","217692","0.0-26.0-1.4","SS1613079990976","trial","","40","800","1346.1849998682737","images/stimuli/spore_stims/simple_15_A_b.gif","images/stimuli/spore_stims/simple_15_B_b.gif","","","","","6","simple_similar","images/stimuli/spore_stims/simple_15_A_b.gif","left","","","","",""
"","null","html-keyboard-response","126","218602","0.0-26.0-0.5","SS1613079990976","","","null","","","","","<p><img src= images/blank.png width =""200"" height = ""200"" style = ""float:right""></p><p><img src=images/blank.png width =""800"" height = ""200""></p>","","","","","","","","","","","",""
"","579.9750001169741","sequential-stimulus-presentation","127","219991","0.0-26.0-1.5","SS1613079990976","trial","","40","800","1379.9750001169741","images/stimuli/spore_stims/simple_15_A_b.gif","images/stimuli/spore_stims/simple_15_B_b.gif","","","","","6","simple_similar","images/stimuli/spore_stims/simple_15_B_b.gif","middle","","","","",""
"","null","html-keyboard-response","128","221123","0.0-26.0-0.6","SS1613079990976","","","null","","","","","<p><img src= images/blank.png width =""200"" height = ""200"" style = ""float:right""></p><p><img src=images/blank.png width =""800"" height = ""200""></p>","","","","","","","","","","","",""
"","576.704999897629","sequential-stimulus-presentation","129","222508","0.0-26.0-1.6","SS1613079990976","trial","","40","800","1376.704999897629","images/stimuli/spore_stims/simple_15_A_b.gif","images/stimuli/spore_stims/simple_15_B_b.gif","","","","","6","simple_similar","images/stimuli/spore_stims/simple_15_B_b.gif","middle","","","","",""
"","null","html-keyboard-response","130","223806","0.0-26.0-0.7","SS1613079990976","","","null","","","","","<p><img src= images/blank.png width =""200"" height = ""200"" style = ""float:right""></p><p><img src=images/blank.png width =""800"" height = ""200""></p>","","","","","","","","","","","",""
"","1083.440000191331","sequential-stimulus-presentation","131","225708","0.0-26.0-1.7","SS1613079990976","trial","","40","800","1883.440000191331","images/stimuli/spore_stims/simple_15_A_b.gif","images/stimuli/spore_stims/simple_15_B_b.gif","","","","","6","simple_similar","images/stimuli/spore_stims/simple_15_B_b.gif","middle","","","","",""
"","1209.1149999760091","html-keyboard-response","132","226936","0.0-27.0","SS1613079990976","pref_question","","51","","","","","<video width ='960' height = '540' style='padding-top:8%' autoplay muted><source src='images/stimuli/wall_pref.mp4' type='video/mp4'></video>","3","right","66%","6","","","","","","","",""
"","851.2400002218783","sequential-stimulus-presentation","133","228598","0.0-28.0","SS1613079990976","pref_reveal","","40","800","1651.2400002218783","null","null","","","","","6","","","","novel","","","",""
"","null","html-keyboard-response","134","229864","0.0-29.0-0.0","SS1613079990976","","","null","","","","","<p><img src= images/blank.png width =""200"" height = ""200"" style = ""float:right""></p><p><img src=images/blank.png width =""800"" height = ""200""></p>","","","","","","","","","","","",""
"","141.67999988421798","sequential-stimulus-presentation","135","230831","0.0-29.0-1.0","SS1613079990976","trial","","40","800","941.679999884218","images/stimuli/spore_stims/simple_08_B_b.gif","images/stimuli/spore_stims/simple_20_A_d.gif","","","","","7","simple_dissimilar","images/stimuli/spore_stims/simple_20_A_d.gif","left","","","","",""
"","null","html-keyboard-response","136","232036","0.0-29.0-0.1","SS1613079990976","","","null","","","","","<p><img src= images/blank.png width =""200"" height = ""200"" style = ""float:right""></p><p><img src=images/blank.png width =""800"" height = ""200""></p>","","","","","","","","","","","",""
"","473.5000003129244","sequential-stimulus-presentation","137","233328","0.0-29.0-1.1","SS1613079990976","trial","","40","800","1273.5000003129244","images/stimuli/spore_stims/simple_08_B_b.gif","images/stimuli/spore_stims/simple_20_A_d.gif","","","","","7","simple_dissimilar","images/stimuli/spore_stims/simple_20_A_d.gif","left","","","","",""
"","null","html-keyboard-response","138","234633","0.0-29.0-0.2","SS1613079990976","","","null","","","","","<p><img src= images/blank.png width =""200"" height = ""200"" style = ""float:right""></p><p><img src=images/blank.png width =""800"" height = ""200""></p>","","","","","","","","","","","",""
"","1335.0399998016655","sequential-stimulus-presentation","139","236781","0.0-29.0-1.2","SS1613079990976","trial","","40","800","2135.0399998016655","images/stimuli/spore_stims/simple_08_B_b.gif","images/stimuli/spore_stims/simple_20_A_d.gif","","","","","7","simple_dissimilar","images/stimuli/spore_stims/simple_20_A_d.gif","left","","","","",""
"","null","html-keyboard-response","140","237668","0.0-29.0-0.3","SS1613079990976","","","null","","","","","<p><img src= images/blank.png width =""200"" height = ""200"" style = ""float:right""></p><p><img src=images/blank.png width =""800"" height = ""200""></p>","","","","","","","","","","","",""
"","659.1050000861287","sequential-stimulus-presentation","141","239139","0.0-29.0-1.3","SS1613079990976","trial","","40","800","1459.1050000861287","images/stimuli/spore_stims/simple_08_B_b.gif","images/stimuli/spore_stims/simple_20_A_d.gif","","","","","7","simple_dissimilar","images/stimuli/spore_stims/simple_20_A_d.gif","left","","","","",""
"","null","html-keyboard-response","142","240392","0.0-29.0-0.4","SS1613079990976","","","null","","","","","<p><img src= images/blank.png width =""200"" height = ""200"" style = ""float:right""></p><p><img src=images/blank.png width =""800"" height = ""200""></p>","","","","","","","","","","","",""
"","532.6399998739362","sequential-stimulus-presentation","143","241743","0.0-29.0-1.4","SS1613079990976","trial","","40","800","1332.6399998739362","images/stimuli/spore_stims/simple_08_B_b.gif","images/stimuli/spore_stims/simple_20_A_d.gif","","","","","7","simple_dissimilar","images/stimuli/spore_stims/simple_20_A_d.gif","left","","","","",""
"","null","html-keyboard-response","144","242923","0.0-29.0-0.5","SS1613079990976","","","null","","","","","<p><img src= images/blank.png width =""200"" height = ""200"" style = ""float:right""></p><p><img src=images/blank.png width =""800"" height = ""200""></p>","","","","","","","","","","","",""
"","384.1899996623397","sequential-stimulus-presentation","145","244124","0.0-29.0-1.5","SS1613079990976","trial","","40","800","1184.1899996623397","images/stimuli/spore_stims/simple_08_B_b.gif","images/stimuli/spore_stims/simple_20_A_d.gif","","","","","7","simple_dissimilar","images/stimuli/spore_stims/simple_20_A_d.gif","left","","","","",""
"","null","html-keyboard-response","146","245214","0.0-29.0-0.6","SS1613079990976","","","null","","","","","<p><img src= images/blank.png width =""200"" height = ""200"" style = ""float:right""></p><p><img src=images/blank.png width =""800"" height = ""200""></p>","","","","","","","","","","","",""
"","70.42500004172325","sequential-stimulus-presentation","147","246092","0.0-29.0-1.6","SS1613079990976","trial","","40","800","870.4250000417233","images/stimuli/spore_stims/simple_08_B_b.gif","images/stimuli/spore_stims/simple_20_A_d.gif","","","","","7","simple_dissimilar","images/stimuli/spore_stims/simple_20_A_d.gif","left","","","","",""
"","null","html-keyboard-response","148","247072","0.0-29.0-0.7","SS1613079990976","","","null","","","","","<p><img src= images/blank.png width =""200"" height = ""200"" style = ""float:right""></p><p><img src=images/blank.png width =""800"" height = ""200""></p>","","","","","","","","","","","",""
"","828.2849998213351","sequential-stimulus-presentation","149","248968","0.0-29.0-1.7","SS1613079990976","trial","","40","800","1628.284999821335","images/stimuli/spore_stims/simple_08_B_b.gif","images/stimuli/spore_stims/simple_20_A_d.gif","","","","","7","simple_dissimilar","images/stimuli/spore_stims/simple_08_B_b.gif","middle","","","","",""
"","1622.900000307709","html-keyboard-response","150","250598","0.0-30.0","SS1613079990976","pref_question","","51","","","","","<video width ='960' height = '540' style='padding-top:8%' autoplay muted><source src='images/stimuli/wall_pref.mp4' type='video/mp4'></video>","3","right","66%","7","","","","","","","",""
"","544.6150000207126","sequential-stimulus-presentation","151","251958","0.0-31.0","SS1613079990976","pref_reveal","","40","800","1344.6150000207126","null","null","","","","","7","","","","novel","","","",""
"","null","html-keyboard-response","152","252905","0.0-32.0-0.0","SS1613079990976","","","null","","","","","<p><img src= images/blank.png width =""200"" height = ""200"" style = ""float:right""></p><p><img src=images/blank.png width =""800"" height = ""200""></p>","","","","","","","","","","","",""
"","1268.105000257492","sequential-stimulus-presentation","153","254981","0.0-32.0-1.0","SS1613079990976","trial","","40","800","2068.105000257492","images/stimuli/spore_stims/simple_16_A_c.gif","images/stimuli/spore_stims/simple_16_B_c.gif","","","","","8","simple_similar","images/stimuli/spore_stims/simple_16_B_c.gif","right","","","","",""
"","null","html-keyboard-response","154","256177","0.0-32.0-0.1","SS1613079990976","","","null","","","","","<p><img src= images/blank.png width =""200"" height = ""200"" style = ""float:right""></p><p><img src=images/blank.png width =""800"" height = ""200""></p>","","","","","","","","","","","",""
"","516.9150000438094","sequential-stimulus-presentation","155","257508","0.0-32.0-1.1","SS1613079990976","trial","","40","800","1316.9150000438094","images/stimuli/spore_stims/simple_16_A_c.gif","images/stimuli/spore_stims/simple_16_B_c.gif","","","","","8","simple_similar","images/stimuli/spore_stims/simple_16_B_c.gif","right","","","","",""
"","null","html-keyboard-response","156","258692","0.0-32.0-0.2","SS1613079990976","","","null","","","","","<p><img src= images/blank.png width =""200"" height = ""200"" style = ""float:right""></p><p><img src=images/blank.png width =""800"" height = ""200""></p>","","","","","","","","","","","",""
"","1101.5500002540648","sequential-stimulus-presentation","157","260610","0.0-32.0-1.2","SS1613079990976","trial","","40","800","1901.5500002540648","images/stimuli/spore_stims/simple_16_A_c.gif","images/stimuli/spore_stims/simple_16_B_c.gif","","","","","8","simple_similar","images/stimuli/spore_stims/simple_16_B_c.gif","right","","","","",""
"","null","html-keyboard-response","158","261643","0.0-32.0-0.3","SS1613079990976","","","null","","","","","<p><img src= images/blank.png width =""200"" height = ""200"" style = ""float:right""></p><p><img src=images/blank.png width =""800"" height = ""200""></p>","","","","","","","","","","","",""
"","34.51499994844198","sequential-stimulus-presentation","159","262486","0.0-32.0-1.3","SS1613079990976","trial","","40","800","834.514999948442","images/stimuli/spore_stims/simple_16_A_c.gif","images/stimuli/spore_stims/simple_16_B_c.gif","","","","","8","simple_similar","images/stimuli/spore_stims/simple_16_B_c.gif","right","","","","",""
"","null","html-keyboard-response","160","263332","0.0-32.0-0.4","SS1613079990976","","","null","","","","","<p><img src= images/blank.png width =""200"" height = ""200"" style = ""float:right""></p><p><img src=images/blank.png width =""800"" height = ""200""></p>","","","","","","","","","","","",""
"","1821.5400003828108","sequential-stimulus-presentation","161","265963","0.0-32.0-1.4","SS1613079990976","trial","","40","800","2621.540000382811","images/stimuli/spore_stims/simple_16_A_c.gif","images/stimuli/spore_stims/simple_16_B_c.gif","","","","","8","simple_similar","images/stimuli/spore_stims/simple_16_B_c.gif","right","","","","",""
"","null","html-keyboard-response","162","267033","0.0-32.0-0.5","SS1613079990976","","","null","","","","","<p><img src= images/blank.png width =""200"" height = ""200"" style = ""float:right""></p><p><img src=images/blank.png width =""800"" height = ""200""></p>","","","","","","","","","","","",""
"","72.8150000795722","sequential-stimulus-presentation","163","267920","0.0-32.0-1.5","SS1613079990976","trial","","40","800","872.8150000795722","images/stimuli/spore_stims/simple_16_A_c.gif","images/stimuli/spore_stims/simple_16_B_c.gif","","","","","8","simple_similar","images/stimuli/spore_stims/simple_16_A_c.gif","left","","","","",""
"","null","html-keyboard-response","164","268792","0.0-32.0-0.6","SS1613079990976","","","null","","","","","<p><img src= images/blank.png width =""200"" height = ""200"" style = ""float:right""></p><p><img src=images/blank.png width =""800"" height = ""200""></p>","","","","","","","","","","","",""
"","84.55999987199903","sequential-stimulus-presentation","165","269734","0.0-32.0-1.6","SS1613079990976","trial","","40","800","884.559999871999","images/stimuli/spore_stims/simple_16_A_c.gif","images/stimuli/spore_stims/simple_16_B_c.gif","","","","","8","simple_similar","images/stimuli/spore_stims/simple_16_B_c.gif","right","","","","",""
"","null","html-keyboard-response","166","270982","0.0-32.0-0.7","SS1613079990976","","","null","","","","","<p><img src= images/blank.png width =""200"" height = ""200"" style = ""float:right""></p><p><img src=images/blank.png width =""800"" height = ""200""></p>","","","","","","","","","","","",""
"","661.264999769628","sequential-stimulus-presentation","167","272452","0.0-32.0-1.7","SS1613079990976","trial","","40","800","1461.264999769628","images/stimuli/spore_stims/simple_16_A_c.gif","images/stimuli/spore_stims/simple_16_B_c.gif","","","","","8","simple_similar","images/stimuli/spore_stims/simple_16_B_c.gif","right","","","","",""
"","99.83500000089407","html-keyboard-response","168","272562","0.0-33.0","SS1613079990976","pref_question","","51","","","","","<video width ='960' height = '540' style='padding-top:8%' autoplay muted><source src='images/stimuli/wall_pref.mp4' type='video/mp4'></video>","3","right","66%","8","","","","","","","",""
"","338.0499999038875","sequential-stimulus-presentation","169","273708","0.0-34.0","SS1613079990976","pref_reveal","","40","800","1138.0499999038875","null","null","","","","","8","","","","background","","","",""
"","null","html-keyboard-response","170","274562","0.0-35.0-0.0","SS1613079990976","","","null","","","","","<p><img src= images/blank.png width =""200"" height = ""200"" style = ""float:right""></p><p><img src=images/blank.png width =""800"" height = ""200""></p>","","","","","","","","","","","",""
"","379.6200002543628","sequential-stimulus-presentation","171","275754","0.0-35.0-1.0","SS1613079990976","trial","","40","800","1179.6200002543628","images/stimuli/spore_stims/complex_16_B_c.gif","images/stimuli/spore_stims/complex_16_A_c.gif","","","","","9","complex_similar","images/stimuli/spore_stims/complex_16_A_c.gif","left","","","","",""
"","null","html-keyboard-response","172","276923","0.0-35.0-0.1","SS1613079990976","","","null","","","","","<p><img src= images/blank.png width =""200"" height = ""200"" style = ""float:right""></p><p><img src=images/blank.png width =""800"" height = ""200""></p>","","","","","","","","","","","",""
"","226.56500013545156","sequential-stimulus-presentation","173","277956","0.0-35.0-1.1","SS1613079990976","trial","","40","800","1026.5650001354516","images/stimuli/spore_stims/complex_16_B_c.gif","images/stimuli/spore_stims/complex_16_A_c.gif","","","","","9","complex_similar","images/stimuli/spore_stims/complex_16_A_c.gif","left","","","","",""
"","null","html-keyboard-response","174","278843","0.0-35.0-0.2","SS1613079990976","","","null","","","","","<p><img src= images/blank.png width =""200"" height = ""200"" style = ""float:right""></p><p><img src=images/blank.png width =""800"" height = ""200""></p>","","","","","","","","","","","",""
"","424.76499965414405","sequential-stimulus-presentation","175","280080","0.0-35.0-1.2","SS1613079990976","trial","","40","800","1224.764999654144","images/stimuli/spore_stims/complex_16_B_c.gif","images/stimuli/spore_stims/complex_16_A_c.gif","","","","","9","complex_similar","images/stimuli/spore_stims/complex_16_A_c.gif","left","","","","",""
"","null","html-keyboard-response","176","280972","0.0-35.0-0.3","SS1613079990976","","","null","","","","","<p><img src= images/blank.png width =""200"" height = ""200"" style = ""float:right""></p><p><img src=images/blank.png width =""800"" height = ""200""></p>","","","","","","","","","","","",""
"","18.78499984741211","sequential-stimulus-presentation","177","281801","0.0-35.0-1.3","SS1613079990976","trial","","40","800","818.7849998474121","images/stimuli/spore_stims/complex_16_B_c.gif","images/stimuli/spore_stims/complex_16_A_c.gif","","","","","9","complex_similar","images/stimuli/spore_stims/complex_16_B_c.gif","right","","","","",""
"","null","html-keyboard-response","178","282703","0.0-35.0-0.4","SS1613079990976","","","null","","","","","<p><img src= images/blank.png width =""200"" height = ""200"" style = ""float:right""></p><p><img src=images/blank.png width =""800"" height = ""200""></p>","","","","","","","","","","","",""
"","121.030000038445","sequential-stimulus-presentation","179","283640","0.0-35.0-1.4","SS1613079990976","trial","","40","800","921.030000038445","images/stimuli/spore_stims/complex_16_B_c.gif","images/stimuli/spore_stims/complex_16_A_c.gif","","","","","9","complex_similar","images/stimuli/spore_stims/complex_16_A_c.gif","left","","","","",""
"","null","html-keyboard-response","180","284745","0.0-35.0-0.5","SS1613079990976","","","null","","","","","<p><img src= images/blank.png width =""200"" height = ""200"" style = ""float:right""></p><p><img src=images/blank.png width =""800"" height = ""200""></p>","","","","","","","","","","","",""
"","568.5350000858307","sequential-stimulus-presentation","181","286140","0.0-35.0-1.5","SS1613079990976","trial","","40","800","1368.5350000858307","images/stimuli/spore_stims/complex_16_B_c.gif","images/stimuli/spore_stims/complex_16_A_c.gif","","","","","9","complex_similar","images/stimuli/spore_stims/complex_16_A_c.gif","left","","","","",""
"","null","html-keyboard-response","182","287019","0.0-35.0-0.6","SS1613079990976","","","null","","","","","<p><img src= images/blank.png width =""200"" height = ""200"" style = ""float:right""></p><p><img src=images/blank.png width =""800"" height = ""200""></p>","","","","","","","","","","","",""
"","477.3849998600781","sequential-stimulus-presentation","183","288309","0.0-35.0-1.6","SS1613079990976","trial","","40","800","1277.384999860078","images/stimuli/spore_stims/complex_16_B_c.gif","images/stimuli/spore_stims/complex_16_A_c.gif","","","","","9","complex_similar","images/stimuli/spore_stims/complex_16_A_c.gif","left","","","","",""
"","null","html-keyboard-response","184","289316","0.0-35.0-0.7","SS1613079990976","","","null","","","","","<p><img src= images/blank.png width =""200"" height = ""200"" style = ""float:right""></p><p><img src=images/blank.png width =""800"" height = ""200""></p>","","","","","","","","","","","",""
"","566.3450001738966","sequential-stimulus-presentation","185","290695","0.0-35.0-1.7","SS1613079990976","trial","","40","800","1366.3450001738966","images/stimuli/spore_stims/complex_16_B_c.gif","images/stimuli/spore_stims/complex_16_A_c.gif","","","","","9","complex_similar","images/stimuli/spore_stims/complex_16_A_c.gif","left","","","","",""
"","1486.5300003439188","html-keyboard-response","186","292190","0.0-36.0","SS1613079990976","pref_question","","51","","","","","<video width ='960' height = '540' style='padding-top:8%' autoplay muted><source src='images/stimuli/wall_pref.mp4' type='video/mp4'></video>","3","right","66%","9","","","","","","","",""
"","180.2300000563264","sequential-stimulus-presentation","187","293206","0.0-37.0","SS1613079990976","pref_reveal","","40","800","980.2300000563264","null","null","","","","","9","","","","deviant","","","",""
"","null","html-keyboard-response","188","294060","0.0-38.0-0.0","SS1613079990976","","","null","","","","","<p><img src= images/blank.png width =""200"" height = ""200"" style = ""float:right""></p><p><img src=images/blank.png width =""800"" height = ""200""></p>","","","","","","","","","","","",""
"","1021.6899998486042","sequential-stimulus-presentation","189","295894","0.0-38.0-1.0","SS1613079990976","trial","","40","800","1821.6899998486042","images/stimuli/spore_stims/simple_12_A_b.gif","images/stimuli/spore_stims/simple_12_B_b.gif","","","","","10","simple_similar","images/stimuli/spore_stims/simple_12_B_b.gif","middle","","","","",""
"","null","html-keyboard-response","190","296842","0.0-38.0-0.1","SS1613079990976","","","null","","","","","<p><img src= images/blank.png width =""200"" height = ""200"" style = ""float:right""></p><p><img src=images/blank.png width =""800"" height = ""200""></p>","","","","","","","","","","","",""
"","611.389999743551","sequential-stimulus-presentation","191","298268","0.0-38.0-1.1","SS1613079990976","trial","","40","800","1411.389999743551","images/stimuli/spore_stims/simple_12_A_b.gif","images/stimuli/spore_stims/simple_12_B_b.gif","","","","","10","simple_similar","images/stimuli/spore_stims/simple_12_B_b.gif","middle","","","","",""
"","null","html-keyboard-response","192","299326","0.0-38.0-0.2","SS1613079990976","","","null","","","","","<p><img src= images/blank.png width =""200"" height = ""200"" style = ""float:right""></p><p><img src=images/blank.png width =""800"" height = ""200""></p>","","","","","","","","","","","",""
"","569.284999743104","sequential-stimulus-presentation","193","300722","0.0-38.0-1.2","SS1613079990976","trial","","40","800","1369.284999743104","images/stimuli/spore_stims/simple_12_A_b.gif","images/stimuli/spore_stims/simple_12_B_b.gif","","","","","10","simple_similar","images/stimuli/spore_stims/simple_12_B_b.gif","middle","","","","",""
"","null","html-keyboard-response","194","301922","0.0-38.0-0.3","SS1613079990976","","","null","","","","","<p><img src= images/blank.png width =""200"" height = ""200"" style = ""float:right""></p><p><img src=images/blank.png width =""800"" height = ""200""></p>","","","","","","","","","","","",""
"","302.6550002396107","sequential-stimulus-presentation","195","303042","0.0-38.0-1.3","SS1613079990976","trial","","40","800","1102.6550002396107","images/stimuli/spore_stims/simple_12_A_b.gif","images/stimuli/spore_stims/simple_12_B_b.gif","","","","","10","simple_similar","images/stimuli/spore_stims/simple_12_A_b.gif","right","","","","",""
"","null","html-keyboard-response","196","304222","0.0-38.0-0.4","SS1613079990976","","","null","","","","","<p><img src= images/blank.png width =""200"" height = ""200"" style = ""float:right""></p><p><img src=images/blank.png width =""800"" height = ""200""></p>","","","","","","","","","","","",""
"","87.70000003278255","sequential-stimulus-presentation","197","305120","0.0-38.0-1.4","SS1613079990976","trial","","40","800","887.7000000327826","images/stimuli/spore_stims/simple_12_A_b.gif","images/stimuli/spore_stims/simple_12_B_b.gif","","","","","10","simple_similar","images/stimuli/spore_stims/simple_12_B_b.gif","middle","","","","",""
"","null","html-keyboard-response","198","306034","0.0-38.0-0.5","SS1613079990976","","","null","","","","","<p><img src= images/blank.png width =""200"" height = ""200"" style = ""float:right""></p><p><img src=images/blank.png width =""800"" height = ""200""></p>","","","","","","","","","","","",""
"","142.835000064224","sequential-stimulus-presentation","199","306990","0.0-38.0-1.5","SS1613079990976","trial","","40","800","942.835000064224","images/stimuli/spore_stims/simple_12_A_b.gif","images/stimuli/spore_stims/simple_12_B_b.gif","","","","","10","simple_similar","images/stimuli/spore_stims/simple_12_B_b.gif","middle","","","","",""
"","null","html-keyboard-response","200","308284","0.0-38.0-0.6","SS1613079990976","","","null","","","","","<p><img src= images/blank.png width =""200"" height = ""200"" style = ""float:right""></p><p><img src=images/blank.png width =""800"" height = ""200""></p>","","","","","","","","","","","",""
"","1516.4950001053512","sequential-stimulus-presentation","201","310607","0.0-38.0-1.6","SS1613079990976","trial","","40","800","2316.495000105351","images/stimuli/spore_stims/simple_12_A_b.gif","images/stimuli/spore_stims/simple_12_B_b.gif","","","","","10","simple_similar","images/stimuli/spore_stims/simple_12_B_b.gif","middle","","","","",""
"","null","html-keyboard-response","202","311617","0.0-38.0-0.7","SS1613079990976","","","null","","","","","<p><img src= images/blank.png width =""200"" height = ""200"" style = ""float:right""></p><p><img src=images/blank.png width =""800"" height = ""200""></p>","","","","","","","","","","","",""
"","387.69999984651804","sequential-stimulus-presentation","203","312814","0.0-38.0-1.7","SS1613079990976","trial","","40","800","1187.699999846518","images/stimuli/spore_stims/simple_12_A_b.gif","images/stimuli/spore_stims/simple_12_B_b.gif","","","","","10","simple_similar","images/stimuli/spore_stims/simple_12_B_b.gif","middle","","","","",""
"","744.2050003446639","html-keyboard-response","204","313564","0.0-39.0","SS1613079990976","pref_question","","51","","","","","<video width ='960' height = '540' style='padding-top:8%' autoplay muted><source src='images/stimuli/wall_pref.mp4' type='video/mp4'></video>","3","right","66%","10","","","","","","","",""
"","684.1000001877546","sequential-stimulus-presentation","205","315058","0.0-40.0","SS1613079990976","pref_reveal","","40","800","1484.1000001877546","null","null","","","","","10","","","","deviant","","","",""
"","null","html-keyboard-response","206","316323","0.0-41.0-0.0","SS1613079990976","","","null","","","","","<p><img src= images/blank.png width =""200"" height = ""200"" style = ""float:right""></p><p><img src=images/blank.png width =""800"" height = ""200""></p>","","","","","","","","","","","",""
"","699.2099997587502","sequential-stimulus-presentation","207","317831","0.0-41.0-1.0","SS1613079990976","trial","","40","800","1499.2099997587502","images/stimuli/spore_stims/simple_06_B_b.gif","images/stimuli/spore_stims/simple_07_A_b.gif","","","","","11","simple_dissimilar","images/stimuli/spore_stims/simple_07_A_b.gif","left","","","","",""
"","null","html-keyboard-response","208","318762","0.0-41.0-0.1","SS1613079990976","","","null","","","","","<p><img src= images/blank.png width =""200"" height = ""200"" style = ""float:right""></p><p><img src=images/blank.png width =""800"" height = ""200""></p>","","","","","","","","","","","",""
"","117.26500000804663","sequential-stimulus-presentation","209","319688","0.0-41.0-1.1","SS1613079990976","trial","","40","800","917.2650000080466","images/stimuli/spore_stims/simple_06_B_b.gif","images/stimuli/spore_stims/simple_07_A_b.gif","","","","","11","simple_dissimilar","images/stimuli/spore_stims/simple_07_A_b.gif","left","","","","",""
"","null","html-keyboard-response","210","320762","0.0-41.0-0.2","SS1613079990976","","","null","","","","","<p><img src= images/blank.png width =""200"" height = ""200"" style = ""float:right""></p><p><img src=images/blank.png width =""800"" height = ""200""></p>","","","","","","","","","","","",""
"","87.66999980434775","sequential-stimulus-presentation","211","321658","0.0-41.0-1.2","SS1613079990976","trial","","40","800","887.6699998043478","images/stimuli/spore_stims/simple_06_B_b.gif","images/stimuli/spore_stims/simple_07_A_b.gif","","","","","11","simple_dissimilar","images/stimuli/spore_stims/simple_06_B_b.gif","right","","","","",""
"","null","html-keyboard-response","212","322852","0.0-41.0-0.3","SS1613079990976","","","null","","","","","<p><img src= images/blank.png width =""200"" height = ""200"" style = ""float:right""></p><p><img src=images/blank.png width =""800"" height = ""200""></p>","","","","","","","","","","","",""
"","9.800000116229057","sequential-stimulus-presentation","213","323696","0.0-41.0-1.3","SS1613079990976","trial","","40","800","809.8000001162291","images/stimuli/spore_stims/simple_06_B_b.gif","images/stimuli/spore_stims/simple_07_A_b.gif","","","","","11","simple_dissimilar","images/stimuli/spore_stims/simple_07_A_b.gif","left","","","","",""
"","null","html-keyboard-response","214","324903","0.0-41.0-0.4","SS1613079990976","","","null","","","","","<p><img src= images/blank.png width =""200"" height = ""200"" style = ""float:right""></p><p><img src=images/blank.png width =""800"" height = ""200""></p>","","","","","","","","","","","",""
"","115.86500005796552","sequential-stimulus-presentation","215","325827","0.0-41.0-1.4","SS1613079990976","trial","","40","800","915.8650000579655","images/stimuli/spore_stims/simple_06_B_b.gif","images/stimuli/spore_stims/simple_07_A_b.gif","","","","","11","simple_dissimilar","images/stimuli/spore_stims/simple_07_A_b.gif","left","","","","",""
"","null","html-keyboard-response","216","326872","0.0-41.0-0.5","SS1613079990976","","","null","","","","","<p><img src= images/blank.png width =""200"" height = ""200"" style = ""float:right""></p><p><img src=images/blank.png width =""800"" height = ""200""></p>","","","","","","","","","","","",""
"","348.0299999937415","sequential-stimulus-presentation","217","328030","0.0-41.0-1.5","SS1613079990976","trial","","40","800","1148.0299999937415","images/stimuli/spore_stims/simple_06_B_b.gif","images/stimuli/spore_stims/simple_07_A_b.gif","","","","","11","simple_dissimilar","images/stimuli/spore_stims/simple_07_A_b.gif","left","","","","",""
"","null","html-keyboard-response","218","328942","0.0-41.0-0.6","SS1613079990976","","","null","","","","","<p><img src= images/blank.png width =""200"" height = ""200"" style = ""float:right""></p><p><img src=images/blank.png width =""800"" height = ""200""></p>","","","","","","","","","","","",""
"","454.1499996557832","sequential-stimulus-presentation","219","330206","0.0-41.0-1.6","SS1613079990976","trial","","40","800","1254.1499996557832","images/stimuli/spore_stims/simple_06_B_b.gif","images/stimuli/spore_stims/simple_07_A_b.gif","","","","","11","simple_dissimilar","images/stimuli/spore_stims/simple_07_A_b.gif","left","","","","",""
"","null","html-keyboard-response","220","331284","0.0-41.0-0.7","SS1613079990976","","","null","","","","","<p><img src= images/blank.png width =""200"" height = ""200"" style = ""float:right""></p><p><img src=images/blank.png width =""800"" height = ""200""></p>","","","","","","","","","","","",""
"","108.97499974817038","sequential-stimulus-presentation","221","332210","0.0-41.0-1.7","SS1613079990976","trial","","40","800","908.9749997481704","images/stimuli/spore_stims/simple_06_B_b.gif","images/stimuli/spore_stims/simple_07_A_b.gif","","","","","11","simple_dissimilar","images/stimuli/spore_stims/simple_07_A_b.gif","left","","","","",""
"","820.9799998439848","html-keyboard-response","222","333048","0.0-42.0","SS1613079990976","pref_question","","51","","","","","<video width ='960' height = '540' style='padding-top:8%' autoplay muted><source src='images/stimuli/wall_pref.mp4' type='video/mp4'></video>","3","right","66%","11","","","","","","","",""
"","440.9399996511638","sequential-stimulus-presentation","223","334306","0.0-43.0","SS1613079990976","pref_reveal","","40","800","1240.9399996511638","null","null","","","","","11","","","","deviant","","","",""
"","null","html-keyboard-response","224","335520","0.0-44.0-0.0","SS1613079990976","","","null","","","","","<p><img src= images/blank.png width =""200"" height = ""200"" style = ""float:right""></p><p><img src=images/blank.png width =""800"" height = ""200""></p>","","","","","","","","","","","",""
"","1324.8850000090897","sequential-stimulus-presentation","225","337667","0.0-44.0-1.0","SS1613079990976","trial","","40","800","2124.8850000090897","images/stimuli/spore_stims/complex_17_B_d.gif","images/stimuli/spore_stims/complex_17_A_d.gif","","","","","12","complex_similar","images/stimuli/spore_stims/complex_17_A_d.gif","middle","","","","",""
"","null","html-keyboard-response","226","338683","0.0-44.0-0.1","SS1613079990976","","","null","","","","","<p><img src= images/blank.png width =""200"" height = ""200"" style = ""float:right""></p><p><img src=images/blank.png width =""800"" height = ""200""></p>","","","","","","","","","","","",""
"","411.06999991461635","sequential-stimulus-presentation","227","339907","0.0-44.0-1.1","SS1613079990976","trial","","40","800","1211.0699999146163","images/stimuli/spore_stims/complex_17_B_d.gif","images/stimuli/spore_stims/complex_17_A_d.gif","","","","","12","complex_similar","images/stimuli/spore_stims/complex_17_A_d.gif","middle","","","","",""
"","null","html-keyboard-response","228","340932","0.0-44.0-0.2","SS1613079990976","","","null","","","","","<p><img src= images/blank.png width =""200"" height = ""200"" style = ""float:right""></p><p><img src=images/blank.png width =""800"" height = ""200""></p>","","","","","","","","","","","",""
"","173.97999996319413","sequential-stimulus-presentation","229","341938","0.0-44.0-1.2","SS1613079990976","trial","","40","800","973.9799999631941","images/stimuli/spore_stims/complex_17_B_d.gif","images/stimuli/spore_stims/complex_17_A_d.gif","","","","","12","complex_similar","images/stimuli/spore_stims/complex_17_A_d.gif","middle","","","","",""
"","null","html-keyboard-response","230","343243","0.0-44.0-0.3","SS1613079990976","","","null","","","","","<p><img src= images/blank.png width =""200"" height = ""200"" style = ""float:right""></p><p><img src=images/blank.png width =""800"" height = ""200""></p>","","","","","","","","","","","",""
"","475.77999997884035","sequential-stimulus-presentation","231","344531","0.0-44.0-1.3","SS1613079990976","trial","","40","800","1275.7799999788404","images/stimuli/spore_stims/complex_17_B_d.gif","images/stimuli/spore_stims/complex_17_A_d.gif","","","","","12","complex_similar","images/stimuli/spore_stims/complex_17_A_d.gif","middle","","","","",""
"","null","html-keyboard-response","232","345753","0.0-44.0-0.4","SS1613079990976","","","null","","","","","<p><img src= images/blank.png width =""200"" height = ""200"" style = ""float:right""></p><p><img src=images/blank.png width =""800"" height = ""200""></p>","","","","","","","","","","","",""
"","928.4149999730289","sequential-stimulus-presentation","233","347507","0.0-44.0-1.4","SS1613079990976","trial","","40","800","1728.414999973029","images/stimuli/spore_stims/complex_17_B_d.gif","images/stimuli/spore_stims/complex_17_A_d.gif","","","","","12","complex_similar","images/stimuli/spore_stims/complex_17_A_d.gif","middle","","","","",""
"","null","html-keyboard-response","234","348529","0.0-44.0-0.5","SS1613079990976","","","null","","","","","<p><img src= images/blank.png width =""200"" height = ""200"" style = ""float:right""></p><p><img src=images/blank.png width =""800"" height = ""200""></p>","","","","","","","","","","","",""
"","78.23000010102987","sequential-stimulus-presentation","235","349417","0.0-44.0-1.5","SS1613079990976","trial","","40","800","878.2300001010299","images/stimuli/spore_stims/complex_17_B_d.gif","images/stimuli/spore_stims/complex_17_A_d.gif","","","","","12","complex_similar","images/stimuli/spore_stims/complex_17_A_d.gif","middle","","","","",""
"","null","html-keyboard-response","236","350706","0.0-44.0-0.6","SS1613079990976","","","null","","","","","<p><img src= images/blank.png width =""200"" height = ""200"" style = ""float:right""></p><p><img src=images/blank.png width =""800"" height = ""200""></p>","","","","","","","","","","","",""
"","304.0299997664988","sequential-stimulus-presentation","237","351821","0.0-44.0-1.6","SS1613079990976","trial","","40","800","1104.0299997664988","images/stimuli/spore_stims/complex_17_B_d.gif","images/stimuli/spore_stims/complex_17_A_d.gif","","","","","12","complex_similar","images/stimuli/spore_stims/complex_17_B_d.gif","right","","","","",""
"","null","html-keyboard-response","238","352793","0.0-44.0-0.7","SS1613079990976","","","null","","","","","<p><img src= images/blank.png width =""200"" height = ""200"" style = ""float:right""></p><p><img src=images/blank.png width =""800"" height = ""200""></p>","","","","","","","","","","","",""
"","469.65500013902783","sequential-stimulus-presentation","239","354072","0.0-44.0-1.7","SS1613079990976","trial","","40","800","1269.6550001390278","images/stimuli/spore_stims/complex_17_B_d.gif","images/stimuli/spore_stims/complex_17_A_d.gif","","","","","12","complex_similar","images/stimuli/spore_stims/complex_17_A_d.gif","middle","","","","",""
"","3966.4849997498095","html-keyboard-response","240","358047","0.0-45.0","SS1613079990976","pref_question","","50","","","","","<video width ='960' height = '540' style='padding-top:8%' autoplay muted><source src='images/stimuli/wall_pref.mp4' type='video/mp4'></video>","2","middle","45%","12","","","","","","","",""
"","157.5899999588728","sequential-stimulus-presentation","241","359018","0.0-46.0","SS1613079990976","pref_reveal","","40","800","957.5899999588728","null","null","","","","","12","","","","background","","","",""
"","null","html-keyboard-response","242","360087","0.0-47.0-0.0","SS1613079990976","","","null","","","","","<p><img src= images/blank.png width =""200"" height = ""200"" style = ""float:right""></p><p><img src=images/blank.png width =""800"" height = ""200""></p>","","","","","","","","","","","",""
"","374.8050001449883","sequential-stimulus-presentation","243","361275","0.0-47.0-1.0","SS1613079990976","trial","","40","800","1174.8050001449883","images/stimuli/spore_stims/simple_09_B_d.gif","images/stimuli/spore_stims/simple_09_A_d.gif","","","","","13","simple_similar","images/stimuli/spore_stims/simple_09_A_d.gif","middle","","","","",""
"","null","html-keyboard-response","244","362367","0.0-47.0-0.1","SS1613079990976","","","null","","","","","<p><img src= images/blank.png width =""200"" height = ""200"" style = ""float:right""></p><p><img src=images/blank.png width =""800"" height = ""200""></p>","","","","","","","","","","","",""
"","954.9700003117323","sequential-stimulus-presentation","245","364158","0.0-47.0-1.1","SS1613079990976","trial","","40","800","1754.9700003117323","images/stimuli/spore_stims/simple_09_B_d.gif","images/stimuli/spore_stims/simple_09_A_d.gif","","","","","13","simple_similar","images/stimuli/spore_stims/simple_09_A_d.gif","middle","","","","",""
"","null","html-keyboard-response","246","365425","0.0-47.0-0.2","SS1613079990976","","","null","","","","","<p><img src= images/blank.png width =""200"" height = ""200"" style = ""float:right""></p><p><img src=images/blank.png width =""800"" height = ""200""></p>","","","","","","","","","","","",""
"","514.5000000484288","sequential-stimulus-presentation","247","366758","0.0-47.0-1.2","SS1613079990976","trial","","40","800","1314.5000000484288","images/stimuli/spore_stims/simple_09_B_d.gif","images/stimuli/spore_stims/simple_09_A_d.gif","","","","","13","simple_similar","images/stimuli/spore_stims/simple_09_B_d.gif","right","","","","",""
"","null","html-keyboard-response","248","367761","0.0-47.0-0.3","SS1613079990976","","","null","","","","","<p><img src= images/blank.png width =""200"" height = ""200"" style = ""float:right""></p><p><img src=images/blank.png width =""800"" height = ""200""></p>","","","","","","","","","","","",""
"","536.4250000566244","sequential-stimulus-presentation","249","369122","0.0-47.0-1.3","SS1613079990976","trial","","40","800","1336.4250000566244","images/stimuli/spore_stims/simple_09_B_d.gif","images/stimuli/spore_stims/simple_09_A_d.gif","","","","","13","simple_similar","images/stimuli/spore_stims/simple_09_A_d.gif","middle","","","","",""
"","null","html-keyboard-response","250","370396","0.0-47.0-0.4","SS1613079990976","","","null","","","","","<p><img src= images/blank.png width =""200"" height = ""200"" style = ""float:right""></p><p><img src=images/blank.png width =""800"" height = ""200""></p>","","","","","","","","","","","",""
"","1707.6900000683963","sequential-stimulus-presentation","251","372929","0.0-47.0-1.4","SS1613079990976","trial","","40","800","2507.6900000683963","images/stimuli/spore_stims/simple_09_B_d.gif","images/stimuli/spore_stims/simple_09_A_d.gif","","","","","13","simple_similar","images/stimuli/spore_stims/simple_09_A_d.gif","middle","","","","",""
"","null","html-keyboard-response","252","374047","0.0-47.0-0.5","SS1613079990976","","","null","","","","","<p><img src= images/blank.png width =""200"" height = ""200"" style = ""float:right""></p><p><img src=images/blank.png width =""800"" height = ""200""></p>","","","","","","","","","","","",""
"","555.715000256896","sequential-stimulus-presentation","253","375412","0.0-47.0-1.5","SS1613079990976","trial","","40","800","1355.715000256896","images/stimuli/spore_stims/simple_09_B_d.gif","images/stimuli/spore_stims/simple_09_A_d.gif","","","","","13","simple_similar","images/stimuli/spore_stims/simple_09_A_d.gif","middle","","","","",""
"","null","html-keyboard-response","254","376253","0.0-47.0-0.6","SS1613079990976","","","null","","","","","<p><img src= images/blank.png width =""200"" height = ""200"" style = ""float:right""></p><p><img src=images/blank.png width =""800"" height = ""200""></p>","","","","","","","","","","","",""
"","114.69000019133091","sequential-stimulus-presentation","255","377178","0.0-47.0-1.6","SS1613079990976","trial","","40","800","914.6900001913309","images/stimuli/spore_stims/simple_09_B_d.gif","images/stimuli/spore_stims/simple_09_A_d.gif","","","","","13","simple_similar","images/stimuli/spore_stims/simple_09_A_d.gif","middle","","","","",""
"","null","html-keyboard-response","256","378469","0.0-47.0-0.7","SS1613079990976","","","null","","","","","<p><img src= images/blank.png width =""200"" height = ""200"" style = ""float:right""></p><p><img src=images/blank.png width =""800"" height = ""200""></p>","","","","","","","","","","","",""
"","244.5449996739626","sequential-stimulus-presentation","257","379529","0.0-47.0-1.7","SS1613079990976","trial","","40","800","1044.5449996739626","images/stimuli/spore_stims/simple_09_B_d.gif","images/stimuli/spore_stims/simple_09_A_d.gif","","","","","13","simple_similar","images/stimuli/spore_stims/simple_09_A_d.gif","middle","","","","",""
"","1407.2700003162026","html-keyboard-response","258","380951","0.0-48.0","SS1613079990976","pref_question","","51","","","","","<video width ='960' height = '540' style='padding-top:8%' autoplay muted><source src='images/stimuli/wall_pref.mp4' type='video/mp4'></video>","3","right","66%","13","","","","","","","",""
"","836.4150002598763","sequential-stimulus-presentation","259","382601","0.0-49.0","SS1613079990976","pref_reveal","","40","800","1636.4150002598763","null","null","","","","","13","","","","deviant","","","",""
"","null","html-keyboard-response","260","383905","0.0-50.0-0.0","SS1613079990976","","","null","","","","","<p><img src= images/blank.png width =""200"" height = ""200"" style = ""float:right""></p><p><img src=images/blank.png width =""800"" height = ""200""></p>","","","","","","","","","","","",""
"","478.0899998731911","sequential-stimulus-presentation","261","385195","0.0-50.0-1.0","SS1613079990976","trial","","40","800","1278.0899998731911","images/stimuli/spore_stims/simple_02_A_b.gif","images/stimuli/spore_stims/simple_05_B_b.gif","","","","","14","simple_dissimilar","images/stimuli/spore_stims/simple_05_B_b.gif","left","","","","",""
"","null","html-keyboard-response","262","386033","0.0-50.0-0.1","SS1613079990976","","","null","","","","","<p><img src= images/blank.png width =""200"" height = ""200"" style = ""float:right""></p><p><img src=images/blank.png width =""800"" height = ""200""></p>","","","","","","","","","","","",""
"","544.9649998918176","sequential-stimulus-presentation","263","387393","0.0-50.0-1.1","SS1613079990976","trial","","40","800","1344.9649998918176","images/stimuli/spore_stims/simple_02_A_b.gif","images/stimuli/spore_stims/simple_05_B_b.gif","","","","","14","simple_dissimilar","images/stimuli/spore_stims/simple_05_B_b.gif","left","","","","",""
"","null","html-keyboard-response","264","388693","0.0-50.0-0.2","SS1613079990976","","","null","","","","","<p><img src= images/blank.png width =""200"" height = ""200"" style = ""float:right""></p><p><img src=images/blank.png width =""800"" height = ""200""></p>","","","","","","","","","","","",""
"","123.90000000596046","sequential-stimulus-presentation","265","389626","0.0-50.0-1.2","SS1613079990976","trial","","40","800","923.9000000059605","images/stimuli/spore_stims/simple_02_A_b.gif","images/stimuli/spore_stims/simple_05_B_b.gif","","","","","14","simple_dissimilar","images/stimuli/spore_stims/simple_02_A_b.gif","middle","","","","",""
"","null","html-keyboard-response","266","390519","0.0-50.0-0.3","SS1613079990976","","","null","","","","","<p><img src= images/blank.png width =""200"" height = ""200"" style = ""float:right""></p><p><img src=images/blank.png width =""800"" height = ""200""></p>","","","","","","","","","","","",""
"","509.18000005185604","sequential-stimulus-presentation","267","391840","0.0-50.0-1.3","SS1613079990976","trial","","40","800","1309.180000051856","images/stimuli/spore_stims/simple_02_A_b.gif","images/stimuli/spore_stims/simple_05_B_b.gif","","","","","14","simple_dissimilar","images/stimuli/spore_stims/simple_05_B_b.gif","left","","","","",""
"","null","html-keyboard-response","268","393053","0.0-50.0-0.4","SS1613079990976","","","null","","","","","<p><img src= images/blank.png width =""200"" height = ""200"" style = ""float:right""></p><p><img src=images/blank.png width =""800"" height = ""200""></p>","","","","","","","","","","","",""
"","494.2950000986457","sequential-stimulus-presentation","269","394362","0.0-50.0-1.4","SS1613079990976","trial","","40","800","1294.2950000986457","images/stimuli/spore_stims/simple_02_A_b.gif","images/stimuli/spore_stims/simple_05_B_b.gif","","","","","14","simple_dissimilar","images/stimuli/spore_stims/simple_05_B_b.gif","left","","","","",""
"","null","html-keyboard-response","270","395332","0.0-50.0-0.5","SS1613079990976","","","null","","","","","<p><img src= images/blank.png width =""200"" height = ""200"" style = ""float:right""></p><p><img src=images/blank.png width =""800"" height = ""200""></p>","","","","","","","","","","","",""
"","418.5999999754131","sequential-stimulus-presentation","271","396562","0.0-50.0-1.5","SS1613079990976","trial","","40","800","1218.599999975413","images/stimuli/spore_stims/simple_02_A_b.gif","images/stimuli/spore_stims/simple_05_B_b.gif","","","","","14","simple_dissimilar","images/stimuli/spore_stims/simple_05_B_b.gif","left","","","","",""
"","null","html-keyboard-response","272","397443","0.0-50.0-0.6","SS1613079990976","","","null","","","","","<p><img src= images/blank.png width =""200"" height = ""200"" style = ""float:right""></p><p><img src=images/blank.png width =""800"" height = ""200""></p>","","","","","","","","","","","",""
"","741.0999997518957","sequential-stimulus-presentation","273","398997","0.0-50.0-1.6","SS1613079990976","trial","","40","800","1541.0999997518957","images/stimuli/spore_stims/simple_02_A_b.gif","images/stimuli/spore_stims/simple_05_B_b.gif","","","","","14","simple_dissimilar","images/stimuli/spore_stims/simple_05_B_b.gif","left","","","","",""
"","null","html-keyboard-response","274","399953","0.0-50.0-0.7","SS1613079990976","","","null","","","","","<p><img src= images/blank.png width =""200"" height = ""200"" style = ""float:right""></p><p><img src=images/blank.png width =""800"" height = ""200""></p>","","","","","","","","","","","",""
"","394.27499985322356","sequential-stimulus-presentation","275","401173","0.0-50.0-1.7","SS1613079990976","trial","","40","800","1194.2749998532236","images/stimuli/spore_stims/simple_02_A_b.gif","images/stimuli/spore_stims/simple_05_B_b.gif","","","","","14","simple_dissimilar","images/stimuli/spore_stims/simple_05_B_b.gif","left","","","","",""
"","991.6750001721084","html-keyboard-response","276","402201","0.0-51.0","SS1613079990976","pref_question","","50","","","","","<video width ='960' height = '540' style='padding-top:8%' autoplay muted><source src='images/stimuli/wall_pref.mp4' type='video/mp4'></video>","2","middle","45%","14","","","","","","","",""
"","549.4999997317791","sequential-stimulus-presentation","277","403559","0.0-52.0","SS1613079990976","pref_reveal","","40","800","1349.499999731779","null","null","","","","","14","","","","deviant","","","",""
"","null","html-keyboard-response","278","404484","0.0-53.0-0.0","SS1613079990976","","","null","","","","","<p><img src= images/blank.png width =""200"" height = ""200"" style = ""float:right""></p><p><img src=images/blank.png width =""800"" height = ""200""></p>","","","","","","","","","","","",""
"","567.2200000844896","sequential-stimulus-presentation","279","405887","0.0-53.0-1.0","SS1613079990976","trial","","40","800","1367.2200000844896","images/stimuli/spore_stims/complex_04_B_b.gif","images/stimuli/spore_stims/complex_16_B_b.gif","","","","","15","complex_dissimilar","images/stimuli/spore_stims/complex_16_B_b.gif","left","","","","",""
"","null","html-keyboard-response","280","407063","0.0-53.0-0.1","SS1613079990976","","","null","","","","","<p><img src= images/blank.png width =""200"" height = ""200"" style = ""float:right""></p><p><img src=images/blank.png width =""800"" height = ""200""></p>","","","","","","","","","","","",""
"","594.2199998535216","sequential-stimulus-presentation","281","408473","0.0-53.0-1.1","SS1613079990976","trial","","40","800","1394.2199998535216","images/stimuli/spore_stims/complex_04_B_b.gif","images/stimuli/spore_stims/complex_16_B_b.gif","","","","","15","complex_dissimilar","images/stimuli/spore_stims/complex_16_B_b.gif","left","","","","",""
"","null","html-keyboard-response","282","409392","0.0-53.0-0.2","SS1613079990976","","","null","","","","","<p><img src= images/blank.png width =""200"" height = ""200"" style = ""float:right""></p><p><img src=images/blank.png width =""800"" height = ""200""></p>","","","","","","","","","","","",""
"","352.85500017926097","sequential-stimulus-presentation","283","410561","0.0-53.0-1.2","SS1613079990976","trial","","40","800","1152.855000179261","images/stimuli/spore_stims/complex_04_B_b.gif","images/stimuli/spore_stims/complex_16_B_b.gif","","","","","15","complex_dissimilar","images/stimuli/spore_stims/complex_16_B_b.gif","left","","","","",""
"","null","html-keyboard-response","284","411713","0.0-53.0-0.3","SS1613079990976","","","null","","","","","<p><img src= images/blank.png width =""200"" height = ""200"" style = ""float:right""></p><p><img src=images/blank.png width =""800"" height = ""200""></p>","","","","","","","","","","","",""
"","271.9899998046458","sequential-stimulus-presentation","285","412802","0.0-53.0-1.3","SS1613079990976","trial","","40","800","1071.9899998046458","images/stimuli/spore_stims/complex_04_B_b.gif","images/stimuli/spore_stims/complex_16_B_b.gif","","","","","15","complex_dissimilar","images/stimuli/spore_stims/complex_04_B_b.gif","right","","","","",""
"","null","html-keyboard-response","286","413666","0.0-53.0-0.4","SS1613079990976","","","null","","","","","<p><img src= images/blank.png width =""200"" height = ""200"" style = ""float:right""></p><p><img src=images/blank.png width =""800"" height = ""200""></p>","","","","","","","","","","","",""
"","1338.1249997764826","sequential-stimulus-presentation","287","415819","0.0-53.0-1.4","SS1613079990976","trial","","40","800","2138.1249997764826","images/stimuli/spore_stims/complex_04_B_b.gif","images/stimuli/spore_stims/complex_16_B_b.gif","","","","","15","complex_dissimilar","images/stimuli/spore_stims/complex_16_B_b.gif","left","","","","",""
"","null","html-keyboard-response","288","416892","0.0-53.0-0.5","SS1613079990976","","","null","","","","","<p><img src= images/blank.png width =""200"" height = ""200"" style = ""float:right""></p><p><img src=images/blank.png width =""800"" height = ""200""></p>","","","","","","","","","","","",""
"","518.4349999763072","sequential-stimulus-presentation","289","418224","0.0-53.0-1.5","SS1613079990976","trial","","40","800","1318.4349999763072","images/stimuli/spore_stims/complex_04_B_b.gif","images/stimuli/spore_stims/complex_16_B_b.gif","","","","","15","complex_dissimilar","images/stimuli/spore_stims/complex_16_B_b.gif","left","","","","",""
"","null","html-keyboard-response","290","419114","0.0-53.0-0.6","SS1613079990976","","","null","","","","","<p><img src= images/blank.png width =""200"" height = ""200"" style = ""float:right""></p><p><img src=images/blank.png width =""800"" height = ""200""></p>","","","","","","","","","","","",""
"","1355.4549999535084","sequential-stimulus-presentation","291","421282","0.0-53.0-1.6","SS1613079990976","trial","","40","800","2155.4549999535084","images/stimuli/spore_stims/complex_04_B_b.gif","images/stimuli/spore_stims/complex_16_B_b.gif","","","","","15","complex_dissimilar","images/stimuli/spore_stims/complex_16_B_b.gif","left","","","","",""
"","null","html-keyboard-response","292","422533","0.0-53.0-0.7","SS1613079990976","","","null","","","","","<p><img src= images/blank.png width =""200"" height = ""200"" style = ""float:right""></p><p><img src=images/blank.png width =""800"" height = ""200""></p>","","","","","","","","","","","",""
"","152.38500013947487","sequential-stimulus-presentation","293","423498","0.0-53.0-1.7","SS1613079990976","trial","","40","800","952.3850001394749","images/stimuli/spore_stims/complex_04_B_b.gif","images/stimuli/spore_stims/complex_16_B_b.gif","","","","","15","complex_dissimilar","images/stimuli/spore_stims/complex_16_B_b.gif","left","","","","",""
"","979.4499999843538","html-keyboard-response","294","424486","0.0-54.0","SS1613079990976","pref_question","","51","","","","","<video width ='960' height = '540' style='padding-top:8%' autoplay muted><source src='images/stimuli/wall_pref.mp4' type='video/mp4'></video>","3","right","66%","15","","","","","","","",""
"","68.84499965235591","sequential-stimulus-presentation","295","425377","0.0-55.0","SS1613079990976","pref_reveal","","40","800","868.8449996523559","null","null","","","","","15","","","","deviant","","","",""
"","null","html-keyboard-response","296","426232","0.0-56.0-0.0","SS1613079990976","","","null","","","","","<p><img src= images/blank.png width =""200"" height = ""200"" style = ""float:right""></p><p><img src=images/blank.png width =""800"" height = ""200""></p>","","","","","","","","","","","",""
"","608.5900003090501","sequential-stimulus-presentation","297","427651","0.0-56.0-1.0","SS1613079990976","trial","","40","800","1408.59000030905","images/stimuli/spore_stims/complex_06_A_a.gif","images/stimuli/spore_stims/complex_12_B_c.gif","","","","","16","complex_dissimilar","images/stimuli/spore_stims/complex_12_B_c.gif","left","","","","",""
"","null","html-keyboard-response","298","428514","0.0-56.0-0.1","SS1613079990976","","","null","","","","","<p><img src= images/blank.png width =""200"" height = ""200"" style = ""float:right""></p><p><img src=images/blank.png width =""800"" height = ""200""></p>","","","","","","","","","","","",""
"","514.469999819994","sequential-stimulus-presentation","299","429841","0.0-56.0-1.1","SS1613079990976","trial","","40","800","1314.469999819994","images/stimuli/spore_stims/complex_06_A_a.gif","images/stimuli/spore_stims/complex_12_B_c.gif","","","","","16","complex_dissimilar","images/stimuli/spore_stims/complex_12_B_c.gif","left","","","","",""
"","null","html-keyboard-response","300","431049","0.0-56.0-0.2","SS1613079990976","","","null","","","","","<p><img src= images/blank.png width =""200"" height = ""200"" style = ""float:right""></p><p><img src=images/blank.png width =""800"" height = ""200""></p>","","","","","","","","","","","",""
"","349.57499988377094","sequential-stimulus-presentation","301","432211","0.0-56.0-1.2","SS1613079990976","trial","","40","800","1149.574999883771","images/stimuli/spore_stims/complex_06_A_a.gif","images/stimuli/spore_stims/complex_12_B_c.gif","","","","","16","complex_dissimilar","images/stimuli/spore_stims/complex_12_B_c.gif","left","","","","",""
"","null","html-keyboard-response","302","433027","0.0-56.0-0.3","SS1613079990976","","","null","","","","","<p><img src= images/blank.png width =""200"" height = ""200"" style = ""float:right""></p><p><img src=images/blank.png width =""800"" height = ""200""></p>","","","","","","","","","","","",""
"","251.0649999603629","sequential-stimulus-presentation","303","434104","0.0-56.0-1.3","SS1613079990976","trial","","40","800","1051.064999960363","images/stimuli/spore_stims/complex_06_A_a.gif","images/stimuli/spore_stims/complex_12_B_c.gif","","","","","16","complex_dissimilar","images/stimuli/spore_stims/complex_12_B_c.gif","left","","","","",""
"","null","html-keyboard-response","304","435013","0.0-56.0-0.4","SS1613079990976","","","null","","","","","<p><img src= images/blank.png width =""200"" height = ""200"" style = ""float:right""></p><p><img src=images/blank.png width =""800"" height = ""200""></p>","","","","","","","","","","","",""
"","192.72999977692962","sequential-stimulus-presentation","305","436020","0.0-56.0-1.4","SS1613079990976","trial","","40","800","992.7299997769296","images/stimuli/spore_stims/complex_06_A_a.gif","images/stimuli/spore_stims/complex_12_B_c.gif","","","","","16","complex_dissimilar","images/stimuli/spore_stims/complex_12_B_c.gif","left","","","","",""
"","null","html-keyboard-response","306","437017","0.0-56.0-0.5","SS1613079990976","","","null","","","","","<p><img src= images/blank.png width =""200"" height = ""200"" style = ""float:right""></p><p><img src=images/blank.png width =""800"" height = ""200""></p>","","","","","","","","","","","",""
"","143.03999999538064","sequential-stimulus-presentation","307","437979","0.0-56.0-1.5","SS1613079990976","trial","","40","800","943.0399999953806","images/stimuli/spore_stims/complex_06_A_a.gif","images/stimuli/spore_stims/complex_12_B_c.gif","","","","","16","complex_dissimilar","images/stimuli/spore_stims/complex_06_A_a.gif","middle","","","","",""
"","null","html-keyboard-response","308","438831","0.0-56.0-0.6","SS1613079990976","","","null","","","","","<p><img src= images/blank.png width =""200"" height = ""200"" style = ""float:right""></p><p><img src=images/blank.png width =""800"" height = ""200""></p>","","","","","","","","","","","",""
"","87.95499987900257","sequential-stimulus-presentation","309","439739","0.0-56.0-1.6","SS1613079990976","trial","","40","800","887.9549998790026","images/stimuli/spore_stims/complex_06_A_a.gif","images/stimuli/spore_stims/complex_12_B_c.gif","","","","","16","complex_dissimilar","images/stimuli/spore_stims/complex_12_B_c.gif","left","","","","",""
"","null","html-keyboard-response","310","440565","0.0-56.0-0.7","SS1613079990976","","","null","","","","","<p><img src= images/blank.png width =""200"" height = ""200"" style = ""float:right""></p><p><img src=images/blank.png width =""800"" height = ""200""></p>","","","","","","","","","","","",""
"","423.59500005841255","sequential-stimulus-presentation","311","441804","0.0-56.0-1.7","SS1613079990976","trial","","40","800","1223.5950000584126","images/stimuli/spore_stims/complex_06_A_a.gif","images/stimuli/spore_stims/complex_12_B_c.gif","","","","","16","complex_dissimilar","images/stimuli/spore_stims/complex_12_B_c.gif","left","","","","",""
"","804.7799998894334","html-keyboard-response","312","442617","0.0-57.0","SS1613079990976","pref_question","","50","","","","","<video width ='960' height = '540' style='padding-top:8%' autoplay muted><source src='images/stimuli/wall_pref.mp4' type='video/mp4'></video>","2","middle","45%","16","","","","","","","",""
