"view_history","rt","trial_type","trial_index","time_elapsed","internal_node_id","subject","stimulus_type","trial_stimulus","key_press","minimum_viewing_duration","trial_looking_time","block_deviant","block_background","stimulus","wall_pref","location","location_percent","block_number","block_type","stimulus_displayed","position_displayed","stim_type_selected","responses","question_order","stimulus_left","stimulus_right"
"[{""page_index"":0,""viewing_time"":24928.65499999607}]","24931.244999999763","instructions","0","24934","0.0-0.0","SS1613100450096","","","","","","","","","","","","","","","","","","","",""
"[{""page_index"":0,""viewing_time"":3456.0749999945983},{""page_index"":1,""viewing_time"":11431.425000002491}]","14888.07000000088","instructions","1","41828","0.0-1.0","SS1613100450096","instructions","","","","","","","","","","","","","","","","","","",""
"","12256.240000002435","sequential-stimulus-presentation","2","54894","0.0-2.0","SS1613100450096","","","40","800","13056.240000002435","null","null","","","","","","","","","","","","",""
"","1476.2600000103703","sequential-stimulus-presentation","3","57175","0.0-3.0","SS1613100450096","","","40","800","2276.2600000103703","null","null","","","","","","","","","","","","",""
"[{""page_index"":0,""viewing_time"":4339.214999999967}]","4339.579999999842","instructions","4","61522","0.0-4.0","SS1613100450096","instructions","","","","","","","","","","","","","","","","","","",""
"","24567.36999998975","html-keyboard-response","5","86094","0.0-5.0","SS1613100450096","instructions","","97","","","","","<video width ='960' height = '540' autoplay muted><source src='images/stimuli/wall_pref.mp4' type='video/mp4'></video>","1","left","25%","","","","","","","","",""
"","2505.235000004177","sequential-stimulus-presentation","6","89406","0.0-6.0","SS1613100450096","pref_reveal","","40","800","3305.235000004177","null","null","","","","","","","","","","","","",""
"[{""page_index"":0,""viewing_time"":5241.330000004382},{""page_index"":1,""viewing_time"":2815.9149999992223},{""page_index"":2,""viewing_time"":1519.5550000062212},{""page_index"":3,""viewing_time"":992.3999999882653}]","10569.694999998319","instructions","7","99979","0.0-7.0","SS1613100450096","instructions","","","","","","","","","","","","","","","","","","",""
"","null","html-keyboard-response","8","101244","0.0-8.0-0.0","SS1613100450096","","","null","","","","","<p><img src= images/blank.png width =""200"" height = ""200"" style = ""float:right""></p><p><img src=images/blank.png width =""800"" height = ""200""></p>","","","","","","","","","","","",""
"","2037.0999999868218","sequential-stimulus-presentation","9","104086","0.0-8.0-1.0","SS1613100450096","trial","","40","800","2837.099999986822","images/stimuli/spore_stims/complex_14_B_c.gif","images/stimuli/spore_stims/complex_05_B_a.gif","","","","","0","complex_dissimilar","images/stimuli/spore_stims/complex_05_B_a.gif","right","","","","",""
"","null","html-keyboard-response","10","105259","0.0-8.0-0.1","SS1613100450096","","","null","","","","","<p><img src= images/blank.png width =""200"" height = ""200"" style = ""float:right""></p><p><img src=images/blank.png width =""800"" height = ""200""></p>","","","","","","","","","","","",""
"","5278.18500000285","sequential-stimulus-presentation","11","111343","0.0-8.0-1.1","SS1613100450096","trial","","40","800","6078.18500000285","images/stimuli/spore_stims/complex_14_B_c.gif","images/stimuli/spore_stims/complex_05_B_a.gif","","","","","0","complex_dissimilar","images/stimuli/spore_stims/complex_05_B_a.gif","right","","","","",""
"","null","html-keyboard-response","12","112416","0.0-8.0-0.2","SS1613100450096","","","null","","","","","<p><img src= images/blank.png width =""200"" height = ""200"" style = ""float:right""></p><p><img src=images/blank.png width =""800"" height = ""200""></p>","","","","","","","","","","","",""
"","216.62500000093132","sequential-stimulus-presentation","13","113447","0.0-8.0-1.2","SS1613100450096","trial","","40","800","1016.6250000009313","images/stimuli/spore_stims/complex_14_B_c.gif","images/stimuli/spore_stims/complex_05_B_a.gif","","","","","0","complex_dissimilar","images/stimuli/spore_stims/complex_05_B_a.gif","right","","","","",""
"","null","html-keyboard-response","14","114479","0.0-8.0-0.3","SS1613100450096","","","null","","","","","<p><img src= images/blank.png width =""200"" height = ""200"" style = ""float:right""></p><p><img src=images/blank.png width =""800"" height = ""200""></p>","","","","","","","","","","","",""
"","5703.609999996843","sequential-stimulus-presentation","15","120991","0.0-8.0-1.3","SS1613100450096","trial","","40","800","6503.609999996843","images/stimuli/spore_stims/complex_14_B_c.gif","images/stimuli/spore_stims/complex_05_B_a.gif","","","","","0","complex_dissimilar","images/stimuli/spore_stims/complex_05_B_a.gif","right","","","","",""
"","null","html-keyboard-response","16","121926","0.0-8.0-0.4","SS1613100450096","","","null","","","","","<p><img src= images/blank.png width =""200"" height = ""200"" style = ""float:right""></p><p><img src=images/blank.png width =""800"" height = ""200""></p>","","","","","","","","","","","",""
"","73.9049999974668","sequential-stimulus-presentation","17","122806","0.0-8.0-1.4","SS1613100450096","trial","","40","800","873.9049999974668","images/stimuli/spore_stims/complex_14_B_c.gif","images/stimuli/spore_stims/complex_05_B_a.gif","","","","","0","complex_dissimilar","images/stimuli/spore_stims/complex_05_B_a.gif","right","","","","",""
"","null","html-keyboard-response","18","123739","0.0-8.0-0.5","SS1613100450096","","","null","","","","","<p><img src= images/blank.png width =""200"" height = ""200"" style = ""float:right""></p><p><img src=images/blank.png width =""800"" height = ""200""></p>","","","","","","","","","","","",""
"","2345.3199999930803","sequential-stimulus-presentation","19","126902","0.0-8.0-1.5","SS1613100450096","trial","","40","800","3145.3199999930803","images/stimuli/spore_stims/complex_14_B_c.gif","images/stimuli/spore_stims/complex_05_B_a.gif","","","","","0","complex_dissimilar","images/stimuli/spore_stims/complex_05_B_a.gif","right","","","","",""
"","null","html-keyboard-response","20","128181","0.0-8.0-0.6","SS1613100450096","","","null","","","","","<p><img src= images/blank.png width =""200"" height = ""200"" style = ""float:right""></p><p><img src=images/blank.png width =""800"" height = ""200""></p>","","","","","","","","","","","",""
"","1100.7700000045588","sequential-stimulus-presentation","21","130088","0.0-8.0-1.6","SS1613100450096","trial","","40","800","1900.7700000045588","images/stimuli/spore_stims/complex_14_B_c.gif","images/stimuli/spore_stims/complex_05_B_a.gif","","","","","0","complex_dissimilar","images/stimuli/spore_stims/complex_05_B_a.gif","right","","","","",""
"","null","html-keyboard-response","22","131224","0.0-8.0-0.7","SS1613100450096","","","null","","","","","<p><img src= images/blank.png width =""200"" height = ""200"" style = ""float:right""></p><p><img src=images/blank.png width =""800"" height = ""200""></p>","","","","","","","","","","","",""
"","551.8000000010943","sequential-stimulus-presentation","23","132583","0.0-8.0-1.7","SS1613100450096","trial","","40","800","1351.8000000010943","images/stimuli/spore_stims/complex_14_B_c.gif","images/stimuli/spore_stims/complex_05_B_a.gif","","","","","0","complex_dissimilar","images/stimuli/spore_stims/complex_14_B_c.gif","middle","","","","",""
"","3166.190000003553","html-keyboard-response","24","135754","0.0-9.0","SS1613100450096","pref_question","","98","","","","","<video width ='960' height = '540' style='padding-top:8%' autoplay muted><source src='images/stimuli/wall_pref.mp4' type='video/mp4'></video>","2","middle","45%","0","","","","","","","",""
"","5843.334999997751","sequential-stimulus-presentation","25","142406","0.0-10.0","SS1613100450096","pref_reveal","","40","800","6643.334999997751","null","null","","","","","0","","","","deviant","","","",""
"","null","html-keyboard-response","26","143474","0.0-11.0-0.0","SS1613100450096","","","null","","","","","<p><img src= images/blank.png width =""200"" height = ""200"" style = ""float:right""></p><p><img src=images/blank.png width =""800"" height = ""200""></p>","","","","","","","","","","","",""
"","1248.279999999795","sequential-stimulus-presentation","27","145534","0.0-11.0-1.0","SS1613100450096","trial","","40","800","2048.279999999795","images/stimuli/spore_stims/complex_16_B_d.gif","images/stimuli/spore_stims/complex_16_A_d.gif","","","","","1","complex_similar","images/stimuli/spore_stims/complex_16_A_d.gif","right","","","","",""
"","null","html-keyboard-response","28","146450","0.0-11.0-0.1","SS1613100450096","","","null","","","","","<p><img src= images/blank.png width =""200"" height = ""200"" style = ""float:right""></p><p><img src=images/blank.png width =""800"" height = ""200""></p>","","","","","","","","","","","",""
"","2626.189999995404","sequential-stimulus-presentation","29","149886","0.0-11.0-1.1","SS1613100450096","trial","","40","800","3426.189999995404","images/stimuli/spore_stims/complex_16_B_d.gif","images/stimuli/spore_stims/complex_16_A_d.gif","","","","","1","complex_similar","images/stimuli/spore_stims/complex_16_A_d.gif","right","","","","",""
"","null","html-keyboard-response","30","150698","0.0-11.0-0.2","SS1613100450096","","","null","","","","","<p><img src= images/blank.png width =""200"" height = ""200"" style = ""float:right""></p><p><img src=images/blank.png width =""800"" height = ""200""></p>","","","","","","","","","","","",""
"","3435.9649999969406","sequential-stimulus-presentation","31","154950","0.0-11.0-1.2","SS1613100450096","trial","","40","800","4235.964999996941","images/stimuli/spore_stims/complex_16_B_d.gif","images/stimuli/spore_stims/complex_16_A_d.gif","","","","","1","complex_similar","images/stimuli/spore_stims/complex_16_A_d.gif","right","","","","",""
"","null","html-keyboard-response","32","155956","0.0-11.0-0.3","SS1613100450096","","","null","","","","","<p><img src= images/blank.png width =""200"" height = ""200"" style = ""float:right""></p><p><img src=images/blank.png width =""800"" height = ""200""></p>","","","","","","","","","","","",""
"","3083.9950000081444","sequential-stimulus-presentation","33","159846","0.0-11.0-1.3","SS1613100450096","trial","","40","800","3883.9950000081444","images/stimuli/spore_stims/complex_16_B_d.gif","images/stimuli/spore_stims/complex_16_A_d.gif","","","","","1","complex_similar","images/stimuli/spore_stims/complex_16_B_d.gif","middle","","","","",""
"","null","html-keyboard-response","34","160837","0.0-11.0-0.4","SS1613100450096","","","null","","","","","<p><img src= images/blank.png width =""200"" height = ""200"" style = ""float:right""></p><p><img src=images/blank.png width =""800"" height = ""200""></p>","","","","","","","","","","","",""
"","1595.8949999912875","sequential-stimulus-presentation","35","163239","0.0-11.0-1.4","SS1613100450096","trial","","40","800","2395.8949999912875","images/stimuli/spore_stims/complex_16_B_d.gif","images/stimuli/spore_stims/complex_16_A_d.gif","","","","","1","complex_similar","images/stimuli/spore_stims/complex_16_A_d.gif","right","","","","",""
"","null","html-keyboard-response","36","164263","0.0-11.0-0.5","SS1613100450096","","","null","","","","","<p><img src= images/blank.png width =""200"" height = ""200"" style = ""float:right""></p><p><img src=images/blank.png width =""800"" height = ""200""></p>","","","","","","","","","","","",""
"","3056.8399999901885","sequential-stimulus-presentation","37","168128","0.0-11.0-1.5","SS1613100450096","trial","","40","800","3856.8399999901885","images/stimuli/spore_stims/complex_16_B_d.gif","images/stimuli/spore_stims/complex_16_A_d.gif","","","","","1","complex_similar","images/stimuli/spore_stims/complex_16_A_d.gif","right","","","","",""
"","null","html-keyboard-response","38","169276","0.0-11.0-0.6","SS1613100450096","","","null","","","","","<p><img src= images/blank.png width =""200"" height = ""200"" style = ""float:right""></p><p><img src=images/blank.png width =""800"" height = ""200""></p>","","","","","","","","","","","",""
"","1413.3999999903608","sequential-stimulus-presentation","39","171497","0.0-11.0-1.6","SS1613100450096","trial","","40","800","2213.399999990361","images/stimuli/spore_stims/complex_16_B_d.gif","images/stimuli/spore_stims/complex_16_A_d.gif","","","","","1","complex_similar","images/stimuli/spore_stims/complex_16_A_d.gif","right","","","","",""
"","null","html-keyboard-response","40","172620","0.0-11.0-0.7","SS1613100450096","","","null","","","","","<p><img src= images/blank.png width =""200"" height = ""200"" style = ""float:right""></p><p><img src=images/blank.png width =""800"" height = ""200""></p>","","","","","","","","","","","",""
"","1490.6950000004144","sequential-stimulus-presentation","41","174918","0.0-11.0-1.7","SS1613100450096","trial","","40","800","2290.6950000004144","images/stimuli/spore_stims/complex_16_B_d.gif","images/stimuli/spore_stims/complex_16_A_d.gif","","","","","1","complex_similar","images/stimuli/spore_stims/complex_16_A_d.gif","right","","","","",""
"","1858.9850000134902","html-keyboard-response","42","176783","0.0-12.0","SS1613100450096","pref_question","","99","","","","","<video width ='960' height = '540' style='padding-top:8%' autoplay muted><source src='images/stimuli/wall_pref.mp4' type='video/mp4'></video>","3","right","66%","1","","","","","","","",""
"","2798.9349999988917","sequential-stimulus-presentation","43","180391","0.0-13.0","SS1613100450096","pref_reveal","","40","800","3598.9349999988917","null","null","","","","","1","","","","background","","","",""
"","null","html-keyboard-response","44","181241","0.0-14.0-0.0","SS1613100450096","","","null","","","","","<p><img src= images/blank.png width =""200"" height = ""200"" style = ""float:right""></p><p><img src=images/blank.png width =""800"" height = ""200""></p>","","","","","","","","","","","",""
"","2489.5899999974063","sequential-stimulus-presentation","45","184542","0.0-14.0-1.0","SS1613100450096","trial","","40","800","3289.5899999974063","images/stimuli/spore_stims/simple_01_B_b.gif","images/stimuli/spore_stims/simple_01_A_b.gif","","","","","2","simple_similar","images/stimuli/spore_stims/simple_01_A_b.gif","middle","","","","",""
"","null","html-keyboard-response","46","185829","0.0-14.0-0.1","SS1613100450096","","","null","","","","","<p><img src= images/blank.png width =""200"" height = ""200"" style = ""float:right""></p><p><img src=images/blank.png width =""800"" height = ""200""></p>","","","","","","","","","","","",""
"","2180.5049999966286","sequential-stimulus-presentation","47","188814","0.0-14.0-1.1","SS1613100450096","trial","","40","800","2980.5049999966286","images/stimuli/spore_stims/simple_01_B_b.gif","images/stimuli/spore_stims/simple_01_A_b.gif","","","","","2","simple_similar","images/stimuli/spore_stims/simple_01_A_b.gif","middle","","","","",""
"","null","html-keyboard-response","48","190061","0.0-14.0-0.2","SS1613100450096","","","null","","","","","<p><img src= images/blank.png width =""200"" height = ""200"" style = ""float:right""></p><p><img src=images/blank.png width =""800"" height = ""200""></p>","","","","","","","","","","","",""
"","3472.119999991264","sequential-stimulus-presentation","49","194383","0.0-14.0-1.2","SS1613100450096","trial","","40","800","4272.119999991264","images/stimuli/spore_stims/simple_01_B_b.gif","images/stimuli/spore_stims/simple_01_A_b.gif","","","","","2","simple_similar","images/stimuli/spore_stims/simple_01_A_b.gif","middle","","","","",""
"","null","html-keyboard-response","50","195443","0.0-14.0-0.3","SS1613100450096","","","null","","","","","<p><img src= images/blank.png width =""200"" height = ""200"" style = ""float:right""></p><p><img src=images/blank.png width =""800"" height = ""200""></p>","","","","","","","","","","","",""
"","3422.7500000124564","sequential-stimulus-presentation","51","199678","0.0-14.0-1.3","SS1613100450096","trial","","40","800","4222.750000012456","images/stimuli/spore_stims/simple_01_B_b.gif","images/stimuli/spore_stims/simple_01_A_b.gif","","","","","2","simple_similar","images/stimuli/spore_stims/simple_01_A_b.gif","middle","","","","",""
"","null","html-keyboard-response","52","200606","0.0-14.0-0.4","SS1613100450096","","","null","","","","","<p><img src= images/blank.png width =""200"" height = ""200"" style = ""float:right""></p><p><img src=images/blank.png width =""800"" height = ""200""></p>","","","","","","","","","","","",""
"","2770.5750000022817","sequential-stimulus-presentation","53","204206","0.0-14.0-1.4","SS1613100450096","trial","","40","800","3570.5750000022817","images/stimuli/spore_stims/simple_01_B_b.gif","images/stimuli/spore_stims/simple_01_A_b.gif","","","","","2","simple_similar","images/stimuli/spore_stims/simple_01_B_b.gif","left","","","","",""
"","null","html-keyboard-response","54","205399","0.0-14.0-0.5","SS1613100450096","","","null","","","","","<p><img src= images/blank.png width =""200"" height = ""200"" style = ""float:right""></p><p><img src=images/blank.png width =""800"" height = ""200""></p>","","","","","","","","","","","",""
"","1425.9749999910127","sequential-stimulus-presentation","55","207646","0.0-14.0-1.5","SS1613100450096","trial","","40","800","2225.9749999910127","images/stimuli/spore_stims/simple_01_B_b.gif","images/stimuli/spore_stims/simple_01_A_b.gif","","","","","2","simple_similar","images/stimuli/spore_stims/simple_01_A_b.gif","middle","","","","",""
"","null","html-keyboard-response","56","208749","0.0-14.0-0.6","SS1613100450096","","","null","","","","","<p><img src= images/blank.png width =""200"" height = ""200"" style = ""float:right""></p><p><img src=images/blank.png width =""800"" height = ""200""></p>","","","","","","","","","","","",""
"","798.1850000069244","sequential-stimulus-presentation","57","210390","0.0-14.0-1.6","SS1613100450096","trial","","40","800","1598.1850000069244","images/stimuli/spore_stims/simple_01_B_b.gif","images/stimuli/spore_stims/simple_01_A_b.gif","","","","","2","simple_similar","images/stimuli/spore_stims/simple_01_A_b.gif","middle","","","","",""
"","null","html-keyboard-response","58","211551","0.0-14.0-0.7","SS1613100450096","","","null","","","","","<p><img src= images/blank.png width =""200"" height = ""200"" style = ""float:right""></p><p><img src=images/blank.png width =""800"" height = ""200""></p>","","","","","","","","","","","",""
"","775.854999999865","sequential-stimulus-presentation","59","213134","0.0-14.0-1.7","SS1613100450096","trial","","40","800","1575.854999999865","images/stimuli/spore_stims/simple_01_B_b.gif","images/stimuli/spore_stims/simple_01_A_b.gif","","","","","2","simple_similar","images/stimuli/spore_stims/simple_01_A_b.gif","middle","","","","",""
"","5907.739999995101","html-keyboard-response","60","219047","0.0-15.0","SS1613100450096","pref_question","","98","","","","","<video width ='960' height = '540' style='padding-top:8%' autoplay muted><source src='images/stimuli/wall_pref.mp4' type='video/mp4'></video>","2","middle","45%","2","","","","","","","",""
"","3615.0699999998324","sequential-stimulus-presentation","61","223469","0.0-16.0","SS1613100450096","pref_reveal","","40","800","4415.069999999832","null","null","","","","","2","","","","background","","","",""
"","null","html-keyboard-response","62","224310","0.0-17.0-0.0","SS1613100450096","","","null","","","","","<p><img src= images/blank.png width =""200"" height = ""200"" style = ""float:right""></p><p><img src=images/blank.png width =""800"" height = ""200""></p>","","","","","","","","","","","",""
"","1577.3099999933038","sequential-stimulus-presentation","63","226719","0.0-17.0-1.0","SS1613100450096","trial","","40","800","2377.309999993304","images/stimuli/spore_stims/complex_09_A_a.gif","images/stimuli/spore_stims/complex_09_B_a.gif","","","","","3","complex_similar","images/stimuli/spore_stims/complex_09_B_a.gif","right","","","","",""
"","null","html-keyboard-response","64","227798","0.0-17.0-0.1","SS1613100450096","","","null","","","","","<p><img src= images/blank.png width =""200"" height = ""200"" style = ""float:right""></p><p><img src=images/blank.png width =""800"" height = ""200""></p>","","","","","","","","","","","",""
"","740.5599999910919","sequential-stimulus-presentation","65","229347","0.0-17.0-1.1","SS1613100450096","trial","","40","800","1540.559999991092","images/stimuli/spore_stims/complex_09_A_a.gif","images/stimuli/spore_stims/complex_09_B_a.gif","","","","","3","complex_similar","images/stimuli/spore_stims/complex_09_B_a.gif","right","","","","",""
"","null","html-keyboard-response","66","230456","0.0-17.0-0.2","SS1613100450096","","","null","","","","","<p><img src= images/blank.png width =""200"" height = ""200"" style = ""float:right""></p><p><img src=images/blank.png width =""800"" height = ""200""></p>","","","","","","","","","","","",""
"","508.0949999974109","sequential-stimulus-presentation","67","231775","0.0-17.0-1.2","SS1613100450096","trial","","40","800","1308.094999997411","images/stimuli/spore_stims/complex_09_A_a.gif","images/stimuli/spore_stims/complex_09_B_a.gif","","","","","3","complex_similar","images/stimuli/spore_stims/complex_09_B_a.gif","right","","","","",""
"","null","html-keyboard-response","68","232846","0.0-17.0-0.3","SS1613100450096","","","null","","","","","<p><img src= images/blank.png width =""200"" height = ""200"" style = ""float:right""></p><p><img src=images/blank.png width =""800"" height = ""200""></p>","","","","","","","","","","","",""
"","1805.0750000111293","sequential-stimulus-presentation","69","235463","0.0-17.0-1.3","SS1613100450096","trial","","40","800","2605.0750000111293","images/stimuli/spore_stims/complex_09_A_a.gif","images/stimuli/spore_stims/complex_09_B_a.gif","","","","","3","complex_similar","images/stimuli/spore_stims/complex_09_A_a.gif","middle","","","","",""
"","null","html-keyboard-response","70","236504","0.0-17.0-0.4","SS1613100450096","","","null","","","","","<p><img src= images/blank.png width =""200"" height = ""200"" style = ""float:right""></p><p><img src=images/blank.png width =""800"" height = ""200""></p>","","","","","","","","","","","",""
"","1420.8450000005541","sequential-stimulus-presentation","71","238735","0.0-17.0-1.4","SS1613100450096","trial","","40","800","2220.845000000554","images/stimuli/spore_stims/complex_09_A_a.gif","images/stimuli/spore_stims/complex_09_B_a.gif","","","","","3","complex_similar","images/stimuli/spore_stims/complex_09_B_a.gif","right","","","","",""
"","null","html-keyboard-response","72","239985","0.0-17.0-0.5","SS1613100450096","","","null","","","","","<p><img src= images/blank.png width =""200"" height = ""200"" style = ""float:right""></p><p><img src=images/blank.png width =""800"" height = ""200""></p>","","","","","","","","","","","",""
"","574.3700000020908","sequential-stimulus-presentation","73","241368","0.0-17.0-1.5","SS1613100450096","trial","","40","800","1374.3700000020908","images/stimuli/spore_stims/complex_09_A_a.gif","images/stimuli/spore_stims/complex_09_B_a.gif","","","","","3","complex_similar","images/stimuli/spore_stims/complex_09_B_a.gif","right","","","","",""
"","null","html-keyboard-response","74","242497","0.0-17.0-0.6","SS1613100450096","","","null","","","","","<p><img src= images/blank.png width =""200"" height = ""200"" style = ""float:right""></p><p><img src=images/blank.png width =""800"" height = ""200""></p>","","","","","","","","","","","",""
"","1182.9149999975925","sequential-stimulus-presentation","75","244495","0.0-17.0-1.6","SS1613100450096","trial","","40","800","1982.9149999975925","images/stimuli/spore_stims/complex_09_A_a.gif","images/stimuli/spore_stims/complex_09_B_a.gif","","","","","3","complex_similar","images/stimuli/spore_stims/complex_09_B_a.gif","right","","","","",""
"","null","html-keyboard-response","76","245600","0.0-17.0-0.7","SS1613100450096","","","null","","","","","<p><img src= images/blank.png width =""200"" height = ""200"" style = ""float:right""></p><p><img src=images/blank.png width =""800"" height = ""200""></p>","","","","","","","","","","","",""
"","440.65499999851454","sequential-stimulus-presentation","77","246846","0.0-17.0-1.7","SS1613100450096","trial","","40","800","1240.6549999985145","images/stimuli/spore_stims/complex_09_A_a.gif","images/stimuli/spore_stims/complex_09_B_a.gif","","","","","3","complex_similar","images/stimuli/spore_stims/complex_09_B_a.gif","right","","","","",""
"","2203.4100000018952","html-keyboard-response","78","249054","0.0-18.0","SS1613100450096","pref_question","","99","","","","","<video width ='960' height = '540' style='padding-top:8%' autoplay muted><source src='images/stimuli/wall_pref.mp4' type='video/mp4'></video>","3","right","66%","3","","","","","","","",""
"","3256.6700000024866","sequential-stimulus-presentation","79","253118","0.0-19.0","SS1613100450096","pref_reveal","","40","800","4056.6700000024866","null","null","","","","","3","","","","background","","","",""
"","null","html-keyboard-response","80","254106","0.0-20.0-0.0","SS1613100450096","","","null","","","","","<p><img src= images/blank.png width =""200"" height = ""200"" style = ""float:right""></p><p><img src=images/blank.png width =""800"" height = ""200""></p>","","","","","","","","","","","",""
"","1311.7349999956787","sequential-stimulus-presentation","81","256231","0.0-20.0-1.0","SS1613100450096","trial","","40","800","2111.7349999956787","images/stimuli/spore_stims/simple_08_B_b.gif","images/stimuli/spore_stims/simple_07_A_a.gif","","","","","4","simple_dissimilar","images/stimuli/spore_stims/simple_07_A_a.gif","right","","","","",""
"","null","html-keyboard-response","82","257357","0.0-20.0-0.1","SS1613100450096","","","null","","","","","<p><img src= images/blank.png width =""200"" height = ""200"" style = ""float:right""></p><p><img src=images/blank.png width =""800"" height = ""200""></p>","","","","","","","","","","","",""
"","643.7599999917438","sequential-stimulus-presentation","83","258810","0.0-20.0-1.1","SS1613100450096","trial","","40","800","1443.7599999917438","images/stimuli/spore_stims/simple_08_B_b.gif","images/stimuli/spore_stims/simple_07_A_a.gif","","","","","4","simple_dissimilar","images/stimuli/spore_stims/simple_07_A_a.gif","right","","","","",""
"","null","html-keyboard-response","84","259915","0.0-20.0-0.2","SS1613100450096","","","null","","","","","<p><img src= images/blank.png width =""200"" height = ""200"" style = ""float:right""></p><p><img src=images/blank.png width =""800"" height = ""200""></p>","","","","","","","","","","","",""
"","511.0300000087591","sequential-stimulus-presentation","85","261238","0.0-20.0-1.2","SS1613100450096","trial","","40","800","1311.030000008759","images/stimuli/spore_stims/simple_08_B_b.gif","images/stimuli/spore_stims/simple_07_A_a.gif","","","","","4","simple_dissimilar","images/stimuli/spore_stims/simple_07_A_a.gif","right","","","","",""
"","null","html-keyboard-response","86","262090","0.0-20.0-0.3","SS1613100450096","","","null","","","","","<p><img src= images/blank.png width =""200"" height = ""200"" style = ""float:right""></p><p><img src=images/blank.png width =""800"" height = ""200""></p>","","","","","","","","","","","",""
"","576.8499999976484","sequential-stimulus-presentation","87","263479","0.0-20.0-1.3","SS1613100450096","trial","","40","800","1376.8499999976484","images/stimuli/spore_stims/simple_08_B_b.gif","images/stimuli/spore_stims/simple_07_A_a.gif","","","","","4","simple_dissimilar","images/stimuli/spore_stims/simple_07_A_a.gif","right","","","","",""
"","null","html-keyboard-response","88","264595","0.0-20.0-0.4","SS1613100450096","","","null","","","","","<p><img src= images/blank.png width =""200"" height = ""200"" style = ""float:right""></p><p><img src=images/blank.png width =""800"" height = ""200""></p>","","","","","","","","","","","",""
"","1045.20500000217","sequential-stimulus-presentation","89","266446","0.0-20.0-1.4","SS1613100450096","trial","","40","800","1845.20500000217","images/stimuli/spore_stims/simple_08_B_b.gif","images/stimuli/spore_stims/simple_07_A_a.gif","","","","","4","simple_dissimilar","images/stimuli/spore_stims/simple_07_A_a.gif","right","","","","",""
"","null","html-keyboard-response","90","267427","0.0-20.0-0.5","SS1613100450096","","","null","","","","","<p><img src= images/blank.png width =""200"" height = ""200"" style = ""float:right""></p><p><img src=images/blank.png width =""800"" height = ""200""></p>","","","","","","","","","","","",""
"","2695.67499999539","sequential-stimulus-presentation","91","270934","0.0-20.0-1.5","SS1613100450096","trial","","40","800","3495.67499999539","images/stimuli/spore_stims/simple_08_B_b.gif","images/stimuli/spore_stims/simple_07_A_a.gif","","","","","4","simple_dissimilar","images/stimuli/spore_stims/simple_08_B_b.gif","left","","","","",""
"","null","html-keyboard-response","92","271941","0.0-20.0-0.6","SS1613100450096","","","null","","","","","<p><img src= images/blank.png width =""200"" height = ""200"" style = ""float:right""></p><p><img src=images/blank.png width =""800"" height = ""200""></p>","","","","","","","","","","","",""
"","1273.285000002943","sequential-stimulus-presentation","93","274023","0.0-20.0-1.6","SS1613100450096","trial","","40","800","2073.285000002943","images/stimuli/spore_stims/simple_08_B_b.gif","images/stimuli/spore_stims/simple_07_A_a.gif","","","","","4","simple_dissimilar","images/stimuli/spore_stims/simple_07_A_a.gif","right","","","","",""
"","null","html-keyboard-response","94","275093","0.0-20.0-0.7","SS1613100450096","","","null","","","","","<p><img src= images/blank.png width =""200"" height = ""200"" style = ""float:right""></p><p><img src=images/blank.png width =""800"" height = ""200""></p>","","","","","","","","","","","",""
"","630.0950000004377","sequential-stimulus-presentation","95","276542","0.0-20.0-1.7","SS1613100450096","trial","","40","800","1430.0950000004377","images/stimuli/spore_stims/simple_08_B_b.gif","images/stimuli/spore_stims/simple_07_A_a.gif","","","","","4","simple_dissimilar","images/stimuli/spore_stims/simple_07_A_a.gif","right","","","","",""
"","5034.449999991921","html-keyboard-response","96","281589","0.0-21.0","SS1613100450096","pref_question","","99","","","","","<video width ='960' height = '540' style='padding-top:8%' autoplay muted><source src='images/stimuli/wall_pref.mp4' type='video/mp4'></video>","3","right","66%","4","","","","","","","",""
"","5032.619999998133","sequential-stimulus-presentation","97","287431","0.0-22.0","SS1613100450096","pref_reveal","","40","800","5832.619999998133","null","null","","","","","4","","","","background","","","",""
"","null","html-keyboard-response","98","288324","0.0-23.0-0.0","SS1613100450096","","","null","","","","","<p><img src= images/blank.png width =""200"" height = ""200"" style = ""float:right""></p><p><img src=images/blank.png width =""800"" height = ""200""></p>","","","","","","","","","","","",""
"","3513.7099999992643","sequential-stimulus-presentation","99","292654","0.0-23.0-1.0","SS1613100450096","trial","","40","800","4313.709999999264","images/stimuli/spore_stims/complex_02_A_b.gif","images/stimuli/spore_stims/complex_02_B_b.gif","","","","","5","complex_similar","images/stimuli/spore_stims/complex_02_B_b.gif","right","","","","",""
"","null","html-keyboard-response","100","293680","0.0-23.0-0.1","SS1613100450096","","","null","","","","","<p><img src= images/blank.png width =""200"" height = ""200"" style = ""float:right""></p><p><img src=images/blank.png width =""800"" height = ""200""></p>","","","","","","","","","","","",""
"","16243.480000004638","sequential-stimulus-presentation","101","310736","0.0-23.0-1.1","SS1613100450096","trial","","40","800","17043.480000004638","images/stimuli/spore_stims/complex_02_A_b.gif","images/stimuli/spore_stims/complex_02_B_b.gif","","","","","5","complex_similar","images/stimuli/spore_stims/complex_02_B_b.gif","right","","","","",""
"","null","html-keyboard-response","102","312018","0.0-23.0-0.2","SS1613100450096","","","null","","","","","<p><img src= images/blank.png width =""200"" height = ""200"" style = ""float:right""></p><p><img src=images/blank.png width =""800"" height = ""200""></p>","","","","","","","","","","","",""
"","712.4150000017835","sequential-stimulus-presentation","103","313542","0.0-23.0-1.2","SS1613100450096","trial","","40","800","1512.4150000017835","images/stimuli/spore_stims/complex_02_A_b.gif","images/stimuli/spore_stims/complex_02_B_b.gif","","","","","5","complex_similar","images/stimuli/spore_stims/complex_02_B_b.gif","right","","","","",""
"","null","html-keyboard-response","104","314682","0.0-23.0-0.3","SS1613100450096","","","null","","","","","<p><img src= images/blank.png width =""200"" height = ""200"" style = ""float:right""></p><p><img src=images/blank.png width =""800"" height = ""200""></p>","","","","","","","","","","","",""
"","589.1799999953946","sequential-stimulus-presentation","105","316078","0.0-23.0-1.3","SS1613100450096","trial","","40","800","1389.1799999953946","images/stimuli/spore_stims/complex_02_A_b.gif","images/stimuli/spore_stims/complex_02_B_b.gif","","","","","5","complex_similar","images/stimuli/spore_stims/complex_02_B_b.gif","right","","","","",""
"","null","html-keyboard-response","106","317216","0.0-23.0-0.4","SS1613100450096","","","null","","","","","<p><img src= images/blank.png width =""200"" height = ""200"" style = ""float:right""></p><p><img src=images/blank.png width =""800"" height = ""200""></p>","","","","","","","","","","","",""
"","850.1200000027893","sequential-stimulus-presentation","107","318878","0.0-23.0-1.4","SS1613100450096","trial","","40","800","1650.1200000027893","images/stimuli/spore_stims/complex_02_A_b.gif","images/stimuli/spore_stims/complex_02_B_b.gif","","","","","5","complex_similar","images/stimuli/spore_stims/complex_02_B_b.gif","right","","","","",""
"","null","html-keyboard-response","108","320166","0.0-23.0-0.5","SS1613100450096","","","null","","","","","<p><img src= images/blank.png width =""200"" height = ""200"" style = ""float:right""></p><p><img src=images/blank.png width =""800"" height = ""200""></p>","","","","","","","","","","","",""
"","720.4599999968195","sequential-stimulus-presentation","109","321694","0.0-23.0-1.5","SS1613100450096","trial","","40","800","1520.4599999968195","images/stimuli/spore_stims/complex_02_A_b.gif","images/stimuli/spore_stims/complex_02_B_b.gif","","","","","5","complex_similar","images/stimuli/spore_stims/complex_02_B_b.gif","right","","","","",""
"","null","html-keyboard-response","110","322600","0.0-23.0-0.6","SS1613100450096","","","null","","","","","<p><img src= images/blank.png width =""200"" height = ""200"" style = ""float:right""></p><p><img src=images/blank.png width =""800"" height = ""200""></p>","","","","","","","","","","","",""
"","87.4350000085542","sequential-stimulus-presentation","111","323494","0.0-23.0-1.6","SS1613100450096","trial","","40","800","887.4350000085542","images/stimuli/spore_stims/complex_02_A_b.gif","images/stimuli/spore_stims/complex_02_B_b.gif","","","","","5","complex_similar","images/stimuli/spore_stims/complex_02_B_b.gif","right","","","","",""
"","null","html-keyboard-response","112","324759","0.0-23.0-0.7","SS1613100450096","","","null","","","","","<p><img src= images/blank.png width =""200"" height = ""200"" style = ""float:right""></p><p><img src=images/blank.png width =""800"" height = ""200""></p>","","","","","","","","","","","",""
"","2032.294999997248","sequential-stimulus-presentation","113","327599","0.0-23.0-1.7","SS1613100450096","trial","","40","800","2832.294999997248","images/stimuli/spore_stims/complex_02_A_b.gif","images/stimuli/spore_stims/complex_02_B_b.gif","","","","","5","complex_similar","images/stimuli/spore_stims/complex_02_A_b.gif","middle","","","","",""
"","2498.6950000020443","html-keyboard-response","114","330104","0.0-24.0","SS1613100450096","pref_question","","99","","","","","<video width ='960' height = '540' style='padding-top:8%' autoplay muted><source src='images/stimuli/wall_pref.mp4' type='video/mp4'></video>","3","right","66%","5","","","","","","","",""
"","2109.1600000072503","sequential-stimulus-presentation","115","333022","0.0-25.0","SS1613100450096","pref_reveal","","40","800","2909.1600000072503","null","null","","","","","5","","","","background","","","",""
"","null","html-keyboard-response","116","334279","0.0-26.0-0.0","SS1613100450096","","","null","","","","","<p><img src= images/blank.png width =""200"" height = ""200"" style = ""float:right""></p><p><img src=images/blank.png width =""800"" height = ""200""></p>","","","","","","","","","","","",""
"","2663.830000004964","sequential-stimulus-presentation","117","337757","0.0-26.0-1.0","SS1613100450096","trial","","40","800","3463.830000004964","images/stimuli/spore_stims/simple_14_B_d.gif","images/stimuli/spore_stims/simple_14_A_d.gif","","","","","6","simple_similar","images/stimuli/spore_stims/simple_14_A_d.gif","left","","","","",""
"","null","html-keyboard-response","118","338719","0.0-26.0-0.1","SS1613100450096","","","null","","","","","<p><img src= images/blank.png width =""200"" height = ""200"" style = ""float:right""></p><p><img src=images/blank.png width =""800"" height = ""200""></p>","","","","","","","","","","","",""
"","906.909999990603","sequential-stimulus-presentation","119","340445","0.0-26.0-1.1","SS1613100450096","trial","","40","800","1706.909999990603","images/stimuli/spore_stims/simple_14_B_d.gif","images/stimuli/spore_stims/simple_14_A_d.gif","","","","","6","simple_similar","images/stimuli/spore_stims/simple_14_A_d.gif","left","","","","",""
"","null","html-keyboard-response","120","341499","0.0-26.0-0.2","SS1613100450096","","","null","","","","","<p><img src= images/blank.png width =""200"" height = ""200"" style = ""float:right""></p><p><img src=images/blank.png width =""800"" height = ""200""></p>","","","","","","","","","","","",""
"","141.02500000444707","sequential-stimulus-presentation","121","342449","0.0-26.0-1.2","SS1613100450096","trial","","40","800","941.0250000044471","images/stimuli/spore_stims/simple_14_B_d.gif","images/stimuli/spore_stims/simple_14_A_d.gif","","","","","6","simple_similar","images/stimuli/spore_stims/simple_14_A_d.gif","left","","","","",""
"","null","html-keyboard-response","122","343604","0.0-26.0-0.3","SS1613100450096","","","null","","","","","<p><img src= images/blank.png width =""200"" height = ""200"" style = ""float:right""></p><p><img src=images/blank.png width =""800"" height = ""200""></p>","","","","","","","","","","","",""
"","204.91999998921528","sequential-stimulus-presentation","123","344615","0.0-26.0-1.3","SS1613100450096","trial","","40","800","1004.9199999892153","images/stimuli/spore_stims/simple_14_B_d.gif","images/stimuli/spore_stims/simple_14_A_d.gif","","","","","6","simple_similar","images/stimuli/spore_stims/simple_14_A_d.gif","left","","","","",""
"","null","html-keyboard-response","124","345700","0.0-26.0-0.4","SS1613100450096","","","null","","","","","<p><img src= images/blank.png width =""200"" height = ""200"" style = ""float:right""></p><p><img src=images/blank.png width =""800"" height = ""200""></p>","","","","","","","","","","","",""
"","827.4899999960326","sequential-stimulus-presentation","125","347335","0.0-26.0-1.4","SS1613100450096","trial","","40","800","1627.4899999960326","images/stimuli/spore_stims/simple_14_B_d.gif","images/stimuli/spore_stims/simple_14_A_d.gif","","","","","6","simple_similar","images/stimuli/spore_stims/simple_14_B_d.gif","middle","","","","",""
"","null","html-keyboard-response","126","348319","0.0-26.0-0.5","SS1613100450096","","","null","","","","","<p><img src= images/blank.png width =""200"" height = ""200"" style = ""float:right""></p><p><img src=images/blank.png width =""800"" height = ""200""></p>","","","","","","","","","","","",""
"","237.28500001016073","sequential-stimulus-presentation","127","349367","0.0-26.0-1.5","SS1613100450096","trial","","40","800","1037.2850000101607","images/stimuli/spore_stims/simple_14_B_d.gif","images/stimuli/spore_stims/simple_14_A_d.gif","","","","","6","simple_similar","images/stimuli/spore_stims/simple_14_A_d.gif","left","","","","",""
"","null","html-keyboard-response","128","350295","0.0-26.0-0.6","SS1613100450096","","","null","","","","","<p><img src= images/blank.png width =""200"" height = ""200"" style = ""float:right""></p><p><img src=images/blank.png width =""800"" height = ""200""></p>","","","","","","","","","","","",""
"","805.2949999982957","sequential-stimulus-presentation","129","351911","0.0-26.0-1.6","SS1613100450096","trial","","40","800","1605.2949999982957","images/stimuli/spore_stims/simple_14_B_d.gif","images/stimuli/spore_stims/simple_14_A_d.gif","","","","","6","simple_similar","images/stimuli/spore_stims/simple_14_A_d.gif","left","","","","",""
"","null","html-keyboard-response","130","353199","0.0-26.0-0.7","SS1613100450096","","","null","","","","","<p><img src= images/blank.png width =""200"" height = ""200"" style = ""float:right""></p><p><img src=images/blank.png width =""800"" height = ""200""></p>","","","","","","","","","","","",""
"","702.1099999983562","sequential-stimulus-presentation","131","354716","0.0-26.0-1.7","SS1613100450096","trial","","40","800","1502.1099999983562","images/stimuli/spore_stims/simple_14_B_d.gif","images/stimuli/spore_stims/simple_14_A_d.gif","","","","","6","simple_similar","images/stimuli/spore_stims/simple_14_A_d.gif","left","","","","",""
"","1535.954999999376","html-keyboard-response","132","356263","0.0-27.0","SS1613100450096","pref_question","","97","","","","","<video width ='960' height = '540' style='padding-top:8%' autoplay muted><source src='images/stimuli/wall_pref.mp4' type='video/mp4'></video>","1","left","25%","6","","","","","","","",""
"","3670.92999999295","sequential-stimulus-presentation","133","360751","0.0-28.0","SS1613100450096","pref_reveal","","40","800","4470.92999999295","null","null","","","","","6","","","","background","","","",""
"","null","html-keyboard-response","134","361587","0.0-29.0-0.0","SS1613100450096","","","null","","","","","<p><img src= images/blank.png width =""200"" height = ""200"" style = ""float:right""></p><p><img src=images/blank.png width =""800"" height = ""200""></p>","","","","","","","","","","","",""
"","3767.1550000086427","sequential-stimulus-presentation","135","366175","0.0-29.0-1.0","SS1613100450096","trial","","40","800","4567.155000008643","images/stimuli/spore_stims/complex_15_B_a.gif","images/stimuli/spore_stims/complex_18_B_b.gif","","","","","7","complex_dissimilar","images/stimuli/spore_stims/complex_18_B_b.gif","middle","","","","",""
"","null","html-keyboard-response","136","367101","0.0-29.0-0.1","SS1613100450096","","","null","","","","","<p><img src= images/blank.png width =""200"" height = ""200"" style = ""float:right""></p><p><img src=images/blank.png width =""800"" height = ""200""></p>","","","","","","","","","","","",""
"","3768.6350000003586","sequential-stimulus-presentation","137","371695","0.0-29.0-1.1","SS1613100450096","trial","","40","800","4568.635000000359","images/stimuli/spore_stims/complex_15_B_a.gif","images/stimuli/spore_stims/complex_18_B_b.gif","","","","","7","complex_dissimilar","images/stimuli/spore_stims/complex_18_B_b.gif","middle","","","","",""
"","null","html-keyboard-response","138","372670","0.0-29.0-0.2","SS1613100450096","","","null","","","","","<p><img src= images/blank.png width =""200"" height = ""200"" style = ""float:right""></p><p><img src=images/blank.png width =""800"" height = ""200""></p>","","","","","","","","","","","",""
"","4660.399999993388","sequential-stimulus-presentation","139","378143","0.0-29.0-1.2","SS1613100450096","trial","","40","800","5460.399999993388","images/stimuli/spore_stims/complex_15_B_a.gif","images/stimuli/spore_stims/complex_18_B_b.gif","","","","","7","complex_dissimilar","images/stimuli/spore_stims/complex_18_B_b.gif","middle","","","","",""
"","null","html-keyboard-response","140","379242","0.0-29.0-0.3","SS1613100450096","","","null","","","","","<p><img src= images/blank.png width =""200"" height = ""200"" style = ""float:right""></p><p><img src=images/blank.png width =""800"" height = ""200""></p>","","","","","","","","","","","",""
"","3501.5450000064448","sequential-stimulus-presentation","141","383561","0.0-29.0-1.3","SS1613100450096","trial","","40","800","4301.545000006445","images/stimuli/spore_stims/complex_15_B_a.gif","images/stimuli/spore_stims/complex_18_B_b.gif","","","","","7","complex_dissimilar","images/stimuli/spore_stims/complex_18_B_b.gif","middle","","","","",""
"","null","html-keyboard-response","142","384744","0.0-29.0-0.4","SS1613100450096","","","null","","","","","<p><img src= images/blank.png width =""200"" height = ""200"" style = ""float:right""></p><p><img src=images/blank.png width =""800"" height = ""200""></p>","","","","","","","","","","","",""
"","7916.049999999814","sequential-stimulus-presentation","143","393502","0.0-29.0-1.4","SS1613100450096","trial","","40","800","8716.049999999814","images/stimuli/spore_stims/complex_15_B_a.gif","images/stimuli/spore_stims/complex_18_B_b.gif","","","","","7","complex_dissimilar","images/stimuli/spore_stims/complex_18_B_b.gif","middle","","","","",""
"","null","html-keyboard-response","144","394794","0.0-29.0-0.5","SS1613100450096","","","null","","","","","<p><img src= images/blank.png width =""200"" height = ""200"" style = ""float:right""></p><p><img src=images/blank.png width =""800"" height = ""200""></p>","","","","","","","","","","","",""
"","2665.0599999993574","sequential-stimulus-presentation","145","398270","0.0-29.0-1.5","SS1613100450096","trial","","40","800","3465.0599999993574","images/stimuli/spore_stims/complex_15_B_a.gif","images/stimuli/spore_stims/complex_18_B_b.gif","","","","","7","complex_dissimilar","images/stimuli/spore_stims/complex_18_B_b.gif","middle","","","","",""
"","null","html-keyboard-response","146","399194","0.0-29.0-0.6","SS1613100450096","","","null","","","","","<p><img src= images/blank.png width =""200"" height = ""200"" style = ""float:right""></p><p><img src=images/blank.png width =""800"" height = ""200""></p>","","","","","","","","","","","",""
"","1557.4800000031246","sequential-stimulus-presentation","147","401558","0.0-29.0-1.6","SS1613100450096","trial","","40","800","2357.4800000031246","images/stimuli/spore_stims/complex_15_B_a.gif","images/stimuli/spore_stims/complex_18_B_b.gif","","","","","7","complex_dissimilar","images/stimuli/spore_stims/complex_15_B_a.gif","right","","","","",""
"","null","html-keyboard-response","148","402673","0.0-29.0-0.7","SS1613100450096","","","null","","","","","<p><img src= images/blank.png width =""200"" height = ""200"" style = ""float:right""></p><p><img src=images/blank.png width =""800"" height = ""200""></p>","","","","","","","","","","","",""
"","8750.820000001113","sequential-stimulus-presentation","149","412238","0.0-29.0-1.7","SS1613100450096","trial","","40","800","9550.820000001113","images/stimuli/spore_stims/complex_15_B_a.gif","images/stimuli/spore_stims/complex_18_B_b.gif","","","","","7","complex_dissimilar","images/stimuli/spore_stims/complex_18_B_b.gif","middle","","","","",""
"","1633.8399999949615","html-keyboard-response","150","413879","0.0-30.0","SS1613100450096","pref_question","","98","","","","","<video width ='960' height = '540' style='padding-top:8%' autoplay muted><source src='images/stimuli/wall_pref.mp4' type='video/mp4'></video>","2","middle","45%","7","","","","","","","",""
"","4148.679999998421","sequential-stimulus-presentation","151","418847","0.0-31.0","SS1613100450096","pref_reveal","","40","800","4948.679999998421","null","null","","","","","7","","","","background","","","",""
"","null","html-keyboard-response","152","420038","0.0-32.0-0.0","SS1613100450096","","","null","","","","","<p><img src= images/blank.png width =""200"" height = ""200"" style = ""float:right""></p><p><img src=images/blank.png width =""800"" height = ""200""></p>","","","","","","","","","","","",""
"","1450.3800000093179","sequential-stimulus-presentation","153","422295","0.0-32.0-1.0","SS1613100450096","trial","","40","800","2250.380000009318","images/stimuli/spore_stims/complex_04_A_a.gif","images/stimuli/spore_stims/complex_06_A_b.gif","","","","","8","complex_dissimilar","images/stimuli/spore_stims/complex_06_A_b.gif","right","","","","",""
"","null","html-keyboard-response","154","423597","0.0-32.0-0.1","SS1613100450096","","","null","","","","","<p><img src= images/blank.png width =""200"" height = ""200"" style = ""float:right""></p><p><img src=images/blank.png width =""800"" height = ""200""></p>","","","","","","","","","","","",""
"","110.88500000187196","sequential-stimulus-presentation","155","424519","0.0-32.0-1.1","SS1613100450096","trial","","40","800","910.885000001872","images/stimuli/spore_stims/complex_04_A_a.gif","images/stimuli/spore_stims/complex_06_A_b.gif","","","","","8","complex_dissimilar","images/stimuli/spore_stims/complex_06_A_b.gif","right","","","","",""
"","null","html-keyboard-response","156","425447","0.0-32.0-0.2","SS1613100450096","","","null","","","","","<p><img src= images/blank.png width =""200"" height = ""200"" style = ""float:right""></p><p><img src=images/blank.png width =""800"" height = ""200""></p>","","","","","","","","","","","",""
"","626.5799999964656","sequential-stimulus-presentation","157","426886","0.0-32.0-1.2","SS1613100450096","trial","","40","800","1426.5799999964656","images/stimuli/spore_stims/complex_04_A_a.gif","images/stimuli/spore_stims/complex_06_A_b.gif","","","","","8","complex_dissimilar","images/stimuli/spore_stims/complex_06_A_b.gif","right","","","","",""
"","null","html-keyboard-response","158","427958","0.0-32.0-0.3","SS1613100450096","","","null","","","","","<p><img src= images/blank.png width =""200"" height = ""200"" style = ""float:right""></p><p><img src=images/blank.png width =""800"" height = ""200""></p>","","","","","","","","","","","",""
"","1866.7849999910686","sequential-stimulus-presentation","159","430639","0.0-32.0-1.3","SS1613100450096","trial","","40","800","2666.7849999910686","images/stimuli/spore_stims/complex_04_A_a.gif","images/stimuli/spore_stims/complex_06_A_b.gif","","","","","8","complex_dissimilar","images/stimuli/spore_stims/complex_06_A_b.gif","right","","","","",""
"","null","html-keyboard-response","160","431530","0.0-32.0-0.4","SS1613100450096","","","null","","","","","<p><img src= images/blank.png width =""200"" height = ""200"" style = ""float:right""></p><p><img src=images/blank.png width =""800"" height = ""200""></p>","","","","","","","","","","","",""
"","1783.4900000016205","sequential-stimulus-presentation","161","434126","0.0-32.0-1.4","SS1613100450096","trial","","40","800","2583.4900000016205","images/stimuli/spore_stims/complex_04_A_a.gif","images/stimuli/spore_stims/complex_06_A_b.gif","","","","","8","complex_dissimilar","images/stimuli/spore_stims/complex_06_A_b.gif","right","","","","",""
"","null","html-keyboard-response","162","435148","0.0-32.0-0.5","SS1613100450096","","","null","","","","","<p><img src= images/blank.png width =""200"" height = ""200"" style = ""float:right""></p><p><img src=images/blank.png width =""800"" height = ""200""></p>","","","","","","","","","","","",""
"","632.7849999943282","sequential-stimulus-presentation","163","436590","0.0-32.0-1.5","SS1613100450096","trial","","40","800","1432.7849999943282","images/stimuli/spore_stims/complex_04_A_a.gif","images/stimuli/spore_stims/complex_06_A_b.gif","","","","","8","complex_dissimilar","images/stimuli/spore_stims/complex_04_A_a.gif","left","","","","",""
"","null","html-keyboard-response","164","437781","0.0-32.0-0.6","SS1613100450096","","","null","","","","","<p><img src= images/blank.png width =""200"" height = ""200"" style = ""float:right""></p><p><img src=images/blank.png width =""800"" height = ""200""></p>","","","","","","","","","","","",""
"","338.89499999349937","sequential-stimulus-presentation","165","438934","0.0-32.0-1.6","SS1613100450096","trial","","40","800","1138.8949999934994","images/stimuli/spore_stims/complex_04_A_a.gif","images/stimuli/spore_stims/complex_06_A_b.gif","","","","","8","complex_dissimilar","images/stimuli/spore_stims/complex_06_A_b.gif","right","","","","",""
"","null","html-keyboard-response","166","440091","0.0-32.0-0.7","SS1613100450096","","","null","","","","","<p><img src= images/blank.png width =""200"" height = ""200"" style = ""float:right""></p><p><img src=images/blank.png width =""800"" height = ""200""></p>","","","","","","","","","","","",""
"","2598.0899999995017","sequential-stimulus-presentation","167","443502","0.0-32.0-1.7","SS1613100450096","trial","","40","800","3398.0899999995017","images/stimuli/spore_stims/complex_04_A_a.gif","images/stimuli/spore_stims/complex_06_A_b.gif","","","","","8","complex_dissimilar","images/stimuli/spore_stims/complex_06_A_b.gif","right","","","","",""
"","3235.4449999984354","html-keyboard-response","168","446744","0.0-33.0","SS1613100450096","pref_question","","99","","","","","<video width ='960' height = '540' style='padding-top:8%' autoplay muted><source src='images/stimuli/wall_pref.mp4' type='video/mp4'></video>","3","right","66%","8","","","","","","","",""
"","1946.0850000032224","sequential-stimulus-presentation","169","449505","0.0-34.0","SS1613100450096","pref_reveal","","40","800","2746.0850000032224","null","null","","","","","8","","","","background","","","",""
"","null","html-keyboard-response","170","450534","0.0-35.0-0.0","SS1613100450096","","","null","","","","","<p><img src= images/blank.png width =""200"" height = ""200"" style = ""float:right""></p><p><img src=images/blank.png width =""800"" height = ""200""></p>","","","","","","","","","","","",""
"","4838.510000001406","sequential-stimulus-presentation","171","456182","0.0-35.0-1.0","SS1613100450096","trial","","40","800","5638.510000001406","images/stimuli/spore_stims/simple_02_B_b.gif","images/stimuli/spore_stims/simple_15_B_d.gif","","","","","9","simple_dissimilar","images/stimuli/spore_stims/simple_15_B_d.gif","left","","","","",""
"","null","html-keyboard-response","172","457201","0.0-35.0-0.1","SS1613100450096","","","null","","","","","<p><img src= images/blank.png width =""200"" height = ""200"" style = ""float:right""></p><p><img src=images/blank.png width =""800"" height = ""200""></p>","","","","","","","","","","","",""
"","1419.899999993504","sequential-stimulus-presentation","173","459430","0.0-35.0-1.1","SS1613100450096","trial","","40","800","2219.899999993504","images/stimuli/spore_stims/simple_02_B_b.gif","images/stimuli/spore_stims/simple_15_B_d.gif","","","","","9","simple_dissimilar","images/stimuli/spore_stims/simple_15_B_d.gif","left","","","","",""
"","null","html-keyboard-response","174","460423","0.0-35.0-0.2","SS1613100450096","","","null","","","","","<p><img src= images/blank.png width =""200"" height = ""200"" style = ""float:right""></p><p><img src=images/blank.png width =""800"" height = ""200""></p>","","","","","","","","","","","",""
"","39.51000000233762","sequential-stimulus-presentation","175","461276","0.0-35.0-1.2","SS1613100450096","trial","","40","800","839.5100000023376","images/stimuli/spore_stims/simple_02_B_b.gif","images/stimuli/spore_stims/simple_15_B_d.gif","","","","","9","simple_dissimilar","images/stimuli/spore_stims/simple_15_B_d.gif","left","","","","",""
"","null","html-keyboard-response","176","462393","0.0-35.0-0.3","SS1613100450096","","","null","","","","","<p><img src= images/blank.png width =""200"" height = ""200"" style = ""float:right""></p><p><img src=images/blank.png width =""800"" height = ""200""></p>","","","","","","","","","","","",""
"","1853.705000001355","sequential-stimulus-presentation","177","465058","0.0-35.0-1.3","SS1613100450096","trial","","40","800","2653.705000001355","images/stimuli/spore_stims/simple_02_B_b.gif","images/stimuli/spore_stims/simple_15_B_d.gif","","","","","9","simple_dissimilar","images/stimuli/spore_stims/simple_15_B_d.gif","left","","","","",""
"","null","html-keyboard-response","178","466154","0.0-35.0-0.4","SS1613100450096","","","null","","","","","<p><img src= images/blank.png width =""200"" height = ""200"" style = ""float:right""></p><p><img src=images/blank.png width =""800"" height = ""200""></p>","","","","","","","","","","","",""
"","1547.5200000073528","sequential-stimulus-presentation","179","468558","0.0-35.0-1.4","SS1613100450096","trial","","40","800","2347.520000007353","images/stimuli/spore_stims/simple_02_B_b.gif","images/stimuli/spore_stims/simple_15_B_d.gif","","","","","9","simple_dissimilar","images/stimuli/spore_stims/simple_02_B_b.gif","middle","","","","",""
"","null","html-keyboard-response","180","469853","0.0-35.0-0.5","SS1613100450096","","","null","","","","","<p><img src= images/blank.png width =""200"" height = ""200"" style = ""float:right""></p><p><img src=images/blank.png width =""800"" height = ""200""></p>","","","","","","","","","","","",""
"","1464.9000000063097","sequential-stimulus-presentation","181","472127","0.0-35.0-1.5","SS1613100450096","trial","","40","800","2264.9000000063097","images/stimuli/spore_stims/simple_02_B_b.gif","images/stimuli/spore_stims/simple_15_B_d.gif","","","","","9","simple_dissimilar","images/stimuli/spore_stims/simple_15_B_d.gif","left","","","","",""
"","null","html-keyboard-response","182","473160","0.0-35.0-0.6","SS1613100450096","","","null","","","","","<p><img src= images/blank.png width =""200"" height = ""200"" style = ""float:right""></p><p><img src=images/blank.png width =""800"" height = ""200""></p>","","","","","","","","","","","",""
"","1617.9049999918789","sequential-stimulus-presentation","183","475585","0.0-35.0-1.6","SS1613100450096","trial","","40","800","2417.904999991879","images/stimuli/spore_stims/simple_02_B_b.gif","images/stimuli/spore_stims/simple_15_B_d.gif","","","","","9","simple_dissimilar","images/stimuli/spore_stims/simple_15_B_d.gif","left","","","","",""
"","null","html-keyboard-response","184","476884","0.0-35.0-0.7","SS1613100450096","","","null","","","","","<p><img src= images/blank.png width =""200"" height = ""200"" style = ""float:right""></p><p><img src=images/blank.png width =""800"" height = ""200""></p>","","","","","","","","","","","",""
"","1312.805000008666","sequential-stimulus-presentation","185","479007","0.0-35.0-1.7","SS1613100450096","trial","","40","800","2112.805000008666","images/stimuli/spore_stims/simple_02_B_b.gif","images/stimuli/spore_stims/simple_15_B_d.gif","","","","","9","simple_dissimilar","images/stimuli/spore_stims/simple_15_B_d.gif","left","","","","",""
"","3899.1950000054203","html-keyboard-response","186","482912","0.0-36.0","SS1613100450096","pref_question","","97","","","","","<video width ='960' height = '540' style='padding-top:8%' autoplay muted><source src='images/stimuli/wall_pref.mp4' type='video/mp4'></video>","1","left","25%","9","","","","","","","",""
"","3700.6600000022445","sequential-stimulus-presentation","187","487428","0.0-37.0","SS1613100450096","pref_reveal","","40","800","4500.6600000022445","null","null","","","","","9","","","","background","","","",""
"","null","html-keyboard-response","188","488668","0.0-38.0-0.0","SS1613100450096","","","null","","","","","<p><img src= images/blank.png width =""200"" height = ""200"" style = ""float:right""></p><p><img src=images/blank.png width =""800"" height = ""200""></p>","","","","","","","","","","","",""
"","1125.4950000002282","sequential-stimulus-presentation","189","490602","0.0-38.0-1.0","SS1613100450096","trial","","40","800","1925.4950000002282","images/stimuli/spore_stims/simple_19_B_d.gif","images/stimuli/spore_stims/simple_19_A_d.gif","","","","","10","simple_similar","images/stimuli/spore_stims/simple_19_A_d.gif","middle","","","","",""
"","null","html-keyboard-response","190","491532","0.0-38.0-0.1","SS1613100450096","","","null","","","","","<p><img src= images/blank.png width =""200"" height = ""200"" style = ""float:right""></p><p><img src=images/blank.png width =""800"" height = ""200""></p>","","","","","","","","","","","",""
"","1930.739999996149","sequential-stimulus-presentation","191","494271","0.0-38.0-1.1","SS1613100450096","trial","","40","800","2730.739999996149","images/stimuli/spore_stims/simple_19_B_d.gif","images/stimuli/spore_stims/simple_19_A_d.gif","","","","","10","simple_similar","images/stimuli/spore_stims/simple_19_A_d.gif","middle","","","","",""
"","null","html-keyboard-response","192","495450","0.0-38.0-0.2","SS1613100450096","","","null","","","","","<p><img src= images/blank.png width =""200"" height = ""200"" style = ""float:right""></p><p><img src=images/blank.png width =""800"" height = ""200""></p>","","","","","","","","","","","",""
"","1533.7100000033388","sequential-stimulus-presentation","193","497830","0.0-38.0-1.2","SS1613100450096","trial","","40","800","2333.710000003339","images/stimuli/spore_stims/simple_19_B_d.gif","images/stimuli/spore_stims/simple_19_A_d.gif","","","","","10","simple_similar","images/stimuli/spore_stims/simple_19_B_d.gif","right","","","","",""
"","null","html-keyboard-response","194","499033","0.0-38.0-0.3","SS1613100450096","","","null","","","","","<p><img src= images/blank.png width =""200"" height = ""200"" style = ""float:right""></p><p><img src=images/blank.png width =""800"" height = ""200""></p>","","","","","","","","","","","",""
"","1156.4450000005309","sequential-stimulus-presentation","195","500998","0.0-38.0-1.3","SS1613100450096","trial","","40","800","1956.4450000005309","images/stimuli/spore_stims/simple_19_B_d.gif","images/stimuli/spore_stims/simple_19_A_d.gif","","","","","10","simple_similar","images/stimuli/spore_stims/simple_19_A_d.gif","middle","","","","",""
"","null","html-keyboard-response","196","502085","0.0-38.0-0.4","SS1613100450096","","","null","","","","","<p><img src= images/blank.png width =""200"" height = ""200"" style = ""float:right""></p><p><img src=images/blank.png width =""800"" height = ""200""></p>","","","","","","","","","","","",""
"","2226.2900000059744","sequential-stimulus-presentation","197","505119","0.0-38.0-1.4","SS1613100450096","trial","","40","800","3026.2900000059744","images/stimuli/spore_stims/simple_19_B_d.gif","images/stimuli/spore_stims/simple_19_A_d.gif","","","","","10","simple_similar","images/stimuli/spore_stims/simple_19_A_d.gif","middle","","","","",""
"","null","html-keyboard-response","198","506054","0.0-38.0-0.5","SS1613100450096","","","null","","","","","<p><img src= images/blank.png width =""200"" height = ""200"" style = ""float:right""></p><p><img src=images/blank.png width =""800"" height = ""200""></p>","","","","","","","","","","","",""
"","246.03000000934117","sequential-stimulus-presentation","199","507111","0.0-38.0-1.5","SS1613100450096","trial","","40","800","1046.0300000093412","images/stimuli/spore_stims/simple_19_B_d.gif","images/stimuli/spore_stims/simple_19_A_d.gif","","","","","10","simple_similar","images/stimuli/spore_stims/simple_19_A_d.gif","middle","","","","",""
"","null","html-keyboard-response","200","508404","0.0-38.0-0.6","SS1613100450096","","","null","","","","","<p><img src= images/blank.png width =""200"" height = ""200"" style = ""float:right""></p><p><img src=images/blank.png width =""800"" height = ""200""></p>","","","","","","","","","","","",""
"","3026.7499999899883","sequential-stimulus-presentation","201","512278","0.0-38.0-1.6","SS1613100450096","trial","","40","800","3826.7499999899883","images/stimuli/spore_stims/simple_19_B_d.gif","images/stimuli/spore_stims/simple_19_A_d.gif","","","","","10","simple_similar","images/stimuli/spore_stims/simple_19_A_d.gif","middle","","","","",""
"","null","html-keyboard-response","202","513425","0.0-38.0-0.7","SS1613100450096","","","null","","","","","<p><img src= images/blank.png width =""200"" height = ""200"" style = ""float:right""></p><p><img src=images/blank.png width =""800"" height = ""200""></p>","","","","","","","","","","","",""
"","565.5700000061188","sequential-stimulus-presentation","203","514806","0.0-38.0-1.7","SS1613100450096","trial","","40","800","1365.5700000061188","images/stimuli/spore_stims/simple_19_B_d.gif","images/stimuli/spore_stims/simple_19_A_d.gif","","","","","10","simple_similar","images/stimuli/spore_stims/simple_19_A_d.gif","middle","","","","",""
"","1985.3849999926751","html-keyboard-response","204","516799","0.0-39.0","SS1613100450096","pref_question","","98","","","","","<video width ='960' height = '540' style='padding-top:8%' autoplay muted><source src='images/stimuli/wall_pref.mp4' type='video/mp4'></video>","2","middle","45%","10","","","","","","","",""
"","4540.710000001127","sequential-stimulus-presentation","205","522150","0.0-40.0","SS1613100450096","pref_reveal","","40","800","5340.710000001127","null","null","","","","","10","","","","background","","","",""
"","null","html-keyboard-response","206","523156","0.0-41.0-0.0","SS1613100450096","","","null","","","","","<p><img src= images/blank.png width =""200"" height = ""200"" style = ""float:right""></p><p><img src=images/blank.png width =""800"" height = ""200""></p>","","","","","","","","","","","",""
"","2018.2550000026822","sequential-stimulus-presentation","207","525991","0.0-41.0-1.0","SS1613100450096","trial","","40","800","2818.255000002682","images/stimuli/spore_stims/complex_19_B_d.gif","images/stimuli/spore_stims/complex_10_A_a.gif","","","","","11","complex_dissimilar","images/stimuli/spore_stims/complex_10_A_a.gif","right","","","","",""
"","null","html-keyboard-response","208","527156","0.0-41.0-0.1","SS1613100450096","","","null","","","","","<p><img src= images/blank.png width =""200"" height = ""200"" style = ""float:right""></p><p><img src=images/blank.png width =""800"" height = ""200""></p>","","","","","","","","","","","",""
"","1393.995000005816","sequential-stimulus-presentation","209","529359","0.0-41.0-1.1","SS1613100450096","trial","","40","800","2193.995000005816","images/stimuli/spore_stims/complex_19_B_d.gif","images/stimuli/spore_stims/complex_10_A_a.gif","","","","","11","complex_dissimilar","images/stimuli/spore_stims/complex_10_A_a.gif","right","","","","",""
"","null","html-keyboard-response","210","530257","0.0-41.0-0.2","SS1613100450096","","","null","","","","","<p><img src= images/blank.png width =""200"" height = ""200"" style = ""float:right""></p><p><img src=images/blank.png width =""800"" height = ""200""></p>","","","","","","","","","","","",""
"","112.17500000202563","sequential-stimulus-presentation","211","531183","0.0-41.0-1.2","SS1613100450096","trial","","40","800","912.1750000020256","images/stimuli/spore_stims/complex_19_B_d.gif","images/stimuli/spore_stims/complex_10_A_a.gif","","","","","11","complex_dissimilar","images/stimuli/spore_stims/complex_19_B_d.gif","left","","","","",""
"","null","html-keyboard-response","212","532424","0.0-41.0-0.3","SS1613100450096","","","null","","","","","<p><img src= images/blank.png width =""200"" height = ""200"" style = ""float:right""></p><p><img src=images/blank.png width =""800"" height = ""200""></p>","","","","","","","","","","","",""
"","1426.630000001751","sequential-stimulus-presentation","213","534671","0.0-41.0-1.3","SS1613100450096","trial","","40","800","2226.630000001751","images/stimuli/spore_stims/complex_19_B_d.gif","images/stimuli/spore_stims/complex_10_A_a.gif","","","","","11","complex_dissimilar","images/stimuli/spore_stims/complex_10_A_a.gif","right","","","","",""
"","null","html-keyboard-response","214","535908","0.0-41.0-0.4","SS1613100450096","","","null","","","","","<p><img src= images/blank.png width =""200"" height = ""200"" style = ""float:right""></p><p><img src=images/blank.png width =""800"" height = ""200""></p>","","","","","","","","","","","",""
"","2471.4850000018487","sequential-stimulus-presentation","215","539189","0.0-41.0-1.4","SS1613100450096","trial","","40","800","3271.4850000018487","images/stimuli/spore_stims/complex_19_B_d.gif","images/stimuli/spore_stims/complex_10_A_a.gif","","","","","11","complex_dissimilar","images/stimuli/spore_stims/complex_10_A_a.gif","right","","","","",""
"","null","html-keyboard-response","216","540456","0.0-41.0-0.5","SS1613100450096","","","null","","","","","<p><img src= images/blank.png width =""200"" height = ""200"" style = ""float:right""></p><p><img src=images/blank.png width =""800"" height = ""200""></p>","","","","","","","","","","","",""
"","1878.8099999947008","sequential-stimulus-presentation","217","543150","0.0-41.0-1.5","SS1613100450096","trial","","40","800","2678.809999994701","images/stimuli/spore_stims/complex_19_B_d.gif","images/stimuli/spore_stims/complex_10_A_a.gif","","","","","11","complex_dissimilar","images/stimuli/spore_stims/complex_10_A_a.gif","right","","","","",""
"","null","html-keyboard-response","218","544135","0.0-41.0-0.6","SS1613100450096","","","null","","","","","<p><img src= images/blank.png width =""200"" height = ""200"" style = ""float:right""></p><p><img src=images/blank.png width =""800"" height = ""200""></p>","","","","","","","","","","","",""
"","1798.9749999978812","sequential-stimulus-presentation","219","546743","0.0-41.0-1.6","SS1613100450096","trial","","40","800","2598.9749999978812","images/stimuli/spore_stims/complex_19_B_d.gif","images/stimuli/spore_stims/complex_10_A_a.gif","","","","","11","complex_dissimilar","images/stimuli/spore_stims/complex_10_A_a.gif","right","","","","",""
"","null","html-keyboard-response","220","547681","0.0-41.0-0.7","SS1613100450096","","","null","","","","","<p><img src= images/blank.png width =""200"" height = ""200"" style = ""float:right""></p><p><img src=images/blank.png width =""800"" height = ""200""></p>","","","","","","","","","","","",""
"","1618.7249999929918","sequential-stimulus-presentation","221","550111","0.0-41.0-1.7","SS1613100450096","trial","","40","800","2418.724999992992","images/stimuli/spore_stims/complex_19_B_d.gif","images/stimuli/spore_stims/complex_10_A_a.gif","","","","","11","complex_dissimilar","images/stimuli/spore_stims/complex_10_A_a.gif","right","","","","",""
"","2239.979999998468","html-keyboard-response","222","552365","0.0-42.0","SS1613100450096","pref_question","","99","","","","","<video width ='960' height = '540' style='padding-top:8%' autoplay muted><source src='images/stimuli/wall_pref.mp4' type='video/mp4'></video>","3","right","66%","11","","","","","","","",""
"","2252.840000001015","sequential-stimulus-presentation","223","555430","0.0-43.0","SS1613100450096","pref_reveal","","40","800","3052.840000001015","null","null","","","","","11","","","","background","","","",""
"","null","html-keyboard-response","224","556369","0.0-44.0-0.0","SS1613100450096","","","null","","","","","<p><img src= images/blank.png width =""200"" height = ""200"" style = ""float:right""></p><p><img src=images/blank.png width =""800"" height = ""200""></p>","","","","","","","","","","","",""
"","515.4650000040419","sequential-stimulus-presentation","225","557695","0.0-44.0-1.0","SS1613100450096","trial","","40","800","1315.465000004042","images/stimuli/spore_stims/complex_01_A_a.gif","images/stimuli/spore_stims/complex_01_B_a.gif","","","","","12","complex_similar","images/stimuli/spore_stims/complex_01_B_a.gif","left","","","","",""
"","null","html-keyboard-response","226","558516","0.0-44.0-0.1","SS1613100450096","","","null","","","","","<p><img src= images/blank.png width =""200"" height = ""200"" style = ""float:right""></p><p><img src=images/blank.png width =""800"" height = ""200""></p>","","","","","","","","","","","",""
"","498.0349999968894","sequential-stimulus-presentation","227","559822","0.0-44.0-1.1","SS1613100450096","trial","","40","800","1298.0349999968894","images/stimuli/spore_stims/complex_01_A_a.gif","images/stimuli/spore_stims/complex_01_B_a.gif","","","","","12","complex_similar","images/stimuli/spore_stims/complex_01_B_a.gif","left","","","","",""
"","null","html-keyboard-response","228","560640","0.0-44.0-0.2","SS1613100450096","","","null","","","","","<p><img src= images/blank.png width =""200"" height = ""200"" style = ""float:right""></p><p><img src=images/blank.png width =""800"" height = ""200""></p>","","","","","","","","","","","",""
"","381.08499998634215","sequential-stimulus-presentation","229","561831","0.0-44.0-1.2","SS1613100450096","trial","","40","800","1181.0849999863422","images/stimuli/spore_stims/complex_01_A_a.gif","images/stimuli/spore_stims/complex_01_B_a.gif","","","","","12","complex_similar","images/stimuli/spore_stims/complex_01_B_a.gif","left","","","","",""
"","null","html-keyboard-response","230","562668","0.0-44.0-0.3","SS1613100450096","","","null","","","","","<p><img src= images/blank.png width =""200"" height = ""200"" style = ""float:right""></p><p><img src=images/blank.png width =""800"" height = ""200""></p>","","","","","","","","","","","",""
"","1281.8499999993946","sequential-stimulus-presentation","231","564766","0.0-44.0-1.3","SS1613100450096","trial","","40","800","2081.8499999993946","images/stimuli/spore_stims/complex_01_A_a.gif","images/stimuli/spore_stims/complex_01_B_a.gif","","","","","12","complex_similar","images/stimuli/spore_stims/complex_01_B_a.gif","left","","","","",""
"","null","html-keyboard-response","232","565958","0.0-44.0-0.4","SS1613100450096","","","null","","","","","<p><img src= images/blank.png width =""200"" height = ""200"" style = ""float:right""></p><p><img src=images/blank.png width =""800"" height = ""200""></p>","","","","","","","","","","","",""
"","1019.6299999952316","sequential-stimulus-presentation","233","567790","0.0-44.0-1.4","SS1613100450096","trial","","40","800","1819.6299999952316","images/stimuli/spore_stims/complex_01_A_a.gif","images/stimuli/spore_stims/complex_01_B_a.gif","","","","","12","complex_similar","images/stimuli/spore_stims/complex_01_B_a.gif","left","","","","",""
"","null","html-keyboard-response","234","569072","0.0-44.0-0.5","SS1613100450096","","","null","","","","","<p><img src= images/blank.png width =""200"" height = ""200"" style = ""float:right""></p><p><img src=images/blank.png width =""800"" height = ""200""></p>","","","","","","","","","","","",""
"","563.3400000078836","sequential-stimulus-presentation","235","570446","0.0-44.0-1.5","SS1613100450096","trial","","40","800","1363.3400000078836","images/stimuli/spore_stims/complex_01_A_a.gif","images/stimuli/spore_stims/complex_01_B_a.gif","","","","","12","complex_similar","images/stimuli/spore_stims/complex_01_B_a.gif","left","","","","",""
"","null","html-keyboard-response","236","571419","0.0-44.0-0.6","SS1613100450096","","","null","","","","","<p><img src= images/blank.png width =""200"" height = ""200"" style = ""float:right""></p><p><img src=images/blank.png width =""800"" height = ""200""></p>","","","","","","","","","","","",""
"","5719.729999997071","sequential-stimulus-presentation","237","577954","0.0-44.0-1.6","SS1613100450096","trial","","40","800","6519.729999997071","images/stimuli/spore_stims/complex_01_A_a.gif","images/stimuli/spore_stims/complex_01_B_a.gif","","","","","12","complex_similar","images/stimuli/spore_stims/complex_01_B_a.gif","left","","","","",""
"","null","html-keyboard-response","238","578918","0.0-44.0-0.7","SS1613100450096","","","null","","","","","<p><img src= images/blank.png width =""200"" height = ""200"" style = ""float:right""></p><p><img src=images/blank.png width =""800"" height = ""200""></p>","","","","","","","","","","","",""
"","1375.4750000080094","sequential-stimulus-presentation","239","581110","0.0-44.0-1.7","SS1613100450096","trial","","40","800","2175.4750000080094","images/stimuli/spore_stims/complex_01_A_a.gif","images/stimuli/spore_stims/complex_01_B_a.gif","","","","","12","complex_similar","images/stimuli/spore_stims/complex_01_A_a.gif","middle","","","","",""
"","3490.6449999980396","html-keyboard-response","240","584615","0.0-45.0","SS1613100450096","pref_question","","97","","","","","<video width ='960' height = '540' style='padding-top:8%' autoplay muted><source src='images/stimuli/wall_pref.mp4' type='video/mp4'></video>","1","left","25%","12","","","","","","","",""
"","2132.2849999996834","sequential-stimulus-presentation","241","587559","0.0-46.0","SS1613100450096","pref_reveal","","40","800","2932.2849999996834","null","null","","","","","12","","","","background","","","",""
"","null","html-keyboard-response","242","588733","0.0-47.0-0.0","SS1613100450096","","","null","","","","","<p><img src= images/blank.png width =""200"" height = ""200"" style = ""float:right""></p><p><img src=images/blank.png width =""800"" height = ""200""></p>","","","","","","","","","","","",""
"","499.0000000107102","sequential-stimulus-presentation","243","590087","0.0-47.0-1.0","SS1613100450096","trial","","40","800","1299.0000000107102","images/stimuli/spore_stims/complex_20_B_b.gif","images/stimuli/spore_stims/complex_17_A_d.gif","","","","","13","complex_dissimilar","images/stimuli/spore_stims/complex_17_A_d.gif","left","","","","",""
"","null","html-keyboard-response","244","591381","0.0-47.0-0.1","SS1613100450096","","","null","","","","","<p><img src= images/blank.png width =""200"" height = ""200"" style = ""float:right""></p><p><img src=images/blank.png width =""800"" height = ""200""></p>","","","","","","","","","","","",""
"","1602.1750000072643","sequential-stimulus-presentation","245","593799","0.0-47.0-1.1","SS1613100450096","trial","","40","800","2402.1750000072643","images/stimuli/spore_stims/complex_20_B_b.gif","images/stimuli/spore_stims/complex_17_A_d.gif","","","","","13","complex_dissimilar","images/stimuli/spore_stims/complex_17_A_d.gif","left","","","","",""
"","null","html-keyboard-response","246","594911","0.0-47.0-0.2","SS1613100450096","","","null","","","","","<p><img src= images/blank.png width =""200"" height = ""200"" style = ""float:right""></p><p><img src=images/blank.png width =""800"" height = ""200""></p>","","","","","","","","","","","",""
"","1694.9099999910686","sequential-stimulus-presentation","247","597423","0.0-47.0-1.2","SS1613100450096","trial","","40","800","2494.9099999910686","images/stimuli/spore_stims/complex_20_B_b.gif","images/stimuli/spore_stims/complex_17_A_d.gif","","","","","13","complex_dissimilar","images/stimuli/spore_stims/complex_17_A_d.gif","left","","","","",""
"","null","html-keyboard-response","248","598379","0.0-47.0-0.3","SS1613100450096","","","null","","","","","<p><img src= images/blank.png width =""200"" height = ""200"" style = ""float:right""></p><p><img src=images/blank.png width =""800"" height = ""200""></p>","","","","","","","","","","","",""
"","770.780000006198","sequential-stimulus-presentation","249","599966","0.0-47.0-1.3","SS1613100450096","trial","","40","800","1570.780000006198","images/stimuli/spore_stims/complex_20_B_b.gif","images/stimuli/spore_stims/complex_17_A_d.gif","","","","","13","complex_dissimilar","images/stimuli/spore_stims/complex_17_A_d.gif","left","","","","",""
"","null","html-keyboard-response","250","601195","0.0-47.0-0.4","SS1613100450096","","","null","","","","","<p><img src= images/blank.png width =""200"" height = ""200"" style = ""float:right""></p><p><img src=images/blank.png width =""800"" height = ""200""></p>","","","","","","","","","","","",""
"","416.51499998988584","sequential-stimulus-presentation","251","602424","0.0-47.0-1.4","SS1613100450096","trial","","40","800","1216.5149999898858","images/stimuli/spore_stims/complex_20_B_b.gif","images/stimuli/spore_stims/complex_17_A_d.gif","","","","","13","complex_dissimilar","images/stimuli/spore_stims/complex_17_A_d.gif","left","","","","",""
"","null","html-keyboard-response","252","603288","0.0-47.0-0.5","SS1613100450096","","","null","","","","","<p><img src= images/blank.png width =""200"" height = ""200"" style = ""float:right""></p><p><img src=images/blank.png width =""800"" height = ""200""></p>","","","","","","","","","","","",""
"","518.7499999883585","sequential-stimulus-presentation","253","604622","0.0-47.0-1.5","SS1613100450096","trial","","40","800","1318.7499999883585","images/stimuli/spore_stims/complex_20_B_b.gif","images/stimuli/spore_stims/complex_17_A_d.gif","","","","","13","complex_dissimilar","images/stimuli/spore_stims/complex_20_B_b.gif","middle","","","","",""
"","null","html-keyboard-response","254","605797","0.0-47.0-0.6","SS1613100450096","","","null","","","","","<p><img src= images/blank.png width =""200"" height = ""200"" style = ""float:right""></p><p><img src=images/blank.png width =""800"" height = ""200""></p>","","","","","","","","","","","",""
"","1310.540000005858","sequential-stimulus-presentation","255","607951","0.0-47.0-1.6","SS1613100450096","trial","","40","800","2110.540000005858","images/stimuli/spore_stims/complex_20_B_b.gif","images/stimuli/spore_stims/complex_17_A_d.gif","","","","","13","complex_dissimilar","images/stimuli/spore_stims/complex_17_A_d.gif","left","","","","",""
"","null","html-keyboard-response","256","608951","0.0-47.0-0.7","SS1613100450096","","","null","","","","","<p><img src= images/blank.png width =""200"" height = ""200"" style = ""float:right""></p><p><img src=images/blank.png width =""800"" height = ""200""></p>","","","","","","","","","","","",""
"","1008.045000009588","sequential-stimulus-presentation","257","610774","0.0-47.0-1.7","SS1613100450096","trial","","40","800","1808.045000009588","images/stimuli/spore_stims/complex_20_B_b.gif","images/stimuli/spore_stims/complex_17_A_d.gif","","","","","13","complex_dissimilar","images/stimuli/spore_stims/complex_17_A_d.gif","left","","","","",""
"","2562.4300000054063","html-keyboard-response","258","613352","0.0-48.0","SS1613100450096","pref_question","","97","","","","","<video width ='960' height = '540' style='padding-top:8%' autoplay muted><source src='images/stimuli/wall_pref.mp4' type='video/mp4'></video>","1","left","25%","13","","","","","","","",""
"","670.8899999939604","sequential-stimulus-presentation","259","614838","0.0-49.0","SS1613100450096","pref_reveal","","40","800","1470.8899999939604","null","null","","","","","13","","","","background","","","",""
"","null","html-keyboard-response","260","615691","0.0-50.0-0.0","SS1613100450096","","","null","","","","","<p><img src= images/blank.png width =""200"" height = ""200"" style = ""float:right""></p><p><img src=images/blank.png width =""800"" height = ""200""></p>","","","","","","","","","","","",""
"","1739.354999997886","sequential-stimulus-presentation","261","618247","0.0-50.0-1.0","SS1613100450096","trial","","40","800","2539.354999997886","images/stimuli/spore_stims/simple_05_B_d.gif","images/stimuli/spore_stims/simple_02_A_b.gif","","","","","14","simple_dissimilar","images/stimuli/spore_stims/simple_02_A_b.gif","middle","","","","",""
"","null","html-keyboard-response","262","619140","0.0-50.0-0.1","SS1613100450096","","","null","","","","","<p><img src= images/blank.png width =""200"" height = ""200"" style = ""float:right""></p><p><img src=images/blank.png width =""800"" height = ""200""></p>","","","","","","","","","","","",""
"","583.1400000024587","sequential-stimulus-presentation","263","620534","0.0-50.0-1.1","SS1613100450096","trial","","40","800","1383.1400000024587","images/stimuli/spore_stims/simple_05_B_d.gif","images/stimuli/spore_stims/simple_02_A_b.gif","","","","","14","simple_dissimilar","images/stimuli/spore_stims/simple_02_A_b.gif","middle","","","","",""
"","null","html-keyboard-response","264","621429","0.0-50.0-0.2","SS1613100450096","","","null","","","","","<p><img src= images/blank.png width =""200"" height = ""200"" style = ""float:right""></p><p><img src=images/blank.png width =""800"" height = ""200""></p>","","","","","","","","","","","",""
"","501.4799999917159","sequential-stimulus-presentation","265","622742","0.0-50.0-1.2","SS1613100450096","trial","","40","800","1301.4799999917159","images/stimuli/spore_stims/simple_05_B_d.gif","images/stimuli/spore_stims/simple_02_A_b.gif","","","","","14","simple_dissimilar","images/stimuli/spore_stims/simple_02_A_b.gif","middle","","","","",""
"","null","html-keyboard-response","266","623772","0.0-50.0-0.3","SS1613100450096","","","null","","","","","<p><img src= images/blank.png width =""200"" height = ""200"" style = ""float:right""></p><p><img src=images/blank.png width =""800"" height = ""200""></p>","","","","","","","","","","","",""
"","396.33999999205116","sequential-stimulus-presentation","267","624994","0.0-50.0-1.3","SS1613100450096","trial","","40","800","1196.3399999920512","images/stimuli/spore_stims/simple_05_B_d.gif","images/stimuli/spore_stims/simple_02_A_b.gif","","","","","14","simple_dissimilar","images/stimuli/spore_stims/simple_02_A_b.gif","middle","","","","",""
"","null","html-keyboard-response","268","625894","0.0-50.0-0.4","SS1613100450096","","","null","","","","","<p><img src= images/blank.png width =""200"" height = ""200"" style = ""float:right""></p><p><img src=images/blank.png width =""800"" height = ""200""></p>","","","","","","","","","","","",""
"","740.1700000045821","sequential-stimulus-presentation","269","627486","0.0-50.0-1.4","SS1613100450096","trial","","40","800","1540.170000004582","images/stimuli/spore_stims/simple_05_B_d.gif","images/stimuli/spore_stims/simple_02_A_b.gif","","","","","14","simple_dissimilar","images/stimuli/spore_stims/simple_02_A_b.gif","middle","","","","",""
"","null","html-keyboard-response","270","628388","0.0-50.0-0.5","SS1613100450096","","","null","","","","","<p><img src= images/blank.png width =""200"" height = ""200"" style = ""float:right""></p><p><img src=images/blank.png width =""800"" height = ""200""></p>","","","","","","","","","","","",""
"","249.36499999603257","sequential-stimulus-presentation","271","629454","0.0-50.0-1.5","SS1613100450096","trial","","40","800","1049.3649999960326","images/stimuli/spore_stims/simple_05_B_d.gif","images/stimuli/spore_stims/simple_02_A_b.gif","","","","","14","simple_dissimilar","images/stimuli/spore_stims/simple_02_A_b.gif","middle","","","","",""
"","null","html-keyboard-response","272","630337","0.0-50.0-0.6","SS1613100450096","","","null","","","","","<p><img src= images/blank.png width =""200"" height = ""200"" style = ""float:right""></p><p><img src=images/blank.png width =""800"" height = ""200""></p>","","","","","","","","","","","",""
"","555.6300000025658","sequential-stimulus-presentation","273","631709","0.0-50.0-1.6","SS1613100450096","trial","","40","800","1355.6300000025658","images/stimuli/spore_stims/simple_05_B_d.gif","images/stimuli/spore_stims/simple_02_A_b.gif","","","","","14","simple_dissimilar","images/stimuli/spore_stims/simple_02_A_b.gif","middle","","","","",""
"","null","html-keyboard-response","274","632912","0.0-50.0-0.7","SS1613100450096","","","null","","","","","<p><img src= images/blank.png width =""200"" height = ""200"" style = ""float:right""></p><p><img src=images/blank.png width =""800"" height = ""200""></p>","","","","","","","","","","","",""
"","1764.2800000030547","sequential-stimulus-presentation","275","635497","0.0-50.0-1.7","SS1613100450096","trial","","40","800","2564.2800000030547","images/stimuli/spore_stims/simple_05_B_d.gif","images/stimuli/spore_stims/simple_02_A_b.gif","","","","","14","simple_dissimilar","images/stimuli/spore_stims/simple_05_B_d.gif","left","","","","",""
"","1793.98499999661","html-keyboard-response","276","637303","0.0-51.0","SS1613100450096","pref_question","","97","","","","","<video width ='960' height = '540' style='padding-top:8%' autoplay muted><source src='images/stimuli/wall_pref.mp4' type='video/mp4'></video>","1","left","25%","14","","","","","","","",""
"","1691.7350000003353","sequential-stimulus-presentation","277","639806","0.0-52.0","SS1613100450096","pref_reveal","","40","800","2491.7350000003353","null","null","","","","","14","","","","deviant","","","",""
"","null","html-keyboard-response","278","640942","0.0-53.0-0.0","SS1613100450096","","","null","","","","","<p><img src= images/blank.png width =""200"" height = ""200"" style = ""float:right""></p><p><img src=images/blank.png width =""800"" height = ""200""></p>","","","","","","","","","","","",""
"","129.25499999255408","sequential-stimulus-presentation","279","641894","0.0-53.0-1.0","SS1613100450096","trial","","40","800","929.2549999925541","images/stimuli/spore_stims/simple_03_A_c.gif","images/stimuli/spore_stims/simple_03_B_c.gif","","","","","15","simple_similar","images/stimuli/spore_stims/simple_03_B_c.gif","middle","","","","",""
"","null","html-keyboard-response","280","643165","0.0-53.0-0.1","SS1613100450096","","","null","","","","","<p><img src= images/blank.png width =""200"" height = ""200"" style = ""float:right""></p><p><img src=images/blank.png width =""800"" height = ""200""></p>","","","","","","","","","","","",""
"","575.0299999926938","sequential-stimulus-presentation","281","644556","0.0-53.0-1.1","SS1613100450096","trial","","40","800","1375.0299999926938","images/stimuli/spore_stims/simple_03_A_c.gif","images/stimuli/spore_stims/simple_03_B_c.gif","","","","","15","simple_similar","images/stimuli/spore_stims/simple_03_B_c.gif","middle","","","","",""
"","null","html-keyboard-response","282","645688","0.0-53.0-0.2","SS1613100450096","","","null","","","","","<p><img src= images/blank.png width =""200"" height = ""200"" style = ""float:right""></p><p><img src=images/blank.png width =""800"" height = ""200""></p>","","","","","","","","","","","",""
"","643.4849999932339","sequential-stimulus-presentation","283","647148","0.0-53.0-1.2","SS1613100450096","trial","","40","800","1443.484999993234","images/stimuli/spore_stims/simple_03_A_c.gif","images/stimuli/spore_stims/simple_03_B_c.gif","","","","","15","simple_similar","images/stimuli/spore_stims/simple_03_B_c.gif","middle","","","","",""
"","null","html-keyboard-response","284","648239","0.0-53.0-0.3","SS1613100450096","","","null","","","","","<p><img src= images/blank.png width =""200"" height = ""200"" style = ""float:right""></p><p><img src=images/blank.png width =""800"" height = ""200""></p>","","","","","","","","","","","",""
"","778.920000011567","sequential-stimulus-presentation","285","649831","0.0-53.0-1.3","SS1613100450096","trial","","40","800","1578.920000011567","images/stimuli/spore_stims/simple_03_A_c.gif","images/stimuli/spore_stims/simple_03_B_c.gif","","","","","15","simple_similar","images/stimuli/spore_stims/simple_03_A_c.gif","right","","","","",""
"","null","html-keyboard-response","286","651023","0.0-53.0-0.4","SS1613100450096","","","null","","","","","<p><img src= images/blank.png width =""200"" height = ""200"" style = ""float:right""></p><p><img src=images/blank.png width =""800"" height = ""200""></p>","","","","","","","","","","","",""
"","1552.654999992228","sequential-stimulus-presentation","287","653390","0.0-53.0-1.4","SS1613100450096","trial","","40","800","2352.654999992228","images/stimuli/spore_stims/simple_03_A_c.gif","images/stimuli/spore_stims/simple_03_B_c.gif","","","","","15","simple_similar","images/stimuli/spore_stims/simple_03_B_c.gif","middle","","","","",""
"","null","html-keyboard-response","288","654292","0.0-53.0-0.5","SS1613100450096","","","null","","","","","<p><img src= images/blank.png width =""200"" height = ""200"" style = ""float:right""></p><p><img src=images/blank.png width =""800"" height = ""200""></p>","","","","","","","","","","","",""
"","476.07000000425614","sequential-stimulus-presentation","289","655594","0.0-53.0-1.5","SS1613100450096","trial","","40","800","1276.0700000042561","images/stimuli/spore_stims/simple_03_A_c.gif","images/stimuli/spore_stims/simple_03_B_c.gif","","","","","15","simple_similar","images/stimuli/spore_stims/simple_03_B_c.gif","middle","","","","",""
"","null","html-keyboard-response","290","656552","0.0-53.0-0.6","SS1613100450096","","","null","","","","","<p><img src= images/blank.png width =""200"" height = ""200"" style = ""float:right""></p><p><img src=images/blank.png width =""800"" height = ""200""></p>","","","","","","","","","","","",""
"","590.425000002142","sequential-stimulus-presentation","291","657951","0.0-53.0-1.6","SS1613100450096","trial","","40","800","1390.425000002142","images/stimuli/spore_stims/simple_03_A_c.gif","images/stimuli/spore_stims/simple_03_B_c.gif","","","","","15","simple_similar","images/stimuli/spore_stims/simple_03_B_c.gif","middle","","","","",""
"","null","html-keyboard-response","292","659191","0.0-53.0-0.7","SS1613100450096","","","null","","","","","<p><img src= images/blank.png width =""200"" height = ""200"" style = ""float:right""></p><p><img src=images/blank.png width =""800"" height = ""200""></p>","","","","","","","","","","","",""
"","589.6749999956228","sequential-stimulus-presentation","293","660615","0.0-53.0-1.7","SS1613100450096","trial","","40","800","1389.6749999956228","images/stimuli/spore_stims/simple_03_A_c.gif","images/stimuli/spore_stims/simple_03_B_c.gif","","","","","15","simple_similar","images/stimuli/spore_stims/simple_03_B_c.gif","middle","","","","",""
"","2057.455000001937","html-keyboard-response","294","662711","0.0-54.0","SS1613100450096","pref_question","","98","","","","","<video width ='960' height = '540' style='padding-top:8%' autoplay muted><source src='images/stimuli/wall_pref.mp4' type='video/mp4'></video>","2","middle","45%","15","","","","","","","",""
"","1300.069999997504","sequential-stimulus-presentation","295","664822","0.0-55.0","SS1613100450096","pref_reveal","","40","800","2100.069999997504","null","null","","","","","15","","","","background","","","",""
"","null","html-keyboard-response","296","665940","0.0-56.0-0.0","SS1613100450096","","","null","","","","","<p><img src= images/blank.png width =""200"" height = ""200"" style = ""float:right""></p><p><img src=images/blank.png width =""800"" height = ""200""></p>","","","","","","","","","","","",""
"","1146.1699999927077","sequential-stimulus-presentation","297","667910","0.0-56.0-1.0","SS1613100450096","trial","","40","800","1946.1699999927077","images/stimuli/spore_stims/simple_09_A_a.gif","images/stimuli/spore_stims/simple_12_A_c.gif","","","","","16","simple_dissimilar","images/stimuli/spore_stims/simple_12_A_c.gif","left","","","","",""
"","null","html-keyboard-response","298","668928","0.0-56.0-0.1","SS1613100450096","","","null","","","","","<p><img src= images/blank.png width =""200"" height = ""200"" style = ""float:right""></p><p><img src=images/blank.png width =""800"" height = ""200""></p>","","","","","","","","","","","",""
"","574.5500000048196","sequential-stimulus-presentation","299","670327","0.0-56.0-1.1","SS1613100450096","trial","","40","800","1374.5500000048196","images/stimuli/spore_stims/simple_09_A_a.gif","images/stimuli/spore_stims/simple_12_A_c.gif","","","","","16","simple_dissimilar","images/stimuli/spore_stims/simple_12_A_c.gif","left","","","","",""
"","null","html-keyboard-response","300","671293","0.0-56.0-0.2","SS1613100450096","","","null","","","","","<p><img src= images/blank.png width =""200"" height = ""200"" style = ""float:right""></p><p><img src=images/blank.png width =""800"" height = ""200""></p>","","","","","","","","","","","",""
"","539.3999999942025","sequential-stimulus-presentation","301","672646","0.0-56.0-1.2","SS1613100450096","trial","","40","800","1339.3999999942025","images/stimuli/spore_stims/simple_09_A_a.gif","images/stimuli/spore_stims/simple_12_A_c.gif","","","","","16","simple_dissimilar","images/stimuli/spore_stims/simple_12_A_c.gif","left","","","","",""
"","null","html-keyboard-response","302","673917","0.0-56.0-0.3","SS1613100450096","","","null","","","","","<p><img src= images/blank.png width =""200"" height = ""200"" style = ""float:right""></p><p><img src=images/blank.png width =""800"" height = ""200""></p>","","","","","","","","","","","",""
"","658.7800000124844","sequential-stimulus-presentation","303","675390","0.0-56.0-1.3","SS1613100450096","trial","","40","800","1458.7800000124844","images/stimuli/spore_stims/simple_09_A_a.gif","images/stimuli/spore_stims/simple_12_A_c.gif","","","","","16","simple_dissimilar","images/stimuli/spore_stims/simple_12_A_c.gif","left","","","","",""
"","null","html-keyboard-response","304","676308","0.0-56.0-0.4","SS1613100450096","","","null","","","","","<p><img src= images/blank.png width =""200"" height = ""200"" style = ""float:right""></p><p><img src=images/blank.png width =""800"" height = ""200""></p>","","","","","","","","","","","",""
"","589.559999993071","sequential-stimulus-presentation","305","677710","0.0-56.0-1.4","SS1613100450096","trial","","40","800","1389.559999993071","images/stimuli/spore_stims/simple_09_A_a.gif","images/stimuli/spore_stims/simple_12_A_c.gif","","","","","16","simple_dissimilar","images/stimuli/spore_stims/simple_12_A_c.gif","left","","","","",""
"","null","html-keyboard-response","306","678865","0.0-56.0-0.5","SS1613100450096","","","null","","","","","<p><img src= images/blank.png width =""200"" height = ""200"" style = ""float:right""></p><p><img src=images/blank.png width =""800"" height = ""200""></p>","","","","","","","","","","","",""
"","1405.4650000034599","sequential-stimulus-presentation","307","681088","0.0-56.0-1.5","SS1613100450096","trial","","40","800","2205.46500000346","images/stimuli/spore_stims/simple_09_A_a.gif","images/stimuli/spore_stims/simple_12_A_c.gif","","","","","16","simple_dissimilar","images/stimuli/spore_stims/simple_09_A_a.gif","right","","","","",""
"","null","html-keyboard-response","308","682016","0.0-56.0-0.6","SS1613100450096","","","null","","","","","<p><img src= images/blank.png width =""200"" height = ""200"" style = ""float:right""></p><p><img src=images/blank.png width =""800"" height = ""200""></p>","","","","","","","","","","","",""
"","1721.3300000003073","sequential-stimulus-presentation","309","684558","0.0-56.0-1.6","SS1613100450096","trial","","40","800","2521.3300000003073","images/stimuli/spore_stims/simple_09_A_a.gif","images/stimuli/spore_stims/simple_12_A_c.gif","","","","","16","simple_dissimilar","images/stimuli/spore_stims/simple_12_A_c.gif","left","","","","",""
"","null","html-keyboard-response","310","685670","0.0-56.0-0.7","SS1613100450096","","","null","","","","","<p><img src= images/blank.png width =""200"" height = ""200"" style = ""float:right""></p><p><img src=images/blank.png width =""800"" height = ""200""></p>","","","","","","","","","","","",""
"","1238.6449999903562","sequential-stimulus-presentation","311","687726","0.0-56.0-1.7","SS1613100450096","trial","","40","800","2038.6449999903562","images/stimuli/spore_stims/simple_09_A_a.gif","images/stimuli/spore_stims/simple_12_A_c.gif","","","","","16","simple_dissimilar","images/stimuli/spore_stims/simple_12_A_c.gif","left","","","","",""
