"view_history","rt","trial_type","trial_index","time_elapsed","internal_node_id","subject","stimulus_type","trial_stimulus","key_press","minimum_viewing_duration","trial_looking_time","block_deviant","block_background","stimulus","wall_pref","location","location_percent","block_number","block_type","stimulus_displayed","position_displayed","stim_type_selected","responses","question_order","stimulus_left","stimulus_right"
"[{""page_index"":0,""viewing_time"":52526.53500018641}]","52527.25000027567","instructions","0","52531","0.0-0.0","SS1613080031176","","","","","","","","","","","","","","","","","","","",""
"[{""page_index"":0,""viewing_time"":3967.2799999825656},{""page_index"":1,""viewing_time"":9887.614999897778}]","13855.339999776334","instructions","1","68393","0.0-1.0","SS1613080031176","instructions","","","","","","","","","","","","","","","","","","",""
"","7801.175000146031","sequential-stimulus-presentation","2","77085","0.0-2.0","SS1613080031176","","","40","800","8601.175000146031","null","null","","","","","","","","","","","","",""
"","4676.095000002533","sequential-stimulus-presentation","3","82841","0.0-3.0","SS1613080031176","","","40","800","5476.095000002533","null","null","","","","","","","","","","","","",""
"[{""page_index"":0,""viewing_time"":6413.4550001472235}]","6413.87000028044","instructions","4","89284","0.0-4.0","SS1613080031176","instructions","","","","","","","","","","","","","","","","","","",""
"","20891.91500004381","html-keyboard-response","5","110273","0.0-5.0","SS1613080031176","instructions","","51","","","","","<video width ='960' height = '540' autoplay muted><source src='images/stimuli/wall_pref.mp4' type='video/mp4'></video>","3","right","66%","","","","","","","","",""
"","6275.7450002245605","sequential-stimulus-presentation","6","117450","0.0-6.0","SS1613080031176","pref_reveal","","40","800","7075.7450002245605","null","null","","","","","","","","","","","","",""
"[{""page_index"":0,""viewing_time"":3425.840000156313},{""page_index"":1,""viewing_time"":6358.165000099689},{""page_index"":2,""viewing_time"":1984.1700000688434},{""page_index"":3,""viewing_time"":1720.0199998915195}]","13488.810000009835","instructions","7","130946","0.0-7.0","SS1613080031176","instructions","","","","","","","","","","","","","","","","","","",""
"","null","html-keyboard-response","8","131991","0.0-8.0-0.0","SS1613080031176","","","null","","","","","<p><img src= images/blank.png width =""200"" height = ""200"" style = ""float:right""></p><p><img src=images/blank.png width =""800"" height = ""200""></p>","","","","","","","","","","","",""
"","134241.20000004768","sequential-stimulus-presentation","9","267205","0.0-8.0-1.0","SS1613080031176","trial","","40","800","135041.20000004768","images/stimuli/spore_stims/simple_13_B_a.gif","images/stimuli/spore_stims/simple_02_B_b.gif","","","","","0","simple_dissimilar","images/stimuli/spore_stims/simple_02_B_b.gif","left","","","","",""
"","null","html-keyboard-response","10","268402","0.0-8.0-0.1","SS1613080031176","","","null","","","","","<p><img src= images/blank.png width =""200"" height = ""200"" style = ""float:right""></p><p><img src=images/blank.png width =""800"" height = ""200""></p>","","","","","","","","","","","",""
"","1037.7849997021258","sequential-stimulus-presentation","11","270396","0.0-8.0-1.1","SS1613080031176","trial","","40","800","1837.7849997021258","images/stimuli/spore_stims/simple_13_B_a.gif","images/stimuli/spore_stims/simple_02_B_b.gif","","","","","0","simple_dissimilar","images/stimuli/spore_stims/simple_02_B_b.gif","left","","","","",""
"","null","html-keyboard-response","12","271334","0.0-8.0-0.2","SS1613080031176","","","null","","","","","<p><img src= images/blank.png width =""200"" height = ""200"" style = ""float:right""></p><p><img src=images/blank.png width =""800"" height = ""200""></p>","","","","","","","","","","","",""
"","379.29499987512827","sequential-stimulus-presentation","13","272763","0.0-8.0-1.2","SS1613080031176","trial","","40","800","1179.2949998751283","images/stimuli/spore_stims/simple_13_B_a.gif","images/stimuli/spore_stims/simple_02_B_b.gif","","","","","0","simple_dissimilar","images/stimuli/spore_stims/simple_02_B_b.gif","left","","","","",""
"","null","html-keyboard-response","14","273757","0.0-8.0-0.3","SS1613080031176","","","null","","","","","<p><img src= images/blank.png width =""200"" height = ""200"" style = ""float:right""></p><p><img src=images/blank.png width =""800"" height = ""200""></p>","","","","","","","","","","","",""
"","401.26499999314547","sequential-stimulus-presentation","15","275007","0.0-8.0-1.3","SS1613080031176","trial","","40","800","1201.2649999931455","images/stimuli/spore_stims/simple_13_B_a.gif","images/stimuli/spore_stims/simple_02_B_b.gif","","","","","0","simple_dissimilar","images/stimuli/spore_stims/simple_02_B_b.gif","left","","","","",""
"","null","html-keyboard-response","16","276082","0.0-8.0-0.4","SS1613080031176","","","null","","","","","<p><img src= images/blank.png width =""200"" height = ""200"" style = ""float:right""></p><p><img src=images/blank.png width =""800"" height = ""200""></p>","","","","","","","","","","","",""
"","303.659999743104","sequential-stimulus-presentation","17","277241","0.0-8.0-1.4","SS1613080031176","trial","","40","800","1103.659999743104","images/stimuli/spore_stims/simple_13_B_a.gif","images/stimuli/spore_stims/simple_02_B_b.gif","","","","","0","simple_dissimilar","images/stimuli/spore_stims/simple_02_B_b.gif","left","","","","",""
"","null","html-keyboard-response","18","278487","0.0-8.0-0.5","SS1613080031176","","","null","","","","","<p><img src= images/blank.png width =""200"" height = ""200"" style = ""float:right""></p><p><img src=images/blank.png width =""800"" height = ""200""></p>","","","","","","","","","","","",""
"","284.68000004068017","sequential-stimulus-presentation","19","279618","0.0-8.0-1.5","SS1613080031176","trial","","40","800","1084.6800000406802","images/stimuli/spore_stims/simple_13_B_a.gif","images/stimuli/spore_stims/simple_02_B_b.gif","","","","","0","simple_dissimilar","images/stimuli/spore_stims/simple_02_B_b.gif","left","","","","",""
"","null","html-keyboard-response","20","280608","0.0-8.0-0.6","SS1613080031176","","","null","","","","","<p><img src= images/blank.png width =""200"" height = ""200"" style = ""float:right""></p><p><img src=images/blank.png width =""800"" height = ""200""></p>","","","","","","","","","","","",""
"","834.8350003361702","sequential-stimulus-presentation","21","282295","0.0-8.0-1.6","SS1613080031176","trial","","40","800","1634.8350003361702","images/stimuli/spore_stims/simple_13_B_a.gif","images/stimuli/spore_stims/simple_02_B_b.gif","","","","","0","simple_dissimilar","images/stimuli/spore_stims/simple_13_B_a.gif","middle","","","","",""
"","null","html-keyboard-response","22","283541","0.0-8.0-0.7","SS1613080031176","","","null","","","","","<p><img src= images/blank.png width =""200"" height = ""200"" style = ""float:right""></p><p><img src=images/blank.png width =""800"" height = ""200""></p>","","","","","","","","","","","",""
"","675.4850000143051","sequential-stimulus-presentation","23","285034","0.0-8.0-1.7","SS1613080031176","trial","","40","800","1475.4850000143051","images/stimuli/spore_stims/simple_13_B_a.gif","images/stimuli/spore_stims/simple_02_B_b.gif","","","","","0","simple_dissimilar","images/stimuli/spore_stims/simple_02_B_b.gif","left","","","","",""
"","2216.305000241846","html-keyboard-response","24","287285","0.0-9.0","SS1613080031176","pref_question","","50","","","","","<video width ='960' height = '540' style='padding-top:8%' autoplay muted><source src='images/stimuli/wall_pref.mp4' type='video/mp4'></video>","2","middle","45%","0","","","","","","","",""
"","984.4700000248849","sequential-stimulus-presentation","25","289101","0.0-10.0","SS1613080031176","pref_reveal","","40","800","1784.470000024885","null","null","","","","","0","","","","deviant","","","",""
"","null","html-keyboard-response","26","290229","0.0-11.0-0.0","SS1613080031176","","","null","","","","","<p><img src= images/blank.png width =""200"" height = ""200"" style = ""float:right""></p><p><img src=images/blank.png width =""800"" height = ""200""></p>","","","","","","","","","","","",""
"","363.39000007137656","sequential-stimulus-presentation","27","291412","0.0-11.0-1.0","SS1613080031176","trial","","40","800","1163.3900000713766","images/stimuli/spore_stims/simple_17_B_c.gif","images/stimuli/spore_stims/simple_17_A_c.gif","","","","","1","simple_similar","images/stimuli/spore_stims/simple_17_A_c.gif","middle","","","","",""
"","null","html-keyboard-response","28","292511","0.0-11.0-0.1","SS1613080031176","","","null","","","","","<p><img src= images/blank.png width =""200"" height = ""200"" style = ""float:right""></p><p><img src=images/blank.png width =""800"" height = ""200""></p>","","","","","","","","","","","",""
"","263.9699997380376","sequential-stimulus-presentation","29","293581","0.0-11.0-1.1","SS1613080031176","trial","","40","800","1063.9699997380376","images/stimuli/spore_stims/simple_17_B_c.gif","images/stimuli/spore_stims/simple_17_A_c.gif","","","","","1","simple_similar","images/stimuli/spore_stims/simple_17_A_c.gif","middle","","","","",""
"","null","html-keyboard-response","30","294674","0.0-11.0-0.2","SS1613080031176","","","null","","","","","<p><img src= images/blank.png width =""200"" height = ""200"" style = ""float:right""></p><p><img src=images/blank.png width =""800"" height = ""200""></p>","","","","","","","","","","","",""
"","404.58999993279576","sequential-stimulus-presentation","31","295988","0.0-11.0-1.2","SS1613080031176","trial","","40","800","1204.5899999327958","images/stimuli/spore_stims/simple_17_B_c.gif","images/stimuli/spore_stims/simple_17_A_c.gif","","","","","1","simple_similar","images/stimuli/spore_stims/simple_17_A_c.gif","middle","","","","",""
"","null","html-keyboard-response","32","297103","0.0-11.0-0.3","SS1613080031176","","","null","","","","","<p><img src= images/blank.png width =""200"" height = ""200"" style = ""float:right""></p><p><img src=images/blank.png width =""800"" height = ""200""></p>","","","","","","","","","","","",""
"","790.6049997545779","sequential-stimulus-presentation","33","298709","0.0-11.0-1.3","SS1613080031176","trial","","40","800","1590.6049997545779","images/stimuli/spore_stims/simple_17_B_c.gif","images/stimuli/spore_stims/simple_17_A_c.gif","","","","","1","simple_similar","images/stimuli/spore_stims/simple_17_B_c.gif","right","","","","",""
"","null","html-keyboard-response","34","299694","0.0-11.0-0.4","SS1613080031176","","","null","","","","","<p><img src= images/blank.png width =""200"" height = ""200"" style = ""float:right""></p><p><img src=images/blank.png width =""800"" height = ""200""></p>","","","","","","","","","","","",""
"","644.3899995647371","sequential-stimulus-presentation","35","301143","0.0-11.0-1.4","SS1613080031176","trial","","40","800","1444.389999564737","images/stimuli/spore_stims/simple_17_B_c.gif","images/stimuli/spore_stims/simple_17_A_c.gif","","","","","1","simple_similar","images/stimuli/spore_stims/simple_17_A_c.gif","middle","","","","",""
"","null","html-keyboard-response","36","301990","0.0-11.0-0.5","SS1613080031176","","","null","","","","","<p><img src= images/blank.png width =""200"" height = ""200"" style = ""float:right""></p><p><img src=images/blank.png width =""800"" height = ""200""></p>","","","","","","","","","","","",""
"","474.2600000463426","sequential-stimulus-presentation","37","303272","0.0-11.0-1.5","SS1613080031176","trial","","40","800","1274.2600000463426","images/stimuli/spore_stims/simple_17_B_c.gif","images/stimuli/spore_stims/simple_17_A_c.gif","","","","","1","simple_similar","images/stimuli/spore_stims/simple_17_A_c.gif","middle","","","","",""
"","null","html-keyboard-response","38","304269","0.0-11.0-0.6","SS1613080031176","","","null","","","","","<p><img src= images/blank.png width =""200"" height = ""200"" style = ""float:right""></p><p><img src=images/blank.png width =""800"" height = ""200""></p>","","","","","","","","","","","",""
"","260.9899998642504","sequential-stimulus-presentation","39","305336","0.0-11.0-1.6","SS1613080031176","trial","","40","800","1060.9899998642504","images/stimuli/spore_stims/simple_17_B_c.gif","images/stimuli/spore_stims/simple_17_A_c.gif","","","","","1","simple_similar","images/stimuli/spore_stims/simple_17_A_c.gif","middle","","","","",""
"","null","html-keyboard-response","40","306425","0.0-11.0-0.7","SS1613080031176","","","null","","","","","<p><img src= images/blank.png width =""200"" height = ""200"" style = ""float:right""></p><p><img src=images/blank.png width =""800"" height = ""200""></p>","","","","","","","","","","","",""
"","350.3499999642372","sequential-stimulus-presentation","41","307590","0.0-11.0-1.7","SS1613080031176","trial","","40","800","1150.3499999642372","images/stimuli/spore_stims/simple_17_B_c.gif","images/stimuli/spore_stims/simple_17_A_c.gif","","","","","1","simple_similar","images/stimuli/spore_stims/simple_17_A_c.gif","middle","","","","",""
"","1455.2649999968708","html-keyboard-response","42","309049","0.0-12.0","SS1613080031176","pref_question","","50","","","","","<video width ='960' height = '540' style='padding-top:8%' autoplay muted><source src='images/stimuli/wall_pref.mp4' type='video/mp4'></video>","2","middle","45%","1","","","","","","","",""
"","1781.9699998944998","sequential-stimulus-presentation","43","311638","0.0-13.0","SS1613080031176","pref_reveal","","40","800","2581.9699998945","null","null","","","","","1","","","","background","","","",""
"","null","html-keyboard-response","44","312479","0.0-14.0-0.0","SS1613080031176","","","null","","","","","<p><img src= images/blank.png width =""200"" height = ""200"" style = ""float:right""></p><p><img src=images/blank.png width =""800"" height = ""200""></p>","","","","","","","","","","","",""
"","549.0049999207258","sequential-stimulus-presentation","45","313869","0.0-14.0-1.0","SS1613080031176","trial","","40","800","1349.0049999207258","images/stimuli/spore_stims/simple_18_A_d.gif","images/stimuli/spore_stims/simple_18_B_d.gif","","","","","2","simple_similar","images/stimuli/spore_stims/simple_18_B_d.gif","left","","","","",""
"","null","html-keyboard-response","46","314765","0.0-14.0-0.1","SS1613080031176","","","null","","","","","<p><img src= images/blank.png width =""200"" height = ""200"" style = ""float:right""></p><p><img src=images/blank.png width =""800"" height = ""200""></p>","","","","","","","","","","","",""
"","229.60500000044703","sequential-stimulus-presentation","47","315799","0.0-14.0-1.1","SS1613080031176","trial","","40","800","1029.605000000447","images/stimuli/spore_stims/simple_18_A_d.gif","images/stimuli/spore_stims/simple_18_B_d.gif","","","","","2","simple_similar","images/stimuli/spore_stims/simple_18_B_d.gif","left","","","","",""
"","null","html-keyboard-response","48","316914","0.0-14.0-0.2","SS1613080031176","","","null","","","","","<p><img src= images/blank.png width =""200"" height = ""200"" style = ""float:right""></p><p><img src=images/blank.png width =""800"" height = ""200""></p>","","","","","","","","","","","",""
"","727.9850002378225","sequential-stimulus-presentation","49","318450","0.0-14.0-1.2","SS1613080031176","trial","","40","800","1527.9850002378225","images/stimuli/spore_stims/simple_18_A_d.gif","images/stimuli/spore_stims/simple_18_B_d.gif","","","","","2","simple_similar","images/stimuli/spore_stims/simple_18_A_d.gif","middle","","","","",""
"","null","html-keyboard-response","50","319263","0.0-14.0-0.3","SS1613080031176","","","null","","","","","<p><img src= images/blank.png width =""200"" height = ""200"" style = ""float:right""></p><p><img src=images/blank.png width =""800"" height = ""200""></p>","","","","","","","","","","","",""
"","324.65000031515956","sequential-stimulus-presentation","51","320397","0.0-14.0-1.3","SS1613080031176","trial","","40","800","1124.6500003151596","images/stimuli/spore_stims/simple_18_A_d.gif","images/stimuli/spore_stims/simple_18_B_d.gif","","","","","2","simple_similar","images/stimuli/spore_stims/simple_18_B_d.gif","left","","","","",""
"","null","html-keyboard-response","52","321243","0.0-14.0-0.4","SS1613080031176","","","null","","","","","<p><img src= images/blank.png width =""200"" height = ""200"" style = ""float:right""></p><p><img src=images/blank.png width =""800"" height = ""200""></p>","","","","","","","","","","","",""
"","318.80500027909875","sequential-stimulus-presentation","53","322375","0.0-14.0-1.4","SS1613080031176","trial","","40","800","1118.8050002790987","images/stimuli/spore_stims/simple_18_A_d.gif","images/stimuli/spore_stims/simple_18_B_d.gif","","","","","2","simple_similar","images/stimuli/spore_stims/simple_18_B_d.gif","left","","","","",""
"","null","html-keyboard-response","54","323543","0.0-14.0-0.5","SS1613080031176","","","null","","","","","<p><img src= images/blank.png width =""200"" height = ""200"" style = ""float:right""></p><p><img src=images/blank.png width =""800"" height = ""200""></p>","","","","","","","","","","","",""
"","427.6000000536442","sequential-stimulus-presentation","55","324793","0.0-14.0-1.5","SS1613080031176","trial","","40","800","1227.6000000536442","images/stimuli/spore_stims/simple_18_A_d.gif","images/stimuli/spore_stims/simple_18_B_d.gif","","","","","2","simple_similar","images/stimuli/spore_stims/simple_18_B_d.gif","left","","","","",""
"","null","html-keyboard-response","56","325685","0.0-14.0-0.6","SS1613080031176","","","null","","","","","<p><img src= images/blank.png width =""200"" height = ""200"" style = ""float:right""></p><p><img src=images/blank.png width =""800"" height = ""200""></p>","","","","","","","","","","","",""
"","552.859999705106","sequential-stimulus-presentation","57","327048","0.0-14.0-1.6","SS1613080031176","trial","","40","800","1352.859999705106","images/stimuli/spore_stims/simple_18_A_d.gif","images/stimuli/spore_stims/simple_18_B_d.gif","","","","","2","simple_similar","images/stimuli/spore_stims/simple_18_B_d.gif","left","","","","",""
"","null","html-keyboard-response","58","328346","0.0-14.0-0.7","SS1613080031176","","","null","","","","","<p><img src= images/blank.png width =""200"" height = ""200"" style = ""float:right""></p><p><img src=images/blank.png width =""800"" height = ""200""></p>","","","","","","","","","","","",""
"","550.4399999044836","sequential-stimulus-presentation","59","329997","0.0-14.0-1.7","SS1613080031176","trial","","40","800","1350.4399999044836","images/stimuli/spore_stims/simple_18_A_d.gif","images/stimuli/spore_stims/simple_18_B_d.gif","","","","","2","simple_similar","images/stimuli/spore_stims/simple_18_B_d.gif","left","","","","",""
"","1612.6600001007318","html-keyboard-response","60","331615","0.0-15.0","SS1613080031176","pref_question","","50","","","","","<video width ='960' height = '540' style='padding-top:8%' autoplay muted><source src='images/stimuli/wall_pref.mp4' type='video/mp4'></video>","2","middle","45%","2","","","","","","","",""
"","666.4899997413158","sequential-stimulus-presentation","61","333092","0.0-16.0","SS1613080031176","pref_reveal","","40","800","1466.4899997413158","null","null","","","","","2","","","","deviant","","","",""
"","null","html-keyboard-response","62","334340","0.0-17.0-0.0","SS1613080031176","","","null","","","","","<p><img src= images/blank.png width =""200"" height = ""200"" style = ""float:right""></p><p><img src=images/blank.png width =""800"" height = ""200""></p>","","","","","","","","","","","",""
"","193.39999975636601","sequential-stimulus-presentation","63","335365","0.0-17.0-1.0","SS1613080031176","trial","","40","800","993.399999756366","images/stimuli/spore_stims/complex_04_B_a.gif","images/stimuli/spore_stims/complex_01_A_a.gif","","","","","3","complex_dissimilar","images/stimuli/spore_stims/complex_01_A_a.gif","left","","","","",""
"","null","html-keyboard-response","64","336277","0.0-17.0-0.1","SS1613080031176","","","null","","","","","<p><img src= images/blank.png width =""200"" height = ""200"" style = ""float:right""></p><p><img src=images/blank.png width =""800"" height = ""200""></p>","","","","","","","","","","","",""
"","204.5499999076128","sequential-stimulus-presentation","65","337305","0.0-17.0-1.1","SS1613080031176","trial","","40","800","1004.5499999076128","images/stimuli/spore_stims/complex_04_B_a.gif","images/stimuli/spore_stims/complex_01_A_a.gif","","","","","3","complex_dissimilar","images/stimuli/spore_stims/complex_01_A_a.gif","left","","","","",""
"","null","html-keyboard-response","66","338590","0.0-17.0-0.2","SS1613080031176","","","null","","","","","<p><img src= images/blank.png width =""200"" height = ""200"" style = ""float:right""></p><p><img src=images/blank.png width =""800"" height = ""200""></p>","","","","","","","","","","","",""
"","258.90000024810433","sequential-stimulus-presentation","67","339656","0.0-17.0-1.2","SS1613080031176","trial","","40","800","1058.9000002481043","images/stimuli/spore_stims/complex_04_B_a.gif","images/stimuli/spore_stims/complex_01_A_a.gif","","","","","3","complex_dissimilar","images/stimuli/spore_stims/complex_01_A_a.gif","left","","","","",""
"","null","html-keyboard-response","68","340877","0.0-17.0-0.3","SS1613080031176","","","null","","","","","<p><img src= images/blank.png width =""200"" height = ""200"" style = ""float:right""></p><p><img src=images/blank.png width =""800"" height = ""200""></p>","","","","","","","","","","","",""
"","274.63999995961785","sequential-stimulus-presentation","69","341956","0.0-17.0-1.3","SS1613080031176","trial","","40","800","1074.6399999596179","images/stimuli/spore_stims/complex_04_B_a.gif","images/stimuli/spore_stims/complex_01_A_a.gif","","","","","3","complex_dissimilar","images/stimuli/spore_stims/complex_01_A_a.gif","left","","","","",""
"","null","html-keyboard-response","70","343010","0.0-17.0-0.4","SS1613080031176","","","null","","","","","<p><img src= images/blank.png width =""200"" height = ""200"" style = ""float:right""></p><p><img src=images/blank.png width =""800"" height = ""200""></p>","","","","","","","","","","","",""
"","319.8149995878339","sequential-stimulus-presentation","71","344137","0.0-17.0-1.4","SS1613080031176","trial","","40","800","1119.8149995878339","images/stimuli/spore_stims/complex_04_B_a.gif","images/stimuli/spore_stims/complex_01_A_a.gif","","","","","3","complex_dissimilar","images/stimuli/spore_stims/complex_01_A_a.gif","left","","","","",""
"","null","html-keyboard-response","72","345335","0.0-17.0-0.5","SS1613080031176","","","null","","","","","<p><img src= images/blank.png width =""200"" height = ""200"" style = ""float:right""></p><p><img src=images/blank.png width =""800"" height = ""200""></p>","","","","","","","","","","","",""
"","533.6500001139939","sequential-stimulus-presentation","73","346712","0.0-17.0-1.5","SS1613080031176","trial","","40","800","1333.6500001139939","images/stimuli/spore_stims/complex_04_B_a.gif","images/stimuli/spore_stims/complex_01_A_a.gif","","","","","3","complex_dissimilar","images/stimuli/spore_stims/complex_04_B_a.gif","middle","","","","",""
"","null","html-keyboard-response","74","347729","0.0-17.0-0.6","SS1613080031176","","","null","","","","","<p><img src= images/blank.png width =""200"" height = ""200"" style = ""float:right""></p><p><img src=images/blank.png width =""800"" height = ""200""></p>","","","","","","","","","","","",""
"","361.8649998679757","sequential-stimulus-presentation","75","348898","0.0-17.0-1.6","SS1613080031176","trial","","40","800","1161.8649998679757","images/stimuli/spore_stims/complex_04_B_a.gif","images/stimuli/spore_stims/complex_01_A_a.gif","","","","","3","complex_dissimilar","images/stimuli/spore_stims/complex_01_A_a.gif","left","","","","",""
"","null","html-keyboard-response","76","349930","0.0-17.0-0.7","SS1613080031176","","","null","","","","","<p><img src= images/blank.png width =""200"" height = ""200"" style = ""float:right""></p><p><img src=images/blank.png width =""800"" height = ""200""></p>","","","","","","","","","","","",""
"","190.56000001728535","sequential-stimulus-presentation","77","350927","0.0-17.0-1.7","SS1613080031176","trial","","40","800","990.5600000172853","images/stimuli/spore_stims/complex_04_B_a.gif","images/stimuli/spore_stims/complex_01_A_a.gif","","","","","3","complex_dissimilar","images/stimuli/spore_stims/complex_01_A_a.gif","left","","","","",""
"","1698.0349998921156","html-keyboard-response","78","352648","0.0-18.0","SS1613080031176","pref_question","","49","","","","","<video width ='960' height = '540' style='padding-top:8%' autoplay muted><source src='images/stimuli/wall_pref.mp4' type='video/mp4'></video>","1","left","25%","3","","","","","","","",""
"","429.0350000374019","sequential-stimulus-presentation","79","353897","0.0-19.0","SS1613080031176","pref_reveal","","40","800","1229.035000037402","null","null","","","","","3","","","","background","","","",""
"","null","html-keyboard-response","80","355185","0.0-20.0-0.0","SS1613080031176","","","null","","","","","<p><img src= images/blank.png width =""200"" height = ""200"" style = ""float:right""></p><p><img src=images/blank.png width =""800"" height = ""200""></p>","","","","","","","","","","","",""
"","187.92499974370003","sequential-stimulus-presentation","81","356193","0.0-20.0-1.0","SS1613080031176","trial","","40","800","987.9249997437","images/stimuli/spore_stims/complex_11_A_a.gif","images/stimuli/spore_stims/complex_20_A_d.gif","","","","","4","complex_dissimilar","images/stimuli/spore_stims/complex_20_A_d.gif","left","","","","",""
"","null","html-keyboard-response","82","357224","0.0-20.0-0.1","SS1613080031176","","","null","","","","","<p><img src= images/blank.png width =""200"" height = ""200"" style = ""float:right""></p><p><img src=images/blank.png width =""800"" height = ""200""></p>","","","","","","","","","","","",""
"","32.469999976456165","sequential-stimulus-presentation","83","358081","0.0-20.0-1.1","SS1613080031176","trial","","40","800","832.4699999764562","images/stimuli/spore_stims/complex_11_A_a.gif","images/stimuli/spore_stims/complex_20_A_d.gif","","","","","4","complex_dissimilar","images/stimuli/spore_stims/complex_20_A_d.gif","left","","","","",""
"","null","html-keyboard-response","84","359035","0.0-20.0-0.2","SS1613080031176","","","null","","","","","<p><img src= images/blank.png width =""200"" height = ""200"" style = ""float:right""></p><p><img src=images/blank.png width =""800"" height = ""200""></p>","","","","","","","","","","","",""
"","397.51500030979514","sequential-stimulus-presentation","85","360256","0.0-20.0-1.2","SS1613080031176","trial","","40","800","1197.5150003097951","images/stimuli/spore_stims/complex_11_A_a.gif","images/stimuli/spore_stims/complex_20_A_d.gif","","","","","4","complex_dissimilar","images/stimuli/spore_stims/complex_20_A_d.gif","left","","","","",""
"","null","html-keyboard-response","86","361235","0.0-20.0-0.3","SS1613080031176","","","null","","","","","<p><img src= images/blank.png width =""200"" height = ""200"" style = ""float:right""></p><p><img src=images/blank.png width =""800"" height = ""200""></p>","","","","","","","","","","","",""
"","186.4700000733137","sequential-stimulus-presentation","87","362228","0.0-20.0-1.3","SS1613080031176","trial","","40","800","986.4700000733137","images/stimuli/spore_stims/complex_11_A_a.gif","images/stimuli/spore_stims/complex_20_A_d.gif","","","","","4","complex_dissimilar","images/stimuli/spore_stims/complex_20_A_d.gif","left","","","","",""
"","null","html-keyboard-response","88","363264","0.0-20.0-0.4","SS1613080031176","","","null","","","","","<p><img src= images/blank.png width =""200"" height = ""200"" style = ""float:right""></p><p><img src=images/blank.png width =""800"" height = ""200""></p>","","","","","","","","","","","",""
"","240.58499978855252","sequential-stimulus-presentation","89","364313","0.0-20.0-1.4","SS1613080031176","trial","","40","800","1040.5849997885525","images/stimuli/spore_stims/complex_11_A_a.gif","images/stimuli/spore_stims/complex_20_A_d.gif","","","","","4","complex_dissimilar","images/stimuli/spore_stims/complex_20_A_d.gif","left","","","","",""
"","null","html-keyboard-response","90","365614","0.0-20.0-0.5","SS1613080031176","","","null","","","","","<p><img src= images/blank.png width =""200"" height = ""200"" style = ""float:right""></p><p><img src=images/blank.png width =""800"" height = ""200""></p>","","","","","","","","","","","",""
"","88.54500018060207","sequential-stimulus-presentation","91","366508","0.0-20.0-1.5","SS1613080031176","trial","","40","800","888.5450001806021","images/stimuli/spore_stims/complex_11_A_a.gif","images/stimuli/spore_stims/complex_20_A_d.gif","","","","","4","complex_dissimilar","images/stimuli/spore_stims/complex_20_A_d.gif","left","","","","",""
"","null","html-keyboard-response","92","367772","0.0-20.0-0.6","SS1613080031176","","","null","","","","","<p><img src= images/blank.png width =""200"" height = ""200"" style = ""float:right""></p><p><img src=images/blank.png width =""800"" height = ""200""></p>","","","","","","","","","","","",""
"","724.5950000360608","sequential-stimulus-presentation","93","369311","0.0-20.0-1.6","SS1613080031176","trial","","40","800","1524.5950000360608","images/stimuli/spore_stims/complex_11_A_a.gif","images/stimuli/spore_stims/complex_20_A_d.gif","","","","","4","complex_dissimilar","images/stimuli/spore_stims/complex_11_A_a.gif","middle","","","","",""
"","null","html-keyboard-response","94","370185","0.0-20.0-0.7","SS1613080031176","","","null","","","","","<p><img src= images/blank.png width =""200"" height = ""200"" style = ""float:right""></p><p><img src=images/blank.png width =""800"" height = ""200""></p>","","","","","","","","","","","",""
"","318.0350000038743","sequential-stimulus-presentation","95","371366","0.0-20.0-1.7","SS1613080031176","trial","","40","800","1118.0350000038743","images/stimuli/spore_stims/complex_11_A_a.gif","images/stimuli/spore_stims/complex_20_A_d.gif","","","","","4","complex_dissimilar","images/stimuli/spore_stims/complex_20_A_d.gif","left","","","","",""
"","1306.4250000752509","html-keyboard-response","96","372678","0.0-21.0","SS1613080031176","pref_question","","49","","","","","<video width ='960' height = '540' style='padding-top:8%' autoplay muted><source src='images/stimuli/wall_pref.mp4' type='video/mp4'></video>","1","left","25%","4","","","","","","","",""
"","271.84000005945563","sequential-stimulus-presentation","97","373770","0.0-22.0","SS1613080031176","pref_reveal","","40","800","1071.8400000594556","null","null","","","","","4","","","","background","","","",""
"","null","html-keyboard-response","98","374636","0.0-23.0-0.0","SS1613080031176","","","null","","","","","<p><img src= images/blank.png width =""200"" height = ""200"" style = ""float:right""></p><p><img src=images/blank.png width =""800"" height = ""200""></p>","","","","","","","","","","","",""
"","320.28000010177493","sequential-stimulus-presentation","99","375777","0.0-23.0-1.0","SS1613080031176","trial","","40","800","1120.280000101775","images/stimuli/spore_stims/simple_14_B_d.gif","images/stimuli/spore_stims/simple_14_A_d.gif","","","","","5","simple_similar","images/stimuli/spore_stims/simple_14_A_d.gif","left","","","","",""
"","null","html-keyboard-response","100","376867","0.0-23.0-0.1","SS1613080031176","","","null","","","","","<p><img src= images/blank.png width =""200"" height = ""200"" style = ""float:right""></p><p><img src=images/blank.png width =""800"" height = ""200""></p>","","","","","","","","","","","",""
"","1387.709999922663","sequential-stimulus-presentation","101","379068","0.0-23.0-1.1","SS1613080031176","trial","","40","800","2187.709999922663","images/stimuli/spore_stims/simple_14_B_d.gif","images/stimuli/spore_stims/simple_14_A_d.gif","","","","","5","simple_similar","images/stimuli/spore_stims/simple_14_A_d.gif","left","","","","",""
"","null","html-keyboard-response","102","380652","0.0-23.0-0.2","SS1613080031176","","","null","","","","","<p><img src= images/blank.png width =""200"" height = ""200"" style = ""float:right""></p><p><img src=images/blank.png width =""800"" height = ""200""></p>","","","","","","","","","","","",""
"","359.5049995929003","sequential-stimulus-presentation","103","381820","0.0-23.0-1.2","SS1613080031176","trial","","40","800","1159.5049995929003","images/stimuli/spore_stims/simple_14_B_d.gif","images/stimuli/spore_stims/simple_14_A_d.gif","","","","","5","simple_similar","images/stimuli/spore_stims/simple_14_A_d.gif","left","","","","",""
"","null","html-keyboard-response","104","382828","0.0-23.0-0.3","SS1613080031176","","","null","","","","","<p><img src= images/blank.png width =""200"" height = ""200"" style = ""float:right""></p><p><img src=images/blank.png width =""800"" height = ""200""></p>","","","","","","","","","","","",""
"","269.8749997653067","sequential-stimulus-presentation","105","383909","0.0-23.0-1.3","SS1613080031176","trial","","40","800","1069.8749997653067","images/stimuli/spore_stims/simple_14_B_d.gif","images/stimuli/spore_stims/simple_14_A_d.gif","","","","","5","simple_similar","images/stimuli/spore_stims/simple_14_A_d.gif","left","","","","",""
"","null","html-keyboard-response","106","384996","0.0-23.0-0.4","SS1613080031176","","","null","","","","","<p><img src= images/blank.png width =""200"" height = ""200"" style = ""float:right""></p><p><img src=images/blank.png width =""800"" height = ""200""></p>","","","","","","","","","","","",""
"","713.5599995963275","sequential-stimulus-presentation","107","386525","0.0-23.0-1.4","SS1613080031176","trial","","40","800","1513.5599995963275","images/stimuli/spore_stims/simple_14_B_d.gif","images/stimuli/spore_stims/simple_14_A_d.gif","","","","","5","simple_similar","images/stimuli/spore_stims/simple_14_B_d.gif","middle","","","","",""
"","null","html-keyboard-response","108","387384","0.0-23.0-0.5","SS1613080031176","","","null","","","","","<p><img src= images/blank.png width =""200"" height = ""200"" style = ""float:right""></p><p><img src=images/blank.png width =""800"" height = ""200""></p>","","","","","","","","","","","",""
"","328.35999969393015","sequential-stimulus-presentation","109","388561","0.0-23.0-1.5","SS1613080031176","trial","","40","800","1128.3599996939301","images/stimuli/spore_stims/simple_14_B_d.gif","images/stimuli/spore_stims/simple_14_A_d.gif","","","","","5","simple_similar","images/stimuli/spore_stims/simple_14_A_d.gif","left","","","","",""
"","null","html-keyboard-response","110","389375","0.0-23.0-0.6","SS1613080031176","","","null","","","","","<p><img src= images/blank.png width =""200"" height = ""200"" style = ""float:right""></p><p><img src=images/blank.png width =""800"" height = ""200""></p>","","","","","","","","","","","",""
"","269.8500002734363","sequential-stimulus-presentation","111","390468","0.0-23.0-1.6","SS1613080031176","trial","","40","800","1069.8500002734363","images/stimuli/spore_stims/simple_14_B_d.gif","images/stimuli/spore_stims/simple_14_A_d.gif","","","","","5","simple_similar","images/stimuli/spore_stims/simple_14_A_d.gif","left","","","","",""
"","null","html-keyboard-response","112","391680","0.0-23.0-0.7","SS1613080031176","","","null","","","","","<p><img src= images/blank.png width =""200"" height = ""200"" style = ""float:right""></p><p><img src=images/blank.png width =""800"" height = ""200""></p>","","","","","","","","","","","",""
"","227.99500031396747","sequential-stimulus-presentation","113","392730","0.0-23.0-1.7","SS1613080031176","trial","","40","800","1027.9950003139675","images/stimuli/spore_stims/simple_14_B_d.gif","images/stimuli/spore_stims/simple_14_A_d.gif","","","","","5","simple_similar","images/stimuli/spore_stims/simple_14_A_d.gif","left","","","","",""
"","1797.3650000058115","html-keyboard-response","114","394556","0.0-24.0","SS1613080031176","pref_question","","51","","","","","<video width ='960' height = '540' style='padding-top:8%' autoplay muted><source src='images/stimuli/wall_pref.mp4' type='video/mp4'></video>","3","right","66%","5","","","","","","","",""
"","527.8199999593198","sequential-stimulus-presentation","115","395921","0.0-25.0","SS1613080031176","pref_reveal","","40","800","1327.8199999593198","null","null","","","","","5","","","","novel","","","",""
"","null","html-keyboard-response","116","396845","0.0-26.0-0.0","SS1613080031176","","","null","","","","","<p><img src= images/blank.png width =""200"" height = ""200"" style = ""float:right""></p><p><img src=images/blank.png width =""800"" height = ""200""></p>","","","","","","","","","","","",""
"","385.52000001072884","sequential-stimulus-presentation","117","398049","0.0-26.0-1.0","SS1613080031176","trial","","40","800","1185.5200000107288","images/stimuli/spore_stims/simple_04_B_a.gif","images/stimuli/spore_stims/simple_16_A_b.gif","","","","","6","simple_dissimilar","images/stimuli/spore_stims/simple_16_A_b.gif","right","","","","",""
"","null","html-keyboard-response","118","399147","0.0-26.0-0.1","SS1613080031176","","","null","","","","","<p><img src= images/blank.png width =""200"" height = ""200"" style = ""float:right""></p><p><img src=images/blank.png width =""800"" height = ""200""></p>","","","","","","","","","","","",""
"","246.06500007212162","sequential-stimulus-presentation","119","400225","0.0-26.0-1.1","SS1613080031176","trial","","40","800","1046.0650000721216","images/stimuli/spore_stims/simple_04_B_a.gif","images/stimuli/spore_stims/simple_16_A_b.gif","","","","","6","simple_dissimilar","images/stimuli/spore_stims/simple_16_A_b.gif","right","","","","",""
"","null","html-keyboard-response","120","401502","0.0-26.0-0.2","SS1613080031176","","","null","","","","","<p><img src= images/blank.png width =""200"" height = ""200"" style = ""float:right""></p><p><img src=images/blank.png width =""800"" height = ""200""></p>","","","","","","","","","","","",""
"","417.11500007659197","sequential-stimulus-presentation","121","402733","0.0-26.0-1.2","SS1613080031176","trial","","40","800","1217.115000076592","images/stimuli/spore_stims/simple_04_B_a.gif","images/stimuli/spore_stims/simple_16_A_b.gif","","","","","6","simple_dissimilar","images/stimuli/spore_stims/simple_16_A_b.gif","right","","","","",""
"","null","html-keyboard-response","122","403830","0.0-26.0-0.3","SS1613080031176","","","null","","","","","<p><img src= images/blank.png width =""200"" height = ""200"" style = ""float:right""></p><p><img src=images/blank.png width =""800"" height = ""200""></p>","","","","","","","","","","","",""
"","115.89000001549721","sequential-stimulus-presentation","123","404763","0.0-26.0-1.3","SS1613080031176","trial","","40","800","915.8900000154972","images/stimuli/spore_stims/simple_04_B_a.gif","images/stimuli/spore_stims/simple_16_A_b.gif","","","","","6","simple_dissimilar","images/stimuli/spore_stims/simple_16_A_b.gif","right","","","","",""
"","null","html-keyboard-response","124","405935","0.0-26.0-0.4","SS1613080031176","","","null","","","","","<p><img src= images/blank.png width =""200"" height = ""200"" style = ""float:right""></p><p><img src=images/blank.png width =""800"" height = ""200""></p>","","","","","","","","","","","",""
"","1155.4250000044703","sequential-stimulus-presentation","125","407906","0.0-26.0-1.4","SS1613080031176","trial","","40","800","1955.4250000044703","images/stimuli/spore_stims/simple_04_B_a.gif","images/stimuli/spore_stims/simple_16_A_b.gif","","","","","6","simple_dissimilar","images/stimuli/spore_stims/simple_04_B_a.gif","left","","","","",""
"","null","html-keyboard-response","126","409074","0.0-26.0-0.5","SS1613080031176","","","null","","","","","<p><img src= images/blank.png width =""200"" height = ""200"" style = ""float:right""></p><p><img src=images/blank.png width =""800"" height = ""200""></p>","","","","","","","","","","","",""
"","552.6999998837709","sequential-stimulus-presentation","127","410432","0.0-26.0-1.5","SS1613080031176","trial","","40","800","1352.699999883771","images/stimuli/spore_stims/simple_04_B_a.gif","images/stimuli/spore_stims/simple_16_A_b.gif","","","","","6","simple_dissimilar","images/stimuli/spore_stims/simple_16_A_b.gif","right","","","","",""
"","null","html-keyboard-response","128","411429","0.0-26.0-0.6","SS1613080031176","","","null","","","","","<p><img src= images/blank.png width =""200"" height = ""200"" style = ""float:right""></p><p><img src=images/blank.png width =""800"" height = ""200""></p>","","","","","","","","","","","",""
"","304.2600001208484","sequential-stimulus-presentation","129","412544","0.0-26.0-1.6","SS1613080031176","trial","","40","800","1104.2600001208484","images/stimuli/spore_stims/simple_04_B_a.gif","images/stimuli/spore_stims/simple_16_A_b.gif","","","","","6","simple_dissimilar","images/stimuli/spore_stims/simple_16_A_b.gif","right","","","","",""
"","null","html-keyboard-response","130","413659","0.0-26.0-0.7","SS1613080031176","","","null","","","","","<p><img src= images/blank.png width =""200"" height = ""200"" style = ""float:right""></p><p><img src=images/blank.png width =""800"" height = ""200""></p>","","","","","","","","","","","",""
"","123.76499967649579","sequential-stimulus-presentation","131","414589","0.0-26.0-1.7","SS1613080031176","trial","","40","800","923.7649996764958","images/stimuli/spore_stims/simple_04_B_a.gif","images/stimuli/spore_stims/simple_16_A_b.gif","","","","","6","simple_dissimilar","images/stimuli/spore_stims/simple_16_A_b.gif","right","","","","",""
"","1561.1350000835955","html-keyboard-response","132","416390","0.0-27.0","SS1613080031176","pref_question","","50","","","","","<video width ='960' height = '540' style='padding-top:8%' autoplay muted><source src='images/stimuli/wall_pref.mp4' type='video/mp4'></video>","2","middle","45%","6","","","","","","","",""
"","433.0850001424551","sequential-stimulus-presentation","133","417639","0.0-28.0","SS1613080031176","pref_reveal","","40","800","1233.085000142455","null","null","","","","","6","","","","novel","","","",""
"","null","html-keyboard-response","134","418523","0.0-29.0-0.0","SS1613080031176","","","null","","","","","<p><img src= images/blank.png width =""200"" height = ""200"" style = ""float:right""></p><p><img src=images/blank.png width =""800"" height = ""200""></p>","","","","","","","","","","","",""
"","259.0000000782311","sequential-stimulus-presentation","135","419597","0.0-29.0-1.0","SS1613080031176","trial","","40","800","1059.000000078231","images/stimuli/spore_stims/complex_11_A_d.gif","images/stimuli/spore_stims/complex_11_B_d.gif","","","","","7","complex_similar","images/stimuli/spore_stims/complex_11_B_d.gif","middle","","","","",""
"","null","html-keyboard-response","136","420482","0.0-29.0-0.1","SS1613080031176","","","null","","","","","<p><img src= images/blank.png width =""200"" height = ""200"" style = ""float:right""></p><p><img src=images/blank.png width =""800"" height = ""200""></p>","","","","","","","","","","","",""
"","106.52999999001622","sequential-stimulus-presentation","137","421397","0.0-29.0-1.1","SS1613080031176","trial","","40","800","906.5299999900162","images/stimuli/spore_stims/complex_11_A_d.gif","images/stimuli/spore_stims/complex_11_B_d.gif","","","","","7","complex_similar","images/stimuli/spore_stims/complex_11_B_d.gif","middle","","","","",""
"","null","html-keyboard-response","138","422706","0.0-29.0-0.2","SS1613080031176","","","null","","","","","<p><img src= images/blank.png width =""200"" height = ""200"" style = ""float:right""></p><p><img src=images/blank.png width =""800"" height = ""200""></p>","","","","","","","","","","","",""
"","284.2999999411404","sequential-stimulus-presentation","139","423810","0.0-29.0-1.2","SS1613080031176","trial","","40","800","1084.2999999411404","images/stimuli/spore_stims/complex_11_A_d.gif","images/stimuli/spore_stims/complex_11_B_d.gif","","","","","7","complex_similar","images/stimuli/spore_stims/complex_11_B_d.gif","middle","","","","",""
"","null","html-keyboard-response","140","425030","0.0-29.0-0.3","SS1613080031176","","","null","","","","","<p><img src= images/blank.png width =""200"" height = ""200"" style = ""float:right""></p><p><img src=images/blank.png width =""800"" height = ""200""></p>","","","","","","","","","","","",""
"","589.0250001102686","sequential-stimulus-presentation","141","426588","0.0-29.0-1.3","SS1613080031176","trial","","40","800","1389.0250001102686","images/stimuli/spore_stims/complex_11_A_d.gif","images/stimuli/spore_stims/complex_11_B_d.gif","","","","","7","complex_similar","images/stimuli/spore_stims/complex_11_A_d.gif","right","","","","",""
"","null","html-keyboard-response","142","427805","0.0-29.0-0.4","SS1613080031176","","","null","","","","","<p><img src= images/blank.png width =""200"" height = ""200"" style = ""float:right""></p><p><img src=images/blank.png width =""800"" height = ""200""></p>","","","","","","","","","","","",""
"","476.0399996303022","sequential-stimulus-presentation","143","429095","0.0-29.0-1.4","SS1613080031176","trial","","40","800","1276.0399996303022","images/stimuli/spore_stims/complex_11_A_d.gif","images/stimuli/spore_stims/complex_11_B_d.gif","","","","","7","complex_similar","images/stimuli/spore_stims/complex_11_B_d.gif","middle","","","","",""
"","null","html-keyboard-response","144","430189","0.0-29.0-0.5","SS1613080031176","","","null","","","","","<p><img src= images/blank.png width =""200"" height = ""200"" style = ""float:right""></p><p><img src=images/blank.png width =""800"" height = ""200""></p>","","","","","","","","","","","",""
"","262.3350000940263","sequential-stimulus-presentation","145","431562","0.0-29.0-1.5","SS1613080031176","trial","","40","800","1062.3350000940263","images/stimuli/spore_stims/complex_11_A_d.gif","images/stimuli/spore_stims/complex_11_B_d.gif","","","","","7","complex_similar","images/stimuli/spore_stims/complex_11_B_d.gif","middle","","","","",""
"","null","html-keyboard-response","146","432409","0.0-29.0-0.6","SS1613080031176","","","null","","","","","<p><img src= images/blank.png width =""200"" height = ""200"" style = ""float:right""></p><p><img src=images/blank.png width =""800"" height = ""200""></p>","","","","","","","","","","","",""
"","318.7350002117455","sequential-stimulus-presentation","147","433540","0.0-29.0-1.6","SS1613080031176","trial","","40","800","1118.7350002117455","images/stimuli/spore_stims/complex_11_A_d.gif","images/stimuli/spore_stims/complex_11_B_d.gif","","","","","7","complex_similar","images/stimuli/spore_stims/complex_11_B_d.gif","middle","","","","",""
"","null","html-keyboard-response","148","434349","0.0-29.0-0.7","SS1613080031176","","","null","","","","","<p><img src= images/blank.png width =""200"" height = ""200"" style = ""float:right""></p><p><img src=images/blank.png width =""800"" height = ""200""></p>","","","","","","","","","","","",""
"","296.52500012889504","sequential-stimulus-presentation","149","435452","0.0-29.0-1.7","SS1613080031176","trial","","40","800","1096.525000128895","images/stimuli/spore_stims/complex_11_A_d.gif","images/stimuli/spore_stims/complex_11_B_d.gif","","","","","7","complex_similar","images/stimuli/spore_stims/complex_11_B_d.gif","middle","","","","",""
"","1466.460000257939","html-keyboard-response","150","436932","0.0-30.0","SS1613080031176","pref_question","","49","","","","","<video width ='960' height = '540' style='padding-top:8%' autoplay muted><source src='images/stimuli/wall_pref.mp4' type='video/mp4'></video>","1","left","25%","7","","","","","","","",""
"","410.0300003774464","sequential-stimulus-presentation","151","438152","0.0-31.0","SS1613080031176","pref_reveal","","40","800","1210.0300003774464","null","null","","","","","7","","","","novel","","","",""
"","null","html-keyboard-response","152","439166","0.0-32.0-0.0","SS1613080031176","","","null","","","","","<p><img src= images/blank.png width =""200"" height = ""200"" style = ""float:right""></p><p><img src=images/blank.png width =""800"" height = ""200""></p>","","","","","","","","","","","",""
"","1020.3800001181662","sequential-stimulus-presentation","153","441005","0.0-32.0-1.0","SS1613080031176","trial","","40","800","1820.3800001181662","images/stimuli/spore_stims/complex_05_A_d.gif","images/stimuli/spore_stims/complex_05_B_d.gif","","","","","8","complex_similar","images/stimuli/spore_stims/complex_05_B_d.gif","right","","","","",""
"","null","html-keyboard-response","154","442226","0.0-32.0-0.1","SS1613080031176","","","null","","","","","<p><img src= images/blank.png width =""200"" height = ""200"" style = ""float:right""></p><p><img src=images/blank.png width =""800"" height = ""200""></p>","","","","","","","","","","","",""
"","231.13000020384789","sequential-stimulus-presentation","155","443277","0.0-32.0-1.1","SS1613080031176","trial","","40","800","1031.1300002038479","images/stimuli/spore_stims/complex_05_A_d.gif","images/stimuli/spore_stims/complex_05_B_d.gif","","","","","8","complex_similar","images/stimuli/spore_stims/complex_05_B_d.gif","right","","","","",""
"","null","html-keyboard-response","156","444587","0.0-32.0-0.2","SS1613080031176","","","null","","","","","<p><img src= images/blank.png width =""200"" height = ""200"" style = ""float:right""></p><p><img src=images/blank.png width =""800"" height = ""200""></p>","","","","","","","","","","","",""
"","158.6799998767674","sequential-stimulus-presentation","157","445647","0.0-32.0-1.2","SS1613080031176","trial","","40","800","958.6799998767674","images/stimuli/spore_stims/complex_05_A_d.gif","images/stimuli/spore_stims/complex_05_B_d.gif","","","","","8","complex_similar","images/stimuli/spore_stims/complex_05_B_d.gif","right","","","","",""
"","null","html-keyboard-response","158","446803","0.0-32.0-0.3","SS1613080031176","","","null","","","","","<p><img src= images/blank.png width =""200"" height = ""200"" style = ""float:right""></p><p><img src=images/blank.png width =""800"" height = ""200""></p>","","","","","","","","","","","",""
"","394.3750001490116","sequential-stimulus-presentation","159","448216","0.0-32.0-1.3","SS1613080031176","trial","","40","800","1194.3750001490116","images/stimuli/spore_stims/complex_05_A_d.gif","images/stimuli/spore_stims/complex_05_B_d.gif","","","","","8","complex_similar","images/stimuli/spore_stims/complex_05_B_d.gif","right","","","","",""
"","null","html-keyboard-response","160","449356","0.0-32.0-0.4","SS1613080031176","","","null","","","","","<p><img src= images/blank.png width =""200"" height = ""200"" style = ""float:right""></p><p><img src=images/blank.png width =""800"" height = ""200""></p>","","","","","","","","","","","",""
"","85.74000000953674","sequential-stimulus-presentation","161","450262","0.0-32.0-1.4","SS1613080031176","trial","","40","800","885.7400000095367","images/stimuli/spore_stims/complex_05_A_d.gif","images/stimuli/spore_stims/complex_05_B_d.gif","","","","","8","complex_similar","images/stimuli/spore_stims/complex_05_B_d.gif","right","","","","",""
"","null","html-keyboard-response","162","451216","0.0-32.0-0.5","SS1613080031176","","","null","","","","","<p><img src= images/blank.png width =""200"" height = ""200"" style = ""float:right""></p><p><img src=images/blank.png width =""800"" height = ""200""></p>","","","","","","","","","","","",""
"","216.82999981567264","sequential-stimulus-presentation","163","452243","0.0-32.0-1.5","SS1613080031176","trial","","40","800","1016.8299998156726","images/stimuli/spore_stims/complex_05_A_d.gif","images/stimuli/spore_stims/complex_05_B_d.gif","","","","","8","complex_similar","images/stimuli/spore_stims/complex_05_B_d.gif","right","","","","",""
"","null","html-keyboard-response","164","453056","0.0-32.0-0.6","SS1613080031176","","","null","","","","","<p><img src= images/blank.png width =""200"" height = ""200"" style = ""float:right""></p><p><img src=images/blank.png width =""800"" height = ""200""></p>","","","","","","","","","","","",""
"","790.4649996198714","sequential-stimulus-presentation","165","454663","0.0-32.0-1.6","SS1613080031176","trial","","40","800","1590.4649996198714","images/stimuli/spore_stims/complex_05_A_d.gif","images/stimuli/spore_stims/complex_05_B_d.gif","","","","","8","complex_similar","images/stimuli/spore_stims/complex_05_A_d.gif","left","","","","",""
"","null","html-keyboard-response","166","455479","0.0-32.0-0.7","SS1613080031176","","","null","","","","","<p><img src= images/blank.png width =""200"" height = ""200"" style = ""float:right""></p><p><img src=images/blank.png width =""800"" height = ""200""></p>","","","","","","","","","","","",""
"","790.430000051856","sequential-stimulus-presentation","167","457153","0.0-32.0-1.7","SS1613080031176","trial","","40","800","1590.430000051856","images/stimuli/spore_stims/complex_05_A_d.gif","images/stimuli/spore_stims/complex_05_B_d.gif","","","","","8","complex_similar","images/stimuli/spore_stims/complex_05_B_d.gif","right","","","","",""
"","1276.6900002025068","html-keyboard-response","168","458437","0.0-33.0","SS1613080031176","pref_question","","50","","","","","<video width ='960' height = '540' style='padding-top:8%' autoplay muted><source src='images/stimuli/wall_pref.mp4' type='video/mp4'></video>","2","middle","45%","8","","","","","","","",""
"","303.870000410825","sequential-stimulus-presentation","169","459557","0.0-34.0","SS1613080031176","pref_reveal","","40","800","1103.870000410825","null","null","","","","","8","","","","novel","","","",""
"","null","html-keyboard-response","170","460629","0.0-35.0-0.0","SS1613080031176","","","null","","","","","<p><img src= images/blank.png width =""200"" height = ""200"" style = ""float:right""></p><p><img src=images/blank.png width =""800"" height = ""200""></p>","","","","","","","","","","","",""
"","394.9850001372397","sequential-stimulus-presentation","171","461844","0.0-35.0-1.0","SS1613080031176","trial","","40","800","1194.9850001372397","images/stimuli/spore_stims/simple_20_A_b.gif","images/stimuli/spore_stims/simple_20_B_b.gif","","","","","9","simple_similar","images/stimuli/spore_stims/simple_20_B_b.gif","right","","","","",""
"","null","html-keyboard-response","172","462677","0.0-35.0-0.1","SS1613080031176","","","null","","","","","<p><img src= images/blank.png width =""200"" height = ""200"" style = ""float:right""></p><p><img src=images/blank.png width =""800"" height = ""200""></p>","","","","","","","","","","","",""
"","226.45499976351857","sequential-stimulus-presentation","173","463712","0.0-35.0-1.1","SS1613080031176","trial","","40","800","1026.4549997635186","images/stimuli/spore_stims/simple_20_A_b.gif","images/stimuli/spore_stims/simple_20_B_b.gif","","","","","9","simple_similar","images/stimuli/spore_stims/simple_20_B_b.gif","right","","","","",""
"","null","html-keyboard-response","174","464770","0.0-35.0-0.2","SS1613080031176","","","null","","","","","<p><img src= images/blank.png width =""200"" height = ""200"" style = ""float:right""></p><p><img src=images/blank.png width =""800"" height = ""200""></p>","","","","","","","","","","","",""
"","203.05499993264675","sequential-stimulus-presentation","175","465780","0.0-35.0-1.2","SS1613080031176","trial","","40","800","1003.0549999326468","images/stimuli/spore_stims/simple_20_A_b.gif","images/stimuli/spore_stims/simple_20_B_b.gif","","","","","9","simple_similar","images/stimuli/spore_stims/simple_20_B_b.gif","right","","","","",""
"","null","html-keyboard-response","176","466982","0.0-35.0-0.3","SS1613080031176","","","null","","","","","<p><img src= images/blank.png width =""200"" height = ""200"" style = ""float:right""></p><p><img src=images/blank.png width =""800"" height = ""200""></p>","","","","","","","","","","","",""
"","262.9749998450279","sequential-stimulus-presentation","177","468055","0.0-35.0-1.3","SS1613080031176","trial","","40","800","1062.974999845028","images/stimuli/spore_stims/simple_20_A_b.gif","images/stimuli/spore_stims/simple_20_B_b.gif","","","","","9","simple_similar","images/stimuli/spore_stims/simple_20_B_b.gif","right","","","","",""
"","null","html-keyboard-response","178","469123","0.0-35.0-0.4","SS1613080031176","","","null","","","","","<p><img src= images/blank.png width =""200"" height = ""200"" style = ""float:right""></p><p><img src=images/blank.png width =""800"" height = ""200""></p>","","","","","","","","","","","",""
"","465.1949997060001","sequential-stimulus-presentation","179","470418","0.0-35.0-1.4","SS1613080031176","trial","","40","800","1265.194999706","images/stimuli/spore_stims/simple_20_A_b.gif","images/stimuli/spore_stims/simple_20_B_b.gif","","","","","9","simple_similar","images/stimuli/spore_stims/simple_20_A_b.gif","middle","","","","",""
"","null","html-keyboard-response","180","471707","0.0-35.0-0.5","SS1613080031176","","","null","","","","","<p><img src= images/blank.png width =""200"" height = ""200"" style = ""float:right""></p><p><img src=images/blank.png width =""800"" height = ""200""></p>","","","","","","","","","","","",""
"","329.12000035867095","sequential-stimulus-presentation","181","473032","0.0-35.0-1.5","SS1613080031176","trial","","40","800","1129.120000358671","images/stimuli/spore_stims/simple_20_A_b.gif","images/stimuli/spore_stims/simple_20_B_b.gif","","","","","9","simple_similar","images/stimuli/spore_stims/simple_20_B_b.gif","right","","","","",""
"","null","html-keyboard-response","182","474181","0.0-35.0-0.6","SS1613080031176","","","null","","","","","<p><img src= images/blank.png width =""200"" height = ""200"" style = ""float:right""></p><p><img src=images/blank.png width =""800"" height = ""200""></p>","","","","","","","","","","","",""
"","243.78499994054437","sequential-stimulus-presentation","183","475242","0.0-35.0-1.6","SS1613080031176","trial","","40","800","1043.7849999405444","images/stimuli/spore_stims/simple_20_A_b.gif","images/stimuli/spore_stims/simple_20_B_b.gif","","","","","9","simple_similar","images/stimuli/spore_stims/simple_20_B_b.gif","right","","","","",""
"","null","html-keyboard-response","184","476264","0.0-35.0-0.7","SS1613080031176","","","null","","","","","<p><img src= images/blank.png width =""200"" height = ""200"" style = ""float:right""></p><p><img src=images/blank.png width =""800"" height = ""200""></p>","","","","","","","","","","","",""
"","208.9949999935925","sequential-stimulus-presentation","185","477282","0.0-35.0-1.7","SS1613080031176","trial","","40","800","1008.9949999935925","images/stimuli/spore_stims/simple_20_A_b.gif","images/stimuli/spore_stims/simple_20_B_b.gif","","","","","9","simple_similar","images/stimuli/spore_stims/simple_20_B_b.gif","right","","","","",""
"","1285.660000052303","html-keyboard-response","186","478594","0.0-36.0","SS1613080031176","pref_question","","50","","","","","<video width ='960' height = '540' style='padding-top:8%' autoplay muted><source src='images/stimuli/wall_pref.mp4' type='video/mp4'></video>","2","middle","45%","9","","","","","","","",""
"","211.30500035360456","sequential-stimulus-presentation","187","479625","0.0-37.0","SS1613080031176","pref_reveal","","40","800","1011.3050003536046","null","null","","","","","9","","","","deviant","","","",""
"","null","html-keyboard-response","188","480454","0.0-38.0-0.0","SS1613080031176","","","null","","","","","<p><img src= images/blank.png width =""200"" height = ""200"" style = ""float:right""></p><p><img src=images/blank.png width =""800"" height = ""200""></p>","","","","","","","","","","","",""
"","165.99499993026257","sequential-stimulus-presentation","189","481447","0.0-38.0-1.0","SS1613080031176","trial","","40","800","965.9949999302626","images/stimuli/spore_stims/simple_10_B_c.gif","images/stimuli/spore_stims/simple_10_A_c.gif","","","","","10","simple_similar","images/stimuli/spore_stims/simple_10_A_c.gif","middle","","","","",""
"","null","html-keyboard-response","190","482599","0.0-38.0-0.1","SS1613080031176","","","null","","","","","<p><img src= images/blank.png width =""200"" height = ""200"" style = ""float:right""></p><p><img src=images/blank.png width =""800"" height = ""200""></p>","","","","","","","","","","","",""
"","41.070000268518925","sequential-stimulus-presentation","191","483454","0.0-38.0-1.1","SS1613080031176","trial","","40","800","841.0700002685189","images/stimuli/spore_stims/simple_10_B_c.gif","images/stimuli/spore_stims/simple_10_A_c.gif","","","","","10","simple_similar","images/stimuli/spore_stims/simple_10_A_c.gif","middle","","","","",""
"","null","html-keyboard-response","192","484726","0.0-38.0-0.2","SS1613080031176","","","null","","","","","<p><img src= images/blank.png width =""200"" height = ""200"" style = ""float:right""></p><p><img src=images/blank.png width =""800"" height = ""200""></p>","","","","","","","","","","","",""
"","663.1299997679889","sequential-stimulus-presentation","193","486209","0.0-38.0-1.2","SS1613080031176","trial","","40","800","1463.129999767989","images/stimuli/spore_stims/simple_10_B_c.gif","images/stimuli/spore_stims/simple_10_A_c.gif","","","","","10","simple_similar","images/stimuli/spore_stims/simple_10_B_c.gif","right","","","","",""
"","null","html-keyboard-response","194","487401","0.0-38.0-0.3","SS1613080031176","","","null","","","","","<p><img src= images/blank.png width =""200"" height = ""200"" style = ""float:right""></p><p><img src=images/blank.png width =""800"" height = ""200""></p>","","","","","","","","","","","",""
"","303.6149996332824","sequential-stimulus-presentation","195","488515","0.0-38.0-1.3","SS1613080031176","trial","","40","800","1103.6149996332824","images/stimuli/spore_stims/simple_10_B_c.gif","images/stimuli/spore_stims/simple_10_A_c.gif","","","","","10","simple_similar","images/stimuli/spore_stims/simple_10_A_c.gif","middle","","","","",""
"","null","html-keyboard-response","196","489815","0.0-38.0-0.4","SS1613080031176","","","null","","","","","<p><img src= images/blank.png width =""200"" height = ""200"" style = ""float:right""></p><p><img src=images/blank.png width =""800"" height = ""200""></p>","","","","","","","","","","","",""
"","179.74499985575676","sequential-stimulus-presentation","197","490804","0.0-38.0-1.4","SS1613080031176","trial","","40","800","979.7449998557568","images/stimuli/spore_stims/simple_10_B_c.gif","images/stimuli/spore_stims/simple_10_A_c.gif","","","","","10","simple_similar","images/stimuli/spore_stims/simple_10_A_c.gif","middle","","","","",""
"","null","html-keyboard-response","198","492111","0.0-38.0-0.5","SS1613080031176","","","null","","","","","<p><img src= images/blank.png width =""200"" height = ""200"" style = ""float:right""></p><p><img src=images/blank.png width =""800"" height = ""200""></p>","","","","","","","","","","","",""
"","346.64000011980534","sequential-stimulus-presentation","199","493279","0.0-38.0-1.5","SS1613080031176","trial","","40","800","1146.6400001198053","images/stimuli/spore_stims/simple_10_B_c.gif","images/stimuli/spore_stims/simple_10_A_c.gif","","","","","10","simple_similar","images/stimuli/spore_stims/simple_10_A_c.gif","middle","","","","",""
"","null","html-keyboard-response","200","494407","0.0-38.0-0.6","SS1613080031176","","","null","","","","","<p><img src= images/blank.png width =""200"" height = ""200"" style = ""float:right""></p><p><img src=images/blank.png width =""800"" height = ""200""></p>","","","","","","","","","","","",""
"","916.8099998496473","sequential-stimulus-presentation","201","496145","0.0-38.0-1.6","SS1613080031176","trial","","40","800","1716.8099998496473","images/stimuli/spore_stims/simple_10_B_c.gif","images/stimuli/spore_stims/simple_10_A_c.gif","","","","","10","simple_similar","images/stimuli/spore_stims/simple_10_A_c.gif","middle","","","","",""
"","null","html-keyboard-response","202","497268","0.0-38.0-0.7","SS1613080031176","","","null","","","","","<p><img src= images/blank.png width =""200"" height = ""200"" style = ""float:right""></p><p><img src=images/blank.png width =""800"" height = ""200""></p>","","","","","","","","","","","",""
"","28.039999771863222","sequential-stimulus-presentation","203","498146","0.0-38.0-1.7","SS1613080031176","trial","","40","800","828.0399997718632","images/stimuli/spore_stims/simple_10_B_c.gif","images/stimuli/spore_stims/simple_10_A_c.gif","","","","","10","simple_similar","images/stimuli/spore_stims/simple_10_A_c.gif","middle","","","","",""
"","1885.8199999667704","html-keyboard-response","204","500040","0.0-39.0","SS1613080031176","pref_question","","50","","","","","<video width ='960' height = '540' style='padding-top:8%' autoplay muted><source src='images/stimuli/wall_pref.mp4' type='video/mp4'></video>","2","middle","45%","10","","","","","","","",""
"","676.3150002807379","sequential-stimulus-presentation","205","501532","0.0-40.0","SS1613080031176","pref_reveal","","40","800","1476.3150002807379","null","null","","","","","10","","","","background","","","",""
"","null","html-keyboard-response","206","502487","0.0-41.0-0.0","SS1613080031176","","","null","","","","","<p><img src= images/blank.png width =""200"" height = ""200"" style = ""float:right""></p><p><img src=images/blank.png width =""800"" height = ""200""></p>","","","","","","","","","","","",""
"","34.405000042170286","sequential-stimulus-presentation","207","503367","0.0-41.0-1.0","SS1613080031176","trial","","40","800","834.4050000421703","images/stimuli/spore_stims/complex_02_A_a.gif","images/stimuli/spore_stims/complex_02_B_a.gif","","","","","11","complex_similar","images/stimuli/spore_stims/complex_02_B_a.gif","left","","","","",""
"","null","html-keyboard-response","208","504441","0.0-41.0-0.1","SS1613080031176","","","null","","","","","<p><img src= images/blank.png width =""200"" height = ""200"" style = ""float:right""></p><p><img src=images/blank.png width =""800"" height = ""200""></p>","","","","","","","","","","","",""
"","69.50999982655048","sequential-stimulus-presentation","209","505354","0.0-41.0-1.1","SS1613080031176","trial","","40","800","869.5099998265505","images/stimuli/spore_stims/complex_02_A_a.gif","images/stimuli/spore_stims/complex_02_B_a.gif","","","","","11","complex_similar","images/stimuli/spore_stims/complex_02_B_a.gif","left","","","","",""
"","null","html-keyboard-response","210","506589","0.0-41.0-0.2","SS1613080031176","","","null","","","","","<p><img src= images/blank.png width =""200"" height = ""200"" style = ""float:right""></p><p><img src=images/blank.png width =""800"" height = ""200""></p>","","","","","","","","","","","",""
"","1084.0399996377528","sequential-stimulus-presentation","211","508489","0.0-41.0-1.2","SS1613080031176","trial","","40","800","1884.0399996377528","images/stimuli/spore_stims/complex_02_A_a.gif","images/stimuli/spore_stims/complex_02_B_a.gif","","","","","11","complex_similar","images/stimuli/spore_stims/complex_02_B_a.gif","left","","","","",""
"","null","html-keyboard-response","212","509467","0.0-41.0-0.3","SS1613080031176","","","null","","","","","<p><img src= images/blank.png width =""200"" height = ""200"" style = ""float:right""></p><p><img src=images/blank.png width =""800"" height = ""200""></p>","","","","","","","","","","","",""
"","222.1049997024238","sequential-stimulus-presentation","213","510514","0.0-41.0-1.3","SS1613080031176","trial","","40","800","1022.1049997024238","images/stimuli/spore_stims/complex_02_A_a.gif","images/stimuli/spore_stims/complex_02_B_a.gif","","","","","11","complex_similar","images/stimuli/spore_stims/complex_02_A_a.gif","right","","","","",""
"","null","html-keyboard-response","214","511420","0.0-41.0-0.4","SS1613080031176","","","null","","","","","<p><img src= images/blank.png width =""200"" height = ""200"" style = ""float:right""></p><p><img src=images/blank.png width =""800"" height = ""200""></p>","","","","","","","","","","","",""
"","421.7700003646314","sequential-stimulus-presentation","215","512679","0.0-41.0-1.4","SS1613080031176","trial","","40","800","1221.7700003646314","images/stimuli/spore_stims/complex_02_A_a.gif","images/stimuli/spore_stims/complex_02_B_a.gif","","","","","11","complex_similar","images/stimuli/spore_stims/complex_02_B_a.gif","left","","","","",""
"","null","html-keyboard-response","216","513588","0.0-41.0-0.5","SS1613080031176","","","null","","","","","<p><img src= images/blank.png width =""200"" height = ""200"" style = ""float:right""></p><p><img src=images/blank.png width =""800"" height = ""200""></p>","","","","","","","","","","","",""
"","494.2150004208088","sequential-stimulus-presentation","217","514893","0.0-41.0-1.5","SS1613080031176","trial","","40","800","1294.2150004208088","images/stimuli/spore_stims/complex_02_A_a.gif","images/stimuli/spore_stims/complex_02_B_a.gif","","","","","11","complex_similar","images/stimuli/spore_stims/complex_02_B_a.gif","left","","","","",""
"","null","html-keyboard-response","218","515878","0.0-41.0-0.6","SS1613080031176","","","null","","","","","<p><img src= images/blank.png width =""200"" height = ""200"" style = ""float:right""></p><p><img src=images/blank.png width =""800"" height = ""200""></p>","","","","","","","","","","","",""
"","667.5599999725819","sequential-stimulus-presentation","219","517373","0.0-41.0-1.6","SS1613080031176","trial","","40","800","1467.5599999725819","images/stimuli/spore_stims/complex_02_A_a.gif","images/stimuli/spore_stims/complex_02_B_a.gif","","","","","11","complex_similar","images/stimuli/spore_stims/complex_02_B_a.gif","left","","","","",""
"","null","html-keyboard-response","220","518492","0.0-41.0-0.7","SS1613080031176","","","null","","","","","<p><img src= images/blank.png width =""200"" height = ""200"" style = ""float:right""></p><p><img src=images/blank.png width =""800"" height = ""200""></p>","","","","","","","","","","","",""
"","341.47500013932586","sequential-stimulus-presentation","221","519649","0.0-41.0-1.7","SS1613080031176","trial","","40","800","1141.4750001393259","images/stimuli/spore_stims/complex_02_A_a.gif","images/stimuli/spore_stims/complex_02_B_a.gif","","","","","11","complex_similar","images/stimuli/spore_stims/complex_02_B_a.gif","left","","","","",""
"","2232.2300001978874","html-keyboard-response","222","521890","0.0-42.0","SS1613080031176","pref_question","","49","","","","","<video width ='960' height = '540' style='padding-top:8%' autoplay muted><source src='images/stimuli/wall_pref.mp4' type='video/mp4'></video>","1","left","25%","11","","","","","","","",""
"","717.7150002680719","sequential-stimulus-presentation","223","523423","0.0-43.0","SS1613080031176","pref_reveal","","40","800","1517.715000268072","null","null","","","","","11","","","","background","","","",""
"","null","html-keyboard-response","224","524726","0.0-44.0-0.0","SS1613080031176","","","null","","","","","<p><img src= images/blank.png width =""200"" height = ""200"" style = ""float:right""></p><p><img src=images/blank.png width =""800"" height = ""200""></p>","","","","","","","","","","","",""
"","89.06000014394522","sequential-stimulus-presentation","225","525634","0.0-44.0-1.0","SS1613080031176","trial","","40","800","889.0600001439452","images/stimuli/spore_stims/complex_16_A_d.gif","images/stimuli/spore_stims/complex_02_A_b.gif","","","","","12","complex_dissimilar","images/stimuli/spore_stims/complex_02_A_b.gif","middle","","","","",""
"","null","html-keyboard-response","226","526542","0.0-44.0-0.1","SS1613080031176","","","null","","","","","<p><img src= images/blank.png width =""200"" height = ""200"" style = ""float:right""></p><p><img src=images/blank.png width =""800"" height = ""200""></p>","","","","","","","","","","","",""
"","81.85499999672174","sequential-stimulus-presentation","227","527447","0.0-44.0-1.1","SS1613080031176","trial","","40","800","881.8549999967217","images/stimuli/spore_stims/complex_16_A_d.gif","images/stimuli/spore_stims/complex_02_A_b.gif","","","","","12","complex_dissimilar","images/stimuli/spore_stims/complex_02_A_b.gif","middle","","","","",""
"","null","html-keyboard-response","228","528641","0.0-44.0-0.2","SS1613080031176","","","null","","","","","<p><img src= images/blank.png width =""200"" height = ""200"" style = ""float:right""></p><p><img src=images/blank.png width =""800"" height = ""200""></p>","","","","","","","","","","","",""
"","116.69000005349517","sequential-stimulus-presentation","229","529583","0.0-44.0-1.2","SS1613080031176","trial","","40","800","916.6900000534952","images/stimuli/spore_stims/complex_16_A_d.gif","images/stimuli/spore_stims/complex_02_A_b.gif","","","","","12","complex_dissimilar","images/stimuli/spore_stims/complex_16_A_d.gif","right","","","","",""
"","null","html-keyboard-response","230","530601","0.0-44.0-0.3","SS1613080031176","","","null","","","","","<p><img src= images/blank.png width =""200"" height = ""200"" style = ""float:right""></p><p><img src=images/blank.png width =""800"" height = ""200""></p>","","","","","","","","","","","",""
"","332.02499989420176","sequential-stimulus-presentation","231","531977","0.0-44.0-1.3","SS1613080031176","trial","","40","800","1132.0249998942018","images/stimuli/spore_stims/complex_16_A_d.gif","images/stimuli/spore_stims/complex_02_A_b.gif","","","","","12","complex_dissimilar","images/stimuli/spore_stims/complex_02_A_b.gif","middle","","","","",""
"","null","html-keyboard-response","232","533061","0.0-44.0-0.4","SS1613080031176","","","null","","","","","<p><img src= images/blank.png width =""200"" height = ""200"" style = ""float:right""></p><p><img src=images/blank.png width =""800"" height = ""200""></p>","","","","","","","","","","","",""
"","405.90499993413687","sequential-stimulus-presentation","233","534279","0.0-44.0-1.4","SS1613080031176","trial","","40","800","1205.9049999341369","images/stimuli/spore_stims/complex_16_A_d.gif","images/stimuli/spore_stims/complex_02_A_b.gif","","","","","12","complex_dissimilar","images/stimuli/spore_stims/complex_02_A_b.gif","middle","","","","",""
"","null","html-keyboard-response","234","535586","0.0-44.0-0.5","SS1613080031176","","","null","","","","","<p><img src= images/blank.png width =""200"" height = ""200"" style = ""float:right""></p><p><img src=images/blank.png width =""800"" height = ""200""></p>","","","","","","","","","","","",""
"","417.91500011458993","sequential-stimulus-presentation","235","536814","0.0-44.0-1.5","SS1613080031176","trial","","40","800","1217.91500011459","images/stimuli/spore_stims/complex_16_A_d.gif","images/stimuli/spore_stims/complex_02_A_b.gif","","","","","12","complex_dissimilar","images/stimuli/spore_stims/complex_02_A_b.gif","middle","","","","",""
"","null","html-keyboard-response","236","537924","0.0-44.0-0.6","SS1613080031176","","","null","","","","","<p><img src= images/blank.png width =""200"" height = ""200"" style = ""float:right""></p><p><img src=images/blank.png width =""800"" height = ""200""></p>","","","","","","","","","","","",""
"","329.6599998138845","sequential-stimulus-presentation","237","539080","0.0-44.0-1.6","SS1613080031176","trial","","40","800","1129.6599998138845","images/stimuli/spore_stims/complex_16_A_d.gif","images/stimuli/spore_stims/complex_02_A_b.gif","","","","","12","complex_dissimilar","images/stimuli/spore_stims/complex_02_A_b.gif","middle","","","","",""
"","null","html-keyboard-response","238","540185","0.0-44.0-0.7","SS1613080031176","","","null","","","","","<p><img src= images/blank.png width =""200"" height = ""200"" style = ""float:right""></p><p><img src=images/blank.png width =""800"" height = ""200""></p>","","","","","","","","","","","",""
"","364.9699999950826","sequential-stimulus-presentation","239","541357","0.0-44.0-1.7","SS1613080031176","trial","","40","800","1164.9699999950826","images/stimuli/spore_stims/complex_16_A_d.gif","images/stimuli/spore_stims/complex_02_A_b.gif","","","","","12","complex_dissimilar","images/stimuli/spore_stims/complex_02_A_b.gif","middle","","","","",""
"","1761.9699998758733","html-keyboard-response","240","543125","0.0-45.0","SS1613080031176","pref_question","","49","","","","","<video width ='960' height = '540' style='padding-top:8%' autoplay muted><source src='images/stimuli/wall_pref.mp4' type='video/mp4'></video>","1","left","25%","12","","","","","","","",""
"","988.2799996994436","sequential-stimulus-presentation","241","544941","0.0-46.0","SS1613080031176","pref_reveal","","40","800","1788.2799996994436","null","null","","","","","12","","","","novel","","","",""
"","null","html-keyboard-response","242","545930","0.0-47.0-0.0","SS1613080031176","","","null","","","","","<p><img src= images/blank.png width =""200"" height = ""200"" style = ""float:right""></p><p><img src=images/blank.png width =""800"" height = ""200""></p>","","","","","","","","","","","",""
"","651.7299995757639","sequential-stimulus-presentation","243","547395","0.0-47.0-1.0","SS1613080031176","trial","","40","800","1451.729999575764","images/stimuli/spore_stims/complex_19_B_d.gif","images/stimuli/spore_stims/complex_16_B_a.gif","","","","","13","complex_dissimilar","images/stimuli/spore_stims/complex_16_B_a.gif","left","","","","",""
"","null","html-keyboard-response","244","548589","0.0-47.0-0.1","SS1613080031176","","","null","","","","","<p><img src= images/blank.png width =""200"" height = ""200"" style = ""float:right""></p><p><img src=images/blank.png width =""800"" height = ""200""></p>","","","","","","","","","","","",""
"","294.14999997243285","sequential-stimulus-presentation","245","549698","0.0-47.0-1.1","SS1613080031176","trial","","40","800","1094.1499999724329","images/stimuli/spore_stims/complex_19_B_d.gif","images/stimuli/spore_stims/complex_16_B_a.gif","","","","","13","complex_dissimilar","images/stimuli/spore_stims/complex_16_B_a.gif","left","","","","",""
"","null","html-keyboard-response","246","550798","0.0-47.0-0.2","SS1613080031176","","","null","","","","","<p><img src= images/blank.png width =""200"" height = ""200"" style = ""float:right""></p><p><img src=images/blank.png width =""800"" height = ""200""></p>","","","","","","","","","","","",""
"","326.2600000016391","sequential-stimulus-presentation","247","551935","0.0-47.0-1.2","SS1613080031176","trial","","40","800","1126.2600000016391","images/stimuli/spore_stims/complex_19_B_d.gif","images/stimuli/spore_stims/complex_16_B_a.gif","","","","","13","complex_dissimilar","images/stimuli/spore_stims/complex_16_B_a.gif","left","","","","",""
"","null","html-keyboard-response","248","552799","0.0-47.0-0.3","SS1613080031176","","","null","","","","","<p><img src= images/blank.png width =""200"" height = ""200"" style = ""float:right""></p><p><img src=images/blank.png width =""800"" height = ""200""></p>","","","","","","","","","","","",""
"","324.56499990075827","sequential-stimulus-presentation","249","553941","0.0-47.0-1.3","SS1613080031176","trial","","40","800","1124.5649999007583","images/stimuli/spore_stims/complex_19_B_d.gif","images/stimuli/spore_stims/complex_16_B_a.gif","","","","","13","complex_dissimilar","images/stimuli/spore_stims/complex_16_B_a.gif","left","","","","",""
"","null","html-keyboard-response","250","555415","0.0-47.0-0.4","SS1613080031176","","","null","","","","","<p><img src= images/blank.png width =""200"" height = ""200"" style = ""float:right""></p><p><img src=images/blank.png width =""800"" height = ""200""></p>","","","","","","","","","","","",""
"","423.59500005841255","sequential-stimulus-presentation","251","556649","0.0-47.0-1.4","SS1613080031176","trial","","40","800","1223.5950000584126","images/stimuli/spore_stims/complex_19_B_d.gif","images/stimuli/spore_stims/complex_16_B_a.gif","","","","","13","complex_dissimilar","images/stimuli/spore_stims/complex_16_B_a.gif","left","","","","",""
"","null","html-keyboard-response","252","557878","0.0-47.0-0.5","SS1613080031176","","","null","","","","","<p><img src= images/blank.png width =""200"" height = ""200"" style = ""float:right""></p><p><img src=images/blank.png width =""800"" height = ""200""></p>","","","","","","","","","","","",""
"","308.8750001043081","sequential-stimulus-presentation","253","558995","0.0-47.0-1.5","SS1613080031176","trial","","40","800","1108.8750001043081","images/stimuli/spore_stims/complex_19_B_d.gif","images/stimuli/spore_stims/complex_16_B_a.gif","","","","","13","complex_dissimilar","images/stimuli/spore_stims/complex_16_B_a.gif","left","","","","",""
"","null","html-keyboard-response","254","560181","0.0-47.0-0.6","SS1613080031176","","","null","","","","","<p><img src= images/blank.png width =""200"" height = ""200"" style = ""float:right""></p><p><img src=images/blank.png width =""800"" height = ""200""></p>","","","","","","","","","","","",""
"","380.8949999511242","sequential-stimulus-presentation","255","561380","0.0-47.0-1.6","SS1613080031176","trial","","40","800","1180.8949999511242","images/stimuli/spore_stims/complex_19_B_d.gif","images/stimuli/spore_stims/complex_16_B_a.gif","","","","","13","complex_dissimilar","images/stimuli/spore_stims/complex_19_B_d.gif","right","","","","",""
"","null","html-keyboard-response","256","562401","0.0-47.0-0.7","SS1613080031176","","","null","","","","","<p><img src= images/blank.png width =""200"" height = ""200"" style = ""float:right""></p><p><img src=images/blank.png width =""800"" height = ""200""></p>","","","","","","","","","","","",""
"","592.9049998521805","sequential-stimulus-presentation","257","563912","0.0-47.0-1.7","SS1613080031176","trial","","40","800","1392.9049998521805","images/stimuli/spore_stims/complex_19_B_d.gif","images/stimuli/spore_stims/complex_16_B_a.gif","","","","","13","complex_dissimilar","images/stimuli/spore_stims/complex_16_B_a.gif","left","","","","",""
"","2222.9850003495812","html-keyboard-response","258","566145","0.0-48.0","SS1613080031176","pref_question","","51","","","","","<video width ='960' height = '540' style='padding-top:8%' autoplay muted><source src='images/stimuli/wall_pref.mp4' type='video/mp4'></video>","3","right","66%","13","","","","","","","",""
"","18.604999873787165","sequential-stimulus-presentation","259","566996","0.0-49.0","SS1613080031176","pref_reveal","","40","800","818.6049998737872","null","null","","","","","13","","","","deviant","","","",""
"","null","html-keyboard-response","260","568228","0.0-50.0-0.0","SS1613080031176","","","null","","","","","<p><img src= images/blank.png width =""200"" height = ""200"" style = ""float:right""></p><p><img src=images/blank.png width =""800"" height = ""200""></p>","","","","","","","","","","","",""
"","954.0349999442697","sequential-stimulus-presentation","261","570029","0.0-50.0-1.0","SS1613080031176","trial","","40","800","1754.0349999442697","images/stimuli/spore_stims/simple_08_A_d.gif","images/stimuli/spore_stims/simple_05_B_b.gif","","","","","14","simple_dissimilar","images/stimuli/spore_stims/simple_05_B_b.gif","right","","","","",""
"","null","html-keyboard-response","262","570911","0.0-50.0-0.1","SS1613080031176","","","null","","","","","<p><img src= images/blank.png width =""200"" height = ""200"" style = ""float:right""></p><p><img src=images/blank.png width =""800"" height = ""200""></p>","","","","","","","","","","","",""
"","478.46499970182776","sequential-stimulus-presentation","263","572214","0.0-50.0-1.1","SS1613080031176","trial","","40","800","1278.4649997018278","images/stimuli/spore_stims/simple_08_A_d.gif","images/stimuli/spore_stims/simple_05_B_b.gif","","","","","14","simple_dissimilar","images/stimuli/spore_stims/simple_05_B_b.gif","right","","","","",""
"","null","html-keyboard-response","264","573265","0.0-50.0-0.2","SS1613080031176","","","null","","","","","<p><img src= images/blank.png width =""200"" height = ""200"" style = ""float:right""></p><p><img src=images/blank.png width =""800"" height = ""200""></p>","","","","","","","","","","","",""
"","883.5999998264015","sequential-stimulus-presentation","265","574971","0.0-50.0-1.2","SS1613080031176","trial","","40","800","1683.5999998264015","images/stimuli/spore_stims/simple_08_A_d.gif","images/stimuli/spore_stims/simple_05_B_b.gif","","","","","14","simple_dissimilar","images/stimuli/spore_stims/simple_05_B_b.gif","right","","","","",""
"","null","html-keyboard-response","266","576278","0.0-50.0-0.3","SS1613080031176","","","null","","","","","<p><img src= images/blank.png width =""200"" height = ""200"" style = ""float:right""></p><p><img src=images/blank.png width =""800"" height = ""200""></p>","","","","","","","","","","","",""
"","85.86999960243702","sequential-stimulus-presentation","267","577186","0.0-50.0-1.3","SS1613080031176","trial","","40","800","885.869999602437","images/stimuli/spore_stims/simple_08_A_d.gif","images/stimuli/spore_stims/simple_05_B_b.gif","","","","","14","simple_dissimilar","images/stimuli/spore_stims/simple_05_B_b.gif","right","","","","",""
"","null","html-keyboard-response","268","578015","0.0-50.0-0.4","SS1613080031176","","","null","","","","","<p><img src= images/blank.png width =""200"" height = ""200"" style = ""float:right""></p><p><img src=images/blank.png width =""800"" height = ""200""></p>","","","","","","","","","","","",""
"","783.8900000788271","sequential-stimulus-presentation","269","579954","0.0-50.0-1.4","SS1613080031176","trial","","40","800","1583.8900000788271","images/stimuli/spore_stims/simple_08_A_d.gif","images/stimuli/spore_stims/simple_05_B_b.gif","","","","","14","simple_dissimilar","images/stimuli/spore_stims/simple_05_B_b.gif","right","","","","",""
"","null","html-keyboard-response","270","581263","0.0-50.0-0.5","SS1613080031176","","","null","","","","","<p><img src= images/blank.png width =""200"" height = ""200"" style = ""float:right""></p><p><img src=images/blank.png width =""800"" height = ""200""></p>","","","","","","","","","","","",""
"","805.5799999274313","sequential-stimulus-presentation","271","582880","0.0-50.0-1.5","SS1613080031176","trial","","40","800","1605.5799999274313","images/stimuli/spore_stims/simple_08_A_d.gif","images/stimuli/spore_stims/simple_05_B_b.gif","","","","","14","simple_dissimilar","images/stimuli/spore_stims/simple_05_B_b.gif","right","","","","",""
"","null","html-keyboard-response","272","583838","0.0-50.0-0.6","SS1613080031176","","","null","","","","","<p><img src= images/blank.png width =""200"" height = ""200"" style = ""float:right""></p><p><img src=images/blank.png width =""800"" height = ""200""></p>","","","","","","","","","","","",""
"","358.3149998448789","sequential-stimulus-presentation","273","585015","0.0-50.0-1.6","SS1613080031176","trial","","40","800","1158.314999844879","images/stimuli/spore_stims/simple_08_A_d.gif","images/stimuli/spore_stims/simple_05_B_b.gif","","","","","14","simple_dissimilar","images/stimuli/spore_stims/simple_08_A_d.gif","middle","","","","",""
"","null","html-keyboard-response","274","586280","0.0-50.0-0.7","SS1613080031176","","","null","","","","","<p><img src= images/blank.png width =""200"" height = ""200"" style = ""float:right""></p><p><img src=images/blank.png width =""800"" height = ""200""></p>","","","","","","","","","","","",""
"","1049.0600001066923","sequential-stimulus-presentation","275","588142","0.0-50.0-1.7","SS1613080031176","trial","","40","800","1849.0600001066923","images/stimuli/spore_stims/simple_08_A_d.gif","images/stimuli/spore_stims/simple_05_B_b.gif","","","","","14","simple_dissimilar","images/stimuli/spore_stims/simple_05_B_b.gif","right","","","","",""
"","1895.6450000405312","html-keyboard-response","276","590046","0.0-51.0","SS1613080031176","pref_question","","50","","","","","<video width ='960' height = '540' style='padding-top:8%' autoplay muted><source src='images/stimuli/wall_pref.mp4' type='video/mp4'></video>","2","middle","45%","14","","","","","","","",""
"","700.745000038296","sequential-stimulus-presentation","277","591564","0.0-52.0","SS1613080031176","pref_reveal","","40","800","1500.745000038296","null","null","","","","","14","","","","deviant","","","",""
"","null","html-keyboard-response","278","592811","0.0-53.0-0.0","SS1613080031176","","","null","","","","","<p><img src= images/blank.png width =""200"" height = ""200"" style = ""float:right""></p><p><img src=images/blank.png width =""800"" height = ""200""></p>","","","","","","","","","","","",""
"","5.875000264495611","sequential-stimulus-presentation","279","593715","0.0-53.0-1.0","SS1613080031176","trial","","40","800","805.8750002644956","images/stimuli/spore_stims/complex_12_A_a.gif","images/stimuli/spore_stims/complex_08_A_d.gif","","","","","15","complex_dissimilar","images/stimuli/spore_stims/complex_08_A_d.gif","right","","","","",""
"","null","html-keyboard-response","280","595018","0.0-53.0-0.1","SS1613080031176","","","null","","","","","<p><img src= images/blank.png width =""200"" height = ""200"" style = ""float:right""></p><p><img src=images/blank.png width =""800"" height = ""200""></p>","","","","","","","","","","","",""
"","40.35999998450279","sequential-stimulus-presentation","281","595867","0.0-53.0-1.1","SS1613080031176","trial","","40","800","840.3599999845028","images/stimuli/spore_stims/complex_12_A_a.gif","images/stimuli/spore_stims/complex_08_A_d.gif","","","","","15","complex_dissimilar","images/stimuli/spore_stims/complex_08_A_d.gif","right","","","","",""
"","null","html-keyboard-response","282","596755","0.0-53.0-0.2","SS1613080031176","","","null","","","","","<p><img src= images/blank.png width =""200"" height = ""200"" style = ""float:right""></p><p><img src=images/blank.png width =""800"" height = ""200""></p>","","","","","","","","","","","",""
"","24.135000072419643","sequential-stimulus-presentation","283","597609","0.0-53.0-1.2","SS1613080031176","trial","","40","800","824.1350000724196","images/stimuli/spore_stims/complex_12_A_a.gif","images/stimuli/spore_stims/complex_08_A_d.gif","","","","","15","complex_dissimilar","images/stimuli/spore_stims/complex_08_A_d.gif","right","","","","",""
"","null","html-keyboard-response","284","598779","0.0-53.0-0.3","SS1613080031176","","","null","","","","","<p><img src= images/blank.png width =""200"" height = ""200"" style = ""float:right""></p><p><img src=images/blank.png width =""800"" height = ""200""></p>","","","","","","","","","","","",""
"","423.8950000144541","sequential-stimulus-presentation","285","600023","0.0-53.0-1.3","SS1613080031176","trial","","40","800","1223.8950000144541","images/stimuli/spore_stims/complex_12_A_a.gif","images/stimuli/spore_stims/complex_08_A_d.gif","","","","","15","complex_dissimilar","images/stimuli/spore_stims/complex_08_A_d.gif","right","","","","",""
"","null","html-keyboard-response","286","601215","0.0-53.0-0.4","SS1613080031176","","","null","","","","","<p><img src= images/blank.png width =""200"" height = ""200"" style = ""float:right""></p><p><img src=images/blank.png width =""800"" height = ""200""></p>","","","","","","","","","","","",""
"","247.72999994456768","sequential-stimulus-presentation","287","602285","0.0-53.0-1.4","SS1613080031176","trial","","40","800","1047.7299999445677","images/stimuli/spore_stims/complex_12_A_a.gif","images/stimuli/spore_stims/complex_08_A_d.gif","","","","","15","complex_dissimilar","images/stimuli/spore_stims/complex_08_A_d.gif","right","","","","",""
"","null","html-keyboard-response","288","603394","0.0-53.0-0.5","SS1613080031176","","","null","","","","","<p><img src= images/blank.png width =""200"" height = ""200"" style = ""float:right""></p><p><img src=images/blank.png width =""800"" height = ""200""></p>","","","","","","","","","","","",""
"","237.94499970972538","sequential-stimulus-presentation","289","604452","0.0-53.0-1.5","SS1613080031176","trial","","40","800","1037.9449997097254","images/stimuli/spore_stims/complex_12_A_a.gif","images/stimuli/spore_stims/complex_08_A_d.gif","","","","","15","complex_dissimilar","images/stimuli/spore_stims/complex_08_A_d.gif","right","","","","",""
"","null","html-keyboard-response","290","605626","0.0-53.0-0.6","SS1613080031176","","","null","","","","","<p><img src= images/blank.png width =""200"" height = ""200"" style = ""float:right""></p><p><img src=images/blank.png width =""800"" height = ""200""></p>","","","","","","","","","","","",""
"","92.4349999986589","sequential-stimulus-presentation","291","606527","0.0-53.0-1.6","SS1613080031176","trial","","40","800","892.4349999986589","images/stimuli/spore_stims/complex_12_A_a.gif","images/stimuli/spore_stims/complex_08_A_d.gif","","","","","15","complex_dissimilar","images/stimuli/spore_stims/complex_08_A_d.gif","right","","","","",""
"","null","html-keyboard-response","292","607612","0.0-53.0-0.7","SS1613080031176","","","null","","","","","<p><img src= images/blank.png width =""200"" height = ""200"" style = ""float:right""></p><p><img src=images/blank.png width =""800"" height = ""200""></p>","","","","","","","","","","","",""
"","13.125000055879354","sequential-stimulus-presentation","293","608452","0.0-53.0-1.7","SS1613080031176","trial","","40","800","813.1250000558794","images/stimuli/spore_stims/complex_12_A_a.gif","images/stimuli/spore_stims/complex_08_A_d.gif","","","","","15","complex_dissimilar","images/stimuli/spore_stims/complex_12_A_a.gif","middle","","","","",""
"","1328.2300001010299","html-keyboard-response","294","609794","0.0-54.0","SS1613080031176","pref_question","","49","","","","","<video width ='960' height = '540' style='padding-top:8%' autoplay muted><source src='images/stimuli/wall_pref.mp4' type='video/mp4'></video>","1","left","25%","15","","","","","","","",""
"","632.965000346303","sequential-stimulus-presentation","295","611283","0.0-55.0","SS1613080031176","pref_reveal","","40","800","1432.965000346303","null","null","","","","","15","","","","novel","","","",""
"","null","html-keyboard-response","296","612128","0.0-56.0-0.0","SS1613080031176","","","null","","","","","<p><img src= images/blank.png width =""200"" height = ""200"" style = ""float:right""></p><p><img src=images/blank.png width =""800"" height = ""200""></p>","","","","","","","","","","","",""
"","396.55999979004264","sequential-stimulus-presentation","297","613348","0.0-56.0-1.0","SS1613080031176","trial","","40","800","1196.5599997900426","images/stimuli/spore_stims/complex_15_A_b.gif","images/stimuli/spore_stims/complex_15_B_b.gif","","","","","16","complex_similar","images/stimuli/spore_stims/complex_15_B_b.gif","left","","","","",""
"","null","html-keyboard-response","298","614597","0.0-56.0-0.1","SS1613080031176","","","null","","","","","<p><img src= images/blank.png width =""200"" height = ""200"" style = ""float:right""></p><p><img src=images/blank.png width =""800"" height = ""200""></p>","","","","","","","","","","","",""
"","422.7100000716746","sequential-stimulus-presentation","299","615838","0.0-56.0-1.1","SS1613080031176","trial","","40","800","1222.7100000716746","images/stimuli/spore_stims/complex_15_A_b.gif","images/stimuli/spore_stims/complex_15_B_b.gif","","","","","16","complex_similar","images/stimuli/spore_stims/complex_15_B_b.gif","left","","","","",""
"","null","html-keyboard-response","300","616871","0.0-56.0-0.2","SS1613080031176","","","null","","","","","<p><img src= images/blank.png width =""200"" height = ""200"" style = ""float:right""></p><p><img src=images/blank.png width =""800"" height = ""200""></p>","","","","","","","","","","","",""
"","226.6299999319017","sequential-stimulus-presentation","301","617911","0.0-56.0-1.2","SS1613080031176","trial","","40","800","1026.6299999319017","images/stimuli/spore_stims/complex_15_A_b.gif","images/stimuli/spore_stims/complex_15_B_b.gif","","","","","16","complex_similar","images/stimuli/spore_stims/complex_15_B_b.gif","left","","","","",""
"","null","html-keyboard-response","302","619037","0.0-56.0-0.3","SS1613080031176","","","null","","","","","<p><img src= images/blank.png width =""200"" height = ""200"" style = ""float:right""></p><p><img src=images/blank.png width =""800"" height = ""200""></p>","","","","","","","","","","","",""
"","635.5249998159707","sequential-stimulus-presentation","303","620488","0.0-56.0-1.3","SS1613080031176","trial","","40","800","1435.5249998159707","images/stimuli/spore_stims/complex_15_A_b.gif","images/stimuli/spore_stims/complex_15_B_b.gif","","","","","16","complex_similar","images/stimuli/spore_stims/complex_15_B_b.gif","left","","","","",""
"","null","html-keyboard-response","304","621377","0.0-56.0-0.4","SS1613080031176","","","null","","","","","<p><img src= images/blank.png width =""200"" height = ""200"" style = ""float:right""></p><p><img src=images/blank.png width =""800"" height = ""200""></p>","","","","","","","","","","","",""
"","71.10500009730458","sequential-stimulus-presentation","305","622257","0.0-56.0-1.4","SS1613080031176","trial","","40","800","871.1050000973046","images/stimuli/spore_stims/complex_15_A_b.gif","images/stimuli/spore_stims/complex_15_B_b.gif","","","","","16","complex_similar","images/stimuli/spore_stims/complex_15_B_b.gif","left","","","","",""
"","null","html-keyboard-response","306","623565","0.0-56.0-0.5","SS1613080031176","","","null","","","","","<p><img src= images/blank.png width =""200"" height = ""200"" style = ""float:right""></p><p><img src=images/blank.png width =""800"" height = ""200""></p>","","","","","","","","","","","",""
"","41.954999789595604","sequential-stimulus-presentation","307","624420","0.0-56.0-1.5","SS1613080031176","trial","","40","800","841.9549997895956","images/stimuli/spore_stims/complex_15_A_b.gif","images/stimuli/spore_stims/complex_15_B_b.gif","","","","","16","complex_similar","images/stimuli/spore_stims/complex_15_B_b.gif","left","","","","",""
"","null","html-keyboard-response","308","625635","0.0-56.0-0.6","SS1613080031176","","","null","","","","","<p><img src= images/blank.png width =""200"" height = ""200"" style = ""float:right""></p><p><img src=images/blank.png width =""800"" height = ""200""></p>","","","","","","","","","","","",""
"","651.7549999989569","sequential-stimulus-presentation","309","627320","0.0-56.0-1.6","SS1613080031176","trial","","40","800","1451.754999998957","images/stimuli/spore_stims/complex_15_A_b.gif","images/stimuli/spore_stims/complex_15_B_b.gif","","","","","16","complex_similar","images/stimuli/spore_stims/complex_15_B_b.gif","left","","","","",""
"","null","html-keyboard-response","310","628268","0.0-56.0-0.7","SS1613080031176","","","null","","","","","<p><img src= images/blank.png width =""200"" height = ""200"" style = ""float:right""></p><p><img src=images/blank.png width =""800"" height = ""200""></p>","","","","","","","","","","","",""
"","229.79999985545874","sequential-stimulus-presentation","311","629318","0.0-56.0-1.7","SS1613080031176","trial","","40","800","1029.7999998554587","images/stimuli/spore_stims/complex_15_A_b.gif","images/stimuli/spore_stims/complex_15_B_b.gif","","","","","16","complex_similar","images/stimuli/spore_stims/complex_15_A_b.gif","right","","","","",""
"","1635.245000012219","html-keyboard-response","312","630966","0.0-57.0","SS1613080031176","pref_question","","49","","","","","<video width ='960' height = '540' style='padding-top:8%' autoplay muted><source src='images/stimuli/wall_pref.mp4' type='video/mp4'></video>","1","left","25%","16","","","","","","","",""
