"view_history","rt","trial_type","trial_index","time_elapsed","internal_node_id","subject","stimulus_type","trial_stimulus","key_press","minimum_viewing_duration","trial_looking_time","block_deviant","block_background","stimulus","wall_pref","location","location_percent","block_number","block_type","stimulus_displayed","position_displayed","stim_type_selected"
"[{""page_index"":0,""viewing_time"":12335.810000000492}]","12336.839999999938","instructions","0","12339","0.0-0.0","SS1613079952477","","","","","","","","","","","","","","","",""
"[{""page_index"":0,""viewing_time"":15080.719999999928},{""page_index"":1,""viewing_time"":3681.930000000648}]","18763.284999999996","instructions","1","33105","0.0-1.0","SS1613079952477","instructions","","","","","","","","","","","","","","",""
"","5637.780000000028","sequential-stimulus-presentation","2","39556","0.0-2.0","SS1613079952477","","","40","800","6437.780000000028","null","null","","","","","","","","",""
"","2954.0849999993807","sequential-stimulus-presentation","3","43319","0.0-3.0","SS1613079952477","","","40","800","3754.0849999993807","null","null","","","","","","","","",""
"[{""page_index"":0,""viewing_time"":3334.57999999974}]","3334.8550000000687","instructions","4","46656","0.0-4.0","SS1613079952477","instructions","","","","","","","","","","","","","","",""
"","8651.88499999931","html-keyboard-response","5","55312","0.0-5.0","SS1613079952477","instructions","","50","","","","","<video width ='960' height = '540' autoplay muted><source src='images/stimuli/wall_pref.mp4' type='video/mp4'></video>","2","middle","45%","","","","",""
"","1740.2099999999336","sequential-stimulus-presentation","6","57864","0.0-6.0","SS1613079952477","pref_reveal","","40","800","2540.2099999999336","null","null","","","","","","","","",""
"[{""page_index"":0,""viewing_time"":6012.850000000079},{""page_index"":1,""viewing_time"":5552.885000000053},{""page_index"":2,""viewing_time"":879.420000000202},{""page_index"":3,""viewing_time"":919.8200000000797}]","13365.350000000035","instructions","7","71231","0.0-7.0","SS1613079952477","instructions","","","","","","","","","","","","","","",""
"","null","html-keyboard-response","8","72414","0.0-8.0-0.0","SS1613079952477","","","null","","","","","<p><img src= images/blank.png width =""200"" height = ""200"" style = ""float:right""></p><p><img src=images/blank.png width =""800"" height = ""200""></p>","","","","","","","",""
"","248.50500000048487","sequential-stimulus-presentation","9","73471","0.0-8.0-1.0","SS1613079952477","trial","","40","800","1048.5050000004849","images/stimuli/spore_stims/simple_05_A_d.gif","images/stimuli/spore_stims/simple_04_B_d.gif","","","","","0","simple_dissimilar","images/stimuli/spore_stims/simple_04_B_d.gif","middle",""
"","null","html-keyboard-response","10","74678","0.0-8.0-0.1","SS1613079952477","","","null","","","","","<p><img src= images/blank.png width =""200"" height = ""200"" style = ""float:right""></p><p><img src=images/blank.png width =""800"" height = ""200""></p>","","","","","","","",""
"","2106.9550000002055","sequential-stimulus-presentation","11","77591","0.0-8.0-1.1","SS1613079952477","trial","","40","800","2906.9550000002055","images/stimuli/spore_stims/simple_05_A_d.gif","images/stimuli/spore_stims/simple_04_B_d.gif","","","","","0","simple_dissimilar","images/stimuli/spore_stims/simple_04_B_d.gif","middle",""
"","null","html-keyboard-response","12","78503","0.0-8.0-0.2","SS1613079952477","","","null","","","","","<p><img src= images/blank.png width =""200"" height = ""200"" style = ""float:right""></p><p><img src=images/blank.png width =""800"" height = ""200""></p>","","","","","","","",""
"","1873.0249999998778","sequential-stimulus-presentation","13","81185","0.0-8.0-1.2","SS1613079952477","trial","","40","800","2673.0249999998778","images/stimuli/spore_stims/simple_05_A_d.gif","images/stimuli/spore_stims/simple_04_B_d.gif","","","","","0","simple_dissimilar","images/stimuli/spore_stims/simple_04_B_d.gif","middle",""
"","null","html-keyboard-response","14","82354","0.0-8.0-0.3","SS1613079952477","","","null","","","","","<p><img src= images/blank.png width =""200"" height = ""200"" style = ""float:right""></p><p><img src=images/blank.png width =""800"" height = ""200""></p>","","","","","","","",""
"","1636.435000000347","sequential-stimulus-presentation","15","84798","0.0-8.0-1.3","SS1613079952477","trial","","40","800","2436.435000000347","images/stimuli/spore_stims/simple_05_A_d.gif","images/stimuli/spore_stims/simple_04_B_d.gif","","","","","0","simple_dissimilar","images/stimuli/spore_stims/simple_04_B_d.gif","middle",""
"","null","html-keyboard-response","16","85780","0.0-8.0-0.4","SS1613079952477","","","null","","","","","<p><img src= images/blank.png width =""200"" height = ""200"" style = ""float:right""></p><p><img src=images/blank.png width =""800"" height = ""200""></p>","","","","","","","",""
"","2154.190000000206","sequential-stimulus-presentation","17","88744","0.0-8.0-1.4","SS1613079952477","trial","","40","800","2954.190000000206","images/stimuli/spore_stims/simple_05_A_d.gif","images/stimuli/spore_stims/simple_04_B_d.gif","","","","","0","simple_dissimilar","images/stimuli/spore_stims/simple_04_B_d.gif","middle",""
"","null","html-keyboard-response","18","89717","0.0-8.0-0.5","SS1613079952477","","","null","","","","","<p><img src= images/blank.png width =""200"" height = ""200"" style = ""float:right""></p><p><img src=images/blank.png width =""800"" height = ""200""></p>","","","","","","","",""
"","1271.3050000001967","sequential-stimulus-presentation","19","91799","0.0-8.0-1.5","SS1613079952477","trial","","40","800","2071.3050000001967","images/stimuli/spore_stims/simple_05_A_d.gif","images/stimuli/spore_stims/simple_04_B_d.gif","","","","","0","simple_dissimilar","images/stimuli/spore_stims/simple_04_B_d.gif","middle",""
"","null","html-keyboard-response","20","92929","0.0-8.0-0.6","SS1613079952477","","","null","","","","","<p><img src= images/blank.png width =""200"" height = ""200"" style = ""float:right""></p><p><img src=images/blank.png width =""800"" height = ""200""></p>","","","","","","","",""
"","1369.8549999999232","sequential-stimulus-presentation","21","95109","0.0-8.0-1.6","SS1613079952477","trial","","40","800","2169.854999999923","images/stimuli/spore_stims/simple_05_A_d.gif","images/stimuli/spore_stims/simple_04_B_d.gif","","","","","0","simple_dissimilar","images/stimuli/spore_stims/simple_04_B_d.gif","middle",""
"","null","html-keyboard-response","22","95938","0.0-8.0-0.7","SS1613079952477","","","null","","","","","<p><img src= images/blank.png width =""200"" height = ""200"" style = ""float:right""></p><p><img src=images/blank.png width =""800"" height = ""200""></p>","","","","","","","",""
"","4941.255000000645","sequential-stimulus-presentation","23","101687","0.0-8.0-1.7","SS1613079952477","trial","","40","800","5741.255000000645","images/stimuli/spore_stims/simple_05_A_d.gif","images/stimuli/spore_stims/simple_04_B_d.gif","","","","","0","simple_dissimilar","images/stimuli/spore_stims/simple_05_A_d.gif","left",""
"","4034.604999999836","html-keyboard-response","24","105727","0.0-9.0","SS1613079952477","pref_question","","51","","","","","<video width ='960' height = '540' style='padding-top:8%' autoplay muted><source src='images/stimuli/wall_pref.mp4' type='video/mp4'></video>","3","right","66%","0","","","",""
"","3502.8549999997194","sequential-stimulus-presentation","25","110037","0.0-10.0","SS1613079952477","pref_reveal","","40","800","4302.854999999719","null","null","","","","","0","","","","novel"
"","null","html-keyboard-response","26","111140","0.0-11.0-0.0","SS1613079952477","","","null","","","","","<p><img src= images/blank.png width =""200"" height = ""200"" style = ""float:right""></p><p><img src=images/blank.png width =""800"" height = ""200""></p>","","","","","","","",""
"","3323.8799999999173","sequential-stimulus-presentation","27","115272","0.0-11.0-1.0","SS1613079952477","trial","","40","800","4123.879999999917","images/stimuli/spore_stims/simple_11_A_d.gif","images/stimuli/spore_stims/simple_11_B_d.gif","","","","","1","simple_similar","images/stimuli/spore_stims/simple_11_B_d.gif","middle",""
"","null","html-keyboard-response","28","116085","0.0-11.0-0.1","SS1613079952477","","","null","","","","","<p><img src= images/blank.png width =""200"" height = ""200"" style = ""float:right""></p><p><img src=images/blank.png width =""800"" height = ""200""></p>","","","","","","","",""
"","1710.1700000002747","sequential-stimulus-presentation","29","118605","0.0-11.0-1.1","SS1613079952477","trial","","40","800","2510.1700000002747","images/stimuli/spore_stims/simple_11_A_d.gif","images/stimuli/spore_stims/simple_11_B_d.gif","","","","","1","simple_similar","images/stimuli/spore_stims/simple_11_B_d.gif","middle",""
"","null","html-keyboard-response","30","119810","0.0-11.0-0.2","SS1613079952477","","","null","","","","","<p><img src= images/blank.png width =""200"" height = ""200"" style = ""float:right""></p><p><img src=images/blank.png width =""800"" height = ""200""></p>","","","","","","","",""
"","800.1400000002759","sequential-stimulus-presentation","31","121423","0.0-11.0-1.2","SS1613079952477","trial","","40","800","1600.140000000276","images/stimuli/spore_stims/simple_11_A_d.gif","images/stimuli/spore_stims/simple_11_B_d.gif","","","","","1","simple_similar","images/stimuli/spore_stims/simple_11_B_d.gif","middle",""
"","null","html-keyboard-response","32","122580","0.0-11.0-0.3","SS1613079952477","","","null","","","","","<p><img src= images/blank.png width =""200"" height = ""200"" style = ""float:right""></p><p><img src=images/blank.png width =""800"" height = ""200""></p>","","","","","","","",""
"","3636.7599999994272","sequential-stimulus-presentation","33","127024","0.0-11.0-1.3","SS1613079952477","trial","","40","800","4436.759999999427","images/stimuli/spore_stims/simple_11_A_d.gif","images/stimuli/spore_stims/simple_11_B_d.gif","","","","","1","simple_similar","images/stimuli/spore_stims/simple_11_A_d.gif","right",""
"","null","html-keyboard-response","34","128177","0.0-11.0-0.4","SS1613079952477","","","null","","","","","<p><img src= images/blank.png width =""200"" height = ""200"" style = ""float:right""></p><p><img src=images/blank.png width =""800"" height = ""200""></p>","","","","","","","",""
"","1615.420000000071","sequential-stimulus-presentation","35","130598","0.0-11.0-1.4","SS1613079952477","trial","","40","800","2415.420000000071","images/stimuli/spore_stims/simple_11_A_d.gif","images/stimuli/spore_stims/simple_11_B_d.gif","","","","","1","simple_similar","images/stimuli/spore_stims/simple_11_B_d.gif","middle",""
"","null","html-keyboard-response","36","131740","0.0-11.0-0.5","SS1613079952477","","","null","","","","","<p><img src= images/blank.png width =""200"" height = ""200"" style = ""float:right""></p><p><img src=images/blank.png width =""800"" height = ""200""></p>","","","","","","","",""
"","1163.259999999369","sequential-stimulus-presentation","37","133710","0.0-11.0-1.5","SS1613079952477","trial","","40","800","1963.259999999369","images/stimuli/spore_stims/simple_11_A_d.gif","images/stimuli/spore_stims/simple_11_B_d.gif","","","","","1","simple_similar","images/stimuli/spore_stims/simple_11_B_d.gif","middle",""
"","null","html-keyboard-response","38","134634","0.0-11.0-0.6","SS1613079952477","","","null","","","","","<p><img src= images/blank.png width =""200"" height = ""200"" style = ""float:right""></p><p><img src=images/blank.png width =""800"" height = ""200""></p>","","","","","","","",""
"","908.53000000061","sequential-stimulus-presentation","39","136349","0.0-11.0-1.6","SS1613079952477","trial","","40","800","1708.53000000061","images/stimuli/spore_stims/simple_11_A_d.gif","images/stimuli/spore_stims/simple_11_B_d.gif","","","","","1","simple_similar","images/stimuli/spore_stims/simple_11_B_d.gif","middle",""
"","null","html-keyboard-response","40","137152","0.0-11.0-0.7","SS1613079952477","","","null","","","","","<p><img src= images/blank.png width =""200"" height = ""200"" style = ""float:right""></p><p><img src=images/blank.png width =""800"" height = ""200""></p>","","","","","","","",""
"","526.4400000005553","sequential-stimulus-presentation","41","138486","0.0-11.0-1.7","SS1613079952477","trial","","40","800","1326.4400000005553","images/stimuli/spore_stims/simple_11_A_d.gif","images/stimuli/spore_stims/simple_11_B_d.gif","","","","","1","simple_similar","images/stimuli/spore_stims/simple_11_B_d.gif","middle",""
"","2439.9750000002387","html-keyboard-response","42","140935","0.0-12.0","SS1613079952477","pref_question","","49","","","","","<video width ='960' height = '540' style='padding-top:8%' autoplay muted><source src='images/stimuli/wall_pref.mp4' type='video/mp4'></video>","1","left","25%","1","","","",""
"","4328.430000000488","sequential-stimulus-presentation","43","146069","0.0-13.0","SS1613079952477","pref_reveal","","40","800","5128.430000000488","null","null","","","","","1","","","","novel"
"","null","html-keyboard-response","44","146998","0.0-14.0-0.0","SS1613079952477","","","null","","","","","<p><img src= images/blank.png width =""200"" height = ""200"" style = ""float:right""></p><p><img src=images/blank.png width =""800"" height = ""200""></p>","","","","","","","",""
"","4399.71499999956","sequential-stimulus-presentation","45","152207","0.0-14.0-1.0","SS1613079952477","trial","","40","800","5199.71499999956","images/stimuli/spore_stims/complex_06_A_c.gif","images/stimuli/spore_stims/complex_09_B_c.gif","","","","","2","complex_dissimilar","images/stimuli/spore_stims/complex_09_B_c.gif","right",""
"","null","html-keyboard-response","46","153264","0.0-14.0-0.1","SS1613079952477","","","null","","","","","<p><img src= images/blank.png width =""200"" height = ""200"" style = ""float:right""></p><p><img src=images/blank.png width =""800"" height = ""200""></p>","","","","","","","",""
"","2250.3850000002712","sequential-stimulus-presentation","47","156326","0.0-14.0-1.1","SS1613079952477","trial","","40","800","3050.3850000002712","images/stimuli/spore_stims/complex_06_A_c.gif","images/stimuli/spore_stims/complex_09_B_c.gif","","","","","2","complex_dissimilar","images/stimuli/spore_stims/complex_09_B_c.gif","right",""
"","null","html-keyboard-response","48","157288","0.0-14.0-0.2","SS1613079952477","","","null","","","","","<p><img src= images/blank.png width =""200"" height = ""200"" style = ""float:right""></p><p><img src=images/blank.png width =""800"" height = ""200""></p>","","","","","","","",""
"","1933.1050000000687","sequential-stimulus-presentation","49","160031","0.0-14.0-1.2","SS1613079952477","trial","","40","800","2733.1050000000687","images/stimuli/spore_stims/complex_06_A_c.gif","images/stimuli/spore_stims/complex_09_B_c.gif","","","","","2","complex_dissimilar","images/stimuli/spore_stims/complex_09_B_c.gif","right",""
"","null","html-keyboard-response","50","160840","0.0-14.0-0.3","SS1613079952477","","","null","","","","","<p><img src= images/blank.png width =""200"" height = ""200"" style = ""float:right""></p><p><img src=images/blank.png width =""800"" height = ""200""></p>","","","","","","","",""
"","3357.944999999745","sequential-stimulus-presentation","51","165006","0.0-14.0-1.3","SS1613079952477","trial","","40","800","4157.944999999745","images/stimuli/spore_stims/complex_06_A_c.gif","images/stimuli/spore_stims/complex_09_B_c.gif","","","","","2","complex_dissimilar","images/stimuli/spore_stims/complex_06_A_c.gif","middle",""
"","null","html-keyboard-response","52","166000","0.0-14.0-0.4","SS1613079952477","","","null","","","","","<p><img src= images/blank.png width =""200"" height = ""200"" style = ""float:right""></p><p><img src=images/blank.png width =""800"" height = ""200""></p>","","","","","","","",""
"","855.3299999994342","sequential-stimulus-presentation","53","167662","0.0-14.0-1.4","SS1613079952477","trial","","40","800","1655.3299999994342","images/stimuli/spore_stims/complex_06_A_c.gif","images/stimuli/spore_stims/complex_09_B_c.gif","","","","","2","complex_dissimilar","images/stimuli/spore_stims/complex_09_B_c.gif","right",""
"","null","html-keyboard-response","54","168788","0.0-14.0-0.5","SS1613079952477","","","null","","","","","<p><img src= images/blank.png width =""200"" height = ""200"" style = ""float:right""></p><p><img src=images/blank.png width =""800"" height = ""200""></p>","","","","","","","",""
"","915.6999999995751","sequential-stimulus-presentation","55","170510","0.0-14.0-1.5","SS1613079952477","trial","","40","800","1715.699999999575","images/stimuli/spore_stims/complex_06_A_c.gif","images/stimuli/spore_stims/complex_09_B_c.gif","","","","","2","complex_dissimilar","images/stimuli/spore_stims/complex_09_B_c.gif","right",""
"","null","html-keyboard-response","56","171466","0.0-14.0-0.6","SS1613079952477","","","null","","","","","<p><img src= images/blank.png width =""200"" height = ""200"" style = ""float:right""></p><p><img src=images/blank.png width =""800"" height = ""200""></p>","","","","","","","",""
"","1720.605000000447","sequential-stimulus-presentation","57","173997","0.0-14.0-1.6","SS1613079952477","trial","","40","800","2520.605000000447","images/stimuli/spore_stims/complex_06_A_c.gif","images/stimuli/spore_stims/complex_09_B_c.gif","","","","","2","complex_dissimilar","images/stimuli/spore_stims/complex_09_B_c.gif","right",""
"","null","html-keyboard-response","58","175189","0.0-14.0-0.7","SS1613079952477","","","null","","","","","<p><img src= images/blank.png width =""200"" height = ""200"" style = ""float:right""></p><p><img src=images/blank.png width =""800"" height = ""200""></p>","","","","","","","",""
"","895.5349999996834","sequential-stimulus-presentation","59","176895","0.0-14.0-1.7","SS1613079952477","trial","","40","800","1695.5349999996834","images/stimuli/spore_stims/complex_06_A_c.gif","images/stimuli/spore_stims/complex_09_B_c.gif","","","","","2","complex_dissimilar","images/stimuli/spore_stims/complex_09_B_c.gif","right",""
"","1745.4749999997148","html-keyboard-response","60","178646","0.0-15.0","SS1613079952477","pref_question","","50","","","","","<video width ='960' height = '540' style='padding-top:8%' autoplay muted><source src='images/stimuli/wall_pref.mp4' type='video/mp4'></video>","2","middle","45%","2","","","",""
"","1568.030000000348","sequential-stimulus-presentation","61","181021","0.0-16.0","SS1613079952477","pref_reveal","","40","800","2368.030000000348","null","null","","","","","2","","","","deviant"
"","null","html-keyboard-response","62","181948","0.0-17.0-0.0","SS1613079952477","","","null","","","","","<p><img src= images/blank.png width =""200"" height = ""200"" style = ""float:right""></p><p><img src=images/blank.png width =""800"" height = ""200""></p>","","","","","","","",""
"","4453.454999999842","sequential-stimulus-presentation","63","187216","0.0-17.0-1.0","SS1613079952477","trial","","40","800","5253.454999999842","images/stimuli/spore_stims/complex_03_B_a.gif","images/stimuli/spore_stims/complex_05_A_a.gif","","","","","3","complex_dissimilar","images/stimuli/spore_stims/complex_05_A_a.gif","right",""
"","null","html-keyboard-response","64","188173","0.0-17.0-0.1","SS1613079952477","","","null","","","","","<p><img src= images/blank.png width =""200"" height = ""200"" style = ""float:right""></p><p><img src=images/blank.png width =""800"" height = ""200""></p>","","","","","","","",""
"","1552.3950000006007","sequential-stimulus-presentation","65","190534","0.0-17.0-1.1","SS1613079952477","trial","","40","800","2352.3950000006007","images/stimuli/spore_stims/complex_03_B_a.gif","images/stimuli/spore_stims/complex_05_A_a.gif","","","","","3","complex_dissimilar","images/stimuli/spore_stims/complex_05_A_a.gif","right",""
"","null","html-keyboard-response","66","191639","0.0-17.0-0.2","SS1613079952477","","","null","","","","","<p><img src= images/blank.png width =""200"" height = ""200"" style = ""float:right""></p><p><img src=images/blank.png width =""800"" height = ""200""></p>","","","","","","","",""
"","726.6399999998393","sequential-stimulus-presentation","67","193174","0.0-17.0-1.2","SS1613079952477","trial","","40","800","1526.6399999998393","images/stimuli/spore_stims/complex_03_B_a.gif","images/stimuli/spore_stims/complex_05_A_a.gif","","","","","3","complex_dissimilar","images/stimuli/spore_stims/complex_05_A_a.gif","right",""
"","null","html-keyboard-response","68","194211","0.0-17.0-0.3","SS1613079952477","","","null","","","","","<p><img src= images/blank.png width =""200"" height = ""200"" style = ""float:right""></p><p><img src=images/blank.png width =""800"" height = ""200""></p>","","","","","","","",""
"","3523.374999999767","sequential-stimulus-presentation","69","198542","0.0-17.0-1.3","SS1613079952477","trial","","40","800","4323.374999999767","images/stimuli/spore_stims/complex_03_B_a.gif","images/stimuli/spore_stims/complex_05_A_a.gif","","","","","3","complex_dissimilar","images/stimuli/spore_stims/complex_03_B_a.gif","left",""
"","null","html-keyboard-response","70","199697","0.0-17.0-0.4","SS1613079952477","","","null","","","","","<p><img src= images/blank.png width =""200"" height = ""200"" style = ""float:right""></p><p><img src=images/blank.png width =""800"" height = ""200""></p>","","","","","","","",""
"","1322.6349999995145","sequential-stimulus-presentation","71","201829","0.0-17.0-1.4","SS1613079952477","trial","","40","800","2122.6349999995145","images/stimuli/spore_stims/complex_03_B_a.gif","images/stimuli/spore_stims/complex_05_A_a.gif","","","","","3","complex_dissimilar","images/stimuli/spore_stims/complex_05_A_a.gif","right",""
"","null","html-keyboard-response","72","202960","0.0-17.0-0.5","SS1613079952477","","","null","","","","","<p><img src= images/blank.png width =""200"" height = ""200"" style = ""float:right""></p><p><img src=images/blank.png width =""800"" height = ""200""></p>","","","","","","","",""
"","934.3950000002224","sequential-stimulus-presentation","73","204701","0.0-17.0-1.5","SS1613079952477","trial","","40","800","1734.3950000002224","images/stimuli/spore_stims/complex_03_B_a.gif","images/stimuli/spore_stims/complex_05_A_a.gif","","","","","3","complex_dissimilar","images/stimuli/spore_stims/complex_05_A_a.gif","right",""
"","null","html-keyboard-response","74","205583","0.0-17.0-0.6","SS1613079952477","","","null","","","","","<p><img src= images/blank.png width =""200"" height = ""200"" style = ""float:right""></p><p><img src=images/blank.png width =""800"" height = ""200""></p>","","","","","","","",""
"","811.8049999993818","sequential-stimulus-presentation","75","207206","0.0-17.0-1.6","SS1613079952477","trial","","40","800","1611.8049999993818","images/stimuli/spore_stims/complex_03_B_a.gif","images/stimuli/spore_stims/complex_05_A_a.gif","","","","","3","complex_dissimilar","images/stimuli/spore_stims/complex_05_A_a.gif","right",""
"","null","html-keyboard-response","76","208108","0.0-17.0-0.7","SS1613079952477","","","null","","","","","<p><img src= images/blank.png width =""200"" height = ""200"" style = ""float:right""></p><p><img src=images/blank.png width =""800"" height = ""200""></p>","","","","","","","",""
"","523.6500000000815","sequential-stimulus-presentation","77","209438","0.0-17.0-1.7","SS1613079952477","trial","","40","800","1323.6500000000815","images/stimuli/spore_stims/complex_03_B_a.gif","images/stimuli/spore_stims/complex_05_A_a.gif","","","","","3","complex_dissimilar","images/stimuli/spore_stims/complex_05_A_a.gif","right",""
"","1009.1249999995925","html-keyboard-response","78","210453","0.0-18.0","SS1613079952477","pref_question","","50","","","","","<video width ='960' height = '540' style='padding-top:8%' autoplay muted><source src='images/stimuli/wall_pref.mp4' type='video/mp4'></video>","2","middle","45%","3","","","",""
"","3336.835000000079","sequential-stimulus-presentation","79","214596","0.0-19.0","SS1613079952477","pref_reveal","","40","800","4136.835000000079","null","null","","","","","3","","","","novel"
"","null","html-keyboard-response","80","215894","0.0-20.0-0.0","SS1613079952477","","","null","","","","","<p><img src= images/blank.png width =""200"" height = ""200"" style = ""float:right""></p><p><img src=images/blank.png width =""800"" height = ""200""></p>","","","","","","","",""
"","1016.7099999998754","sequential-stimulus-presentation","81","217719","0.0-20.0-1.0","SS1613079952477","trial","","40","800","1816.7099999998754","images/stimuli/spore_stims/simple_19_A_d.gif","images/stimuli/spore_stims/simple_14_B_b.gif","","","","","4","simple_dissimilar","images/stimuli/spore_stims/simple_14_B_b.gif","middle",""
"","null","html-keyboard-response","82","218915","0.0-20.0-0.1","SS1613079952477","","","null","","","","","<p><img src= images/blank.png width =""200"" height = ""200"" style = ""float:right""></p><p><img src=images/blank.png width =""800"" height = ""200""></p>","","","","","","","",""
"","456.38500000038766","sequential-stimulus-presentation","83","220182","0.0-20.0-1.1","SS1613079952477","trial","","40","800","1256.3850000003877","images/stimuli/spore_stims/simple_19_A_d.gif","images/stimuli/spore_stims/simple_14_B_b.gif","","","","","4","simple_dissimilar","images/stimuli/spore_stims/simple_14_B_b.gif","middle",""
"","null","html-keyboard-response","84","221281","0.0-20.0-0.2","SS1613079952477","","","null","","","","","<p><img src= images/blank.png width =""200"" height = ""200"" style = ""float:right""></p><p><img src=images/blank.png width =""800"" height = ""200""></p>","","","","","","","",""
"","613.000000000291","sequential-stimulus-presentation","85","222701","0.0-20.0-1.2","SS1613079952477","trial","","40","800","1413.000000000291","images/stimuli/spore_stims/simple_19_A_d.gif","images/stimuli/spore_stims/simple_14_B_b.gif","","","","","4","simple_dissimilar","images/stimuli/spore_stims/simple_14_B_b.gif","middle",""
"","null","html-keyboard-response","86","223989","0.0-20.0-0.3","SS1613079952477","","","null","","","","","<p><img src= images/blank.png width =""200"" height = ""200"" style = ""float:right""></p><p><img src=images/blank.png width =""800"" height = ""200""></p>","","","","","","","",""
"","568.610000000248","sequential-stimulus-presentation","87","225365","0.0-20.0-1.3","SS1613079952477","trial","","40","800","1368.610000000248","images/stimuli/spore_stims/simple_19_A_d.gif","images/stimuli/spore_stims/simple_14_B_b.gif","","","","","4","simple_dissimilar","images/stimuli/spore_stims/simple_14_B_b.gif","middle",""
"","null","html-keyboard-response","88","226579","0.0-20.0-0.4","SS1613079952477","","","null","","","","","<p><img src= images/blank.png width =""200"" height = ""200"" style = ""float:right""></p><p><img src=images/blank.png width =""800"" height = ""200""></p>","","","","","","","",""
"","751.9549999997253","sequential-stimulus-presentation","89","228144","0.0-20.0-1.4","SS1613079952477","trial","","40","800","1551.9549999997253","images/stimuli/spore_stims/simple_19_A_d.gif","images/stimuli/spore_stims/simple_14_B_b.gif","","","","","4","simple_dissimilar","images/stimuli/spore_stims/simple_14_B_b.gif","middle",""
"","null","html-keyboard-response","90","229005","0.0-20.0-0.5","SS1613079952477","","","null","","","","","<p><img src= images/blank.png width =""200"" height = ""200"" style = ""float:right""></p><p><img src=images/blank.png width =""800"" height = ""200""></p>","","","","","","","",""
"","440.4949999998207","sequential-stimulus-presentation","91","230254","0.0-20.0-1.5","SS1613079952477","trial","","40","800","1240.4949999998207","images/stimuli/spore_stims/simple_19_A_d.gif","images/stimuli/spore_stims/simple_14_B_b.gif","","","","","4","simple_dissimilar","images/stimuli/spore_stims/simple_14_B_b.gif","middle",""
"","null","html-keyboard-response","92","231189","0.0-20.0-0.6","SS1613079952477","","","null","","","","","<p><img src= images/blank.png width =""200"" height = ""200"" style = ""float:right""></p><p><img src=images/blank.png width =""800"" height = ""200""></p>","","","","","","","",""
"","2530.0450000004494","sequential-stimulus-presentation","93","234528","0.0-20.0-1.6","SS1613079952477","trial","","40","800","3330.0450000004494","images/stimuli/spore_stims/simple_19_A_d.gif","images/stimuli/spore_stims/simple_14_B_b.gif","","","","","4","simple_dissimilar","images/stimuli/spore_stims/simple_19_A_d.gif","right",""
"","null","html-keyboard-response","94","235667","0.0-20.0-0.7","SS1613079952477","","","null","","","","","<p><img src= images/blank.png width =""200"" height = ""200"" style = ""float:right""></p><p><img src=images/blank.png width =""800"" height = ""200""></p>","","","","","","","",""
"","303.2050000001909","sequential-stimulus-presentation","95","236782","0.0-20.0-1.7","SS1613079952477","trial","","40","800","1103.205000000191","images/stimuli/spore_stims/simple_19_A_d.gif","images/stimuli/spore_stims/simple_14_B_b.gif","","","","","4","simple_dissimilar","images/stimuli/spore_stims/simple_14_B_b.gif","middle",""
"","1393.0999999992782","html-keyboard-response","96","238190","0.0-21.0","SS1613079952477","pref_question","","49","","","","","<video width ='960' height = '540' style='padding-top:8%' autoplay muted><source src='images/stimuli/wall_pref.mp4' type='video/mp4'></video>","1","left","25%","4","","","",""
"","3494.024999999965","sequential-stimulus-presentation","97","242496","0.0-22.0","SS1613079952477","pref_reveal","","40","800","4294.024999999965","null","null","","","","","4","","","","novel"
"","null","html-keyboard-response","98","243652","0.0-23.0-0.0","SS1613079952477","","","null","","","","","<p><img src= images/blank.png width =""200"" height = ""200"" style = ""float:right""></p><p><img src=images/blank.png width =""800"" height = ""200""></p>","","","","","","","",""
"","4990.549999999523","sequential-stimulus-presentation","99","249453","0.0-23.0-1.0","SS1613079952477","trial","","40","800","5790.549999999523","images/stimuli/spore_stims/complex_19_B_a.gif","images/stimuli/spore_stims/complex_19_A_a.gif","","","","","5","complex_similar","images/stimuli/spore_stims/complex_19_A_a.gif","left",""
"","null","html-keyboard-response","100","250402","0.0-23.0-0.1","SS1613079952477","","","null","","","","","<p><img src= images/blank.png width =""200"" height = ""200"" style = ""float:right""></p><p><img src=images/blank.png width =""800"" height = ""200""></p>","","","","","","","",""
"","3267.840000000433","sequential-stimulus-presentation","101","254479","0.0-23.0-1.1","SS1613079952477","trial","","40","800","4067.840000000433","images/stimuli/spore_stims/complex_19_B_a.gif","images/stimuli/spore_stims/complex_19_A_a.gif","","","","","5","complex_similar","images/stimuli/spore_stims/complex_19_A_a.gif","left",""
"","null","html-keyboard-response","102","255666","0.0-23.0-0.2","SS1613079952477","","","null","","","","","<p><img src= images/blank.png width =""200"" height = ""200"" style = ""float:right""></p><p><img src=images/blank.png width =""800"" height = ""200""></p>","","","","","","","",""
"","1506.0149999998976","sequential-stimulus-presentation","103","257981","0.0-23.0-1.2","SS1613079952477","trial","","40","800","2306.0149999998976","images/stimuli/spore_stims/complex_19_B_a.gif","images/stimuli/spore_stims/complex_19_A_a.gif","","","","","5","complex_similar","images/stimuli/spore_stims/complex_19_A_a.gif","left",""
"","null","html-keyboard-response","104","258865","0.0-23.0-0.3","SS1613079952477","","","null","","","","","<p><img src= images/blank.png width =""200"" height = ""200"" style = ""float:right""></p><p><img src=images/blank.png width =""800"" height = ""200""></p>","","","","","","","",""
"","4594.399999999965","sequential-stimulus-presentation","105","264268","0.0-23.0-1.3","SS1613079952477","trial","","40","800","5394.399999999965","images/stimuli/spore_stims/complex_19_B_a.gif","images/stimuli/spore_stims/complex_19_A_a.gif","","","","","5","complex_similar","images/stimuli/spore_stims/complex_19_B_a.gif","middle",""
"","null","html-keyboard-response","106","265297","0.0-23.0-0.4","SS1613079952477","","","null","","","","","<p><img src= images/blank.png width =""200"" height = ""200"" style = ""float:right""></p><p><img src=images/blank.png width =""800"" height = ""200""></p>","","","","","","","",""
"","3233.4700000001467","sequential-stimulus-presentation","107","269341","0.0-23.0-1.4","SS1613079952477","trial","","40","800","4033.4700000001467","images/stimuli/spore_stims/complex_19_B_a.gif","images/stimuli/spore_stims/complex_19_A_a.gif","","","","","5","complex_similar","images/stimuli/spore_stims/complex_19_A_a.gif","left",""
"","null","html-keyboard-response","108","270352","0.0-23.0-0.5","SS1613079952477","","","null","","","","","<p><img src= images/blank.png width =""200"" height = ""200"" style = ""float:right""></p><p><img src=images/blank.png width =""800"" height = ""200""></p>","","","","","","","",""
"","2110.4850000001024","sequential-stimulus-presentation","109","273269","0.0-23.0-1.5","SS1613079952477","trial","","40","800","2910.4850000001024","images/stimuli/spore_stims/complex_19_B_a.gif","images/stimuli/spore_stims/complex_19_A_a.gif","","","","","5","complex_similar","images/stimuli/spore_stims/complex_19_A_a.gif","left",""
"","null","html-keyboard-response","110","274114","0.0-23.0-0.6","SS1613079952477","","","null","","","","","<p><img src= images/blank.png width =""200"" height = ""200"" style = ""float:right""></p><p><img src=images/blank.png width =""800"" height = ""200""></p>","","","","","","","",""
"","1917.6950000001234","sequential-stimulus-presentation","111","276845","0.0-23.0-1.6","SS1613079952477","trial","","40","800","2717.6950000001234","images/stimuli/spore_stims/complex_19_B_a.gif","images/stimuli/spore_stims/complex_19_A_a.gif","","","","","5","complex_similar","images/stimuli/spore_stims/complex_19_A_a.gif","left",""
"","null","html-keyboard-response","112","277921","0.0-23.0-0.7","SS1613079952477","","","null","","","","","<p><img src= images/blank.png width =""200"" height = ""200"" style = ""float:right""></p><p><img src=images/blank.png width =""800"" height = ""200""></p>","","","","","","","",""
"","1103.9700000001467","sequential-stimulus-presentation","113","279839","0.0-23.0-1.7","SS1613079952477","trial","","40","800","1903.9700000001467","images/stimuli/spore_stims/complex_19_B_a.gif","images/stimuli/spore_stims/complex_19_A_a.gif","","","","","5","complex_similar","images/stimuli/spore_stims/complex_19_A_a.gif","left",""
"","1649.3449999997974","html-keyboard-response","114","281493","0.0-24.0","SS1613079952477","pref_question","","51","","","","","<video width ='960' height = '540' style='padding-top:8%' autoplay muted><source src='images/stimuli/wall_pref.mp4' type='video/mp4'></video>","3","right","66%","5","","","",""
"","4505.024999999499","sequential-stimulus-presentation","115","286805","0.0-25.0","SS1613079952477","pref_reveal","","40","800","5305.024999999499","null","null","","","","","5","","","","novel"
"","null","html-keyboard-response","116","288085","0.0-26.0-0.0","SS1613079952477","","","null","","","","","<p><img src= images/blank.png width =""200"" height = ""200"" style = ""float:right""></p><p><img src=images/blank.png width =""800"" height = ""200""></p>","","","","","","","",""
"","1930.2649999999558","sequential-stimulus-presentation","117","290829","0.0-26.0-1.0","SS1613079952477","trial","","40","800","2730.2649999999558","images/stimuli/spore_stims/simple_12_B_a.gif","images/stimuli/spore_stims/simple_12_A_a.gif","","","","","6","simple_similar","images/stimuli/spore_stims/simple_12_A_a.gif","middle",""
"","null","html-keyboard-response","118","291688","0.0-26.0-0.1","SS1613079952477","","","null","","","","","<p><img src= images/blank.png width =""200"" height = ""200"" style = ""float:right""></p><p><img src=images/blank.png width =""800"" height = ""200""></p>","","","","","","","",""
"","1021.2750000000815","sequential-stimulus-presentation","119","293517","0.0-26.0-1.1","SS1613079952477","trial","","40","800","1821.2750000000815","images/stimuli/spore_stims/simple_12_B_a.gif","images/stimuli/spore_stims/simple_12_A_a.gif","","","","","6","simple_similar","images/stimuli/spore_stims/simple_12_A_a.gif","middle",""
"","null","html-keyboard-response","120","294720","0.0-26.0-0.2","SS1613079952477","","","null","","","","","<p><img src= images/blank.png width =""200"" height = ""200"" style = ""float:right""></p><p><img src=images/blank.png width =""800"" height = ""200""></p>","","","","","","","",""
"","896.2600000004168","sequential-stimulus-presentation","121","296436","0.0-26.0-1.2","SS1613079952477","trial","","40","800","1696.2600000004168","images/stimuli/spore_stims/simple_12_B_a.gif","images/stimuli/spore_stims/simple_12_A_a.gif","","","","","6","simple_similar","images/stimuli/spore_stims/simple_12_A_a.gif","middle",""
"","null","html-keyboard-response","122","297707","0.0-26.0-0.3","SS1613079952477","","","null","","","","","<p><img src= images/blank.png width =""200"" height = ""200"" style = ""float:right""></p><p><img src=images/blank.png width =""800"" height = ""200""></p>","","","","","","","",""
"","391.5399999996298","sequential-stimulus-presentation","123","298908","0.0-26.0-1.3","SS1613079952477","trial","","40","800","1191.5399999996298","images/stimuli/spore_stims/simple_12_B_a.gif","images/stimuli/spore_stims/simple_12_A_a.gif","","","","","6","simple_similar","images/stimuli/spore_stims/simple_12_A_a.gif","middle",""
"","null","html-keyboard-response","124","300201","0.0-26.0-0.4","SS1613079952477","","","null","","","","","<p><img src= images/blank.png width =""200"" height = ""200"" style = ""float:right""></p><p><img src=images/blank.png width =""800"" height = ""200""></p>","","","","","","","",""
"","403.18000000022585","sequential-stimulus-presentation","125","301422","0.0-26.0-1.4","SS1613079952477","trial","","40","800","1203.1800000002258","images/stimuli/spore_stims/simple_12_B_a.gif","images/stimuli/spore_stims/simple_12_A_a.gif","","","","","6","simple_similar","images/stimuli/spore_stims/simple_12_A_a.gif","middle",""
"","null","html-keyboard-response","126","302715","0.0-26.0-0.5","SS1613079952477","","","null","","","","","<p><img src= images/blank.png width =""200"" height = ""200"" style = ""float:right""></p><p><img src=images/blank.png width =""800"" height = ""200""></p>","","","","","","","",""
"","433.8900000002468","sequential-stimulus-presentation","127","303956","0.0-26.0-1.5","SS1613079952477","trial","","40","800","1233.8900000002468","images/stimuli/spore_stims/simple_12_B_a.gif","images/stimuli/spore_stims/simple_12_A_a.gif","","","","","6","simple_similar","images/stimuli/spore_stims/simple_12_A_a.gif","middle",""
"","null","html-keyboard-response","128","305064","0.0-26.0-0.6","SS1613079952477","","","null","","","","","<p><img src= images/blank.png width =""200"" height = ""200"" style = ""float:right""></p><p><img src=images/blank.png width =""800"" height = ""200""></p>","","","","","","","",""
"","1340.8049999998184","sequential-stimulus-presentation","129","307213","0.0-26.0-1.6","SS1613079952477","trial","","40","800","2140.8049999998184","images/stimuli/spore_stims/simple_12_B_a.gif","images/stimuli/spore_stims/simple_12_A_a.gif","","","","","6","simple_similar","images/stimuli/spore_stims/simple_12_B_a.gif","left",""
"","null","html-keyboard-response","130","308378","0.0-26.0-0.7","SS1613079952477","","","null","","","","","<p><img src= images/blank.png width =""200"" height = ""200"" style = ""float:right""></p><p><img src=images/blank.png width =""800"" height = ""200""></p>","","","","","","","",""
"","40.84500000043772","sequential-stimulus-presentation","131","309229","0.0-26.0-1.7","SS1613079952477","trial","","40","800","840.8450000004377","images/stimuli/spore_stims/simple_12_B_a.gif","images/stimuli/spore_stims/simple_12_A_a.gif","","","","","6","simple_similar","images/stimuli/spore_stims/simple_12_A_a.gif","middle",""
"","1216.4400000001187","html-keyboard-response","132","310453","0.0-27.0","SS1613079952477","pref_question","","51","","","","","<video width ='960' height = '540' style='padding-top:8%' autoplay muted><source src='images/stimuli/wall_pref.mp4' type='video/mp4'></video>","3","right","66%","6","","","",""
"","3600.2499999995343","sequential-stimulus-presentation","133","314862","0.0-28.0","SS1613079952477","pref_reveal","","40","800","4400.249999999534","null","null","","","","","6","","","","novel"
"","null","html-keyboard-response","134","316159","0.0-29.0-0.0","SS1613079952477","","","null","","","","","<p><img src= images/blank.png width =""200"" height = ""200"" style = ""float:right""></p><p><img src=images/blank.png width =""800"" height = ""200""></p>","","","","","","","",""
"","1860.340000000142","sequential-stimulus-presentation","135","318828","0.0-29.0-1.0","SS1613079952477","trial","","40","800","2660.340000000142","images/stimuli/spore_stims/simple_18_A_a.gif","images/stimuli/spore_stims/simple_18_B_a.gif","","","","","7","simple_similar","images/stimuli/spore_stims/simple_18_B_a.gif","middle",""
"","null","html-keyboard-response","136","319942","0.0-29.0-0.1","SS1613079952477","","","null","","","","","<p><img src= images/blank.png width =""200"" height = ""200"" style = ""float:right""></p><p><img src=images/blank.png width =""800"" height = ""200""></p>","","","","","","","",""
"","1053.1749999999884","sequential-stimulus-presentation","137","321804","0.0-29.0-1.1","SS1613079952477","trial","","40","800","1853.1749999999884","images/stimuli/spore_stims/simple_18_A_a.gif","images/stimuli/spore_stims/simple_18_B_a.gif","","","","","7","simple_similar","images/stimuli/spore_stims/simple_18_B_a.gif","middle",""
"","null","html-keyboard-response","138","322902","0.0-29.0-0.2","SS1613079952477","","","null","","","","","<p><img src= images/blank.png width =""200"" height = ""200"" style = ""float:right""></p><p><img src=images/blank.png width =""800"" height = ""200""></p>","","","","","","","",""
"","3503.2799999999115","sequential-stimulus-presentation","139","327214","0.0-29.0-1.2","SS1613079952477","trial","","40","800","4303.2799999999115","images/stimuli/spore_stims/simple_18_A_a.gif","images/stimuli/spore_stims/simple_18_B_a.gif","","","","","7","simple_similar","images/stimuli/spore_stims/simple_18_A_a.gif","right",""
"","null","html-keyboard-response","140","328279","0.0-29.0-0.3","SS1613079952477","","","null","","","","","<p><img src= images/blank.png width =""200"" height = ""200"" style = ""float:right""></p><p><img src=images/blank.png width =""800"" height = ""200""></p>","","","","","","","",""
"","3506.844999999914","sequential-stimulus-presentation","141","332596","0.0-29.0-1.3","SS1613079952477","trial","","40","800","4306.844999999914","images/stimuli/spore_stims/simple_18_A_a.gif","images/stimuli/spore_stims/simple_18_B_a.gif","","","","","7","simple_similar","images/stimuli/spore_stims/simple_18_B_a.gif","middle",""
"","null","html-keyboard-response","142","333455","0.0-29.0-0.4","SS1613079952477","","","null","","","","","<p><img src= images/blank.png width =""200"" height = ""200"" style = ""float:right""></p><p><img src=images/blank.png width =""800"" height = ""200""></p>","","","","","","","",""
"","316.820000000007","sequential-stimulus-presentation","143","334580","0.0-29.0-1.4","SS1613079952477","trial","","40","800","1116.820000000007","images/stimuli/spore_stims/simple_18_A_a.gif","images/stimuli/spore_stims/simple_18_B_a.gif","","","","","7","simple_similar","images/stimuli/spore_stims/simple_18_B_a.gif","middle",""
"","null","html-keyboard-response","144","335883","0.0-29.0-0.5","SS1613079952477","","","null","","","","","<p><img src= images/blank.png width =""200"" height = ""200"" style = ""float:right""></p><p><img src=images/blank.png width =""800"" height = ""200""></p>","","","","","","","",""
"","785.1399999999558","sequential-stimulus-presentation","145","337477","0.0-29.0-1.5","SS1613079952477","trial","","40","800","1585.1399999999558","images/stimuli/spore_stims/simple_18_A_a.gif","images/stimuli/spore_stims/simple_18_B_a.gif","","","","","7","simple_similar","images/stimuli/spore_stims/simple_18_B_a.gif","middle",""
"","null","html-keyboard-response","146","338690","0.0-29.0-0.6","SS1613079952477","","","null","","","","","<p><img src= images/blank.png width =""200"" height = ""200"" style = ""float:right""></p><p><img src=images/blank.png width =""800"" height = ""200""></p>","","","","","","","",""
"","738.4050000000861","sequential-stimulus-presentation","147","340236","0.0-29.0-1.6","SS1613079952477","trial","","40","800","1538.4050000000861","images/stimuli/spore_stims/simple_18_A_a.gif","images/stimuli/spore_stims/simple_18_B_a.gif","","","","","7","simple_similar","images/stimuli/spore_stims/simple_18_B_a.gif","middle",""
"","null","html-keyboard-response","148","341202","0.0-29.0-0.7","SS1613079952477","","","null","","","","","<p><img src= images/blank.png width =""200"" height = ""200"" style = ""float:right""></p><p><img src=images/blank.png width =""800"" height = ""200""></p>","","","","","","","",""
"","444.00000000040745","sequential-stimulus-presentation","149","342452","0.0-29.0-1.7","SS1613079952477","trial","","40","800","1244.0000000004075","images/stimuli/spore_stims/simple_18_A_a.gif","images/stimuli/spore_stims/simple_18_B_a.gif","","","","","7","simple_similar","images/stimuli/spore_stims/simple_18_B_a.gif","middle",""
"","1015.6999999999534","html-keyboard-response","150","343477","0.0-30.0","SS1613079952477","pref_question","","49","","","","","<video width ='960' height = '540' style='padding-top:8%' autoplay muted><source src='images/stimuli/wall_pref.mp4' type='video/mp4'></video>","1","left","25%","7","","","",""
"","3776.7649999996065","sequential-stimulus-presentation","151","348062","0.0-31.0","SS1613079952477","pref_reveal","","40","800","4576.7649999996065","null","null","","","","","7","","","","novel"
"","null","html-keyboard-response","152","349240","0.0-32.0-0.0","SS1613079952477","","","null","","","","","<p><img src= images/blank.png width =""200"" height = ""200"" style = ""float:right""></p><p><img src=images/blank.png width =""800"" height = ""200""></p>","","","","","","","",""
"","2842.7500000006985","sequential-stimulus-presentation","153","352893","0.0-32.0-1.0","SS1613079952477","trial","","40","800","3642.7500000006985","images/stimuli/spore_stims/complex_08_A_c.gif","images/stimuli/spore_stims/complex_08_B_c.gif","","","","","8","complex_similar","images/stimuli/spore_stims/complex_08_B_c.gif","left",""
"","null","html-keyboard-response","154","353734","0.0-32.0-0.1","SS1613079952477","","","null","","","","","<p><img src= images/blank.png width =""200"" height = ""200"" style = ""float:right""></p><p><img src=images/blank.png width =""800"" height = ""200""></p>","","","","","","","",""
"","2139.7649999998976","sequential-stimulus-presentation","155","356685","0.0-32.0-1.1","SS1613079952477","trial","","40","800","2939.7649999998976","images/stimuli/spore_stims/complex_08_A_c.gif","images/stimuli/spore_stims/complex_08_B_c.gif","","","","","8","complex_similar","images/stimuli/spore_stims/complex_08_B_c.gif","left",""
"","null","html-keyboard-response","156","357783","0.0-32.0-0.2","SS1613079952477","","","null","","","","","<p><img src= images/blank.png width =""200"" height = ""200"" style = ""float:right""></p><p><img src=images/blank.png width =""800"" height = ""200""></p>","","","","","","","",""
"","996.3799999995972","sequential-stimulus-presentation","157","359590","0.0-32.0-1.2","SS1613079952477","trial","","40","800","1796.3799999995972","images/stimuli/spore_stims/complex_08_A_c.gif","images/stimuli/spore_stims/complex_08_B_c.gif","","","","","8","complex_similar","images/stimuli/spore_stims/complex_08_B_c.gif","left",""
"","null","html-keyboard-response","158","360881","0.0-32.0-0.3","SS1613079952477","","","null","","","","","<p><img src= images/blank.png width =""200"" height = ""200"" style = ""float:right""></p><p><img src=images/blank.png width =""800"" height = ""200""></p>","","","","","","","",""
"","495.0049999997718","sequential-stimulus-presentation","159","362189","0.0-32.0-1.3","SS1613079952477","trial","","40","800","1295.0049999997718","images/stimuli/spore_stims/complex_08_A_c.gif","images/stimuli/spore_stims/complex_08_B_c.gif","","","","","8","complex_similar","images/stimuli/spore_stims/complex_08_B_c.gif","left",""
"","null","html-keyboard-response","160","363376","0.0-32.0-0.4","SS1613079952477","","","null","","","","","<p><img src= images/blank.png width =""200"" height = ""200"" style = ""float:right""></p><p><img src=images/blank.png width =""800"" height = ""200""></p>","","","","","","","",""
"","1132.439999999362","sequential-stimulus-presentation","161","365316","0.0-32.0-1.4","SS1613079952477","trial","","40","800","1932.439999999362","images/stimuli/spore_stims/complex_08_A_c.gif","images/stimuli/spore_stims/complex_08_B_c.gif","","","","","8","complex_similar","images/stimuli/spore_stims/complex_08_B_c.gif","left",""
"","null","html-keyboard-response","162","366326","0.0-32.0-0.5","SS1613079952477","","","null","","","","","<p><img src= images/blank.png width =""200"" height = ""200"" style = ""float:right""></p><p><img src=images/blank.png width =""800"" height = ""200""></p>","","","","","","","",""
"","1287.7049999997253","sequential-stimulus-presentation","163","368428","0.0-32.0-1.5","SS1613079952477","trial","","40","800","2087.7049999997253","images/stimuli/spore_stims/complex_08_A_c.gif","images/stimuli/spore_stims/complex_08_B_c.gif","","","","","8","complex_similar","images/stimuli/spore_stims/complex_08_B_c.gif","left",""
"","null","html-keyboard-response","164","369508","0.0-32.0-0.6","SS1613079952477","","","null","","","","","<p><img src= images/blank.png width =""200"" height = ""200"" style = ""float:right""></p><p><img src=images/blank.png width =""800"" height = ""200""></p>","","","","","","","",""
"","397.5950000003795","sequential-stimulus-presentation","165","370718","0.0-32.0-1.6","SS1613079952477","trial","","40","800","1197.5950000003795","images/stimuli/spore_stims/complex_08_A_c.gif","images/stimuli/spore_stims/complex_08_B_c.gif","","","","","8","complex_similar","images/stimuli/spore_stims/complex_08_B_c.gif","left",""
"","null","html-keyboard-response","166","371799","0.0-32.0-0.7","SS1613079952477","","","null","","","","","<p><img src= images/blank.png width =""200"" height = ""200"" style = ""float:right""></p><p><img src=images/blank.png width =""800"" height = ""200""></p>","","","","","","","",""
"","1356.8850000001257","sequential-stimulus-presentation","167","373964","0.0-32.0-1.7","SS1613079952477","trial","","40","800","2156.8850000001257","images/stimuli/spore_stims/complex_08_A_c.gif","images/stimuli/spore_stims/complex_08_B_c.gif","","","","","8","complex_similar","images/stimuli/spore_stims/complex_08_A_c.gif","middle",""
"","3668.9999999998836","html-keyboard-response","168","377645","0.0-33.0","SS1613079952477","pref_question","","51","","","","","<video width ='960' height = '540' style='padding-top:8%' autoplay muted><source src='images/stimuli/wall_pref.mp4' type='video/mp4'></video>","3","right","66%","8","","","",""
"","2600.1699999996927","sequential-stimulus-presentation","169","381053","0.0-34.0","SS1613079952477","pref_reveal","","40","800","3400.1699999996927","null","null","","","","","8","","","","novel"
"","null","html-keyboard-response","170","381921","0.0-35.0-0.0","SS1613079952477","","","null","","","","","<p><img src= images/blank.png width =""200"" height = ""200"" style = ""float:right""></p><p><img src=images/blank.png width =""800"" height = ""200""></p>","","","","","","","",""
"","1739.8300000004238","sequential-stimulus-presentation","171","384477","0.0-35.0-1.0","SS1613079952477","trial","","40","800","2539.8300000004238","images/stimuli/spore_stims/simple_05_B_b.gif","images/stimuli/spore_stims/simple_09_A_d.gif","","","","","9","simple_dissimilar","images/stimuli/spore_stims/simple_09_A_d.gif","right",""
"","null","html-keyboard-response","172","385620","0.0-35.0-0.1","SS1613079952477","","","null","","","","","<p><img src= images/blank.png width =""200"" height = ""200"" style = ""float:right""></p><p><img src=images/blank.png width =""800"" height = ""200""></p>","","","","","","","",""
"","1953.039999999397","sequential-stimulus-presentation","173","388387","0.0-35.0-1.1","SS1613079952477","trial","","40","800","2753.039999999397","images/stimuli/spore_stims/simple_05_B_b.gif","images/stimuli/spore_stims/simple_09_A_d.gif","","","","","9","simple_dissimilar","images/stimuli/spore_stims/simple_09_A_d.gif","right",""
"","null","html-keyboard-response","174","389318","0.0-35.0-0.2","SS1613079952477","","","null","","","","","<p><img src= images/blank.png width =""200"" height = ""200"" style = ""float:right""></p><p><img src=images/blank.png width =""800"" height = ""200""></p>","","","","","","","",""
"","409.609999999695","sequential-stimulus-presentation","175","390541","0.0-35.0-1.2","SS1613079952477","trial","","40","800","1209.609999999695","images/stimuli/spore_stims/simple_05_B_b.gif","images/stimuli/spore_stims/simple_09_A_d.gif","","","","","9","simple_dissimilar","images/stimuli/spore_stims/simple_09_A_d.gif","right",""
"","null","html-keyboard-response","176","391689","0.0-35.0-0.3","SS1613079952477","","","null","","","","","<p><img src= images/blank.png width =""200"" height = ""200"" style = ""float:right""></p><p><img src=images/blank.png width =""800"" height = ""200""></p>","","","","","","","",""
"","577.3149999995949","sequential-stimulus-presentation","177","393078","0.0-35.0-1.3","SS1613079952477","trial","","40","800","1377.3149999995949","images/stimuli/spore_stims/simple_05_B_b.gif","images/stimuli/spore_stims/simple_09_A_d.gif","","","","","9","simple_dissimilar","images/stimuli/spore_stims/simple_09_A_d.gif","right",""
"","null","html-keyboard-response","178","394105","0.0-35.0-0.4","SS1613079952477","","","null","","","","","<p><img src= images/blank.png width =""200"" height = ""200"" style = ""float:right""></p><p><img src=images/blank.png width =""800"" height = ""200""></p>","","","","","","","",""
"","393.54000000003725","sequential-stimulus-presentation","179","395308","0.0-35.0-1.4","SS1613079952477","trial","","40","800","1193.5400000000373","images/stimuli/spore_stims/simple_05_B_b.gif","images/stimuli/spore_stims/simple_09_A_d.gif","","","","","9","simple_dissimilar","images/stimuli/spore_stims/simple_09_A_d.gif","right",""
"","null","html-keyboard-response","180","396186","0.0-35.0-0.5","SS1613079952477","","","null","","","","","<p><img src= images/blank.png width =""200"" height = ""200"" style = ""float:right""></p><p><img src=images/blank.png width =""800"" height = ""200""></p>","","","","","","","",""
"","1248.5449999994598","sequential-stimulus-presentation","181","398244","0.0-35.0-1.5","SS1613079952477","trial","","40","800","2048.54499999946","images/stimuli/spore_stims/simple_05_B_b.gif","images/stimuli/spore_stims/simple_09_A_d.gif","","","","","9","simple_dissimilar","images/stimuli/spore_stims/simple_05_B_b.gif","left",""
"","null","html-keyboard-response","182","399322","0.0-35.0-0.6","SS1613079952477","","","null","","","","","<p><img src= images/blank.png width =""200"" height = ""200"" style = ""float:right""></p><p><img src=images/blank.png width =""800"" height = ""200""></p>","","","","","","","",""
"","1264.880000000645","sequential-stimulus-presentation","183","401396","0.0-35.0-1.6","SS1613079952477","trial","","40","800","2064.880000000645","images/stimuli/spore_stims/simple_05_B_b.gif","images/stimuli/spore_stims/simple_09_A_d.gif","","","","","9","simple_dissimilar","images/stimuli/spore_stims/simple_09_A_d.gif","right",""
"","null","html-keyboard-response","184","402277","0.0-35.0-0.7","SS1613079952477","","","null","","","","","<p><img src= images/blank.png width =""200"" height = ""200"" style = ""float:right""></p><p><img src=images/blank.png width =""800"" height = ""200""></p>","","","","","","","",""
"","579.445000000298","sequential-stimulus-presentation","185","403670","0.0-35.0-1.7","SS1613079952477","trial","","40","800","1379.445000000298","images/stimuli/spore_stims/simple_05_B_b.gif","images/stimuli/spore_stims/simple_09_A_d.gif","","","","","9","simple_dissimilar","images/stimuli/spore_stims/simple_09_A_d.gif","right",""
"","1350.9650000005495","html-keyboard-response","186","405028","0.0-36.0","SS1613079952477","pref_question","","50","","","","","<video width ='960' height = '540' style='padding-top:8%' autoplay muted><source src='images/stimuli/wall_pref.mp4' type='video/mp4'></video>","2","middle","45%","9","","","",""
"","2295.57000000024","sequential-stimulus-presentation","187","408131","0.0-37.0","SS1613079952477","pref_reveal","","40","800","3095.57000000024","null","null","","","","","9","","","","novel"
"","null","html-keyboard-response","188","409432","0.0-38.0-0.0","SS1613079952477","","","null","","","","","<p><img src= images/blank.png width =""200"" height = ""200"" style = ""float:right""></p><p><img src=images/blank.png width =""800"" height = ""200""></p>","","","","","","","",""
"","2210.4349999999977","sequential-stimulus-presentation","189","412452","0.0-38.0-1.0","SS1613079952477","trial","","40","800","3010.4349999999977","images/stimuli/spore_stims/simple_10_B_c.gif","images/stimuli/spore_stims/simple_10_A_c.gif","","","","","10","simple_similar","images/stimuli/spore_stims/simple_10_A_c.gif","right",""
"","null","html-keyboard-response","190","413353","0.0-38.0-0.1","SS1613079952477","","","null","","","","","<p><img src= images/blank.png width =""200"" height = ""200"" style = ""float:right""></p><p><img src=images/blank.png width =""800"" height = ""200""></p>","","","","","","","",""
"","987.6349999994854","sequential-stimulus-presentation","191","415158","0.0-38.0-1.1","SS1613079952477","trial","","40","800","1787.6349999994854","images/stimuli/spore_stims/simple_10_B_c.gif","images/stimuli/spore_stims/simple_10_A_c.gif","","","","","10","simple_similar","images/stimuli/spore_stims/simple_10_A_c.gif","right",""
"","null","html-keyboard-response","192","416120","0.0-38.0-0.2","SS1613079952477","","","null","","","","","<p><img src= images/blank.png width =""200"" height = ""200"" style = ""float:right""></p><p><img src=images/blank.png width =""800"" height = ""200""></p>","","","","","","","",""
"","1396.2750000000815","sequential-stimulus-presentation","193","418327","0.0-38.0-1.2","SS1613079952477","trial","","40","800","2196.2750000000815","images/stimuli/spore_stims/simple_10_B_c.gif","images/stimuli/spore_stims/simple_10_A_c.gif","","","","","10","simple_similar","images/stimuli/spore_stims/simple_10_B_c.gif","left",""
"","null","html-keyboard-response","194","419409","0.0-38.0-0.3","SS1613079952477","","","null","","","","","<p><img src= images/blank.png width =""200"" height = ""200"" style = ""float:right""></p><p><img src=images/blank.png width =""800"" height = ""200""></p>","","","","","","","",""
"","3177.890000000829","sequential-stimulus-presentation","195","423395","0.0-38.0-1.3","SS1613079952477","trial","","40","800","3977.890000000829","images/stimuli/spore_stims/simple_10_B_c.gif","images/stimuli/spore_stims/simple_10_A_c.gif","","","","","10","simple_similar","images/stimuli/spore_stims/simple_10_A_c.gif","right",""
"","null","html-keyboard-response","196","424455","0.0-38.0-0.4","SS1613079952477","","","null","","","","","<p><img src= images/blank.png width =""200"" height = ""200"" style = ""float:right""></p><p><img src=images/blank.png width =""800"" height = ""200""></p>","","","","","","","",""
"","508.9850000003935","sequential-stimulus-presentation","197","425774","0.0-38.0-1.4","SS1613079952477","trial","","40","800","1308.9850000003935","images/stimuli/spore_stims/simple_10_B_c.gif","images/stimuli/spore_stims/simple_10_A_c.gif","","","","","10","simple_similar","images/stimuli/spore_stims/simple_10_A_c.gif","right",""
"","null","html-keyboard-response","198","426871","0.0-38.0-0.5","SS1613079952477","","","null","","","","","<p><img src= images/blank.png width =""200"" height = ""200"" style = ""float:right""></p><p><img src=images/blank.png width =""800"" height = ""200""></p>","","","","","","","",""
"","387.5749999997206","sequential-stimulus-presentation","199","428067","0.0-38.0-1.5","SS1613079952477","trial","","40","800","1187.5749999997206","images/stimuli/spore_stims/simple_10_B_c.gif","images/stimuli/spore_stims/simple_10_A_c.gif","","","","","10","simple_similar","images/stimuli/spore_stims/simple_10_A_c.gif","right",""
"","null","html-keyboard-response","200","428954","0.0-38.0-0.6","SS1613079952477","","","null","","","","","<p><img src= images/blank.png width =""200"" height = ""200"" style = ""float:right""></p><p><img src=images/blank.png width =""800"" height = ""200""></p>","","","","","","","",""
"","408.0699999995413","sequential-stimulus-presentation","201","430173","0.0-38.0-1.6","SS1613079952477","trial","","40","800","1208.0699999995413","images/stimuli/spore_stims/simple_10_B_c.gif","images/stimuli/spore_stims/simple_10_A_c.gif","","","","","10","simple_similar","images/stimuli/spore_stims/simple_10_A_c.gif","right",""
"","null","html-keyboard-response","202","431244","0.0-38.0-0.7","SS1613079952477","","","null","","","","","<p><img src= images/blank.png width =""200"" height = ""200"" style = ""float:right""></p><p><img src=images/blank.png width =""800"" height = ""200""></p>","","","","","","","",""
"","380.7249999999767","sequential-stimulus-presentation","203","432435","0.0-38.0-1.7","SS1613079952477","trial","","40","800","1180.7249999999767","images/stimuli/spore_stims/simple_10_B_c.gif","images/stimuli/spore_stims/simple_10_A_c.gif","","","","","10","simple_similar","images/stimuli/spore_stims/simple_10_A_c.gif","right",""
"","2456.6900000000023","html-keyboard-response","204","434900","0.0-39.0","SS1613079952477","pref_question","","50","","","","","<video width ='960' height = '540' style='padding-top:8%' autoplay muted><source src='images/stimuli/wall_pref.mp4' type='video/mp4'></video>","2","middle","45%","10","","","",""
"","2080.74000000034","sequential-stimulus-presentation","205","437805","0.0-40.0","SS1613079952477","pref_reveal","","40","800","2880.74000000034","null","null","","","","","10","","","","novel"
"","null","html-keyboard-response","206","439002","0.0-41.0-0.0","SS1613079952477","","","null","","","","","<p><img src= images/blank.png width =""200"" height = ""200"" style = ""float:right""></p><p><img src=images/blank.png width =""800"" height = ""200""></p>","","","","","","","",""
"","711.4050000000279","sequential-stimulus-presentation","207","440524","0.0-41.0-1.0","SS1613079952477","trial","","40","800","1511.405000000028","images/stimuli/spore_stims/complex_03_A_d.gif","images/stimuli/spore_stims/complex_02_A_c.gif","","","","","11","complex_dissimilar","images/stimuli/spore_stims/complex_02_A_c.gif","right",""
"","null","html-keyboard-response","208","441414","0.0-41.0-0.1","SS1613079952477","","","null","","","","","<p><img src= images/blank.png width =""200"" height = ""200"" style = ""float:right""></p><p><img src=images/blank.png width =""800"" height = ""200""></p>","","","","","","","",""
"","387.66000000032363","sequential-stimulus-presentation","209","442612","0.0-41.0-1.1","SS1613079952477","trial","","40","800","1187.6600000003236","images/stimuli/spore_stims/complex_03_A_d.gif","images/stimuli/spore_stims/complex_02_A_c.gif","","","","","11","complex_dissimilar","images/stimuli/spore_stims/complex_02_A_c.gif","right",""
"","null","html-keyboard-response","210","443649","0.0-41.0-0.2","SS1613079952477","","","null","","","","","<p><img src= images/blank.png width =""200"" height = ""200"" style = ""float:right""></p><p><img src=images/blank.png width =""800"" height = ""200""></p>","","","","","","","",""
"","336.01499999989755","sequential-stimulus-presentation","211","444795","0.0-41.0-1.2","SS1613079952477","trial","","40","800","1136.0149999998976","images/stimuli/spore_stims/complex_03_A_d.gif","images/stimuli/spore_stims/complex_02_A_c.gif","","","","","11","complex_dissimilar","images/stimuli/spore_stims/complex_02_A_c.gif","right",""
"","null","html-keyboard-response","212","445968","0.0-41.0-0.3","SS1613079952477","","","null","","","","","<p><img src= images/blank.png width =""200"" height = ""200"" style = ""float:right""></p><p><img src=images/blank.png width =""800"" height = ""200""></p>","","","","","","","",""
"","249.98499999946216","sequential-stimulus-presentation","213","447028","0.0-41.0-1.3","SS1613079952477","trial","","40","800","1049.9849999994622","images/stimuli/spore_stims/complex_03_A_d.gif","images/stimuli/spore_stims/complex_02_A_c.gif","","","","","11","complex_dissimilar","images/stimuli/spore_stims/complex_02_A_c.gif","right",""
"","null","html-keyboard-response","214","448043","0.0-41.0-0.4","SS1613079952477","","","null","","","","","<p><img src= images/blank.png width =""200"" height = ""200"" style = ""float:right""></p><p><img src=images/blank.png width =""800"" height = ""200""></p>","","","","","","","",""
"","88.53499999985797","sequential-stimulus-presentation","215","448941","0.0-41.0-1.4","SS1613079952477","trial","","40","800","888.534999999858","images/stimuli/spore_stims/complex_03_A_d.gif","images/stimuli/spore_stims/complex_02_A_c.gif","","","","","11","complex_dissimilar","images/stimuli/spore_stims/complex_02_A_c.gif","right",""
"","null","html-keyboard-response","216","450127","0.0-41.0-0.5","SS1613079952477","","","null","","","","","<p><img src= images/blank.png width =""200"" height = ""200"" style = ""float:right""></p><p><img src=images/blank.png width =""800"" height = ""200""></p>","","","","","","","",""
"","252.04500000015832","sequential-stimulus-presentation","217","451188","0.0-41.0-1.5","SS1613079952477","trial","","40","800","1052.0450000001583","images/stimuli/spore_stims/complex_03_A_d.gif","images/stimuli/spore_stims/complex_02_A_c.gif","","","","","11","complex_dissimilar","images/stimuli/spore_stims/complex_02_A_c.gif","right",""
"","null","html-keyboard-response","218","452375","0.0-41.0-0.6","SS1613079952477","","","null","","","","","<p><img src= images/blank.png width =""200"" height = ""200"" style = ""float:right""></p><p><img src=images/blank.png width =""800"" height = ""200""></p>","","","","","","","",""
"","358.80999999976484","sequential-stimulus-presentation","219","453548","0.0-41.0-1.6","SS1613079952477","trial","","40","800","1158.8099999997648","images/stimuli/spore_stims/complex_03_A_d.gif","images/stimuli/spore_stims/complex_02_A_c.gif","","","","","11","complex_dissimilar","images/stimuli/spore_stims/complex_03_A_d.gif","left",""
"","null","html-keyboard-response","220","454826","0.0-41.0-0.7","SS1613079952477","","","null","","","","","<p><img src= images/blank.png width =""200"" height = ""200"" style = ""float:right""></p><p><img src=images/blank.png width =""800"" height = ""200""></p>","","","","","","","",""
"","264.72999999986496","sequential-stimulus-presentation","221","455900","0.0-41.0-1.7","SS1613079952477","trial","","40","800","1064.729999999865","images/stimuli/spore_stims/complex_03_A_d.gif","images/stimuli/spore_stims/complex_02_A_c.gif","","","","","11","complex_dissimilar","images/stimuli/spore_stims/complex_02_A_c.gif","right",""
"","2195.0349999997416","html-keyboard-response","222","458109","0.0-42.0","SS1613079952477","pref_question","","50","","","","","<video width ='960' height = '540' style='padding-top:8%' autoplay muted><source src='images/stimuli/wall_pref.mp4' type='video/mp4'></video>","2","middle","45%","11","","","",""
"","222.50499999971362","sequential-stimulus-presentation","223","459141","0.0-43.0","SS1613079952477","pref_reveal","","40","800","1022.5049999997136","null","null","","","","","11","","","","novel"
"","null","html-keyboard-response","224","460003","0.0-44.0-0.0","SS1613079952477","","","null","","","","","<p><img src= images/blank.png width =""200"" height = ""200"" style = ""float:right""></p><p><img src=images/blank.png width =""800"" height = ""200""></p>","","","","","","","",""
"","440.050000000163","sequential-stimulus-presentation","225","461252","0.0-44.0-1.0","SS1613079952477","trial","","40","800","1240.050000000163","images/stimuli/spore_stims/complex_17_A_c.gif","images/stimuli/spore_stims/complex_17_B_c.gif","","","","","12","complex_similar","images/stimuli/spore_stims/complex_17_B_c.gif","middle",""
"","null","html-keyboard-response","226","462506","0.0-44.0-0.1","SS1613079952477","","","null","","","","","<p><img src= images/blank.png width =""200"" height = ""200"" style = ""float:right""></p><p><img src=images/blank.png width =""800"" height = ""200""></p>","","","","","","","",""
"","476.695000000298","sequential-stimulus-presentation","227","463796","0.0-44.0-1.1","SS1613079952477","trial","","40","800","1276.695000000298","images/stimuli/spore_stims/complex_17_A_c.gif","images/stimuli/spore_stims/complex_17_B_c.gif","","","","","12","complex_similar","images/stimuli/spore_stims/complex_17_B_c.gif","middle",""
"","null","html-keyboard-response","228","465008","0.0-44.0-0.2","SS1613079952477","","","null","","","","","<p><img src= images/blank.png width =""200"" height = ""200"" style = ""float:right""></p><p><img src=images/blank.png width =""800"" height = ""200""></p>","","","","","","","",""
"","326.5099999998929","sequential-stimulus-presentation","229","466145","0.0-44.0-1.2","SS1613079952477","trial","","40","800","1126.509999999893","images/stimuli/spore_stims/complex_17_A_c.gif","images/stimuli/spore_stims/complex_17_B_c.gif","","","","","12","complex_similar","images/stimuli/spore_stims/complex_17_B_c.gif","middle",""
"","null","html-keyboard-response","230","467054","0.0-44.0-0.3","SS1613079952477","","","null","","","","","<p><img src= images/blank.png width =""200"" height = ""200"" style = ""float:right""></p><p><img src=images/blank.png width =""800"" height = ""200""></p>","","","","","","","",""
"","70.84500000020489","sequential-stimulus-presentation","231","467940","0.0-44.0-1.3","SS1613079952477","trial","","40","800","870.8450000002049","images/stimuli/spore_stims/complex_17_A_c.gif","images/stimuli/spore_stims/complex_17_B_c.gif","","","","","12","complex_similar","images/stimuli/spore_stims/complex_17_B_c.gif","middle",""
"","null","html-keyboard-response","232","468891","0.0-44.0-0.4","SS1613079952477","","","null","","","","","<p><img src= images/blank.png width =""200"" height = ""200"" style = ""float:right""></p><p><img src=images/blank.png width =""800"" height = ""200""></p>","","","","","","","",""
"","113.62499999994179","sequential-stimulus-presentation","233","469820","0.0-44.0-1.4","SS1613079952477","trial","","40","800","913.6249999999418","images/stimuli/spore_stims/complex_17_A_c.gif","images/stimuli/spore_stims/complex_17_B_c.gif","","","","","12","complex_similar","images/stimuli/spore_stims/complex_17_B_c.gif","middle",""
"","null","html-keyboard-response","234","471116","0.0-44.0-0.5","SS1613079952477","","","null","","","","","<p><img src= images/blank.png width =""200"" height = ""200"" style = ""float:right""></p><p><img src=images/blank.png width =""800"" height = ""200""></p>","","","","","","","",""
"","89.60999999998603","sequential-stimulus-presentation","235","472020","0.0-44.0-1.5","SS1613079952477","trial","","40","800","889.609999999986","images/stimuli/spore_stims/complex_17_A_c.gif","images/stimuli/spore_stims/complex_17_B_c.gif","","","","","12","complex_similar","images/stimuli/spore_stims/complex_17_B_c.gif","middle",""
"","null","html-keyboard-response","236","473017","0.0-44.0-0.6","SS1613079952477","","","null","","","","","<p><img src= images/blank.png width =""200"" height = ""200"" style = ""float:right""></p><p><img src=images/blank.png width =""800"" height = ""200""></p>","","","","","","","",""
"","225.92499999969732","sequential-stimulus-presentation","237","474052","0.0-44.0-1.6","SS1613079952477","trial","","40","800","1025.9249999996973","images/stimuli/spore_stims/complex_17_A_c.gif","images/stimuli/spore_stims/complex_17_B_c.gif","","","","","12","complex_similar","images/stimuli/spore_stims/complex_17_A_c.gif","right",""
"","null","html-keyboard-response","238","474980","0.0-44.0-0.7","SS1613079952477","","","null","","","","","<p><img src= images/blank.png width =""200"" height = ""200"" style = ""float:right""></p><p><img src=images/blank.png width =""800"" height = ""200""></p>","","","","","","","",""
"","412.8650000002817","sequential-stimulus-presentation","239","476204","0.0-44.0-1.7","SS1613079952477","trial","","40","800","1212.8650000002817","images/stimuli/spore_stims/complex_17_A_c.gif","images/stimuli/spore_stims/complex_17_B_c.gif","","","","","12","complex_similar","images/stimuli/spore_stims/complex_17_B_c.gif","middle",""
"","2168.3400000002002","html-keyboard-response","240","478388","0.0-45.0","SS1613079952477","pref_question","","50","","","","","<video width ='960' height = '540' style='padding-top:8%' autoplay muted><source src='images/stimuli/wall_pref.mp4' type='video/mp4'></video>","2","middle","45%","12","","","",""
"","87.35000000067521","sequential-stimulus-presentation","241","479284","0.0-46.0","SS1613079952477","pref_reveal","","40","800","887.3500000006752","null","null","","","","","12","","","","background"
"","null","html-keyboard-response","242","480546","0.0-47.0-0.0","SS1613079952477","","","null","","","","","<p><img src= images/blank.png width =""200"" height = ""200"" style = ""float:right""></p><p><img src=images/blank.png width =""800"" height = ""200""></p>","","","","","","","",""
"","63.675000000337604","sequential-stimulus-presentation","243","481419","0.0-47.0-1.0","SS1613079952477","trial","","40","800","863.6750000003376","images/stimuli/spore_stims/complex_01_A_b.gif","images/stimuli/spore_stims/complex_01_B_b.gif","","","","","13","complex_similar","images/stimuli/spore_stims/complex_01_B_b.gif","right",""
"","null","html-keyboard-response","244","482730","0.0-47.0-0.1","SS1613079952477","","","null","","","","","<p><img src= images/blank.png width =""200"" height = ""200"" style = ""float:right""></p><p><img src=images/blank.png width =""800"" height = ""200""></p>","","","","","","","",""
"","143.8799999996554","sequential-stimulus-presentation","245","483684","0.0-47.0-1.1","SS1613079952477","trial","","40","800","943.8799999996554","images/stimuli/spore_stims/complex_01_A_b.gif","images/stimuli/spore_stims/complex_01_B_b.gif","","","","","13","complex_similar","images/stimuli/spore_stims/complex_01_B_b.gif","right",""
"","null","html-keyboard-response","246","484873","0.0-47.0-0.2","SS1613079952477","","","null","","","","","<p><img src= images/blank.png width =""200"" height = ""200"" style = ""float:right""></p><p><img src=images/blank.png width =""800"" height = ""200""></p>","","","","","","","",""
"","228.8300000000163","sequential-stimulus-presentation","247","485916","0.0-47.0-1.2","SS1613079952477","trial","","40","800","1028.8300000000163","images/stimuli/spore_stims/complex_01_A_b.gif","images/stimuli/spore_stims/complex_01_B_b.gif","","","","","13","complex_similar","images/stimuli/spore_stims/complex_01_B_b.gif","right",""
"","null","html-keyboard-response","248","486944","0.0-47.0-0.3","SS1613079952477","","","null","","","","","<p><img src= images/blank.png width =""200"" height = ""200"" style = ""float:right""></p><p><img src=images/blank.png width =""800"" height = ""200""></p>","","","","","","","",""
"","186.72499999956926","sequential-stimulus-presentation","249","487940","0.0-47.0-1.3","SS1613079952477","trial","","40","800","986.7249999995693","images/stimuli/spore_stims/complex_01_A_b.gif","images/stimuli/spore_stims/complex_01_B_b.gif","","","","","13","complex_similar","images/stimuli/spore_stims/complex_01_B_b.gif","right",""
"","null","html-keyboard-response","250","489152","0.0-47.0-0.4","SS1613079952477","","","null","","","","","<p><img src= images/blank.png width =""200"" height = ""200"" style = ""float:right""></p><p><img src=images/blank.png width =""800"" height = ""200""></p>","","","","","","","",""
"","82.76999999996042","sequential-stimulus-presentation","251","490044","0.0-47.0-1.4","SS1613079952477","trial","","40","800","882.7699999999604","images/stimuli/spore_stims/complex_01_A_b.gif","images/stimuli/spore_stims/complex_01_B_b.gif","","","","","13","complex_similar","images/stimuli/spore_stims/complex_01_B_b.gif","right",""
"","null","html-keyboard-response","252","491281","0.0-47.0-0.5","SS1613079952477","","","null","","","","","<p><img src= images/blank.png width =""200"" height = ""200"" style = ""float:right""></p><p><img src=images/blank.png width =""800"" height = ""200""></p>","","","","","","","",""
"","73.1150000001071","sequential-stimulus-presentation","253","492164","0.0-47.0-1.5","SS1613079952477","trial","","40","800","873.1150000001071","images/stimuli/spore_stims/complex_01_A_b.gif","images/stimuli/spore_stims/complex_01_B_b.gif","","","","","13","complex_similar","images/stimuli/spore_stims/complex_01_B_b.gif","right",""
"","null","html-keyboard-response","254","493423","0.0-47.0-0.6","SS1613079952477","","","null","","","","","<p><img src= images/blank.png width =""200"" height = ""200"" style = ""float:right""></p><p><img src=images/blank.png width =""800"" height = ""200""></p>","","","","","","","",""
"","250.9749999998603","sequential-stimulus-presentation","255","494491","0.0-47.0-1.6","SS1613079952477","trial","","40","800","1050.9749999998603","images/stimuli/spore_stims/complex_01_A_b.gif","images/stimuli/spore_stims/complex_01_B_b.gif","","","","","13","complex_similar","images/stimuli/spore_stims/complex_01_B_b.gif","right",""
"","null","html-keyboard-response","256","495413","0.0-47.0-0.7","SS1613079952477","","","null","","","","","<p><img src= images/blank.png width =""200"" height = ""200"" style = ""float:right""></p><p><img src=images/blank.png width =""800"" height = ""200""></p>","","","","","","","",""
"","26.649999999790452","sequential-stimulus-presentation","257","496252","0.0-47.0-1.7","SS1613079952477","trial","","40","800","826.6499999997905","images/stimuli/spore_stims/complex_01_A_b.gif","images/stimuli/spore_stims/complex_01_B_b.gif","","","","","13","complex_similar","images/stimuli/spore_stims/complex_01_A_b.gif","middle",""
"","1653.6200000001118","html-keyboard-response","258","497917","0.0-48.0","SS1613079952477","pref_question","","50","","","","","<video width ='960' height = '540' style='padding-top:8%' autoplay muted><source src='images/stimuli/wall_pref.mp4' type='video/mp4'></video>","2","middle","45%","13","","","",""
"","49.989999999525025","sequential-stimulus-presentation","259","498779","0.0-49.0","SS1613079952477","pref_reveal","","40","800","849.989999999525","null","null","","","","","13","","","","deviant"
"","null","html-keyboard-response","260","499905","0.0-50.0-0.0","SS1613079952477","","","null","","","","","<p><img src= images/blank.png width =""200"" height = ""200"" style = ""float:right""></p><p><img src=images/blank.png width =""800"" height = ""200""></p>","","","","","","","",""
"","32.56000000052154","sequential-stimulus-presentation","261","500748","0.0-50.0-1.0","SS1613079952477","trial","","40","800","832.5600000005215","images/stimuli/spore_stims/simple_15_B_d.gif","images/stimuli/spore_stims/simple_01_B_a.gif","","","","","14","simple_dissimilar","images/stimuli/spore_stims/simple_01_B_a.gif","left",""
"","null","html-keyboard-response","262","501984","0.0-50.0-0.1","SS1613079952477","","","null","","","","","<p><img src= images/blank.png width =""200"" height = ""200"" style = ""float:right""></p><p><img src=images/blank.png width =""800"" height = ""200""></p>","","","","","","","",""
"","71.28000000002794","sequential-stimulus-presentation","263","502868","0.0-50.0-1.1","SS1613079952477","trial","","40","800","871.2800000000279","images/stimuli/spore_stims/simple_15_B_d.gif","images/stimuli/spore_stims/simple_01_B_a.gif","","","","","14","simple_dissimilar","images/stimuli/spore_stims/simple_01_B_a.gif","left",""
"","null","html-keyboard-response","264","503680","0.0-50.0-0.2","SS1613079952477","","","null","","","","","<p><img src= images/blank.png width =""200"" height = ""200"" style = ""float:right""></p><p><img src=images/blank.png width =""800"" height = ""200""></p>","","","","","","","",""
"","53.530000000144355","sequential-stimulus-presentation","265","504544","0.0-50.0-1.2","SS1613079952477","trial","","40","800","853.5300000001444","images/stimuli/spore_stims/simple_15_B_d.gif","images/stimuli/spore_stims/simple_01_B_a.gif","","","","","14","simple_dissimilar","images/stimuli/spore_stims/simple_01_B_a.gif","left",""
"","null","html-keyboard-response","266","505500","0.0-50.0-0.3","SS1613079952477","","","null","","","","","<p><img src= images/blank.png width =""200"" height = ""200"" style = ""float:right""></p><p><img src=images/blank.png width =""800"" height = ""200""></p>","","","","","","","",""
"","54.43500000005588","sequential-stimulus-presentation","267","506363","0.0-50.0-1.3","SS1613079952477","trial","","40","800","854.4350000000559","images/stimuli/spore_stims/simple_15_B_d.gif","images/stimuli/spore_stims/simple_01_B_a.gif","","","","","14","simple_dissimilar","images/stimuli/spore_stims/simple_15_B_d.gif","right",""
"","null","html-keyboard-response","268","507225","0.0-50.0-0.4","SS1613079952477","","","null","","","","","<p><img src= images/blank.png width =""200"" height = ""200"" style = ""float:right""></p><p><img src=images/blank.png width =""800"" height = ""200""></p>","","","","","","","",""
"","178.19500000041444","sequential-stimulus-presentation","269","508212","0.0-50.0-1.4","SS1613079952477","trial","","40","800","978.1950000004144","images/stimuli/spore_stims/simple_15_B_d.gif","images/stimuli/spore_stims/simple_01_B_a.gif","","","","","14","simple_dissimilar","images/stimuli/spore_stims/simple_01_B_a.gif","left",""
"","null","html-keyboard-response","270","509272","0.0-50.0-0.5","SS1613079952477","","","null","","","","","<p><img src= images/blank.png width =""200"" height = ""200"" style = ""float:right""></p><p><img src=images/blank.png width =""800"" height = ""200""></p>","","","","","","","",""
"","162.40999999991618","sequential-stimulus-presentation","271","510244","0.0-50.0-1.5","SS1613079952477","trial","","40","800","962.4099999999162","images/stimuli/spore_stims/simple_15_B_d.gif","images/stimuli/spore_stims/simple_01_B_a.gif","","","","","14","simple_dissimilar","images/stimuli/spore_stims/simple_01_B_a.gif","left",""
"","null","html-keyboard-response","272","511072","0.0-50.0-0.6","SS1613079952477","","","null","","","","","<p><img src= images/blank.png width =""200"" height = ""200"" style = ""float:right""></p><p><img src=images/blank.png width =""800"" height = ""200""></p>","","","","","","","",""
"","0.9699999999720603","sequential-stimulus-presentation","273","511884","0.0-50.0-1.6","SS1613079952477","trial","","40","800","800.9699999999721","images/stimuli/spore_stims/simple_15_B_d.gif","images/stimuli/spore_stims/simple_01_B_a.gif","","","","","14","simple_dissimilar","images/stimuli/spore_stims/simple_01_B_a.gif","left",""
"","null","html-keyboard-response","274","512801","0.0-50.0-0.7","SS1613079952477","","","null","","","","","<p><img src= images/blank.png width =""200"" height = ""200"" style = ""float:right""></p><p><img src=images/blank.png width =""800"" height = ""200""></p>","","","","","","","",""
"","1127.6350000008242","sequential-stimulus-presentation","275","514743","0.0-50.0-1.7","SS1613079952477","trial","","40","800","1927.6350000008242","images/stimuli/spore_stims/simple_15_B_d.gif","images/stimuli/spore_stims/simple_01_B_a.gif","","","","","14","simple_dissimilar","images/stimuli/spore_stims/simple_01_B_a.gif","left",""
"","1780.4049999995623","html-keyboard-response","276","516533","0.0-51.0","SS1613079952477","pref_question","","50","","","","","<video width ='960' height = '540' style='padding-top:8%' autoplay muted><source src='images/stimuli/wall_pref.mp4' type='video/mp4'></video>","2","middle","45%","14","","","",""
"","308.55000000074506","sequential-stimulus-presentation","277","517651","0.0-52.0","SS1613079952477","pref_reveal","","40","800","1108.550000000745","null","null","","","","","14","","","","novel"
"","null","html-keyboard-response","278","518886","0.0-53.0-0.0","SS1613079952477","","","null","","","","","<p><img src= images/blank.png width =""200"" height = ""200"" style = ""float:right""></p><p><img src=images/blank.png width =""800"" height = ""200""></p>","","","","","","","",""
"","101.08000000042375","sequential-stimulus-presentation","279","519803","0.0-53.0-1.0","SS1613079952477","trial","","40","800","901.0800000004238","images/stimuli/spore_stims/complex_18_A_d.gif","images/stimuli/spore_stims/complex_16_A_d.gif","","","","","15","complex_dissimilar","images/stimuli/spore_stims/complex_16_A_d.gif","middle",""
"","null","html-keyboard-response","280","520810","0.0-53.0-0.1","SS1613079952477","","","null","","","","","<p><img src= images/blank.png width =""200"" height = ""200"" style = ""float:right""></p><p><img src=images/blank.png width =""800"" height = ""200""></p>","","","","","","","",""
"","44.10499999998137","sequential-stimulus-presentation","281","521667","0.0-53.0-1.1","SS1613079952477","trial","","40","800","844.1049999999814","images/stimuli/spore_stims/complex_18_A_d.gif","images/stimuli/spore_stims/complex_16_A_d.gif","","","","","15","complex_dissimilar","images/stimuli/spore_stims/complex_16_A_d.gif","middle",""
"","null","html-keyboard-response","282","522729","0.0-53.0-0.2","SS1613079952477","","","null","","","","","<p><img src= images/blank.png width =""200"" height = ""200"" style = ""float:right""></p><p><img src=images/blank.png width =""800"" height = ""200""></p>","","","","","","","",""
"","239.74999999976717","sequential-stimulus-presentation","283","523779","0.0-53.0-1.2","SS1613079952477","trial","","40","800","1039.7499999997672","images/stimuli/spore_stims/complex_18_A_d.gif","images/stimuli/spore_stims/complex_16_A_d.gif","","","","","15","complex_dissimilar","images/stimuli/spore_stims/complex_16_A_d.gif","middle",""
"","null","html-keyboard-response","284","524708","0.0-53.0-0.3","SS1613079952477","","","null","","","","","<p><img src= images/blank.png width =""200"" height = ""200"" style = ""float:right""></p><p><img src=images/blank.png width =""800"" height = ""200""></p>","","","","","","","",""
"","222.0499999994645","sequential-stimulus-presentation","285","525740","0.0-53.0-1.3","SS1613079952477","trial","","40","800","1022.0499999994645","images/stimuli/spore_stims/complex_18_A_d.gif","images/stimuli/spore_stims/complex_16_A_d.gif","","","","","15","complex_dissimilar","images/stimuli/spore_stims/complex_16_A_d.gif","middle",""
"","null","html-keyboard-response","286","526917","0.0-53.0-0.4","SS1613079952477","","","null","","","","","<p><img src= images/blank.png width =""200"" height = ""200"" style = ""float:right""></p><p><img src=images/blank.png width =""800"" height = ""200""></p>","","","","","","","",""
"","287.74000000057276","sequential-stimulus-presentation","287","528019","0.0-53.0-1.4","SS1613079952477","trial","","40","800","1087.7400000005728","images/stimuli/spore_stims/complex_18_A_d.gif","images/stimuli/spore_stims/complex_16_A_d.gif","","","","","15","complex_dissimilar","images/stimuli/spore_stims/complex_16_A_d.gif","middle",""
"","null","html-keyboard-response","288","528891","0.0-53.0-0.5","SS1613079952477","","","null","","","","","<p><img src= images/blank.png width =""200"" height = ""200"" style = ""float:right""></p><p><img src=images/blank.png width =""800"" height = ""200""></p>","","","","","","","",""
"","59.30999999970663","sequential-stimulus-presentation","289","529764","0.0-53.0-1.5","SS1613079952477","trial","","40","800","859.3099999997066","images/stimuli/spore_stims/complex_18_A_d.gif","images/stimuli/spore_stims/complex_16_A_d.gif","","","","","15","complex_dissimilar","images/stimuli/spore_stims/complex_16_A_d.gif","middle",""
"","null","html-keyboard-response","290","530733","0.0-53.0-0.6","SS1613079952477","","","null","","","","","<p><img src= images/blank.png width =""200"" height = ""200"" style = ""float:right""></p><p><img src=images/blank.png width =""800"" height = ""200""></p>","","","","","","","",""
"","8.725000000558794","sequential-stimulus-presentation","291","531555","0.0-53.0-1.6","SS1613079952477","trial","","40","800","808.7250000005588","images/stimuli/spore_stims/complex_18_A_d.gif","images/stimuli/spore_stims/complex_16_A_d.gif","","","","","15","complex_dissimilar","images/stimuli/spore_stims/complex_16_A_d.gif","middle",""
"","null","html-keyboard-response","292","532797","0.0-53.0-0.7","SS1613079952477","","","null","","","","","<p><img src= images/blank.png width =""200"" height = ""200"" style = ""float:right""></p><p><img src=images/blank.png width =""800"" height = ""200""></p>","","","","","","","",""
"","418.3999999995576","sequential-stimulus-presentation","293","534028","0.0-53.0-1.7","SS1613079952477","trial","","40","800","1218.3999999995576","images/stimuli/spore_stims/complex_18_A_d.gif","images/stimuli/spore_stims/complex_16_A_d.gif","","","","","15","complex_dissimilar","images/stimuli/spore_stims/complex_18_A_d.gif","left",""
"","1381.9800000002142","html-keyboard-response","294","535419","0.0-54.0","SS1613079952477","pref_question","","50","","","","","<video width ='960' height = '540' style='padding-top:8%' autoplay muted><source src='images/stimuli/wall_pref.mp4' type='video/mp4'></video>","2","middle","45%","15","","","",""
"","116.46999999997206","sequential-stimulus-presentation","295","536347","0.0-55.0","SS1613079952477","pref_reveal","","40","800","916.4699999999721","null","null","","","","","15","","","","background"
"","null","html-keyboard-response","296","537231","0.0-56.0-0.0","SS1613079952477","","","null","","","","","<p><img src= images/blank.png width =""200"" height = ""200"" style = ""float:right""></p><p><img src=images/blank.png width =""800"" height = ""200""></p>","","","","","","","",""
"","241.8550000002142","sequential-stimulus-presentation","297","538284","0.0-56.0-1.0","SS1613079952477","trial","","40","800","1041.8550000002142","images/stimuli/spore_stims/complex_11_A_c.gif","images/stimuli/spore_stims/complex_11_B_c.gif","","","","","16","complex_similar","images/stimuli/spore_stims/complex_11_B_c.gif","right",""
"","null","html-keyboard-response","298","539305","0.0-56.0-0.1","SS1613079952477","","","null","","","","","<p><img src= images/blank.png width =""200"" height = ""200"" style = ""float:right""></p><p><img src=images/blank.png width =""800"" height = ""200""></p>","","","","","","","",""
"","142.56999999994878","sequential-stimulus-presentation","299","540259","0.0-56.0-1.1","SS1613079952477","trial","","40","800","942.5699999999488","images/stimuli/spore_stims/complex_11_A_c.gif","images/stimuli/spore_stims/complex_11_B_c.gif","","","","","16","complex_similar","images/stimuli/spore_stims/complex_11_B_c.gif","right",""
"","null","html-keyboard-response","300","541373","0.0-56.0-0.2","SS1613079952477","","","null","","","","","<p><img src= images/blank.png width =""200"" height = ""200"" style = ""float:right""></p><p><img src=images/blank.png width =""800"" height = ""200""></p>","","","","","","","",""
"","150.01499999931548","sequential-stimulus-presentation","301","542331","0.0-56.0-1.2","SS1613079952477","trial","","40","800","950.0149999993155","images/stimuli/spore_stims/complex_11_A_c.gif","images/stimuli/spore_stims/complex_11_B_c.gif","","","","","16","complex_similar","images/stimuli/spore_stims/complex_11_B_c.gif","right",""
"","null","html-keyboard-response","302","543618","0.0-56.0-0.3","SS1613079952477","","","null","","","","","<p><img src= images/blank.png width =""200"" height = ""200"" style = ""float:right""></p><p><img src=images/blank.png width =""800"" height = ""200""></p>","","","","","","","",""
"","198.91499999992084","sequential-stimulus-presentation","303","544627","0.0-56.0-1.3","SS1613079952477","trial","","40","800","998.9149999999208","images/stimuli/spore_stims/complex_11_A_c.gif","images/stimuli/spore_stims/complex_11_B_c.gif","","","","","16","complex_similar","images/stimuli/spore_stims/complex_11_B_c.gif","right",""
"","null","html-keyboard-response","304","545598","0.0-56.0-0.4","SS1613079952477","","","null","","","","","<p><img src= images/blank.png width =""200"" height = ""200"" style = ""float:right""></p><p><img src=images/blank.png width =""800"" height = ""200""></p>","","","","","","","",""
"","106.25499999965541","sequential-stimulus-presentation","305","546516","0.0-56.0-1.4","SS1613079952477","trial","","40","800","906.2549999996554","images/stimuli/spore_stims/complex_11_A_c.gif","images/stimuli/spore_stims/complex_11_B_c.gif","","","","","16","complex_similar","images/stimuli/spore_stims/complex_11_A_c.gif","left",""
"","null","html-keyboard-response","306","547447","0.0-56.0-0.5","SS1613079952477","","","null","","","","","<p><img src= images/blank.png width =""200"" height = ""200"" style = ""float:right""></p><p><img src=images/blank.png width =""800"" height = ""200""></p>","","","","","","","",""
"","345.33499999996275","sequential-stimulus-presentation","307","548603","0.0-56.0-1.5","SS1613079952477","trial","","40","800","1145.3349999999627","images/stimuli/spore_stims/complex_11_A_c.gif","images/stimuli/spore_stims/complex_11_B_c.gif","","","","","16","complex_similar","images/stimuli/spore_stims/complex_11_B_c.gif","right",""
"","null","html-keyboard-response","308","549852","0.0-56.0-0.6","SS1613079952477","","","null","","","","","<p><img src= images/blank.png width =""200"" height = ""200"" style = ""float:right""></p><p><img src=images/blank.png width =""800"" height = ""200""></p>","","","","","","","",""
"","146.18500000052154","sequential-stimulus-presentation","309","550812","0.0-56.0-1.6","SS1613079952477","trial","","40","800","946.1850000005215","images/stimuli/spore_stims/complex_11_A_c.gif","images/stimuli/spore_stims/complex_11_B_c.gif","","","","","16","complex_similar","images/stimuli/spore_stims/complex_11_B_c.gif","right",""
"","null","html-keyboard-response","310","551636","0.0-56.0-0.7","SS1613079952477","","","null","","","","","<p><img src= images/blank.png width =""200"" height = ""200"" style = ""float:right""></p><p><img src=images/blank.png width =""800"" height = ""200""></p>","","","","","","","",""
"","66.71499999985099","sequential-stimulus-presentation","311","552516","0.0-56.0-1.7","SS1613079952477","trial","","40","800","866.714999999851","images/stimuli/spore_stims/complex_11_A_c.gif","images/stimuli/spore_stims/complex_11_B_c.gif","","","","","16","complex_similar","images/stimuli/spore_stims/complex_11_B_c.gif","right",""
"","1189.6149999992922","html-keyboard-response","312","553716","0.0-57.0","SS1613079952477","pref_question","","49","","","","","<video width ='960' height = '540' style='padding-top:8%' autoplay muted><source src='images/stimuli/wall_pref.mp4' type='video/mp4'></video>","1","left","25%","16","","","",""
"","171.50000000034925","sequential-stimulus-presentation","313","554699","0.0-58.0","SS1613079952477","pref_reveal","","40","800","971.5000000003492","null","null","","","","","16","","","","deviant"
"","null","html-keyboard-response","314","555928","0.0-59.0-0.0","SS1613079952477","","","null","","","","","<p><img src= images/blank.png width =""200"" height = ""200"" style = ""float:right""></p><p><img src=images/blank.png width =""800"" height = ""200""></p>","","","","","","","",""
"","230.4899999999907","sequential-stimulus-presentation","315","556971","0.0-59.0-1.0","SS1613079952477","trial","","40","800","1030.4899999999907","images/stimuli/spore_stims/simple_17_A_c.gif","images/stimuli/spore_stims/simple_17_B_c.gif","","","","","17","simple_similar","images/stimuli/spore_stims/simple_17_B_c.gif","middle",""
"","null","html-keyboard-response","316","558177","0.0-59.0-0.1","SS1613079952477","","","null","","","","","<p><img src= images/blank.png width =""200"" height = ""200"" style = ""float:right""></p><p><img src=images/blank.png width =""800"" height = ""200""></p>","","","","","","","",""
"","184.81499999959487","sequential-stimulus-presentation","317","559172","0.0-59.0-1.1","SS1613079952477","trial","","40","800","984.8149999995949","images/stimuli/spore_stims/simple_17_A_c.gif","images/stimuli/spore_stims/simple_17_B_c.gif","","","","","17","simple_similar","images/stimuli/spore_stims/simple_17_B_c.gif","middle",""
"","null","html-keyboard-response","318","560287","0.0-59.0-0.2","SS1613079952477","","","null","","","","","<p><img src= images/blank.png width =""200"" height = ""200"" style = ""float:right""></p><p><img src=images/blank.png width =""800"" height = ""200""></p>","","","","","","","",""
"","194.0750000004191","sequential-stimulus-presentation","319","561291","0.0-59.0-1.2","SS1613079952477","trial","","40","800","994.0750000004191","images/stimuli/spore_stims/simple_17_A_c.gif","images/stimuli/spore_stims/simple_17_B_c.gif","","","","","17","simple_similar","images/stimuli/spore_stims/simple_17_B_c.gif","middle",""
"","null","html-keyboard-response","320","562297","0.0-59.0-0.3","SS1613079952477","","","null","","","","","<p><img src= images/blank.png width =""200"" height = ""200"" style = ""float:right""></p><p><img src=images/blank.png width =""800"" height = ""200""></p>","","","","","","","",""
"","15.15500000002794","sequential-stimulus-presentation","321","563125","0.0-59.0-1.3","SS1613079952477","trial","","40","800","815.1550000000279","images/stimuli/spore_stims/simple_17_A_c.gif","images/stimuli/spore_stims/simple_17_B_c.gif","","","","","17","simple_similar","images/stimuli/spore_stims/simple_17_B_c.gif","middle",""
"","null","html-keyboard-response","322","564145","0.0-59.0-0.4","SS1613079952477","","","null","","","","","<p><img src= images/blank.png width =""200"" height = ""200"" style = ""float:right""></p><p><img src=images/blank.png width =""800"" height = ""200""></p>","","","","","","","",""
"","159.93500000063796","sequential-stimulus-presentation","323","565115","0.0-59.0-1.4","SS1613079952477","trial","","40","800","959.935000000638","images/stimuli/spore_stims/simple_17_A_c.gif","images/stimuli/spore_stims/simple_17_B_c.gif","","","","","17","simple_similar","images/stimuli/spore_stims/simple_17_A_c.gif","left",""
"","null","html-keyboard-response","324","566382","0.0-59.0-0.5","SS1613079952477","","","null","","","","","<p><img src= images/blank.png width =""200"" height = ""200"" style = ""float:right""></p><p><img src=images/blank.png width =""800"" height = ""200""></p>","","","","","","","",""
