"view_history","rt","trial_type","trial_index","time_elapsed","internal_node_id","subject","stimulus_type","trial_stimulus","key_press","minimum_viewing_duration","trial_looking_time","block_deviant","block_background","stimulus","wall_pref","location","location_percent","block_number","block_type","stimulus_displayed","position_displayed","stim_type_selected","responses","question_order","stimulus_left","stimulus_right"
"[{""page_index"":0,""viewing_time"":34526.649999956135}]","34529.979999992065","instructions","0","34535","0.0-0.0","SS1613080016864","","","","","","","","","","","","","","","","","","","",""
"[{""page_index"":0,""viewing_time"":184050.99999997765},{""page_index"":1,""viewing_time"":8152.134999982081}]","192204.96499998262","instructions","1","228758","0.0-1.0","SS1613080016864","instructions","","","","","","","","","","","","","","","","","","",""
"","4805.499999958556","sequential-stimulus-presentation","2","234489","0.0-2.0","SS1613080016864","","","40","800","5605.499999958556","null","null","","","","","","","","","","","","",""
"","8174.059999990277","sequential-stimulus-presentation","3","243480","0.0-3.0","SS1613080016864","","","40","800","8974.059999990277","null","null","","","","","","","","","","","","",""
"[{""page_index"":0,""viewing_time"":3305.7999999728054}]","3306.6999999573454","instructions","4","246792","0.0-4.0","SS1613080016864","instructions","","","","","","","","","","","","","","","","","","",""
"","7117.020000005141","html-keyboard-response","5","253933","0.0-5.0","SS1613080016864","instructions","","50","","","","","<video width ='960' height = '540' autoplay muted><source src='images/stimuli/wall_pref.mp4' type='video/mp4'></video>","2","middle","45%","","","","","","","","",""
"","2059.305000002496","sequential-stimulus-presentation","6","256827","0.0-6.0","SS1613080016864","pref_reveal","","40","800","2859.305000002496","null","null","","","","","","","","","","","","",""
"[{""page_index"":0,""viewing_time"":5996.125000005122},{""page_index"":1,""viewing_time"":200899.7799999779},{""page_index"":2,""viewing_time"":2055.610000039451},{""page_index"":3,""viewing_time"":1347.7649999549612}]","210301.27499997616","instructions","7","467135","0.0-7.0","SS1613080016864","instructions","","","","","","","","","","","","","","","","","","",""
"","null","html-keyboard-response","8","468209","0.0-8.0-0.0","SS1613080016864","","","null","","","","","<p><img src= images/blank.png width =""200"" height = ""200"" style = ""float:right""></p><p><img src=images/blank.png width =""800"" height = ""200""></p>","","","","","","","","","","","",""
"","3833.8349999976344","sequential-stimulus-presentation","9","472880","0.0-8.0-1.0","SS1613080016864","trial","","40","800","4633.834999997634","images/stimuli/spore_stims/complex_14_B_a.gif","images/stimuli/spore_stims/complex_14_A_a.gif","","","","","0","complex_similar","images/stimuli/spore_stims/complex_14_A_a.gif","middle","","","","",""
"","null","html-keyboard-response","10","474014","0.0-8.0-0.1","SS1613080016864","","","null","","","","","<p><img src= images/blank.png width =""200"" height = ""200"" style = ""float:right""></p><p><img src=images/blank.png width =""800"" height = ""200""></p>","","","","","","","","","","","",""
"","9279.405000037514","sequential-stimulus-presentation","11","484191","0.0-8.0-1.1","SS1613080016864","trial","","40","800","10079.405000037514","images/stimuli/spore_stims/complex_14_B_a.gif","images/stimuli/spore_stims/complex_14_A_a.gif","","","","","0","complex_similar","images/stimuli/spore_stims/complex_14_A_a.gif","middle","","","","",""
"","null","html-keyboard-response","12","485306","0.0-8.0-0.2","SS1613080016864","","","null","","","","","<p><img src= images/blank.png width =""200"" height = ""200"" style = ""float:right""></p><p><img src=images/blank.png width =""800"" height = ""200""></p>","","","","","","","","","","","",""
"","1696.334999985993","sequential-stimulus-presentation","13","487831","0.0-8.0-1.2","SS1613080016864","trial","","40","800","2496.334999985993","images/stimuli/spore_stims/complex_14_B_a.gif","images/stimuli/spore_stims/complex_14_A_a.gif","","","","","0","complex_similar","images/stimuli/spore_stims/complex_14_A_a.gif","middle","","","","",""
"","null","html-keyboard-response","14","489065","0.0-8.0-0.3","SS1613080016864","","","null","","","","","<p><img src= images/blank.png width =""200"" height = ""200"" style = ""float:right""></p><p><img src=images/blank.png width =""800"" height = ""200""></p>","","","","","","","","","","","",""
"","2183.179999992717","sequential-stimulus-presentation","15","492098","0.0-8.0-1.3","SS1613080016864","trial","","40","800","2983.179999992717","images/stimuli/spore_stims/complex_14_B_a.gif","images/stimuli/spore_stims/complex_14_A_a.gif","","","","","0","complex_similar","images/stimuli/spore_stims/complex_14_A_a.gif","middle","","","","",""
"","null","html-keyboard-response","16","493161","0.0-8.0-0.4","SS1613080016864","","","null","","","","","<p><img src= images/blank.png width =""200"" height = ""200"" style = ""float:right""></p><p><img src=images/blank.png width =""800"" height = ""200""></p>","","","","","","","","","","","",""
"","1606.2850000453182","sequential-stimulus-presentation","17","495584","0.0-8.0-1.4","SS1613080016864","trial","","40","800","2406.285000045318","images/stimuli/spore_stims/complex_14_B_a.gif","images/stimuli/spore_stims/complex_14_A_a.gif","","","","","0","complex_similar","images/stimuli/spore_stims/complex_14_A_a.gif","middle","","","","",""
"","null","html-keyboard-response","18","496642","0.0-8.0-0.5","SS1613080016864","","","null","","","","","<p><img src= images/blank.png width =""200"" height = ""200"" style = ""float:right""></p><p><img src=images/blank.png width =""800"" height = ""200""></p>","","","","","","","","","","","",""
"","580.2949999924749","sequential-stimulus-presentation","19","498047","0.0-8.0-1.5","SS1613080016864","trial","","40","800","1380.294999992475","images/stimuli/spore_stims/complex_14_B_a.gif","images/stimuli/spore_stims/complex_14_A_a.gif","","","","","0","complex_similar","images/stimuli/spore_stims/complex_14_A_a.gif","middle","","","","",""
"","null","html-keyboard-response","20","498871","0.0-8.0-0.6","SS1613080016864","","","null","","","","","<p><img src= images/blank.png width =""200"" height = ""200"" style = ""float:right""></p><p><img src=images/blank.png width =""800"" height = ""200""></p>","","","","","","","","","","","",""
"","753.7849999498576","sequential-stimulus-presentation","21","500485","0.0-8.0-1.6","SS1613080016864","trial","","40","800","1553.7849999498576","images/stimuli/spore_stims/complex_14_B_a.gif","images/stimuli/spore_stims/complex_14_A_a.gif","","","","","0","complex_similar","images/stimuli/spore_stims/complex_14_B_a.gif","left","","","","",""
"","null","html-keyboard-response","22","501702","0.0-8.0-0.7","SS1613080016864","","","null","","","","","<p><img src= images/blank.png width =""200"" height = ""200"" style = ""float:right""></p><p><img src=images/blank.png width =""800"" height = ""200""></p>","","","","","","","","","","","",""
"","525.3150000353344","sequential-stimulus-presentation","23","503063","0.0-8.0-1.7","SS1613080016864","trial","","40","800","1325.3150000353344","images/stimuli/spore_stims/complex_14_B_a.gif","images/stimuli/spore_stims/complex_14_A_a.gif","","","","","0","complex_similar","images/stimuli/spore_stims/complex_14_A_a.gif","middle","","","","",""
"","1958.0849999911152","html-keyboard-response","24","505047","0.0-9.0","SS1613080016864","pref_question","","49","","","","","<video width ='960' height = '540' style='padding-top:8%' autoplay muted><source src='images/stimuli/wall_pref.mp4' type='video/mp4'></video>","1","left","25%","0","","","","","","","",""
"","3013.3550000027753","sequential-stimulus-presentation","25","508900","0.0-10.0","SS1613080016864","pref_reveal","","40","800","3813.3550000027753","null","null","","","","","0","","","","deviant","","","",""
"","null","html-keyboard-response","26","509841","0.0-11.0-0.0","SS1613080016864","","","null","","","","","<p><img src= images/blank.png width =""200"" height = ""200"" style = ""float:right""></p><p><img src=images/blank.png width =""800"" height = ""200""></p>","","","","","","","","","","","",""
"","80.35000000381842","sequential-stimulus-presentation","27","510758","0.0-11.0-1.0","SS1613080016864","trial","","40","800","880.3500000038184","images/stimuli/spore_stims/simple_05_B_a.gif","images/stimuli/spore_stims/simple_14_B_c.gif","","","","","1","simple_dissimilar","images/stimuli/spore_stims/simple_14_B_c.gif","left","","","","",""
"","null","html-keyboard-response","28","511796","0.0-11.0-0.1","SS1613080016864","","","null","","","","","<p><img src= images/blank.png width =""200"" height = ""200"" style = ""float:right""></p><p><img src=images/blank.png width =""800"" height = ""200""></p>","","","","","","","","","","","",""
"","50.965000002179295","sequential-stimulus-presentation","29","512686","0.0-11.0-1.1","SS1613080016864","trial","","40","800","850.9650000021793","images/stimuli/spore_stims/simple_05_B_a.gif","images/stimuli/spore_stims/simple_14_B_c.gif","","","","","1","simple_dissimilar","images/stimuli/spore_stims/simple_14_B_c.gif","left","","","","",""
"","null","html-keyboard-response","30","513720","0.0-11.0-0.2","SS1613080016864","","","null","","","","","<p><img src= images/blank.png width =""200"" height = ""200"" style = ""float:right""></p><p><img src=images/blank.png width =""800"" height = ""200""></p>","","","","","","","","","","","",""
"","1244.6800000034273","sequential-stimulus-presentation","31","515809","0.0-11.0-1.2","SS1613080016864","trial","","40","800","2044.6800000034273","images/stimuli/spore_stims/simple_05_B_a.gif","images/stimuli/spore_stims/simple_14_B_c.gif","","","","","1","simple_dissimilar","images/stimuli/spore_stims/simple_14_B_c.gif","left","","","","",""
"","null","html-keyboard-response","32","516699","0.0-11.0-0.3","SS1613080016864","","","null","","","","","<p><img src= images/blank.png width =""200"" height = ""200"" style = ""float:right""></p><p><img src=images/blank.png width =""800"" height = ""200""></p>","","","","","","","","","","","",""
"","2323.2999999891035","sequential-stimulus-presentation","33","519848","0.0-11.0-1.3","SS1613080016864","trial","","40","800","3123.2999999891035","images/stimuli/spore_stims/simple_05_B_a.gif","images/stimuli/spore_stims/simple_14_B_c.gif","","","","","1","simple_dissimilar","images/stimuli/spore_stims/simple_14_B_c.gif","left","","","","",""
"","null","html-keyboard-response","34","521139","0.0-11.0-0.4","SS1613080016864","","","null","","","","","<p><img src= images/blank.png width =""200"" height = ""200"" style = ""float:right""></p><p><img src=images/blank.png width =""800"" height = ""200""></p>","","","","","","","","","","","",""
"","1247.6449999958277","sequential-stimulus-presentation","35","523226","0.0-11.0-1.4","SS1613080016864","trial","","40","800","2047.6449999958277","images/stimuli/spore_stims/simple_05_B_a.gif","images/stimuli/spore_stims/simple_14_B_c.gif","","","","","1","simple_dissimilar","images/stimuli/spore_stims/simple_14_B_c.gif","left","","","","",""
"","null","html-keyboard-response","36","524156","0.0-11.0-0.5","SS1613080016864","","","null","","","","","<p><img src= images/blank.png width =""200"" height = ""200"" style = ""float:right""></p><p><img src=images/blank.png width =""800"" height = ""200""></p>","","","","","","","","","","","",""
"","1620.664999994915","sequential-stimulus-presentation","37","526618","0.0-11.0-1.5","SS1613080016864","trial","","40","800","2420.664999994915","images/stimuli/spore_stims/simple_05_B_a.gif","images/stimuli/spore_stims/simple_14_B_c.gif","","","","","1","simple_dissimilar","images/stimuli/spore_stims/simple_14_B_c.gif","left","","","","",""
"","null","html-keyboard-response","38","527890","0.0-11.0-0.6","SS1613080016864","","","null","","","","","<p><img src= images/blank.png width =""200"" height = ""200"" style = ""float:right""></p><p><img src=images/blank.png width =""800"" height = ""200""></p>","","","","","","","","","","","",""
"","2116.7350000469014","sequential-stimulus-presentation","39","530855","0.0-11.0-1.6","SS1613080016864","trial","","40","800","2916.7350000469014","images/stimuli/spore_stims/simple_05_B_a.gif","images/stimuli/spore_stims/simple_14_B_c.gif","","","","","1","simple_dissimilar","images/stimuli/spore_stims/simple_14_B_c.gif","left","","","","",""
"","null","html-keyboard-response","40","532037","0.0-11.0-0.7","SS1613080016864","","","null","","","","","<p><img src= images/blank.png width =""200"" height = ""200"" style = ""float:right""></p><p><img src=images/blank.png width =""800"" height = ""200""></p>","","","","","","","","","","","",""
"","1369.1799999796785","sequential-stimulus-presentation","41","534236","0.0-11.0-1.7","SS1613080016864","trial","","40","800","2169.1799999796785","images/stimuli/spore_stims/simple_05_B_a.gif","images/stimuli/spore_stims/simple_14_B_c.gif","","","","","1","simple_dissimilar","images/stimuli/spore_stims/simple_05_B_a.gif","middle","","","","",""
"","1601.1900000157766","html-keyboard-response","42","535852","0.0-12.0","SS1613080016864","pref_question","","51","","","","","<video width ='960' height = '540' style='padding-top:8%' autoplay muted><source src='images/stimuli/wall_pref.mp4' type='video/mp4'></video>","3","right","66%","1","","","","","","","",""
"","1695.5450000241399","sequential-stimulus-presentation","43","538375","0.0-13.0","SS1613080016864","pref_reveal","","40","800","2495.54500002414","null","null","","","","","1","","","","novel","","","",""
"","null","html-keyboard-response","44","539372","0.0-14.0-0.0","SS1613080016864","","","null","","","","","<p><img src= images/blank.png width =""200"" height = ""200"" style = ""float:right""></p><p><img src=images/blank.png width =""800"" height = ""200""></p>","","","","","","","","","","","",""
"","5099.300000001676","sequential-stimulus-presentation","45","545320","0.0-14.0-1.0","SS1613080016864","trial","","40","800","5899.300000001676","images/stimuli/spore_stims/simple_19_B_c.gif","images/stimuli/spore_stims/simple_19_A_c.gif","","","","","2","simple_similar","images/stimuli/spore_stims/simple_19_A_c.gif","right","","","","",""
"","null","html-keyboard-response","46","546610","0.0-14.0-0.1","SS1613080016864","","","null","","","","","<p><img src= images/blank.png width =""200"" height = ""200"" style = ""float:right""></p><p><img src=images/blank.png width =""800"" height = ""200""></p>","","","","","","","","","","","",""
"","1923.8400000031106","sequential-stimulus-presentation","47","549360","0.0-14.0-1.1","SS1613080016864","trial","","40","800","2723.8400000031106","images/stimuli/spore_stims/simple_19_B_c.gif","images/stimuli/spore_stims/simple_19_A_c.gif","","","","","2","simple_similar","images/stimuli/spore_stims/simple_19_A_c.gif","right","","","","",""
"","null","html-keyboard-response","48","550319","0.0-14.0-0.2","SS1613080016864","","","null","","","","","<p><img src= images/blank.png width =""200"" height = ""200"" style = ""float:right""></p><p><img src=images/blank.png width =""800"" height = ""200""></p>","","","","","","","","","","","",""
"","1721.0299999569543","sequential-stimulus-presentation","49","552876","0.0-14.0-1.2","SS1613080016864","trial","","40","800","2521.0299999569543","images/stimuli/spore_stims/simple_19_B_c.gif","images/stimuli/spore_stims/simple_19_A_c.gif","","","","","2","simple_similar","images/stimuli/spore_stims/simple_19_A_c.gif","right","","","","",""
"","null","html-keyboard-response","50","553931","0.0-14.0-0.3","SS1613080016864","","","null","","","","","<p><img src= images/blank.png width =""200"" height = ""200"" style = ""float:right""></p><p><img src=images/blank.png width =""800"" height = ""200""></p>","","","","","","","","","","","",""
"","1714.2250000033528","sequential-stimulus-presentation","51","556488","0.0-14.0-1.3","SS1613080016864","trial","","40","800","2514.2250000033528","images/stimuli/spore_stims/simple_19_B_c.gif","images/stimuli/spore_stims/simple_19_A_c.gif","","","","","2","simple_similar","images/stimuli/spore_stims/simple_19_A_c.gif","right","","","","",""
"","null","html-keyboard-response","52","557407","0.0-14.0-0.4","SS1613080016864","","","null","","","","","<p><img src= images/blank.png width =""200"" height = ""200"" style = ""float:right""></p><p><img src=images/blank.png width =""800"" height = ""200""></p>","","","","","","","","","","","",""
"","1304.5300000230782","sequential-stimulus-presentation","53","559556","0.0-14.0-1.4","SS1613080016864","trial","","40","800","2104.530000023078","images/stimuli/spore_stims/simple_19_B_c.gif","images/stimuli/spore_stims/simple_19_A_c.gif","","","","","2","simple_similar","images/stimuli/spore_stims/simple_19_A_c.gif","right","","","","",""
"","null","html-keyboard-response","54","560753","0.0-14.0-0.5","SS1613080016864","","","null","","","","","<p><img src= images/blank.png width =""200"" height = ""200"" style = ""float:right""></p><p><img src=images/blank.png width =""800"" height = ""200""></p>","","","","","","","","","","","",""
"","1170.8349999971688","sequential-stimulus-presentation","55","562761","0.0-14.0-1.5","SS1613080016864","trial","","40","800","1970.8349999971688","images/stimuli/spore_stims/simple_19_B_c.gif","images/stimuli/spore_stims/simple_19_A_c.gif","","","","","2","simple_similar","images/stimuli/spore_stims/simple_19_A_c.gif","right","","","","",""
"","null","html-keyboard-response","56","563678","0.0-14.0-0.6","SS1613080016864","","","null","","","","","<p><img src= images/blank.png width =""200"" height = ""200"" style = ""float:right""></p><p><img src=images/blank.png width =""800"" height = ""200""></p>","","","","","","","","","","","",""
"","2896.8950000125915","sequential-stimulus-presentation","57","567395","0.0-14.0-1.6","SS1613080016864","trial","","40","800","3696.8950000125915","images/stimuli/spore_stims/simple_19_B_c.gif","images/stimuli/spore_stims/simple_19_A_c.gif","","","","","2","simple_similar","images/stimuli/spore_stims/simple_19_A_c.gif","right","","","","",""
"","null","html-keyboard-response","58","568447","0.0-14.0-0.7","SS1613080016864","","","null","","","","","<p><img src= images/blank.png width =""200"" height = ""200"" style = ""float:right""></p><p><img src=images/blank.png width =""800"" height = ""200""></p>","","","","","","","","","","","",""
"","1021.6399999917485","sequential-stimulus-presentation","59","570354","0.0-14.0-1.7","SS1613080016864","trial","","40","800","1821.6399999917485","images/stimuli/spore_stims/simple_19_B_c.gif","images/stimuli/spore_stims/simple_19_A_c.gif","","","","","2","simple_similar","images/stimuli/spore_stims/simple_19_B_c.gif","middle","","","","",""
"","6588.205000036396","html-keyboard-response","60","576992","0.0-15.0","SS1613080016864","pref_question","","49","","","","","<video width ='960' height = '540' style='padding-top:8%' autoplay muted><source src='images/stimuli/wall_pref.mp4' type='video/mp4'></video>","1","left","25%","2","","","","","","","",""
"","3423.385000030976","sequential-stimulus-presentation","61","581242","0.0-16.0","SS1613080016864","pref_reveal","","40","800","4223.385000030976","null","null","","","","","2","","","","novel","","","",""
"","null","html-keyboard-response","62","582396","0.0-17.0-0.0","SS1613080016864","","","null","","","","","<p><img src= images/blank.png width =""200"" height = ""200"" style = ""float:right""></p><p><img src=images/blank.png width =""800"" height = ""200""></p>","","","","","","","","","","","",""
"","1524.600000004284","sequential-stimulus-presentation","63","584757","0.0-17.0-1.0","SS1613080016864","trial","","40","800","2324.600000004284","images/stimuli/spore_stims/simple_09_A_b.gif","images/stimuli/spore_stims/simple_11_A_c.gif","","","","","3","simple_dissimilar","images/stimuli/spore_stims/simple_11_A_c.gif","right","","","","",""
"","null","html-keyboard-response","64","585867","0.0-17.0-0.1","SS1613080016864","","","null","","","","","<p><img src= images/blank.png width =""200"" height = ""200"" style = ""float:right""></p><p><img src=images/blank.png width =""800"" height = ""200""></p>","","","","","","","","","","","",""
"","1663.2000000099652","sequential-stimulus-presentation","65","588382","0.0-17.0-1.1","SS1613080016864","trial","","40","800","2463.200000009965","images/stimuli/spore_stims/simple_09_A_b.gif","images/stimuli/spore_stims/simple_11_A_c.gif","","","","","3","simple_dissimilar","images/stimuli/spore_stims/simple_11_A_c.gif","right","","","","",""
"","null","html-keyboard-response","66","589243","0.0-17.0-0.2","SS1613080016864","","","null","","","","","<p><img src= images/blank.png width =""200"" height = ""200"" style = ""float:right""></p><p><img src=images/blank.png width =""800"" height = ""200""></p>","","","","","","","","","","","",""
"","1147.3799999803305","sequential-stimulus-presentation","67","591226","0.0-17.0-1.2","SS1613080016864","trial","","40","800","1947.3799999803305","images/stimuli/spore_stims/simple_09_A_b.gif","images/stimuli/spore_stims/simple_11_A_c.gif","","","","","3","simple_dissimilar","images/stimuli/spore_stims/simple_11_A_c.gif","right","","","","",""
"","null","html-keyboard-response","68","592376","0.0-17.0-0.3","SS1613080016864","","","null","","","","","<p><img src= images/blank.png width =""200"" height = ""200"" style = ""float:right""></p><p><img src=images/blank.png width =""800"" height = ""200""></p>","","","","","","","","","","","",""
"","395.57500003138557","sequential-stimulus-presentation","69","593641","0.0-17.0-1.3","SS1613080016864","trial","","40","800","1195.5750000313856","images/stimuli/spore_stims/simple_09_A_b.gif","images/stimuli/spore_stims/simple_11_A_c.gif","","","","","3","simple_dissimilar","images/stimuli/spore_stims/simple_11_A_c.gif","right","","","","",""
"","null","html-keyboard-response","70","594824","0.0-17.0-0.4","SS1613080016864","","","null","","","","","<p><img src= images/blank.png width =""200"" height = ""200"" style = ""float:right""></p><p><img src=images/blank.png width =""800"" height = ""200""></p>","","","","","","","","","","","",""
"","3456.7299999762326","sequential-stimulus-presentation","71","599124","0.0-17.0-1.4","SS1613080016864","trial","","40","800","4256.729999976233","images/stimuli/spore_stims/simple_09_A_b.gif","images/stimuli/spore_stims/simple_11_A_c.gif","","","","","3","simple_dissimilar","images/stimuli/spore_stims/simple_11_A_c.gif","right","","","","",""
"","null","html-keyboard-response","72","600153","0.0-17.0-0.5","SS1613080016864","","","null","","","","","<p><img src= images/blank.png width =""200"" height = ""200"" style = ""float:right""></p><p><img src=images/blank.png width =""800"" height = ""200""></p>","","","","","","","","","","","",""
"","760.6050000176765","sequential-stimulus-presentation","73","601751","0.0-17.0-1.5","SS1613080016864","trial","","40","800","1560.6050000176765","images/stimuli/spore_stims/simple_09_A_b.gif","images/stimuli/spore_stims/simple_11_A_c.gif","","","","","3","simple_dissimilar","images/stimuli/spore_stims/simple_11_A_c.gif","right","","","","",""
"","null","html-keyboard-response","74","602614","0.0-17.0-0.6","SS1613080016864","","","null","","","","","<p><img src= images/blank.png width =""200"" height = ""200"" style = ""float:right""></p><p><img src=images/blank.png width =""800"" height = ""200""></p>","","","","","","","","","","","",""
"","855.1299999817275","sequential-stimulus-presentation","75","604306","0.0-17.0-1.6","SS1613080016864","trial","","40","800","1655.1299999817275","images/stimuli/spore_stims/simple_09_A_b.gif","images/stimuli/spore_stims/simple_11_A_c.gif","","","","","3","simple_dissimilar","images/stimuli/spore_stims/simple_09_A_b.gif","left","","","","",""
"","null","html-keyboard-response","76","605292","0.0-17.0-0.7","SS1613080016864","","","null","","","","","<p><img src= images/blank.png width =""200"" height = ""200"" style = ""float:right""></p><p><img src=images/blank.png width =""800"" height = ""200""></p>","","","","","","","","","","","",""
"","1001.1999999987893","sequential-stimulus-presentation","77","607145","0.0-17.0-1.7","SS1613080016864","trial","","40","800","1801.1999999987893","images/stimuli/spore_stims/simple_09_A_b.gif","images/stimuli/spore_stims/simple_11_A_c.gif","","","","","3","simple_dissimilar","images/stimuli/spore_stims/simple_11_A_c.gif","right","","","","",""
"","1528.519999992568","html-keyboard-response","78","608688","0.0-18.0","SS1613080016864","pref_question","","49","","","","","<video width ='960' height = '540' style='padding-top:8%' autoplay muted><source src='images/stimuli/wall_pref.mp4' type='video/mp4'></video>","1","left","25%","3","","","","","","","",""
"","1894.765000033658","sequential-stimulus-presentation","79","611407","0.0-19.0","SS1613080016864","pref_reveal","","40","800","2694.765000033658","null","null","","","","","3","","","","deviant","","","",""
"","null","html-keyboard-response","80","612453","0.0-20.0-0.0","SS1613080016864","","","null","","","","","<p><img src= images/blank.png width =""200"" height = ""200"" style = ""float:right""></p><p><img src=images/blank.png width =""800"" height = ""200""></p>","","","","","","","","","","","",""
"","1856.3100000028498","sequential-stimulus-presentation","81","615166","0.0-20.0-1.0","SS1613080016864","trial","","40","800","2656.31000000285","images/stimuli/spore_stims/complex_17_A_d.gif","images/stimuli/spore_stims/complex_15_B_d.gif","","","","","4","complex_dissimilar","images/stimuli/spore_stims/complex_15_B_d.gif","left","","","","",""
"","null","html-keyboard-response","82","616079","0.0-20.0-0.1","SS1613080016864","","","null","","","","","<p><img src= images/blank.png width =""200"" height = ""200"" style = ""float:right""></p><p><img src=images/blank.png width =""800"" height = ""200""></p>","","","","","","","","","","","",""
"","1488.1899999454618","sequential-stimulus-presentation","83","618411","0.0-20.0-1.1","SS1613080016864","trial","","40","800","2288.1899999454618","images/stimuli/spore_stims/complex_17_A_d.gif","images/stimuli/spore_stims/complex_15_B_d.gif","","","","","4","complex_dissimilar","images/stimuli/spore_stims/complex_15_B_d.gif","left","","","","",""
"","null","html-keyboard-response","84","619269","0.0-20.0-0.2","SS1613080016864","","","null","","","","","<p><img src= images/blank.png width =""200"" height = ""200"" style = ""float:right""></p><p><img src=images/blank.png width =""800"" height = ""200""></p>","","","","","","","","","","","",""
"","2025.0550000346266","sequential-stimulus-presentation","85","622123","0.0-20.0-1.2","SS1613080016864","trial","","40","800","2825.0550000346266","images/stimuli/spore_stims/complex_17_A_d.gif","images/stimuli/spore_stims/complex_15_B_d.gif","","","","","4","complex_dissimilar","images/stimuli/spore_stims/complex_15_B_d.gif","left","","","","",""
"","null","html-keyboard-response","86","622961","0.0-20.0-0.3","SS1613080016864","","","null","","","","","<p><img src= images/blank.png width =""200"" height = ""200"" style = ""float:right""></p><p><img src=images/blank.png width =""800"" height = ""200""></p>","","","","","","","","","","","",""
"","1968.7949999934062","sequential-stimulus-presentation","87","625767","0.0-20.0-1.3","SS1613080016864","trial","","40","800","2768.7949999934062","images/stimuli/spore_stims/complex_17_A_d.gif","images/stimuli/spore_stims/complex_15_B_d.gif","","","","","4","complex_dissimilar","images/stimuli/spore_stims/complex_17_A_d.gif","middle","","","","",""
"","null","html-keyboard-response","88","626688","0.0-20.0-0.4","SS1613080016864","","","null","","","","","<p><img src= images/blank.png width =""200"" height = ""200"" style = ""float:right""></p><p><img src=images/blank.png width =""800"" height = ""200""></p>","","","","","","","","","","","",""
"","2477.8049999731593","sequential-stimulus-presentation","89","630020","0.0-20.0-1.4","SS1613080016864","trial","","40","800","3277.8049999731593","images/stimuli/spore_stims/complex_17_A_d.gif","images/stimuli/spore_stims/complex_15_B_d.gif","","","","","4","complex_dissimilar","images/stimuli/spore_stims/complex_15_B_d.gif","left","","","","",""
"","null","html-keyboard-response","90","631173","0.0-20.0-0.5","SS1613080016864","","","null","","","","","<p><img src= images/blank.png width =""200"" height = ""200"" style = ""float:right""></p><p><img src=images/blank.png width =""800"" height = ""200""></p>","","","","","","","","","","","",""
"","2787.934999971185","sequential-stimulus-presentation","91","634816","0.0-20.0-1.5","SS1613080016864","trial","","40","800","3587.934999971185","images/stimuli/spore_stims/complex_17_A_d.gif","images/stimuli/spore_stims/complex_15_B_d.gif","","","","","4","complex_dissimilar","images/stimuli/spore_stims/complex_15_B_d.gif","left","","","","",""
"","null","html-keyboard-response","92","635840","0.0-20.0-0.6","SS1613080016864","","","null","","","","","<p><img src= images/blank.png width =""200"" height = ""200"" style = ""float:right""></p><p><img src=images/blank.png width =""800"" height = ""200""></p>","","","","","","","","","","","",""
"","1614.575000014156","sequential-stimulus-presentation","93","638354","0.0-20.0-1.6","SS1613080016864","trial","","40","800","2414.575000014156","images/stimuli/spore_stims/complex_17_A_d.gif","images/stimuli/spore_stims/complex_15_B_d.gif","","","","","4","complex_dissimilar","images/stimuli/spore_stims/complex_15_B_d.gif","left","","","","",""
"","null","html-keyboard-response","94","639652","0.0-20.0-0.7","SS1613080016864","","","null","","","","","<p><img src= images/blank.png width =""200"" height = ""200"" style = ""float:right""></p><p><img src=images/blank.png width =""800"" height = ""200""></p>","","","","","","","","","","","",""
"","1564.2099999822676","sequential-stimulus-presentation","95","642056","0.0-20.0-1.7","SS1613080016864","trial","","40","800","2364.2099999822676","images/stimuli/spore_stims/complex_17_A_d.gif","images/stimuli/spore_stims/complex_15_B_d.gif","","","","","4","complex_dissimilar","images/stimuli/spore_stims/complex_15_B_d.gif","left","","","","",""
"","3015.025000029709","html-keyboard-response","96","645088","0.0-21.0","SS1613080016864","pref_question","","50","","","","","<video width ='960' height = '540' style='padding-top:8%' autoplay muted><source src='images/stimuli/wall_pref.mp4' type='video/mp4'></video>","2","middle","45%","4","","","","","","","",""
"","1202.7600000146776","sequential-stimulus-presentation","97","647128","0.0-22.0","SS1613080016864","pref_reveal","","40","800","2002.7600000146776","null","null","","","","","4","","","","deviant","","","",""
"","null","html-keyboard-response","98","648139","0.0-23.0-0.0","SS1613080016864","","","null","","","","","<p><img src= images/blank.png width =""200"" height = ""200"" style = ""float:right""></p><p><img src=images/blank.png width =""800"" height = ""200""></p>","","","","","","","","","","","",""
"","1710.9000000054948","sequential-stimulus-presentation","99","650687","0.0-23.0-1.0","SS1613080016864","trial","","40","800","2510.900000005495","images/stimuli/spore_stims/simple_07_A_c.gif","images/stimuli/spore_stims/simple_04_A_a.gif","","","","","5","simple_dissimilar","images/stimuli/spore_stims/simple_04_A_a.gif","right","","","","",""
"","null","html-keyboard-response","100","651586","0.0-23.0-0.1","SS1613080016864","","","null","","","","","<p><img src= images/blank.png width =""200"" height = ""200"" style = ""float:right""></p><p><img src=images/blank.png width =""800"" height = ""200""></p>","","","","","","","","","","","",""
"","1992.0750000164844","sequential-stimulus-presentation","101","654419","0.0-23.0-1.1","SS1613080016864","trial","","40","800","2792.0750000164844","images/stimuli/spore_stims/simple_07_A_c.gif","images/stimuli/spore_stims/simple_04_A_a.gif","","","","","5","simple_dissimilar","images/stimuli/spore_stims/simple_04_A_a.gif","right","","","","",""
"","null","html-keyboard-response","102","655452","0.0-23.0-0.2","SS1613080016864","","","null","","","","","<p><img src= images/blank.png width =""200"" height = ""200"" style = ""float:right""></p><p><img src=images/blank.png width =""800"" height = ""200""></p>","","","","","","","","","","","",""
"","2548.145000007935","sequential-stimulus-presentation","103","658836","0.0-23.0-1.2","SS1613080016864","trial","","40","800","3348.145000007935","images/stimuli/spore_stims/simple_07_A_c.gif","images/stimuli/spore_stims/simple_04_A_a.gif","","","","","5","simple_dissimilar","images/stimuli/spore_stims/simple_04_A_a.gif","right","","","","",""
"","null","html-keyboard-response","104","659673","0.0-23.0-0.3","SS1613080016864","","","null","","","","","<p><img src= images/blank.png width =""200"" height = ""200"" style = ""float:right""></p><p><img src=images/blank.png width =""800"" height = ""200""></p>","","","","","","","","","","","",""
"","1714.0549999894574","sequential-stimulus-presentation","105","662253","0.0-23.0-1.3","SS1613080016864","trial","","40","800","2514.0549999894574","images/stimuli/spore_stims/simple_07_A_c.gif","images/stimuli/spore_stims/simple_04_A_a.gif","","","","","5","simple_dissimilar","images/stimuli/spore_stims/simple_04_A_a.gif","right","","","","",""
"","null","html-keyboard-response","106","663090","0.0-23.0-0.4","SS1613080016864","","","null","","","","","<p><img src= images/blank.png width =""200"" height = ""200"" style = ""float:right""></p><p><img src=images/blank.png width =""800"" height = ""200""></p>","","","","","","","","","","","",""
"","1337.679999996908","sequential-stimulus-presentation","107","665270","0.0-23.0-1.4","SS1613080016864","trial","","40","800","2137.679999996908","images/stimuli/spore_stims/simple_07_A_c.gif","images/stimuli/spore_stims/simple_04_A_a.gif","","","","","5","simple_dissimilar","images/stimuli/spore_stims/simple_04_A_a.gif","right","","","","",""
"","null","html-keyboard-response","108","666386","0.0-23.0-0.5","SS1613080016864","","","null","","","","","<p><img src= images/blank.png width =""200"" height = ""200"" style = ""float:right""></p><p><img src=images/blank.png width =""800"" height = ""200""></p>","","","","","","","","","","","",""
"","1481.560000043828","sequential-stimulus-presentation","109","668714","0.0-23.0-1.5","SS1613080016864","trial","","40","800","2281.560000043828","images/stimuli/spore_stims/simple_07_A_c.gif","images/stimuli/spore_stims/simple_04_A_a.gif","","","","","5","simple_dissimilar","images/stimuli/spore_stims/simple_04_A_a.gif","right","","","","",""
"","null","html-keyboard-response","110","670061","0.0-23.0-0.6","SS1613080016864","","","null","","","","","<p><img src= images/blank.png width =""200"" height = ""200"" style = ""float:right""></p><p><img src=images/blank.png width =""800"" height = ""200""></p>","","","","","","","","","","","",""
"","1320.7049999618903","sequential-stimulus-presentation","111","672227","0.0-23.0-1.6","SS1613080016864","trial","","40","800","2120.7049999618903","images/stimuli/spore_stims/simple_07_A_c.gif","images/stimuli/spore_stims/simple_04_A_a.gif","","","","","5","simple_dissimilar","images/stimuli/spore_stims/simple_04_A_a.gif","right","","","","",""
"","null","html-keyboard-response","112","673218","0.0-23.0-0.7","SS1613080016864","","","null","","","","","<p><img src= images/blank.png width =""200"" height = ""200"" style = ""float:right""></p><p><img src=images/blank.png width =""800"" height = ""200""></p>","","","","","","","","","","","",""
"","45306.849999993574","sequential-stimulus-presentation","113","719394","0.0-23.0-1.7","SS1613080016864","trial","","40","800","46106.849999993574","images/stimuli/spore_stims/simple_07_A_c.gif","images/stimuli/spore_stims/simple_04_A_a.gif","","","","","5","simple_dissimilar","images/stimuli/spore_stims/simple_07_A_c.gif","left","","","","",""
"","1821.0550000076182","html-keyboard-response","114","721245","0.0-24.0","SS1613080016864","pref_question","","50","","","","","<video width ='960' height = '540' style='padding-top:8%' autoplay muted><source src='images/stimuli/wall_pref.mp4' type='video/mp4'></video>","2","middle","45%","5","","","","","","","",""
"","2287.4549999833107","sequential-stimulus-presentation","115","724396","0.0-25.0","SS1613080016864","pref_reveal","","40","800","3087.4549999833107","null","null","","","","","5","","","","novel","","","",""
"","null","html-keyboard-response","116","725344","0.0-26.0-0.0","SS1613080016864","","","null","","","","","<p><img src= images/blank.png width =""200"" height = ""200"" style = ""float:right""></p><p><img src=images/blank.png width =""800"" height = ""200""></p>","","","","","","","","","","","",""
"","1753.0100000440143","sequential-stimulus-presentation","117","727945","0.0-26.0-1.0","SS1613080016864","trial","","40","800","2553.0100000440143","images/stimuli/spore_stims/simple_10_A_b.gif","images/stimuli/spore_stims/simple_10_B_b.gif","","","","","6","simple_similar","images/stimuli/spore_stims/simple_10_B_b.gif","left","","","","",""
"","null","html-keyboard-response","118","728816","0.0-26.0-0.1","SS1613080016864","","","null","","","","","<p><img src= images/blank.png width =""200"" height = ""200"" style = ""float:right""></p><p><img src=images/blank.png width =""800"" height = ""200""></p>","","","","","","","","","","","",""
"","1508.365000016056","sequential-stimulus-presentation","119","731171","0.0-26.0-1.1","SS1613080016864","trial","","40","800","2308.365000016056","images/stimuli/spore_stims/simple_10_A_b.gif","images/stimuli/spore_stims/simple_10_B_b.gif","","","","","6","simple_similar","images/stimuli/spore_stims/simple_10_B_b.gif","left","","","","",""
"","null","html-keyboard-response","120","732290","0.0-26.0-0.2","SS1613080016864","","","null","","","","","<p><img src= images/blank.png width =""200"" height = ""200"" style = ""float:right""></p><p><img src=images/blank.png width =""800"" height = ""200""></p>","","","","","","","","","","","",""
"","6579.570000001695","sequential-stimulus-presentation","121","739722","0.0-26.0-1.2","SS1613080016864","trial","","40","800","7379.570000001695","images/stimuli/spore_stims/simple_10_A_b.gif","images/stimuli/spore_stims/simple_10_B_b.gif","","","","","6","simple_similar","images/stimuli/spore_stims/simple_10_B_b.gif","left","","","","",""
"","null","html-keyboard-response","122","740613","0.0-26.0-0.3","SS1613080016864","","","null","","","","","<p><img src= images/blank.png width =""200"" height = ""200"" style = ""float:right""></p><p><img src=images/blank.png width =""800"" height = ""200""></p>","","","","","","","","","","","",""
"","1913.6149999685585","sequential-stimulus-presentation","123","743375","0.0-26.0-1.3","SS1613080016864","trial","","40","800","2713.6149999685585","images/stimuli/spore_stims/simple_10_A_b.gif","images/stimuli/spore_stims/simple_10_B_b.gif","","","","","6","simple_similar","images/stimuli/spore_stims/simple_10_B_b.gif","left","","","","",""
"","null","html-keyboard-response","124","744426","0.0-26.0-0.4","SS1613080016864","","","null","","","","","<p><img src= images/blank.png width =""200"" height = ""200"" style = ""float:right""></p><p><img src=images/blank.png width =""800"" height = ""200""></p>","","","","","","","","","","","",""
"","1965.9950000350364","sequential-stimulus-presentation","125","747226","0.0-26.0-1.4","SS1613080016864","trial","","40","800","2765.9950000350364","images/stimuli/spore_stims/simple_10_A_b.gif","images/stimuli/spore_stims/simple_10_B_b.gif","","","","","6","simple_similar","images/stimuli/spore_stims/simple_10_A_b.gif","middle","","","","",""
"","null","html-keyboard-response","126","748267","0.0-26.0-0.5","SS1613080016864","","","null","","","","","<p><img src= images/blank.png width =""200"" height = ""200"" style = ""float:right""></p><p><img src=images/blank.png width =""800"" height = ""200""></p>","","","","","","","","","","","",""
"","1796.42500000773","sequential-stimulus-presentation","127","750900","0.0-26.0-1.5","SS1613080016864","trial","","40","800","2596.42500000773","images/stimuli/spore_stims/simple_10_A_b.gif","images/stimuli/spore_stims/simple_10_B_b.gif","","","","","6","simple_similar","images/stimuli/spore_stims/simple_10_B_b.gif","left","","","","",""
"","null","html-keyboard-response","128","752165","0.0-26.0-0.6","SS1613080016864","","","null","","","","","<p><img src= images/blank.png width =""200"" height = ""200"" style = ""float:right""></p><p><img src=images/blank.png width =""800"" height = ""200""></p>","","","","","","","","","","","",""
"","227917.29500005022","sequential-stimulus-presentation","129","980944","0.0-26.0-1.6","SS1613080016864","trial","","40","800","228717.29500005022","images/stimuli/spore_stims/simple_10_A_b.gif","images/stimuli/spore_stims/simple_10_B_b.gif","","","","","6","simple_similar","images/stimuli/spore_stims/simple_10_B_b.gif","left","","","","",""
"","null","html-keyboard-response","130","982254","0.0-26.0-0.7","SS1613080016864","","","null","","","","","<p><img src= images/blank.png width =""200"" height = ""200"" style = ""float:right""></p><p><img src=images/blank.png width =""800"" height = ""200""></p>","","","","","","","","","","","",""
"","1635.7500000158325","sequential-stimulus-presentation","131","984736","0.0-26.0-1.7","SS1613080016864","trial","","40","800","2435.7500000158325","images/stimuli/spore_stims/simple_10_A_b.gif","images/stimuli/spore_stims/simple_10_B_b.gif","","","","","6","simple_similar","images/stimuli/spore_stims/simple_10_B_b.gif","left","","","","",""
"","2382.7549999696203","html-keyboard-response","132","987139","0.0-27.0","SS1613080016864","pref_question","","51","","","","","<video width ='960' height = '540' style='padding-top:8%' autoplay muted><source src='images/stimuli/wall_pref.mp4' type='video/mp4'></video>","3","right","66%","6","","","","","","","",""
"","3606.054999982007","sequential-stimulus-presentation","133","991593","0.0-28.0","SS1613080016864","pref_reveal","","40","800","4406.054999982007","null","null","","","","","6","","","","novel","","","",""
"","null","html-keyboard-response","134","992486","0.0-29.0-0.0","SS1613080016864","","","null","","","","","<p><img src= images/blank.png width =""200"" height = ""200"" style = ""float:right""></p><p><img src=images/blank.png width =""800"" height = ""200""></p>","","","","","","","","","","","",""
"","8228.324999974575","sequential-stimulus-presentation","135","1001567","0.0-29.0-1.0","SS1613080016864","trial","","40","800","9028.324999974575","images/stimuli/spore_stims/simple_12_A_d.gif","images/stimuli/spore_stims/simple_12_B_d.gif","","","","","7","simple_similar","images/stimuli/spore_stims/simple_12_B_d.gif","middle","","","","",""
"","null","html-keyboard-response","136","1002596","0.0-29.0-0.1","SS1613080016864","","","null","","","","","<p><img src= images/blank.png width =""200"" height = ""200"" style = ""float:right""></p><p><img src=images/blank.png width =""800"" height = ""200""></p>","","","","","","","","","","","",""
"","4236.180000007153","sequential-stimulus-presentation","137","1007685","0.0-29.0-1.1","SS1613080016864","trial","","40","800","5036.180000007153","images/stimuli/spore_stims/simple_12_A_d.gif","images/stimuli/spore_stims/simple_12_B_d.gif","","","","","7","simple_similar","images/stimuli/spore_stims/simple_12_B_d.gif","middle","","","","",""
"","null","html-keyboard-response","138","1008963","0.0-29.0-0.2","SS1613080016864","","","null","","","","","<p><img src= images/blank.png width =""200"" height = ""200"" style = ""float:right""></p><p><img src=images/blank.png width =""800"" height = ""200""></p>","","","","","","","","","","","",""
"","809.1000000131316","sequential-stimulus-presentation","139","1010638","0.0-29.0-1.2","SS1613080016864","trial","","40","800","1609.1000000131316","images/stimuli/spore_stims/simple_12_A_d.gif","images/stimuli/spore_stims/simple_12_B_d.gif","","","","","7","simple_similar","images/stimuli/spore_stims/simple_12_A_d.gif","right","","","","",""
"","null","html-keyboard-response","140","1011644","0.0-29.0-0.3","SS1613080016864","","","null","","","","","<p><img src= images/blank.png width =""200"" height = ""200"" style = ""float:right""></p><p><img src=images/blank.png width =""800"" height = ""200""></p>","","","","","","","","","","","",""
"","2335.8099999604747","sequential-stimulus-presentation","141","1014832","0.0-29.0-1.3","SS1613080016864","trial","","40","800","3135.8099999604747","images/stimuli/spore_stims/simple_12_A_d.gif","images/stimuli/spore_stims/simple_12_B_d.gif","","","","","7","simple_similar","images/stimuli/spore_stims/simple_12_B_d.gif","middle","","","","",""
"","null","html-keyboard-response","142","1015679","0.0-29.0-0.4","SS1613080016864","","","null","","","","","<p><img src= images/blank.png width =""200"" height = ""200"" style = ""float:right""></p><p><img src=images/blank.png width =""800"" height = ""200""></p>","","","","","","","","","","","",""
"","3580.270000034943","sequential-stimulus-presentation","143","1020094","0.0-29.0-1.4","SS1613080016864","trial","","40","800","4380.270000034943","images/stimuli/spore_stims/simple_12_A_d.gif","images/stimuli/spore_stims/simple_12_B_d.gif","","","","","7","simple_similar","images/stimuli/spore_stims/simple_12_B_d.gif","middle","","","","",""
"","null","html-keyboard-response","144","1020935","0.0-29.0-0.5","SS1613080016864","","","null","","","","","<p><img src= images/blank.png width =""200"" height = ""200"" style = ""float:right""></p><p><img src=images/blank.png width =""800"" height = ""200""></p>","","","","","","","","","","","",""
"","15275.229999970179","sequential-stimulus-presentation","145","1037080","0.0-29.0-1.5","SS1613080016864","trial","","40","800","16075.229999970179","images/stimuli/spore_stims/simple_12_A_d.gif","images/stimuli/spore_stims/simple_12_B_d.gif","","","","","7","simple_similar","images/stimuli/spore_stims/simple_12_B_d.gif","middle","","","","",""
"","null","html-keyboard-response","146","1038139","0.0-29.0-0.6","SS1613080016864","","","null","","","","","<p><img src= images/blank.png width =""200"" height = ""200"" style = ""float:right""></p><p><img src=images/blank.png width =""800"" height = ""200""></p>","","","","","","","","","","","",""
"","3002.3399999481626","sequential-stimulus-presentation","147","1041995","0.0-29.0-1.6","SS1613080016864","trial","","40","800","3802.3399999481626","images/stimuli/spore_stims/simple_12_A_d.gif","images/stimuli/spore_stims/simple_12_B_d.gif","","","","","7","simple_similar","images/stimuli/spore_stims/simple_12_B_d.gif","middle","","","","",""
"","null","html-keyboard-response","148","1043004","0.0-29.0-0.7","SS1613080016864","","","null","","","","","<p><img src= images/blank.png width =""200"" height = ""200"" style = ""float:right""></p><p><img src=images/blank.png width =""800"" height = ""200""></p>","","","","","","","","","","","",""
"","2394.259999971837","sequential-stimulus-presentation","149","1046241","0.0-29.0-1.7","SS1613080016864","trial","","40","800","3194.259999971837","images/stimuli/spore_stims/simple_12_A_d.gif","images/stimuli/spore_stims/simple_12_B_d.gif","","","","","7","simple_similar","images/stimuli/spore_stims/simple_12_B_d.gif","middle","","","","",""
"","7954.725000017788","html-keyboard-response","150","1054233","0.0-30.0","SS1613080016864","pref_question","","51","","","","","<video width ='960' height = '540' style='padding-top:8%' autoplay muted><source src='images/stimuli/wall_pref.mp4' type='video/mp4'></video>","3","right","66%","7","","","","","","","",""
"","379.3500000028871","sequential-stimulus-presentation","151","1055444","0.0-31.0","SS1613080016864","pref_reveal","","40","800","1179.350000002887","null","null","","","","","7","","","","deviant","","","",""
"","null","html-keyboard-response","152","1056434","0.0-32.0-0.0","SS1613080016864","","","null","","","","","<p><img src= images/blank.png width =""200"" height = ""200"" style = ""float:right""></p><p><img src=images/blank.png width =""800"" height = ""200""></p>","","","","","","","","","","","",""
"","2418.869999994058","sequential-stimulus-presentation","153","1059707","0.0-32.0-1.0","SS1613080016864","trial","","40","800","3218.869999994058","images/stimuli/spore_stims/complex_16_A_c.gif","images/stimuli/spore_stims/complex_16_B_c.gif","","","","","8","complex_similar","images/stimuli/spore_stims/complex_16_B_c.gif","middle","","","","",""
"","null","html-keyboard-response","154","1060573","0.0-32.0-0.1","SS1613080016864","","","null","","","","","<p><img src= images/blank.png width =""200"" height = ""200"" style = ""float:right""></p><p><img src=images/blank.png width =""800"" height = ""200""></p>","","","","","","","","","","","",""
"","7710.489999968559","sequential-stimulus-presentation","155","1069121","0.0-32.0-1.1","SS1613080016864","trial","","40","800","8510.489999968559","images/stimuli/spore_stims/complex_16_A_c.gif","images/stimuli/spore_stims/complex_16_B_c.gif","","","","","8","complex_similar","images/stimuli/spore_stims/complex_16_B_c.gif","middle","","","","",""
"","null","html-keyboard-response","156","1070179","0.0-32.0-0.2","SS1613080016864","","","null","","","","","<p><img src= images/blank.png width =""200"" height = ""200"" style = ""float:right""></p><p><img src=images/blank.png width =""800"" height = ""200""></p>","","","","","","","","","","","",""
"","1714.9099999805912","sequential-stimulus-presentation","157","1072749","0.0-32.0-1.2","SS1613080016864","trial","","40","800","2514.9099999805912","images/stimuli/spore_stims/complex_16_A_c.gif","images/stimuli/spore_stims/complex_16_B_c.gif","","","","","8","complex_similar","images/stimuli/spore_stims/complex_16_A_c.gif","right","","","","",""
"","null","html-keyboard-response","158","1073657","0.0-32.0-0.3","SS1613080016864","","","null","","","","","<p><img src= images/blank.png width =""200"" height = ""200"" style = ""float:right""></p><p><img src=images/blank.png width =""800"" height = ""200""></p>","","","","","","","","","","","",""
"","2469.265000021551","sequential-stimulus-presentation","159","1076990","0.0-32.0-1.3","SS1613080016864","trial","","40","800","3269.265000021551","images/stimuli/spore_stims/complex_16_A_c.gif","images/stimuli/spore_stims/complex_16_B_c.gif","","","","","8","complex_similar","images/stimuli/spore_stims/complex_16_B_c.gif","middle","","","","",""
"","null","html-keyboard-response","160","1078276","0.0-32.0-0.4","SS1613080016864","","","null","","","","","<p><img src= images/blank.png width =""200"" height = ""200"" style = ""float:right""></p><p><img src=images/blank.png width =""800"" height = ""200""></p>","","","","","","","","","","","",""
"","2092.2950000385754","sequential-stimulus-presentation","161","1081217","0.0-32.0-1.4","SS1613080016864","trial","","40","800","2892.2950000385754","images/stimuli/spore_stims/complex_16_A_c.gif","images/stimuli/spore_stims/complex_16_B_c.gif","","","","","8","complex_similar","images/stimuli/spore_stims/complex_16_B_c.gif","middle","","","","",""
"","null","html-keyboard-response","162","1082510","0.0-32.0-0.5","SS1613080016864","","","null","","","","","<p><img src= images/blank.png width =""200"" height = ""200"" style = ""float:right""></p><p><img src=images/blank.png width =""800"" height = ""200""></p>","","","","","","","","","","","",""
"","3303.8800000213087","sequential-stimulus-presentation","163","1086652","0.0-32.0-1.5","SS1613080016864","trial","","40","800","4103.880000021309","images/stimuli/spore_stims/complex_16_A_c.gif","images/stimuli/spore_stims/complex_16_B_c.gif","","","","","8","complex_similar","images/stimuli/spore_stims/complex_16_B_c.gif","middle","","","","",""
"","null","html-keyboard-response","164","1087517","0.0-32.0-0.6","SS1613080016864","","","null","","","","","<p><img src= images/blank.png width =""200"" height = ""200"" style = ""float:right""></p><p><img src=images/blank.png width =""800"" height = ""200""></p>","","","","","","","","","","","",""
"","1616.1250000004657","sequential-stimulus-presentation","165","1089991","0.0-32.0-1.6","SS1613080016864","trial","","40","800","2416.1250000004657","images/stimuli/spore_stims/complex_16_A_c.gif","images/stimuli/spore_stims/complex_16_B_c.gif","","","","","8","complex_similar","images/stimuli/spore_stims/complex_16_B_c.gif","middle","","","","",""
"","null","html-keyboard-response","166","1091143","0.0-32.0-0.7","SS1613080016864","","","null","","","","","<p><img src= images/blank.png width =""200"" height = ""200"" style = ""float:right""></p><p><img src=images/blank.png width =""800"" height = ""200""></p>","","","","","","","","","","","",""
"","1517.8600000217557","sequential-stimulus-presentation","167","1093525","0.0-32.0-1.7","SS1613080016864","trial","","40","800","2317.8600000217557","images/stimuli/spore_stims/complex_16_A_c.gif","images/stimuli/spore_stims/complex_16_B_c.gif","","","","","8","complex_similar","images/stimuli/spore_stims/complex_16_B_c.gif","middle","","","","",""
"","2329.775000049267","html-keyboard-response","168","1095891","0.0-33.0","SS1613080016864","pref_question","","51","","","","","<video width ='960' height = '540' style='padding-top:8%' autoplay muted><source src='images/stimuli/wall_pref.mp4' type='video/mp4'></video>","3","right","66%","8","","","","","","","",""
"","1287.3450000188313","sequential-stimulus-presentation","169","1098002","0.0-34.0","SS1613080016864","pref_reveal","","40","800","2087.3450000188313","null","null","","","","","8","","","","deviant","","","",""
"","null","html-keyboard-response","170","1099075","0.0-35.0-0.0","SS1613080016864","","","null","","","","","<p><img src= images/blank.png width =""200"" height = ""200"" style = ""float:right""></p><p><img src=images/blank.png width =""800"" height = ""200""></p>","","","","","","","","","","","",""
"","4192.385000002105","sequential-stimulus-presentation","171","1104111","0.0-35.0-1.0","SS1613080016864","trial","","40","800","4992.385000002105","images/stimuli/spore_stims/simple_18_A_b.gif","images/stimuli/spore_stims/simple_18_B_b.gif","","","","","9","simple_similar","images/stimuli/spore_stims/simple_18_B_b.gif","right","","","","",""
"","null","html-keyboard-response","172","1104975","0.0-35.0-0.1","SS1613080016864","","","null","","","","","<p><img src= images/blank.png width =""200"" height = ""200"" style = ""float:right""></p><p><img src=images/blank.png width =""800"" height = ""200""></p>","","","","","","","","","","","",""
"","1910.4550000047311","sequential-stimulus-presentation","173","1107747","0.0-35.0-1.1","SS1613080016864","trial","","40","800","2710.455000004731","images/stimuli/spore_stims/simple_18_A_b.gif","images/stimuli/spore_stims/simple_18_B_b.gif","","","","","9","simple_similar","images/stimuli/spore_stims/simple_18_B_b.gif","right","","","","",""
"","null","html-keyboard-response","174","1108718","0.0-35.0-0.2","SS1613080016864","","","null","","","","","<p><img src= images/blank.png width =""200"" height = ""200"" style = ""float:right""></p><p><img src=images/blank.png width =""800"" height = ""200""></p>","","","","","","","","","","","",""
"","4112.169999978505","sequential-stimulus-presentation","175","1113684","0.0-35.0-1.2","SS1613080016864","trial","","40","800","4912.169999978505","images/stimuli/spore_stims/simple_18_A_b.gif","images/stimuli/spore_stims/simple_18_B_b.gif","","","","","9","simple_similar","images/stimuli/spore_stims/simple_18_B_b.gif","right","","","","",""
"","null","html-keyboard-response","176","1114717","0.0-35.0-0.3","SS1613080016864","","","null","","","","","<p><img src= images/blank.png width =""200"" height = ""200"" style = ""float:right""></p><p><img src=images/blank.png width =""800"" height = ""200""></p>","","","","","","","","","","","",""
"","2125.260000000708","sequential-stimulus-presentation","177","1117722","0.0-35.0-1.3","SS1613080016864","trial","","40","800","2925.260000000708","images/stimuli/spore_stims/simple_18_A_b.gif","images/stimuli/spore_stims/simple_18_B_b.gif","","","","","9","simple_similar","images/stimuli/spore_stims/simple_18_B_b.gif","right","","","","",""
"","null","html-keyboard-response","178","1118660","0.0-35.0-0.4","SS1613080016864","","","null","","","","","<p><img src= images/blank.png width =""200"" height = ""200"" style = ""float:right""></p><p><img src=images/blank.png width =""800"" height = ""200""></p>","","","","","","","","","","","",""
"","415.3599999845028","sequential-stimulus-presentation","179","1119945","0.0-35.0-1.4","SS1613080016864","trial","","40","800","1215.3599999845028","images/stimuli/spore_stims/simple_18_A_b.gif","images/stimuli/spore_stims/simple_18_B_b.gif","","","","","9","simple_similar","images/stimuli/spore_stims/simple_18_B_b.gif","right","","","","",""
"","null","html-keyboard-response","180","1120903","0.0-35.0-0.5","SS1613080016864","","","null","","","","","<p><img src= images/blank.png width =""200"" height = ""200"" style = ""float:right""></p><p><img src=images/blank.png width =""800"" height = ""200""></p>","","","","","","","","","","","",""
"","1121.1849999963306","sequential-stimulus-presentation","181","1122914","0.0-35.0-1.5","SS1613080016864","trial","","40","800","1921.1849999963306","images/stimuli/spore_stims/simple_18_A_b.gif","images/stimuli/spore_stims/simple_18_B_b.gif","","","","","9","simple_similar","images/stimuli/spore_stims/simple_18_B_b.gif","right","","","","",""
"","null","html-keyboard-response","182","1124110","0.0-35.0-0.6","SS1613080016864","","","null","","","","","<p><img src= images/blank.png width =""200"" height = ""200"" style = ""float:right""></p><p><img src=images/blank.png width =""800"" height = ""200""></p>","","","","","","","","","","","",""
"","2650.36999998847","sequential-stimulus-presentation","183","1127635","0.0-35.0-1.6","SS1613080016864","trial","","40","800","3450.36999998847","images/stimuli/spore_stims/simple_18_A_b.gif","images/stimuli/spore_stims/simple_18_B_b.gif","","","","","9","simple_similar","images/stimuli/spore_stims/simple_18_A_b.gif","left","","","","",""
"","null","html-keyboard-response","184","1128902","0.0-35.0-0.7","SS1613080016864","","","null","","","","","<p><img src= images/blank.png width =""200"" height = ""200"" style = ""float:right""></p><p><img src=images/blank.png width =""800"" height = ""200""></p>","","","","","","","","","","","",""
"","1565.0549999554642","sequential-stimulus-presentation","185","1131363","0.0-35.0-1.7","SS1613080016864","trial","","40","800","2365.054999955464","images/stimuli/spore_stims/simple_18_A_b.gif","images/stimuli/spore_stims/simple_18_B_b.gif","","","","","9","simple_similar","images/stimuli/spore_stims/simple_18_B_b.gif","right","","","","",""
"","4640.994999965187","html-keyboard-response","186","1136114","0.0-36.0","SS1613080016864","pref_question","","49","","","","","<video width ='960' height = '540' style='padding-top:8%' autoplay muted><source src='images/stimuli/wall_pref.mp4' type='video/mp4'></video>","1","left","25%","9","","","","","","","",""
"","3002.8399999719113","sequential-stimulus-presentation","187","1140002","0.0-37.0","SS1613080016864","pref_reveal","","40","800","3802.8399999719113","null","null","","","","","9","","","","deviant","","","",""
"","null","html-keyboard-response","188","1141021","0.0-38.0-0.0","SS1613080016864","","","null","","","","","<p><img src= images/blank.png width =""200"" height = ""200"" style = ""float:right""></p><p><img src=images/blank.png width =""800"" height = ""200""></p>","","","","","","","","","","","",""
"","984.8549999878742","sequential-stimulus-presentation","189","1142895","0.0-38.0-1.0","SS1613080016864","trial","","40","800","1784.8549999878742","images/stimuli/spore_stims/complex_01_B_c.gif","images/stimuli/spore_stims/complex_01_A_c.gif","","","","","10","complex_similar","images/stimuli/spore_stims/complex_01_A_c.gif","middle","","","","",""
"","null","html-keyboard-response","190","1143920","0.0-38.0-0.1","SS1613080016864","","","null","","","","","<p><img src= images/blank.png width =""200"" height = ""200"" style = ""float:right""></p><p><img src=images/blank.png width =""800"" height = ""200""></p>","","","","","","","","","","","",""
"","5169.049999967683","sequential-stimulus-presentation","191","1149975","0.0-38.0-1.1","SS1613080016864","trial","","40","800","5969.049999967683","images/stimuli/spore_stims/complex_01_B_c.gif","images/stimuli/spore_stims/complex_01_A_c.gif","","","","","10","complex_similar","images/stimuli/spore_stims/complex_01_A_c.gif","middle","","","","",""
"","null","html-keyboard-response","192","1151162","0.0-38.0-0.2","SS1613080016864","","","null","","","","","<p><img src= images/blank.png width =""200"" height = ""200"" style = ""float:right""></p><p><img src=images/blank.png width =""800"" height = ""200""></p>","","","","","","","","","","","",""
"","1089.2600000370294","sequential-stimulus-presentation","193","1153125","0.0-38.0-1.2","SS1613080016864","trial","","40","800","1889.2600000370294","images/stimuli/spore_stims/complex_01_B_c.gif","images/stimuli/spore_stims/complex_01_A_c.gif","","","","","10","complex_similar","images/stimuli/spore_stims/complex_01_A_c.gif","middle","","","","",""
"","null","html-keyboard-response","194","1154258","0.0-38.0-0.3","SS1613080016864","","","null","","","","","<p><img src= images/blank.png width =""200"" height = ""200"" style = ""float:right""></p><p><img src=images/blank.png width =""800"" height = ""200""></p>","","","","","","","","","","","",""
"","1216.9499999727122","sequential-stimulus-presentation","195","1156374","0.0-38.0-1.3","SS1613080016864","trial","","40","800","2016.9499999727122","images/stimuli/spore_stims/complex_01_B_c.gif","images/stimuli/spore_stims/complex_01_A_c.gif","","","","","10","complex_similar","images/stimuli/spore_stims/complex_01_A_c.gif","middle","","","","",""
"","null","html-keyboard-response","196","1157335","0.0-38.0-0.4","SS1613080016864","","","null","","","","","<p><img src= images/blank.png width =""200"" height = ""200"" style = ""float:right""></p><p><img src=images/blank.png width =""800"" height = ""200""></p>","","","","","","","","","","","",""
"","952.2850000066683","sequential-stimulus-presentation","197","1159126","0.0-38.0-1.4","SS1613080016864","trial","","40","800","1752.2850000066683","images/stimuli/spore_stims/complex_01_B_c.gif","images/stimuli/spore_stims/complex_01_A_c.gif","","","","","10","complex_similar","images/stimuli/spore_stims/complex_01_B_c.gif","right","","","","",""
"","null","html-keyboard-response","198","1160210","0.0-38.0-0.5","SS1613080016864","","","null","","","","","<p><img src= images/blank.png width =""200"" height = ""200"" style = ""float:right""></p><p><img src=images/blank.png width =""800"" height = ""200""></p>","","","","","","","","","","","",""
"","3332.605000003241","sequential-stimulus-presentation","199","1164423","0.0-38.0-1.5","SS1613080016864","trial","","40","800","4132.605000003241","images/stimuli/spore_stims/complex_01_B_c.gif","images/stimuli/spore_stims/complex_01_A_c.gif","","","","","10","complex_similar","images/stimuli/spore_stims/complex_01_A_c.gif","middle","","","","",""
"","null","html-keyboard-response","200","1165397","0.0-38.0-0.6","SS1613080016864","","","null","","","","","<p><img src= images/blank.png width =""200"" height = ""200"" style = ""float:right""></p><p><img src=images/blank.png width =""800"" height = ""200""></p>","","","","","","","","","","","",""
"","1263.1749999709427","sequential-stimulus-presentation","201","1167534","0.0-38.0-1.6","SS1613080016864","trial","","40","800","2063.1749999709427","images/stimuli/spore_stims/complex_01_B_c.gif","images/stimuli/spore_stims/complex_01_A_c.gif","","","","","10","complex_similar","images/stimuli/spore_stims/complex_01_A_c.gif","middle","","","","",""
"","null","html-keyboard-response","202","1168554","0.0-38.0-0.7","SS1613080016864","","","null","","","","","<p><img src= images/blank.png width =""200"" height = ""200"" style = ""float:right""></p><p><img src=images/blank.png width =""800"" height = ""200""></p>","","","","","","","","","","","",""
"","1279.4149999972433","sequential-stimulus-presentation","203","1170689","0.0-38.0-1.7","SS1613080016864","trial","","40","800","2079.4149999972433","images/stimuli/spore_stims/complex_01_B_c.gif","images/stimuli/spore_stims/complex_01_A_c.gif","","","","","10","complex_similar","images/stimuli/spore_stims/complex_01_A_c.gif","middle","","","","",""
"","1890.5800000065938","html-keyboard-response","204","1172697","0.0-39.0","SS1613080016864","pref_question","","49","","","","","<video width ='960' height = '540' style='padding-top:8%' autoplay muted><source src='images/stimuli/wall_pref.mp4' type='video/mp4'></video>","1","left","25%","10","","","","","","","",""
"","4520.645000040531","sequential-stimulus-presentation","205","1178095","0.0-40.0","SS1613080016864","pref_reveal","","40","800","5320.645000040531","null","null","","","","","10","","","","novel","","","",""
"","null","html-keyboard-response","206","1179202","0.0-41.0-0.0","SS1613080016864","","","null","","","","","<p><img src= images/blank.png width =""200"" height = ""200"" style = ""float:right""></p><p><img src=images/blank.png width =""800"" height = ""200""></p>","","","","","","","","","","","",""
"","844.7099999757484","sequential-stimulus-presentation","207","1180924","0.0-41.0-1.0","SS1613080016864","trial","","40","800","1644.7099999757484","images/stimuli/spore_stims/complex_07_B_b.gif","images/stimuli/spore_stims/complex_07_A_b.gif","","","","","11","complex_similar","images/stimuli/spore_stims/complex_07_A_b.gif","right","","","","",""
"","null","html-keyboard-response","208","1181906","0.0-41.0-0.1","SS1613080016864","","","null","","","","","<p><img src= images/blank.png width =""200"" height = ""200"" style = ""float:right""></p><p><img src=images/blank.png width =""800"" height = ""200""></p>","","","","","","","","","","","",""
"","788.9800000120886","sequential-stimulus-presentation","209","1183563","0.0-41.0-1.1","SS1613080016864","trial","","40","800","1588.9800000120886","images/stimuli/spore_stims/complex_07_B_b.gif","images/stimuli/spore_stims/complex_07_A_b.gif","","","","","11","complex_similar","images/stimuli/spore_stims/complex_07_A_b.gif","right","","","","",""
"","null","html-keyboard-response","210","1184803","0.0-41.0-0.2","SS1613080016864","","","null","","","","","<p><img src= images/blank.png width =""200"" height = ""200"" style = ""float:right""></p><p><img src=images/blank.png width =""800"" height = ""200""></p>","","","","","","","","","","","",""
"","1419.164999970235","sequential-stimulus-presentation","211","1187102","0.0-41.0-1.2","SS1613080016864","trial","","40","800","2219.164999970235","images/stimuli/spore_stims/complex_07_B_b.gif","images/stimuli/spore_stims/complex_07_A_b.gif","","","","","11","complex_similar","images/stimuli/spore_stims/complex_07_A_b.gif","right","","","","",""
"","null","html-keyboard-response","212","1188108","0.0-41.0-0.3","SS1613080016864","","","null","","","","","<p><img src= images/blank.png width =""200"" height = ""200"" style = ""float:right""></p><p><img src=images/blank.png width =""800"" height = ""200""></p>","","","","","","","","","","","",""
"","1014.4200000213459","sequential-stimulus-presentation","213","1189983","0.0-41.0-1.3","SS1613080016864","trial","","40","800","1814.420000021346","images/stimuli/spore_stims/complex_07_B_b.gif","images/stimuli/spore_stims/complex_07_A_b.gif","","","","","11","complex_similar","images/stimuli/spore_stims/complex_07_A_b.gif","right","","","","",""
"","null","html-keyboard-response","214","1191038","0.0-41.0-0.4","SS1613080016864","","","null","","","","","<p><img src= images/blank.png width =""200"" height = ""200"" style = ""float:right""></p><p><img src=images/blank.png width =""800"" height = ""200""></p>","","","","","","","","","","","",""
"","794.1649999702349","sequential-stimulus-presentation","215","1192719","0.0-41.0-1.4","SS1613080016864","trial","","40","800","1594.164999970235","images/stimuli/spore_stims/complex_07_B_b.gif","images/stimuli/spore_stims/complex_07_A_b.gif","","","","","11","complex_similar","images/stimuli/spore_stims/complex_07_A_b.gif","right","","","","",""
"","null","html-keyboard-response","216","1193854","0.0-41.0-0.5","SS1613080016864","","","null","","","","","<p><img src= images/blank.png width =""200"" height = ""200"" style = ""float:right""></p><p><img src=images/blank.png width =""800"" height = ""200""></p>","","","","","","","","","","","",""
"","1762.3049999820068","sequential-stimulus-presentation","217","1196498","0.0-41.0-1.5","SS1613080016864","trial","","40","800","2562.304999982007","images/stimuli/spore_stims/complex_07_B_b.gif","images/stimuli/spore_stims/complex_07_A_b.gif","","","","","11","complex_similar","images/stimuli/spore_stims/complex_07_A_b.gif","right","","","","",""
"","null","html-keyboard-response","218","1197647","0.0-41.0-0.6","SS1613080016864","","","null","","","","","<p><img src= images/blank.png width =""200"" height = ""200"" style = ""float:right""></p><p><img src=images/blank.png width =""800"" height = ""200""></p>","","","","","","","","","","","",""
"","626.3449999969453","sequential-stimulus-presentation","219","1199146","0.0-41.0-1.6","SS1613080016864","trial","","40","800","1426.3449999969453","images/stimuli/spore_stims/complex_07_B_b.gif","images/stimuli/spore_stims/complex_07_A_b.gif","","","","","11","complex_similar","images/stimuli/spore_stims/complex_07_A_b.gif","right","","","","",""
"","null","html-keyboard-response","220","1200346","0.0-41.0-0.7","SS1613080016864","","","null","","","","","<p><img src= images/blank.png width =""200"" height = ""200"" style = ""float:right""></p><p><img src=images/blank.png width =""800"" height = ""200""></p>","","","","","","","","","","","",""
"","452.335000038147","sequential-stimulus-presentation","221","1201687","0.0-41.0-1.7","SS1613080016864","trial","","40","800","1252.335000038147","images/stimuli/spore_stims/complex_07_B_b.gif","images/stimuli/spore_stims/complex_07_A_b.gif","","","","","11","complex_similar","images/stimuli/spore_stims/complex_07_B_b.gif","middle","","","","",""
"","1888.3650000207126","html-keyboard-response","222","1203655","0.0-42.0","SS1613080016864","pref_question","","49","","","","","<video width ='960' height = '540' style='padding-top:8%' autoplay muted><source src='images/stimuli/wall_pref.mp4' type='video/mp4'></video>","1","left","25%","11","","","","","","","",""
"","343.98000000510365","sequential-stimulus-presentation","223","1204882","0.0-43.0","SS1613080016864","pref_reveal","","40","800","1143.9800000051036","null","null","","","","","11","","","","novel","","","",""
"","null","html-keyboard-response","224","1205780","0.0-44.0-0.0","SS1613080016864","","","null","","","","","<p><img src= images/blank.png width =""200"" height = ""200"" style = ""float:right""></p><p><img src=images/blank.png width =""800"" height = ""200""></p>","","","","","","","","","","","",""
"","322.3149999976158","sequential-stimulus-presentation","225","1206984","0.0-44.0-1.0","SS1613080016864","trial","","40","800","1122.3149999976158","images/stimuli/spore_stims/complex_04_A_b.gif","images/stimuli/spore_stims/complex_04_B_b.gif","","","","","12","complex_similar","images/stimuli/spore_stims/complex_04_B_b.gif","left","","","","",""
"","null","html-keyboard-response","226","1208136","0.0-44.0-0.1","SS1613080016864","","","null","","","","","<p><img src= images/blank.png width =""200"" height = ""200"" style = ""float:right""></p><p><img src=images/blank.png width =""800"" height = ""200""></p>","","","","","","","","","","","",""
"","196.4849999640137","sequential-stimulus-presentation","227","1209281","0.0-44.0-1.1","SS1613080016864","trial","","40","800","996.4849999640137","images/stimuli/spore_stims/complex_04_A_b.gif","images/stimuli/spore_stims/complex_04_B_b.gif","","","","","12","complex_similar","images/stimuli/spore_stims/complex_04_B_b.gif","left","","","","",""
"","null","html-keyboard-response","228","1210538","0.0-44.0-0.2","SS1613080016864","","","null","","","","","<p><img src= images/blank.png width =""200"" height = ""200"" style = ""float:right""></p><p><img src=images/blank.png width =""800"" height = ""200""></p>","","","","","","","","","","","",""
"","436.01499998476356","sequential-stimulus-presentation","229","1211853","0.0-44.0-1.2","SS1613080016864","trial","","40","800","1236.0149999847636","images/stimuli/spore_stims/complex_04_A_b.gif","images/stimuli/spore_stims/complex_04_B_b.gif","","","","","12","complex_similar","images/stimuli/spore_stims/complex_04_B_b.gif","left","","","","",""
"","null","html-keyboard-response","230","1212738","0.0-44.0-0.3","SS1613080016864","","","null","","","","","<p><img src= images/blank.png width =""200"" height = ""200"" style = ""float:right""></p><p><img src=images/blank.png width =""800"" height = ""200""></p>","","","","","","","","","","","",""
"","731.5250000101514","sequential-stimulus-presentation","231","1214343","0.0-44.0-1.3","SS1613080016864","trial","","40","800","1531.5250000101514","images/stimuli/spore_stims/complex_04_A_b.gif","images/stimuli/spore_stims/complex_04_B_b.gif","","","","","12","complex_similar","images/stimuli/spore_stims/complex_04_A_b.gif","right","","","","",""
"","null","html-keyboard-response","232","1215647","0.0-44.0-0.4","SS1613080016864","","","null","","","","","<p><img src= images/blank.png width =""200"" height = ""200"" style = ""float:right""></p><p><img src=images/blank.png width =""800"" height = ""200""></p>","","","","","","","","","","","",""
"","1344.5650000358","sequential-stimulus-presentation","233","1217864","0.0-44.0-1.4","SS1613080016864","trial","","40","800","2144.5650000358","images/stimuli/spore_stims/complex_04_A_b.gif","images/stimuli/spore_stims/complex_04_B_b.gif","","","","","12","complex_similar","images/stimuli/spore_stims/complex_04_B_b.gif","left","","","","",""
"","null","html-keyboard-response","234","1219012","0.0-44.0-0.5","SS1613080016864","","","null","","","","","<p><img src= images/blank.png width =""200"" height = ""200"" style = ""float:right""></p><p><img src=images/blank.png width =""800"" height = ""200""></p>","","","","","","","","","","","",""
"","783.0149999936111","sequential-stimulus-presentation","235","1220671","0.0-44.0-1.5","SS1613080016864","trial","","40","800","1583.0149999936111","images/stimuli/spore_stims/complex_04_A_b.gif","images/stimuli/spore_stims/complex_04_B_b.gif","","","","","12","complex_similar","images/stimuli/spore_stims/complex_04_B_b.gif","left","","","","",""
"","null","html-keyboard-response","236","1221784","0.0-44.0-0.6","SS1613080016864","","","null","","","","","<p><img src= images/blank.png width =""200"" height = ""200"" style = ""float:right""></p><p><img src=images/blank.png width =""800"" height = ""200""></p>","","","","","","","","","","","",""
"","507.80000002123415","sequential-stimulus-presentation","237","1223191","0.0-44.0-1.6","SS1613080016864","trial","","40","800","1307.8000000212342","images/stimuli/spore_stims/complex_04_A_b.gif","images/stimuli/spore_stims/complex_04_B_b.gif","","","","","12","complex_similar","images/stimuli/spore_stims/complex_04_B_b.gif","left","","","","",""
"","null","html-keyboard-response","238","1224338","0.0-44.0-0.7","SS1613080016864","","","null","","","","","<p><img src= images/blank.png width =""200"" height = ""200"" style = ""float:right""></p><p><img src=images/blank.png width =""800"" height = ""200""></p>","","","","","","","","","","","",""
"","304.17999997735023","sequential-stimulus-presentation","239","1225549","0.0-44.0-1.7","SS1613080016864","trial","","40","800","1104.1799999773502","images/stimuli/spore_stims/complex_04_A_b.gif","images/stimuli/spore_stims/complex_04_B_b.gif","","","","","12","complex_similar","images/stimuli/spore_stims/complex_04_B_b.gif","left","","","","",""
"","1932.16999998549","html-keyboard-response","240","1227568","0.0-45.0","SS1613080016864","pref_question","","51","","","","","<video width ='960' height = '540' style='padding-top:8%' autoplay muted><source src='images/stimuli/wall_pref.mp4' type='video/mp4'></video>","3","right","66%","12","","","","","","","",""
"","1071.3799999793991","sequential-stimulus-presentation","241","1229497","0.0-46.0","SS1613080016864","pref_reveal","","40","800","1871.3799999793991","null","null","","","","","12","","","","deviant","","","",""
"","null","html-keyboard-response","242","1230784","0.0-47.0-0.0","SS1613080016864","","","null","","","","","<p><img src= images/blank.png width =""200"" height = ""200"" style = ""float:right""></p><p><img src=images/blank.png width =""800"" height = ""200""></p>","","","","","","","","","","","",""
"","457.4799999827519","sequential-stimulus-presentation","243","1232147","0.0-47.0-1.0","SS1613080016864","trial","","40","800","1257.479999982752","images/stimuli/spore_stims/complex_02_B_c.gif","images/stimuli/spore_stims/complex_11_B_a.gif","","","","","13","complex_dissimilar","images/stimuli/spore_stims/complex_11_B_a.gif","middle","","","","",""
"","null","html-keyboard-response","244","1233081","0.0-47.0-0.1","SS1613080016864","","","null","","","","","<p><img src= images/blank.png width =""200"" height = ""200"" style = ""float:right""></p><p><img src=images/blank.png width =""800"" height = ""200""></p>","","","","","","","","","","","",""
"","575.2499999944121","sequential-stimulus-presentation","245","1234530","0.0-47.0-1.1","SS1613080016864","trial","","40","800","1375.249999994412","images/stimuli/spore_stims/complex_02_B_c.gif","images/stimuli/spore_stims/complex_11_B_a.gif","","","","","13","complex_dissimilar","images/stimuli/spore_stims/complex_11_B_a.gif","middle","","","","",""
"","null","html-keyboard-response","246","1235708","0.0-47.0-0.2","SS1613080016864","","","null","","","","","<p><img src= images/blank.png width =""200"" height = ""200"" style = ""float:right""></p><p><img src=images/blank.png width =""800"" height = ""200""></p>","","","","","","","","","","","",""
"","413.4150000172667","sequential-stimulus-presentation","247","1236995","0.0-47.0-1.2","SS1613080016864","trial","","40","800","1213.4150000172667","images/stimuli/spore_stims/complex_02_B_c.gif","images/stimuli/spore_stims/complex_11_B_a.gif","","","","","13","complex_dissimilar","images/stimuli/spore_stims/complex_11_B_a.gif","middle","","","","",""
"","null","html-keyboard-response","248","1237918","0.0-47.0-0.3","SS1613080016864","","","null","","","","","<p><img src= images/blank.png width =""200"" height = ""200"" style = ""float:right""></p><p><img src=images/blank.png width =""800"" height = ""200""></p>","","","","","","","","","","","",""
"","414.06999999890104","sequential-stimulus-presentation","249","1239191","0.0-47.0-1.3","SS1613080016864","trial","","40","800","1214.069999998901","images/stimuli/spore_stims/complex_02_B_c.gif","images/stimuli/spore_stims/complex_11_B_a.gif","","","","","13","complex_dissimilar","images/stimuli/spore_stims/complex_11_B_a.gif","middle","","","","",""
"","null","html-keyboard-response","250","1240104","0.0-47.0-0.4","SS1613080016864","","","null","","","","","<p><img src= images/blank.png width =""200"" height = ""200"" style = ""float:right""></p><p><img src=images/blank.png width =""800"" height = ""200""></p>","","","","","","","","","","","",""
"","346.2350000045262","sequential-stimulus-presentation","251","1241313","0.0-47.0-1.4","SS1613080016864","trial","","40","800","1146.2350000045262","images/stimuli/spore_stims/complex_02_B_c.gif","images/stimuli/spore_stims/complex_11_B_a.gif","","","","","13","complex_dissimilar","images/stimuli/spore_stims/complex_02_B_c.gif","right","","","","",""
"","null","html-keyboard-response","252","1242493","0.0-47.0-0.5","SS1613080016864","","","null","","","","","<p><img src= images/blank.png width =""200"" height = ""200"" style = ""float:right""></p><p><img src=images/blank.png width =""800"" height = ""200""></p>","","","","","","","","","","","",""
"","623.2200000085868","sequential-stimulus-presentation","253","1244012","0.0-47.0-1.5","SS1613080016864","trial","","40","800","1423.2200000085868","images/stimuli/spore_stims/complex_02_B_c.gif","images/stimuli/spore_stims/complex_11_B_a.gif","","","","","13","complex_dissimilar","images/stimuli/spore_stims/complex_11_B_a.gif","middle","","","","",""
"","null","html-keyboard-response","254","1245405","0.0-47.0-0.6","SS1613080016864","","","null","","","","","<p><img src= images/blank.png width =""200"" height = ""200"" style = ""float:right""></p><p><img src=images/blank.png width =""800"" height = ""200""></p>","","","","","","","","","","","",""
"","500.80500001786277","sequential-stimulus-presentation","255","1246762","0.0-47.0-1.6","SS1613080016864","trial","","40","800","1300.8050000178628","images/stimuli/spore_stims/complex_02_B_c.gif","images/stimuli/spore_stims/complex_11_B_a.gif","","","","","13","complex_dissimilar","images/stimuli/spore_stims/complex_11_B_a.gif","middle","","","","",""
"","null","html-keyboard-response","256","1247609","0.0-47.0-0.7","SS1613080016864","","","null","","","","","<p><img src= images/blank.png width =""200"" height = ""200"" style = ""float:right""></p><p><img src=images/blank.png width =""800"" height = ""200""></p>","","","","","","","","","","","",""
"","478.47000003093854","sequential-stimulus-presentation","257","1248930","0.0-47.0-1.7","SS1613080016864","trial","","40","800","1278.4700000309385","images/stimuli/spore_stims/complex_02_B_c.gif","images/stimuli/spore_stims/complex_11_B_a.gif","","","","","13","complex_dissimilar","images/stimuli/spore_stims/complex_11_B_a.gif","middle","","","","",""
"","1687.6150000025518","html-keyboard-response","258","1250673","0.0-48.0","SS1613080016864","pref_question","","51","","","","","<video width ='960' height = '540' style='padding-top:8%' autoplay muted><source src='images/stimuli/wall_pref.mp4' type='video/mp4'></video>","3","right","66%","13","","","","","","","",""
"","315.9899999736808","sequential-stimulus-presentation","259","1251843","0.0-49.0","SS1613080016864","pref_reveal","","40","800","1115.9899999736808","null","null","","","","","13","","","","deviant","","","",""
"","null","html-keyboard-response","260","1253010","0.0-50.0-0.0","SS1613080016864","","","null","","","","","<p><img src= images/blank.png width =""200"" height = ""200"" style = ""float:right""></p><p><img src=images/blank.png width =""800"" height = ""200""></p>","","","","","","","","","","","",""
"","266.71999995596707","sequential-stimulus-presentation","261","1254177","0.0-50.0-1.0","SS1613080016864","trial","","40","800","1066.719999955967","images/stimuli/spore_stims/complex_15_A_d.gif","images/stimuli/spore_stims/complex_12_A_a.gif","","","","","14","complex_dissimilar","images/stimuli/spore_stims/complex_12_A_a.gif","right","","","","",""
"","null","html-keyboard-response","262","1255460","0.0-50.0-0.1","SS1613080016864","","","null","","","","","<p><img src= images/blank.png width =""200"" height = ""200"" style = ""float:right""></p><p><img src=images/blank.png width =""800"" height = ""200""></p>","","","","","","","","","","","",""
"","1614.4099999801256","sequential-stimulus-presentation","263","1257968","0.0-50.0-1.1","SS1613080016864","trial","","40","800","2414.4099999801256","images/stimuli/spore_stims/complex_15_A_d.gif","images/stimuli/spore_stims/complex_12_A_a.gif","","","","","14","complex_dissimilar","images/stimuli/spore_stims/complex_12_A_a.gif","right","","","","",""
"","null","html-keyboard-response","264","1259195","0.0-50.0-0.2","SS1613080016864","","","null","","","","","<p><img src= images/blank.png width =""200"" height = ""200"" style = ""float:right""></p><p><img src=images/blank.png width =""800"" height = ""200""></p>","","","","","","","","","","","",""
"","311.199999996461","sequential-stimulus-presentation","265","1260411","0.0-50.0-1.2","SS1613080016864","trial","","40","800","1111.199999996461","images/stimuli/spore_stims/complex_15_A_d.gif","images/stimuli/spore_stims/complex_12_A_a.gif","","","","","14","complex_dissimilar","images/stimuli/spore_stims/complex_12_A_a.gif","right","","","","",""
"","null","html-keyboard-response","266","1261732","0.0-50.0-0.3","SS1613080016864","","","null","","","","","<p><img src= images/blank.png width =""200"" height = ""200"" style = ""float:right""></p><p><img src=images/blank.png width =""800"" height = ""200""></p>","","","","","","","","","","","",""
"","431.14499998046085","sequential-stimulus-presentation","267","1263057","0.0-50.0-1.3","SS1613080016864","trial","","40","800","1231.1449999804609","images/stimuli/spore_stims/complex_15_A_d.gif","images/stimuli/spore_stims/complex_12_A_a.gif","","","","","14","complex_dissimilar","images/stimuli/spore_stims/complex_15_A_d.gif","left","","","","",""
"","null","html-keyboard-response","268","1264408","0.0-50.0-0.4","SS1613080016864","","","null","","","","","<p><img src= images/blank.png width =""200"" height = ""200"" style = ""float:right""></p><p><img src=images/blank.png width =""800"" height = ""200""></p>","","","","","","","","","","","",""
"","240.38999999174848","sequential-stimulus-presentation","269","1265505","0.0-50.0-1.4","SS1613080016864","trial","","40","800","1040.3899999917485","images/stimuli/spore_stims/complex_15_A_d.gif","images/stimuli/spore_stims/complex_12_A_a.gif","","","","","14","complex_dissimilar","images/stimuli/spore_stims/complex_12_A_a.gif","right","","","","",""
"","null","html-keyboard-response","270","1266920","0.0-50.0-0.5","SS1613080016864","","","null","","","","","<p><img src= images/blank.png width =""200"" height = ""200"" style = ""float:right""></p><p><img src=images/blank.png width =""800"" height = ""200""></p>","","","","","","","","","","","",""
"","353.46000001300126","sequential-stimulus-presentation","271","1268126","0.0-50.0-1.5","SS1613080016864","trial","","40","800","1153.4600000130013","images/stimuli/spore_stims/complex_15_A_d.gif","images/stimuli/spore_stims/complex_12_A_a.gif","","","","","14","complex_dissimilar","images/stimuli/spore_stims/complex_12_A_a.gif","right","","","","",""
"","null","html-keyboard-response","272","1269085","0.0-50.0-0.6","SS1613080016864","","","null","","","","","<p><img src= images/blank.png width =""200"" height = ""200"" style = ""float:right""></p><p><img src=images/blank.png width =""800"" height = ""200""></p>","","","","","","","","","","","",""
"","394.86500003840774","sequential-stimulus-presentation","273","1270389","0.0-50.0-1.6","SS1613080016864","trial","","40","800","1194.8650000384077","images/stimuli/spore_stims/complex_15_A_d.gif","images/stimuli/spore_stims/complex_12_A_a.gif","","","","","14","complex_dissimilar","images/stimuli/spore_stims/complex_12_A_a.gif","right","","","","",""
"","null","html-keyboard-response","274","1271615","0.0-50.0-0.7","SS1613080016864","","","null","","","","","<p><img src= images/blank.png width =""200"" height = ""200"" style = ""float:right""></p><p><img src=images/blank.png width =""800"" height = ""200""></p>","","","","","","","","","","","",""
"","840.9799999790266","sequential-stimulus-presentation","275","1273330","0.0-50.0-1.7","SS1613080016864","trial","","40","800","1640.9799999790266","images/stimuli/spore_stims/complex_15_A_d.gif","images/stimuli/spore_stims/complex_12_A_a.gif","","","","","14","complex_dissimilar","images/stimuli/spore_stims/complex_12_A_a.gif","right","","","","",""
"","1834.659999993164","html-keyboard-response","276","1275258","0.0-51.0","SS1613080016864","pref_question","","50","","","","","<video width ='960' height = '540' style='padding-top:8%' autoplay muted><source src='images/stimuli/wall_pref.mp4' type='video/mp4'></video>","2","middle","45%","14","","","","","","","",""
"","1192.3949999618344","sequential-stimulus-presentation","277","1277330","0.0-52.0","SS1613080016864","pref_reveal","","40","800","1992.3949999618344","null","null","","","","","14","","","","novel","","","",""
"","null","html-keyboard-response","278","1278276","0.0-53.0-0.0","SS1613080016864","","","null","","","","","<p><img src= images/blank.png width =""200"" height = ""200"" style = ""float:right""></p><p><img src=images/blank.png width =""800"" height = ""200""></p>","","","","","","","","","","","",""
"","651.2050000019372","sequential-stimulus-presentation","279","1279816","0.0-53.0-1.0","SS1613080016864","trial","","40","800","1451.2050000019372","images/stimuli/spore_stims/complex_09_B_c.gif","images/stimuli/spore_stims/complex_06_B_d.gif","","","","","15","complex_dissimilar","images/stimuli/spore_stims/complex_06_B_d.gif","middle","","","","",""
"","null","html-keyboard-response","280","1281010","0.0-53.0-0.1","SS1613080016864","","","null","","","","","<p><img src= images/blank.png width =""200"" height = ""200"" style = ""float:right""></p><p><img src=images/blank.png width =""800"" height = ""200""></p>","","","","","","","","","","","",""
"","638.6649999767542","sequential-stimulus-presentation","281","1282548","0.0-53.0-1.1","SS1613080016864","trial","","40","800","1438.6649999767542","images/stimuli/spore_stims/complex_09_B_c.gif","images/stimuli/spore_stims/complex_06_B_d.gif","","","","","15","complex_dissimilar","images/stimuli/spore_stims/complex_06_B_d.gif","middle","","","","",""
"","null","html-keyboard-response","282","1283858","0.0-53.0-0.2","SS1613080016864","","","null","","","","","<p><img src= images/blank.png width =""200"" height = ""200"" style = ""float:right""></p><p><img src=images/blank.png width =""800"" height = ""200""></p>","","","","","","","","","","","",""
"","918.0649999761954","sequential-stimulus-presentation","283","1285651","0.0-53.0-1.2","SS1613080016864","trial","","40","800","1718.0649999761954","images/stimuli/spore_stims/complex_09_B_c.gif","images/stimuli/spore_stims/complex_06_B_d.gif","","","","","15","complex_dissimilar","images/stimuli/spore_stims/complex_06_B_d.gif","middle","","","","",""
"","null","html-keyboard-response","284","1286957","0.0-53.0-0.3","SS1613080016864","","","null","","","","","<p><img src= images/blank.png width =""200"" height = ""200"" style = ""float:right""></p><p><img src=images/blank.png width =""800"" height = ""200""></p>","","","","","","","","","","","",""
"","471.86000004876405","sequential-stimulus-presentation","285","1288319","0.0-53.0-1.3","SS1613080016864","trial","","40","800","1271.860000048764","images/stimuli/spore_stims/complex_09_B_c.gif","images/stimuli/spore_stims/complex_06_B_d.gif","","","","","15","complex_dissimilar","images/stimuli/spore_stims/complex_06_B_d.gif","middle","","","","",""
"","null","html-keyboard-response","286","1289599","0.0-53.0-0.4","SS1613080016864","","","null","","","","","<p><img src= images/blank.png width =""200"" height = ""200"" style = ""float:right""></p><p><img src=images/blank.png width =""800"" height = ""200""></p>","","","","","","","","","","","",""
"","408.18999998737127","sequential-stimulus-presentation","287","1290917","0.0-53.0-1.4","SS1613080016864","trial","","40","800","1208.1899999873713","images/stimuli/spore_stims/complex_09_B_c.gif","images/stimuli/spore_stims/complex_06_B_d.gif","","","","","15","complex_dissimilar","images/stimuli/spore_stims/complex_06_B_d.gif","middle","","","","",""
"","null","html-keyboard-response","288","1292094","0.0-53.0-0.5","SS1613080016864","","","null","","","","","<p><img src= images/blank.png width =""200"" height = ""200"" style = ""float:right""></p><p><img src=images/blank.png width =""800"" height = ""200""></p>","","","","","","","","","","","",""
"","258.13999999081716","sequential-stimulus-presentation","289","1293214","0.0-53.0-1.5","SS1613080016864","trial","","40","800","1058.1399999908172","images/stimuli/spore_stims/complex_09_B_c.gif","images/stimuli/spore_stims/complex_06_B_d.gif","","","","","15","complex_dissimilar","images/stimuli/spore_stims/complex_09_B_c.gif","right","","","","",""
"","null","html-keyboard-response","290","1294399","0.0-53.0-0.6","SS1613080016864","","","null","","","","","<p><img src= images/blank.png width =""200"" height = ""200"" style = ""float:right""></p><p><img src=images/blank.png width =""800"" height = ""200""></p>","","","","","","","","","","","",""
"","502.94999999459833","sequential-stimulus-presentation","291","1295770","0.0-53.0-1.6","SS1613080016864","trial","","40","800","1302.9499999945983","images/stimuli/spore_stims/complex_09_B_c.gif","images/stimuli/spore_stims/complex_06_B_d.gif","","","","","15","complex_dissimilar","images/stimuli/spore_stims/complex_06_B_d.gif","middle","","","","",""
"","null","html-keyboard-response","292","1297213","0.0-53.0-0.7","SS1613080016864","","","null","","","","","<p><img src= images/blank.png width =""200"" height = ""200"" style = ""float:right""></p><p><img src=images/blank.png width =""800"" height = ""200""></p>","","","","","","","","","","","",""
"","284.3449999927543","sequential-stimulus-presentation","293","1298351","0.0-53.0-1.7","SS1613080016864","trial","","40","800","1084.3449999927543","images/stimuli/spore_stims/complex_09_B_c.gif","images/stimuli/spore_stims/complex_06_B_d.gif","","","","","15","complex_dissimilar","images/stimuli/spore_stims/complex_06_B_d.gif","middle","","","","",""
"","10436.455000017304","html-keyboard-response","294","1308918","0.0-54.0","SS1613080016864","pref_question","","50","","","","","<video width ='960' height = '540' style='padding-top:8%' autoplay muted><source src='images/stimuli/wall_pref.mp4' type='video/mp4'></video>","2","middle","45%","15","","","","","","","",""
"","299.75000000558794","sequential-stimulus-presentation","295","1310094","0.0-55.0","SS1613080016864","pref_reveal","","40","800","1099.750000005588","null","null","","","","","15","","","","background","","","",""
"","null","html-keyboard-response","296","1311298","0.0-56.0-0.0","SS1613080016864","","","null","","","","","<p><img src= images/blank.png width =""200"" height = ""200"" style = ""float:right""></p><p><img src=images/blank.png width =""800"" height = ""200""></p>","","","","","","","","","","","",""
"","981.0700000380166","sequential-stimulus-presentation","297","1313186","0.0-56.0-1.0","SS1613080016864","trial","","40","800","1781.0700000380166","images/stimuli/spore_stims/simple_03_A_b.gif","images/stimuli/spore_stims/simple_01_B_d.gif","","","","","16","simple_dissimilar","images/stimuli/spore_stims/simple_01_B_d.gif","right","","","","",""
"","null","html-keyboard-response","298","1314196","0.0-56.0-0.1","SS1613080016864","","","null","","","","","<p><img src= images/blank.png width =""200"" height = ""200"" style = ""float:right""></p><p><img src=images/blank.png width =""800"" height = ""200""></p>","","","","","","","","","","","",""
"","310.7449999661185","sequential-stimulus-presentation","299","1315349","0.0-56.0-1.1","SS1613080016864","trial","","40","800","1110.7449999661185","images/stimuli/spore_stims/simple_03_A_b.gif","images/stimuli/spore_stims/simple_01_B_d.gif","","","","","16","simple_dissimilar","images/stimuli/spore_stims/simple_01_B_d.gif","right","","","","",""
"","null","html-keyboard-response","300","1316308","0.0-56.0-0.2","SS1613080016864","","","null","","","","","<p><img src= images/blank.png width =""200"" height = ""200"" style = ""float:right""></p><p><img src=images/blank.png width =""800"" height = ""200""></p>","","","","","","","","","","","",""
"","331.3699999707751","sequential-stimulus-presentation","301","1317528","0.0-56.0-1.2","SS1613080016864","trial","","40","800","1131.369999970775","images/stimuli/spore_stims/simple_03_A_b.gif","images/stimuli/spore_stims/simple_01_B_d.gif","","","","","16","simple_dissimilar","images/stimuli/spore_stims/simple_03_A_b.gif","middle","","","","",""
"","null","html-keyboard-response","302","1318450","0.0-56.0-0.3","SS1613080016864","","","null","","","","","<p><img src= images/blank.png width =""200"" height = ""200"" style = ""float:right""></p><p><img src=images/blank.png width =""800"" height = ""200""></p>","","","","","","","","","","","",""
"","550.1050000311807","sequential-stimulus-presentation","303","1319877","0.0-56.0-1.3","SS1613080016864","trial","","40","800","1350.1050000311807","images/stimuli/spore_stims/simple_03_A_b.gif","images/stimuli/spore_stims/simple_01_B_d.gif","","","","","16","simple_dissimilar","images/stimuli/spore_stims/simple_01_B_d.gif","right","","","","",""
"","null","html-keyboard-response","304","1321081","0.0-56.0-0.4","SS1613080016864","","","null","","","","","<p><img src= images/blank.png width =""200"" height = ""200"" style = ""float:right""></p><p><img src=images/blank.png width =""800"" height = ""200""></p>","","","","","","","","","","","",""
"","199.44000005489215","sequential-stimulus-presentation","305","1322157","0.0-56.0-1.4","SS1613080016864","trial","","40","800","999.4400000548922","images/stimuli/spore_stims/simple_03_A_b.gif","images/stimuli/spore_stims/simple_01_B_d.gif","","","","","16","simple_dissimilar","images/stimuli/spore_stims/simple_01_B_d.gif","right","","","","",""
"","null","html-keyboard-response","306","1323270","0.0-56.0-0.5","SS1613080016864","","","null","","","","","<p><img src= images/blank.png width =""200"" height = ""200"" style = ""float:right""></p><p><img src=images/blank.png width =""800"" height = ""200""></p>","","","","","","","","","","","",""
"","307.8700000187382","sequential-stimulus-presentation","307","1324407","0.0-56.0-1.5","SS1613080016864","trial","","40","800","1107.8700000187382","images/stimuli/spore_stims/simple_03_A_b.gif","images/stimuli/spore_stims/simple_01_B_d.gif","","","","","16","simple_dissimilar","images/stimuli/spore_stims/simple_01_B_d.gif","right","","","","",""
"","null","html-keyboard-response","308","1325621","0.0-56.0-0.6","SS1613080016864","","","null","","","","","<p><img src= images/blank.png width =""200"" height = ""200"" style = ""float:right""></p><p><img src=images/blank.png width =""800"" height = ""200""></p>","","","","","","","","","","","",""
"","306.45999999251217","sequential-stimulus-presentation","309","1326816","0.0-56.0-1.6","SS1613080016864","trial","","40","800","1106.4599999925122","images/stimuli/spore_stims/simple_03_A_b.gif","images/stimuli/spore_stims/simple_01_B_d.gif","","","","","16","simple_dissimilar","images/stimuli/spore_stims/simple_01_B_d.gif","right","","","","",""
"","null","html-keyboard-response","310","1328007","0.0-56.0-0.7","SS1613080016864","","","null","","","","","<p><img src= images/blank.png width =""200"" height = ""200"" style = ""float:right""></p><p><img src=images/blank.png width =""800"" height = ""200""></p>","","","","","","","","","","","",""
"","486.4850000012666","sequential-stimulus-presentation","311","1329365","0.0-56.0-1.7","SS1613080016864","trial","","40","800","1286.4850000012666","images/stimuli/spore_stims/simple_03_A_b.gif","images/stimuli/spore_stims/simple_01_B_d.gif","","","","","16","simple_dissimilar","images/stimuli/spore_stims/simple_01_B_d.gif","right","","","","",""
