"view_history","rt","trial_type","trial_index","time_elapsed","internal_node_id","subject","stimulus_type","trial_stimulus","key_press","minimum_viewing_duration","trial_looking_time","block_deviant","block_background","stimulus","wall_pref","location","location_percent","block_number","block_type","stimulus_displayed","position_displayed","stim_type_selected","responses","question_order","stimulus_left","stimulus_right"
"[{""page_index"":0,""viewing_time"":59233.86000000028}]","59234.39999999755","instructions","0","59236","0.0-0.0","SS1613083738456","","","","","","","","","","","","","","","","","","","",""
"[{""page_index"":0,""viewing_time"":2483.8850000014645},{""page_index"":1,""viewing_time"":15271.984999999404}]","17756.185000002006","instructions","1","78995","0.0-1.0","SS1613083738456","instructions","","","","","","","","","","","","","","","","","","",""
"","23027.69999999873","sequential-stimulus-presentation","2","102828","0.0-2.0","SS1613083738456","","","40","800","23827.69999999873","null","null","","","","","","","","","","","","",""
"","1972.1300000019255","sequential-stimulus-presentation","3","105603","0.0-3.0","SS1613083738456","","","40","800","2772.1300000019255","null","null","","","","","","","","","","","","",""
"[{""page_index"":0,""viewing_time"":2446.6150000007474}]","2446.8400000005204","instructions","4","108051","0.0-4.0","SS1613083738456","instructions","","","","","","","","","","","","","","","","","","",""
"","5228.9399999972375","html-keyboard-response","5","113284","0.0-5.0","SS1613083738456","instructions","","50","","","","","<video width ='960' height = '540' autoplay muted><source src='images/stimuli/wall_pref.mp4' type='video/mp4'></video>","2","middle","45%","","","","","","","","",""
"","907.5999999986379","sequential-stimulus-presentation","6","114995","0.0-6.0","SS1613083738456","pref_reveal","","40","800","1707.599999998638","null","null","","","","","","","","","","","","",""
"[{""page_index"":0,""viewing_time"":3326.485000001412},{""page_index"":1,""viewing_time"":1072.149999999965},{""page_index"":2,""viewing_time"":783.755000000383},{""page_index"":3,""viewing_time"":1032.2849999975006}]","6215.03500000108","instructions","7","121211","0.0-7.0","SS1613083738456","instructions","","","","","","","","","","","","","","","","","","",""
"","null","html-keyboard-response","8","122204","0.0-8.0-0.0","SS1613083738456","","","null","","","","","<p><img src= images/blank.png width =""200"" height = ""200"" style = ""float:right""></p><p><img src=images/blank.png width =""800"" height = ""200""></p>","","","","","","","","","","","",""
"","513.279999999213","sequential-stimulus-presentation","9","123523","0.0-8.0-1.0","SS1613083738456","trial","","40","800","1313.279999999213","images/stimuli/spore_stims/complex_06_A_a.gif","images/stimuli/spore_stims/complex_15_A_a.gif","","","","","0","complex_dissimilar","images/stimuli/spore_stims/complex_15_A_a.gif","middle","","","","",""
"","null","html-keyboard-response","10","124728","0.0-8.0-0.1","SS1613083738456","","","null","","","","","<p><img src= images/blank.png width =""200"" height = ""200"" style = ""float:right""></p><p><img src=images/blank.png width =""800"" height = ""200""></p>","","","","","","","","","","","",""
"","308.5800000008021","sequential-stimulus-presentation","11","125843","0.0-8.0-1.1","SS1613083738456","trial","","40","800","1108.580000000802","images/stimuli/spore_stims/complex_06_A_a.gif","images/stimuli/spore_stims/complex_15_A_a.gif","","","","","0","complex_dissimilar","images/stimuli/spore_stims/complex_15_A_a.gif","middle","","","","",""
"","null","html-keyboard-response","12","126886","0.0-8.0-0.2","SS1613083738456","","","null","","","","","<p><img src= images/blank.png width =""200"" height = ""200"" style = ""float:right""></p><p><img src=images/blank.png width =""800"" height = ""200""></p>","","","","","","","","","","","",""
"","375.1249999986612","sequential-stimulus-presentation","13","128068","0.0-8.0-1.2","SS1613083738456","trial","","40","800","1175.1249999986612","images/stimuli/spore_stims/complex_06_A_a.gif","images/stimuli/spore_stims/complex_15_A_a.gif","","","","","0","complex_dissimilar","images/stimuli/spore_stims/complex_15_A_a.gif","middle","","","","",""
"","null","html-keyboard-response","14","129100","0.0-8.0-0.3","SS1613083738456","","","null","","","","","<p><img src= images/blank.png width =""200"" height = ""200"" style = ""float:right""></p><p><img src=images/blank.png width =""800"" height = ""200""></p>","","","","","","","","","","","",""
"","234.26999999719555","sequential-stimulus-presentation","15","130139","0.0-8.0-1.3","SS1613083738456","trial","","40","800","1034.2699999971956","images/stimuli/spore_stims/complex_06_A_a.gif","images/stimuli/spore_stims/complex_15_A_a.gif","","","","","0","complex_dissimilar","images/stimuli/spore_stims/complex_15_A_a.gif","middle","","","","",""
"","null","html-keyboard-response","16","131342","0.0-8.0-0.4","SS1613083738456","","","null","","","","","<p><img src= images/blank.png width =""200"" height = ""200"" style = ""float:right""></p><p><img src=images/blank.png width =""800"" height = ""200""></p>","","","","","","","","","","","",""
"","473.12500000043656","sequential-stimulus-presentation","17","132619","0.0-8.0-1.4","SS1613083738456","trial","","40","800","1273.1250000004366","images/stimuli/spore_stims/complex_06_A_a.gif","images/stimuli/spore_stims/complex_15_A_a.gif","","","","","0","complex_dissimilar","images/stimuli/spore_stims/complex_15_A_a.gif","middle","","","","",""
"","null","html-keyboard-response","18","133823","0.0-8.0-0.5","SS1613083738456","","","null","","","","","<p><img src= images/blank.png width =""200"" height = ""200"" style = ""float:right""></p><p><img src=images/blank.png width =""800"" height = ""200""></p>","","","","","","","","","","","",""
"","580.7249999998021","sequential-stimulus-presentation","19","135211","0.0-8.0-1.5","SS1613083738456","trial","","40","800","1380.724999999802","images/stimuli/spore_stims/complex_06_A_a.gif","images/stimuli/spore_stims/complex_15_A_a.gif","","","","","0","complex_dissimilar","images/stimuli/spore_stims/complex_15_A_a.gif","middle","","","","",""
"","null","html-keyboard-response","20","136190","0.0-8.0-0.6","SS1613083738456","","","null","","","","","<p><img src= images/blank.png width =""200"" height = ""200"" style = ""float:right""></p><p><img src=images/blank.png width =""800"" height = ""200""></p>","","","","","","","","","","","",""
"","193.07499999922584","sequential-stimulus-presentation","21","137187","0.0-8.0-1.6","SS1613083738456","trial","","40","800","993.0749999992258","images/stimuli/spore_stims/complex_06_A_a.gif","images/stimuli/spore_stims/complex_15_A_a.gif","","","","","0","complex_dissimilar","images/stimuli/spore_stims/complex_15_A_a.gif","middle","","","","",""
"","null","html-keyboard-response","22","138097","0.0-8.0-0.7","SS1613083738456","","","null","","","","","<p><img src= images/blank.png width =""200"" height = ""200"" style = ""float:right""></p><p><img src=images/blank.png width =""800"" height = ""200""></p>","","","","","","","","","","","",""
"","1045.7150000002002","sequential-stimulus-presentation","23","139947","0.0-8.0-1.7","SS1613083738456","trial","","40","800","1845.7150000002002","images/stimuli/spore_stims/complex_06_A_a.gif","images/stimuli/spore_stims/complex_15_A_a.gif","","","","","0","complex_dissimilar","images/stimuli/spore_stims/complex_06_A_a.gif","right","","","","",""
"","2813.4850000024016","html-keyboard-response","24","142763","0.0-9.0","SS1613083738456","pref_question","","51","","","","","<video width ='960' height = '540' style='padding-top:8%' autoplay muted><source src='images/stimuli/wall_pref.mp4' type='video/mp4'></video>","3","right","66%","0","","","","","","","",""
"","531.090000000404","sequential-stimulus-presentation","25","144099","0.0-10.0","SS1613083738456","pref_reveal","","40","800","1331.090000000404","null","null","","","","","0","","","","deviant","","","",""
"","null","html-keyboard-response","26","145054","0.0-11.0-0.0","SS1613083738456","","","null","","","","","<p><img src= images/blank.png width =""200"" height = ""200"" style = ""float:right""></p><p><img src=images/blank.png width =""800"" height = ""200""></p>","","","","","","","","","","","",""
"","208.25000000331784","sequential-stimulus-presentation","27","146067","0.0-11.0-1.0","SS1613083738456","trial","","40","800","1008.2500000033178","images/stimuli/spore_stims/simple_08_A_b.gif","images/stimuli/spore_stims/simple_03_A_d.gif","","","","","1","simple_dissimilar","images/stimuli/spore_stims/simple_03_A_d.gif","middle","","","","",""
"","null","html-keyboard-response","28","147194","0.0-11.0-0.1","SS1613083738456","","","null","","","","","<p><img src= images/blank.png width =""200"" height = ""200"" style = ""float:right""></p><p><img src=images/blank.png width =""800"" height = ""200""></p>","","","","","","","","","","","",""
"","76.06999999916297","sequential-stimulus-presentation","29","148091","0.0-11.0-1.1","SS1613083738456","trial","","40","800","876.069999999163","images/stimuli/spore_stims/simple_08_A_b.gif","images/stimuli/spore_stims/simple_03_A_d.gif","","","","","1","simple_dissimilar","images/stimuli/spore_stims/simple_03_A_d.gif","middle","","","","",""
"","null","html-keyboard-response","30","149334","0.0-11.0-0.2","SS1613083738456","","","null","","","","","<p><img src= images/blank.png width =""200"" height = ""200"" style = ""float:right""></p><p><img src=images/blank.png width =""800"" height = ""200""></p>","","","","","","","","","","","",""
"","582.2000000007392","sequential-stimulus-presentation","31","150731","0.0-11.0-1.2","SS1613083738456","trial","","40","800","1382.2000000007392","images/stimuli/spore_stims/simple_08_A_b.gif","images/stimuli/spore_stims/simple_03_A_d.gif","","","","","1","simple_dissimilar","images/stimuli/spore_stims/simple_03_A_d.gif","middle","","","","",""
"","null","html-keyboard-response","32","151711","0.0-11.0-0.3","SS1613083738456","","","null","","","","","<p><img src= images/blank.png width =""200"" height = ""200"" style = ""float:right""></p><p><img src=images/blank.png width =""800"" height = ""200""></p>","","","","","","","","","","","",""
"","111.87000000063563","sequential-stimulus-presentation","33","152627","0.0-11.0-1.3","SS1613083738456","trial","","40","800","911.8700000006356","images/stimuli/spore_stims/simple_08_A_b.gif","images/stimuli/spore_stims/simple_03_A_d.gif","","","","","1","simple_dissimilar","images/stimuli/spore_stims/simple_03_A_d.gif","middle","","","","",""
"","null","html-keyboard-response","34","153818","0.0-11.0-0.4","SS1613083738456","","","null","","","","","<p><img src= images/blank.png width =""200"" height = ""200"" style = ""float:right""></p><p><img src=images/blank.png width =""800"" height = ""200""></p>","","","","","","","","","","","",""
"","1696.654999999737","sequential-stimulus-presentation","35","156324","0.0-11.0-1.4","SS1613083738456","trial","","40","800","2496.654999999737","images/stimuli/spore_stims/simple_08_A_b.gif","images/stimuli/spore_stims/simple_03_A_d.gif","","","","","1","simple_dissimilar","images/stimuli/spore_stims/simple_03_A_d.gif","middle","","","","",""
"","null","html-keyboard-response","36","157236","0.0-11.0-0.5","SS1613083738456","","","null","","","","","<p><img src= images/blank.png width =""200"" height = ""200"" style = ""float:right""></p><p><img src=images/blank.png width =""800"" height = ""200""></p>","","","","","","","","","","","",""
"","346.2099999997008","sequential-stimulus-presentation","37","158387","0.0-11.0-1.5","SS1613083738456","trial","","40","800","1146.2099999997008","images/stimuli/spore_stims/simple_08_A_b.gif","images/stimuli/spore_stims/simple_03_A_d.gif","","","","","1","simple_dissimilar","images/stimuli/spore_stims/simple_08_A_b.gif","left","","","","",""
"","null","html-keyboard-response","38","159207","0.0-11.0-0.6","SS1613083738456","","","null","","","","","<p><img src= images/blank.png width =""200"" height = ""200"" style = ""float:right""></p><p><img src=images/blank.png width =""800"" height = ""200""></p>","","","","","","","","","","","",""
"","703.8399999983085","sequential-stimulus-presentation","39","160715","0.0-11.0-1.6","SS1613083738456","trial","","40","800","1503.8399999983085","images/stimuli/spore_stims/simple_08_A_b.gif","images/stimuli/spore_stims/simple_03_A_d.gif","","","","","1","simple_dissimilar","images/stimuli/spore_stims/simple_03_A_d.gif","middle","","","","",""
"","null","html-keyboard-response","40","161611","0.0-11.0-0.7","SS1613083738456","","","null","","","","","<p><img src= images/blank.png width =""200"" height = ""200"" style = ""float:right""></p><p><img src=images/blank.png width =""800"" height = ""200""></p>","","","","","","","","","","","",""
"","172.3600000004808","sequential-stimulus-presentation","41","162587","0.0-11.0-1.7","SS1613083738456","trial","","40","800","972.3600000004808","images/stimuli/spore_stims/simple_08_A_b.gif","images/stimuli/spore_stims/simple_03_A_d.gif","","","","","1","simple_dissimilar","images/stimuli/spore_stims/simple_03_A_d.gif","middle","","","","",""
"","7163.855000002513","html-keyboard-response","42","169755","0.0-12.0","SS1613083738456","pref_question","","99","","","","","<video width ='960' height = '540' style='padding-top:8%' autoplay muted><source src='images/stimuli/wall_pref.mp4' type='video/mp4'></video>","3","right","66%","1","","","","","","","",""
"","467.66000000206986","sequential-stimulus-presentation","43","171027","0.0-13.0","SS1613083738456","pref_reveal","","40","800","1267.6600000020699","null","null","","","","","1","","","","novel","","","",""
"","null","html-keyboard-response","44","172268","0.0-14.0-0.0","SS1613083738456","","","null","","","","","<p><img src= images/blank.png width =""200"" height = ""200"" style = ""float:right""></p><p><img src=images/blank.png width =""800"" height = ""200""></p>","","","","","","","","","","","",""
"","2498.680000000604","sequential-stimulus-presentation","45","175571","0.0-14.0-1.0","SS1613083738456","trial","","40","800","3298.680000000604","images/stimuli/spore_stims/simple_04_B_c.gif","images/stimuli/spore_stims/simple_04_A_c.gif","","","","","2","simple_similar","images/stimuli/spore_stims/simple_04_A_c.gif","middle","","","","",""
"","null","html-keyboard-response","46","176422","0.0-14.0-0.1","SS1613083738456","","","null","","","","","<p><img src= images/blank.png width =""200"" height = ""200"" style = ""float:right""></p><p><img src=images/blank.png width =""800"" height = ""200""></p>","","","","","","","","","","","",""
"","4272.21500000087","sequential-stimulus-presentation","47","181499","0.0-14.0-1.1","SS1613083738456","trial","","40","800","5072.21500000087","images/stimuli/spore_stims/simple_04_B_c.gif","images/stimuli/spore_stims/simple_04_A_c.gif","","","","","2","simple_similar","images/stimuli/spore_stims/simple_04_A_c.gif","middle","","","","",""
"","null","html-keyboard-response","48","182503","0.0-14.0-0.2","SS1613083738456","","","null","","","","","<p><img src= images/blank.png width =""200"" height = ""200"" style = ""float:right""></p><p><img src=images/blank.png width =""800"" height = ""200""></p>","","","","","","","","","","","",""
"","399.80999999897904","sequential-stimulus-presentation","49","183707","0.0-14.0-1.2","SS1613083738456","trial","","40","800","1199.809999998979","images/stimuli/spore_stims/simple_04_B_c.gif","images/stimuli/spore_stims/simple_04_A_c.gif","","","","","2","simple_similar","images/stimuli/spore_stims/simple_04_A_c.gif","middle","","","","",""
"","null","html-keyboard-response","50","184949","0.0-14.0-0.3","SS1613083738456","","","null","","","","","<p><img src= images/blank.png width =""200"" height = ""200"" style = ""float:right""></p><p><img src=images/blank.png width =""800"" height = ""200""></p>","","","","","","","","","","","",""
"","5497.459999998682","sequential-stimulus-presentation","51","191252","0.0-14.0-1.3","SS1613083738456","trial","","40","800","6297.459999998682","images/stimuli/spore_stims/simple_04_B_c.gif","images/stimuli/spore_stims/simple_04_A_c.gif","","","","","2","simple_similar","images/stimuli/spore_stims/simple_04_A_c.gif","middle","","","","",""
"","null","html-keyboard-response","52","192505","0.0-14.0-0.4","SS1613083738456","","","null","","","","","<p><img src= images/blank.png width =""200"" height = ""200"" style = ""float:right""></p><p><img src=images/blank.png width =""800"" height = ""200""></p>","","","","","","","","","","","",""
"","771.5850000022328","sequential-stimulus-presentation","53","194083","0.0-14.0-1.4","SS1613083738456","trial","","40","800","1571.5850000022328","images/stimuli/spore_stims/simple_04_B_c.gif","images/stimuli/spore_stims/simple_04_A_c.gif","","","","","2","simple_similar","images/stimuli/spore_stims/simple_04_A_c.gif","middle","","","","",""
"","null","html-keyboard-response","54","195281","0.0-14.0-0.5","SS1613083738456","","","null","","","","","<p><img src= images/blank.png width =""200"" height = ""200"" style = ""float:right""></p><p><img src=images/blank.png width =""800"" height = ""200""></p>","","","","","","","","","","","",""
"","6464.239999997517","sequential-stimulus-presentation","55","202563","0.0-14.0-1.5","SS1613083738456","trial","","40","800","7264.239999997517","images/stimuli/spore_stims/simple_04_B_c.gif","images/stimuli/spore_stims/simple_04_A_c.gif","","","","","2","simple_similar","images/stimuli/spore_stims/simple_04_B_c.gif","right","","","","",""
"","null","html-keyboard-response","56","203439","0.0-14.0-0.6","SS1613083738456","","","null","","","","","<p><img src= images/blank.png width =""200"" height = ""200"" style = ""float:right""></p><p><img src=images/blank.png width =""800"" height = ""200""></p>","","","","","","","","","","","",""
"","41.209999999409774","sequential-stimulus-presentation","57","204284","0.0-14.0-1.6","SS1613083738456","trial","","40","800","841.2099999994098","images/stimuli/spore_stims/simple_04_B_c.gif","images/stimuli/spore_stims/simple_04_A_c.gif","","","","","2","simple_similar","images/stimuli/spore_stims/simple_04_A_c.gif","middle","","","","",""
"","null","html-keyboard-response","58","205351","0.0-14.0-0.7","SS1613083738456","","","null","","","","","<p><img src= images/blank.png width =""200"" height = ""200"" style = ""float:right""></p><p><img src=images/blank.png width =""800"" height = ""200""></p>","","","","","","","","","","","",""
"","527.6000000012573","sequential-stimulus-presentation","59","206683","0.0-14.0-1.7","SS1613083738456","trial","","40","800","1327.6000000012573","images/stimuli/spore_stims/simple_04_B_c.gif","images/stimuli/spore_stims/simple_04_A_c.gif","","","","","2","simple_similar","images/stimuli/spore_stims/simple_04_A_c.gif","middle","","","","",""
"","1725.8349999974598","html-keyboard-response","60","208412","0.0-15.0","SS1613083738456","pref_question","","97","","","","","<video width ='960' height = '540' style='padding-top:8%' autoplay muted><source src='images/stimuli/wall_pref.mp4' type='video/mp4'></video>","1","left","25%","2","","","","","","","",""
"","586.7400000024645","sequential-stimulus-presentation","61","209803","0.0-16.0","SS1613083738456","pref_reveal","","40","800","1386.7400000024645","null","null","","","","","2","","","","novel","","","",""
"","null","html-keyboard-response","62","210828","0.0-17.0-0.0","SS1613083738456","","","null","","","","","<p><img src= images/blank.png width =""200"" height = ""200"" style = ""float:right""></p><p><img src=images/blank.png width =""800"" height = ""200""></p>","","","","","","","","","","","",""
"","6784.684999998688","sequential-stimulus-presentation","63","218419","0.0-17.0-1.0","SS1613083738456","trial","","40","800","7584.684999998688","images/stimuli/spore_stims/complex_12_A_b.gif","images/stimuli/spore_stims/complex_12_B_b.gif","","","","","3","complex_similar","images/stimuli/spore_stims/complex_12_B_b.gif","left","","","","",""
"","null","html-keyboard-response","64","219480","0.0-17.0-0.1","SS1613083738456","","","null","","","","","<p><img src= images/blank.png width =""200"" height = ""200"" style = ""float:right""></p><p><img src=images/blank.png width =""800"" height = ""200""></p>","","","","","","","","","","","",""
"","10744.099999999919","sequential-stimulus-presentation","65","231035","0.0-17.0-1.1","SS1613083738456","trial","","40","800","11544.099999999919","images/stimuli/spore_stims/complex_12_A_b.gif","images/stimuli/spore_stims/complex_12_B_b.gif","","","","","3","complex_similar","images/stimuli/spore_stims/complex_12_B_b.gif","left","","","","",""
"","null","html-keyboard-response","66","232301","0.0-17.0-0.2","SS1613083738456","","","null","","","","","<p><img src= images/blank.png width =""200"" height = ""200"" style = ""float:right""></p><p><img src=images/blank.png width =""800"" height = ""200""></p>","","","","","","","","","","","",""
"","208.98500000115018","sequential-stimulus-presentation","67","233315","0.0-17.0-1.2","SS1613083738456","trial","","40","800","1008.9850000011502","images/stimuli/spore_stims/complex_12_A_b.gif","images/stimuli/spore_stims/complex_12_B_b.gif","","","","","3","complex_similar","images/stimuli/spore_stims/complex_12_A_b.gif","middle","","","","",""
"","null","html-keyboard-response","68","234534","0.0-17.0-0.3","SS1613083738456","","","null","","","","","<p><img src= images/blank.png width =""200"" height = ""200"" style = ""float:right""></p><p><img src=images/blank.png width =""800"" height = ""200""></p>","","","","","","","","","","","",""
"","47.14000000245869","sequential-stimulus-presentation","69","235387","0.0-17.0-1.3","SS1613083738456","trial","","40","800","847.1400000024587","images/stimuli/spore_stims/complex_12_A_b.gif","images/stimuli/spore_stims/complex_12_B_b.gif","","","","","3","complex_similar","images/stimuli/spore_stims/complex_12_B_b.gif","left","","","","",""
"","null","html-keyboard-response","70","236671","0.0-17.0-0.4","SS1613083738456","","","null","","","","","<p><img src= images/blank.png width =""200"" height = ""200"" style = ""float:right""></p><p><img src=images/blank.png width =""800"" height = ""200""></p>","","","","","","","","","","","",""
"","653.8799999980256","sequential-stimulus-presentation","71","238130","0.0-17.0-1.4","SS1613083738456","trial","","40","800","1453.8799999980256","images/stimuli/spore_stims/complex_12_A_b.gif","images/stimuli/spore_stims/complex_12_B_b.gif","","","","","3","complex_similar","images/stimuli/spore_stims/complex_12_B_b.gif","left","","","","",""
"","null","html-keyboard-response","72","239136","0.0-17.0-0.5","SS1613083738456","","","null","","","","","<p><img src= images/blank.png width =""200"" height = ""200"" style = ""float:right""></p><p><img src=images/blank.png width =""800"" height = ""200""></p>","","","","","","","","","","","",""
"","910.425000001851","sequential-stimulus-presentation","73","240851","0.0-17.0-1.5","SS1613083738456","trial","","40","800","1710.425000001851","images/stimuli/spore_stims/complex_12_A_b.gif","images/stimuli/spore_stims/complex_12_B_b.gif","","","","","3","complex_similar","images/stimuli/spore_stims/complex_12_B_b.gif","left","","","","",""
"","null","html-keyboard-response","74","241734","0.0-17.0-0.6","SS1613083738456","","","null","","","","","<p><img src= images/blank.png width =""200"" height = ""200"" style = ""float:right""></p><p><img src=images/blank.png width =""800"" height = ""200""></p>","","","","","","","","","","","",""
"","129.25000000180444","sequential-stimulus-presentation","75","242683","0.0-17.0-1.6","SS1613083738456","trial","","40","800","929.2500000018044","images/stimuli/spore_stims/complex_12_A_b.gif","images/stimuli/spore_stims/complex_12_B_b.gif","","","","","3","complex_similar","images/stimuli/spore_stims/complex_12_B_b.gif","left","","","","",""
"","null","html-keyboard-response","76","243499","0.0-17.0-0.7","SS1613083738456","","","null","","","","","<p><img src= images/blank.png width =""200"" height = ""200"" style = ""float:right""></p><p><img src=images/blank.png width =""800"" height = ""200""></p>","","","","","","","","","","","",""
"","801.2249999992782","sequential-stimulus-presentation","77","245106","0.0-17.0-1.7","SS1613083738456","trial","","40","800","1601.2249999992782","images/stimuli/spore_stims/complex_12_A_b.gif","images/stimuli/spore_stims/complex_12_B_b.gif","","","","","3","complex_similar","images/stimuli/spore_stims/complex_12_B_b.gif","left","","","","",""
"","1277.2650000006543","html-keyboard-response","78","246387","0.0-18.0","SS1613083738456","pref_question","","97","","","","","<video width ='960' height = '540' style='padding-top:8%' autoplay muted><source src='images/stimuli/wall_pref.mp4' type='video/mp4'></video>","1","left","25%","3","","","","","","","",""
"","2141.8449999983422","sequential-stimulus-presentation","79","249346","0.0-19.0","SS1613083738456","pref_reveal","","40","800","2941.8449999983422","null","null","","","","","3","","","","background","","","",""
"","null","html-keyboard-response","80","250225","0.0-20.0-0.0","SS1613083738456","","","null","","","","","<p><img src= images/blank.png width =""200"" height = ""200"" style = ""float:right""></p><p><img src=images/blank.png width =""800"" height = ""200""></p>","","","","","","","","","","","",""
"","3043.9949999999953","sequential-stimulus-presentation","81","254090","0.0-20.0-1.0","SS1613083738456","trial","","40","800","3843.9949999999953","images/stimuli/spore_stims/complex_18_B_d.gif","images/stimuli/spore_stims/complex_18_A_d.gif","","","","","4","complex_similar","images/stimuli/spore_stims/complex_18_A_d.gif","right","","","","",""
"","null","html-keyboard-response","82","255134","0.0-20.0-0.1","SS1613083738456","","","null","","","","","<p><img src= images/blank.png width =""200"" height = ""200"" style = ""float:right""></p><p><img src=images/blank.png width =""800"" height = ""200""></p>","","","","","","","","","","","",""
"","196.1200000005192","sequential-stimulus-presentation","83","256146","0.0-20.0-1.1","SS1613083738456","trial","","40","800","996.1200000005192","images/stimuli/spore_stims/complex_18_B_d.gif","images/stimuli/spore_stims/complex_18_A_d.gif","","","","","4","complex_similar","images/stimuli/spore_stims/complex_18_A_d.gif","right","","","","",""
"","null","html-keyboard-response","84","257309","0.0-20.0-0.2","SS1613083738456","","","null","","","","","<p><img src= images/blank.png width =""200"" height = ""200"" style = ""float:right""></p><p><img src=images/blank.png width =""800"" height = ""200""></p>","","","","","","","","","","","",""
"","1120.455000000191","sequential-stimulus-presentation","85","259234","0.0-20.0-1.2","SS1613083738456","trial","","40","800","1920.455000000191","images/stimuli/spore_stims/complex_18_B_d.gif","images/stimuli/spore_stims/complex_18_A_d.gif","","","","","4","complex_similar","images/stimuli/spore_stims/complex_18_A_d.gif","right","","","","",""
"","null","html-keyboard-response","86","260369","0.0-20.0-0.3","SS1613083738456","","","null","","","","","<p><img src= images/blank.png width =""200"" height = ""200"" style = ""float:right""></p><p><img src=images/blank.png width =""800"" height = ""200""></p>","","","","","","","","","","","",""
"","2595.294999999227","sequential-stimulus-presentation","87","263770","0.0-20.0-1.3","SS1613083738456","trial","","40","800","3395.294999999227","images/stimuli/spore_stims/complex_18_B_d.gif","images/stimuli/spore_stims/complex_18_A_d.gif","","","","","4","complex_similar","images/stimuli/spore_stims/complex_18_B_d.gif","middle","","","","",""
"","null","html-keyboard-response","88","264943","0.0-20.0-0.4","SS1613083738456","","","null","","","","","<p><img src= images/blank.png width =""200"" height = ""200"" style = ""float:right""></p><p><img src=images/blank.png width =""800"" height = ""200""></p>","","","","","","","","","","","",""
"","500.7649999970454","sequential-stimulus-presentation","89","266251","0.0-20.0-1.4","SS1613083738456","trial","","40","800","1300.7649999970454","images/stimuli/spore_stims/complex_18_B_d.gif","images/stimuli/spore_stims/complex_18_A_d.gif","","","","","4","complex_similar","images/stimuli/spore_stims/complex_18_A_d.gif","right","","","","",""
"","null","html-keyboard-response","90","267166","0.0-20.0-0.5","SS1613083738456","","","null","","","","","<p><img src= images/blank.png width =""200"" height = ""200"" style = ""float:right""></p><p><img src=images/blank.png width =""800"" height = ""200""></p>","","","","","","","","","","","",""
"","7496.0749999991385","sequential-stimulus-presentation","91","275467","0.0-20.0-1.5","SS1613083738456","trial","","40","800","8296.074999999139","images/stimuli/spore_stims/complex_18_B_d.gif","images/stimuli/spore_stims/complex_18_A_d.gif","","","","","4","complex_similar","images/stimuli/spore_stims/complex_18_A_d.gif","right","","","","",""
"","null","html-keyboard-response","92","276666","0.0-20.0-0.6","SS1613083738456","","","null","","","","","<p><img src= images/blank.png width =""200"" height = ""200"" style = ""float:right""></p><p><img src=images/blank.png width =""800"" height = ""200""></p>","","","","","","","","","","","",""
"","4787.159999999916","sequential-stimulus-presentation","93","282258","0.0-20.0-1.6","SS1613083738456","trial","","40","800","5587.159999999916","images/stimuli/spore_stims/complex_18_B_d.gif","images/stimuli/spore_stims/complex_18_A_d.gif","","","","","4","complex_similar","images/stimuli/spore_stims/complex_18_A_d.gif","right","","","","",""
"","null","html-keyboard-response","94","283176","0.0-20.0-0.7","SS1613083738456","","","null","","","","","<p><img src= images/blank.png width =""200"" height = ""200"" style = ""float:right""></p><p><img src=images/blank.png width =""800"" height = ""200""></p>","","","","","","","","","","","",""
"","421.0850000018254","sequential-stimulus-presentation","95","284403","0.0-20.0-1.7","SS1613083738456","trial","","40","800","1221.0850000018254","images/stimuli/spore_stims/complex_18_B_d.gif","images/stimuli/spore_stims/complex_18_A_d.gif","","","","","4","complex_similar","images/stimuli/spore_stims/complex_18_A_d.gif","right","","","","",""
"","6156.419999999343","html-keyboard-response","96","290563","0.0-21.0","SS1613083738456","pref_question","","98","","","","","<video width ='960' height = '540' style='padding-top:8%' autoplay muted><source src='images/stimuli/wall_pref.mp4' type='video/mp4'></video>","2","middle","45%","4","","","","","","","",""
"","3569.61500000034","sequential-stimulus-presentation","97","294938","0.0-22.0","SS1613083738456","pref_reveal","","40","800","4369.61500000034","null","null","","","","","4","","","","deviant","","","",""
"","null","html-keyboard-response","98","295923","0.0-23.0-0.0","SS1613083738456","","","null","","","","","<p><img src= images/blank.png width =""200"" height = ""200"" style = ""float:right""></p><p><img src=images/blank.png width =""800"" height = ""200""></p>","","","","","","","","","","","",""
"","5529.249999999593","sequential-stimulus-presentation","99","302258","0.0-23.0-1.0","SS1613083738456","trial","","40","800","6329.249999999593","images/stimuli/spore_stims/simple_01_A_b.gif","images/stimuli/spore_stims/simple_17_A_d.gif","","","","","5","simple_dissimilar","images/stimuli/spore_stims/simple_17_A_d.gif","left","","","","",""
"","null","html-keyboard-response","100","303300","0.0-23.0-0.1","SS1613083738456","","","null","","","","","<p><img src= images/blank.png width =""200"" height = ""200"" style = ""float:right""></p><p><img src=images/blank.png width =""800"" height = ""200""></p>","","","","","","","","","","","",""
"","21664.219999998808","sequential-stimulus-presentation","101","325770","0.0-23.0-1.1","SS1613083738456","trial","","40","800","22464.219999998808","images/stimuli/spore_stims/simple_01_A_b.gif","images/stimuli/spore_stims/simple_17_A_d.gif","","","","","5","simple_dissimilar","images/stimuli/spore_stims/simple_17_A_d.gif","left","","","","",""
"","null","html-keyboard-response","102","326645","0.0-23.0-0.2","SS1613083738456","","","null","","","","","<p><img src= images/blank.png width =""200"" height = ""200"" style = ""float:right""></p><p><img src=images/blank.png width =""800"" height = ""200""></p>","","","","","","","","","","","",""
"","11698.479999999108","sequential-stimulus-presentation","103","339162","0.0-23.0-1.2","SS1613083738456","trial","","40","800","12498.479999999108","images/stimuli/spore_stims/simple_01_A_b.gif","images/stimuli/spore_stims/simple_17_A_d.gif","","","","","5","simple_dissimilar","images/stimuli/spore_stims/simple_01_A_b.gif","right","","","","",""
"","null","html-keyboard-response","104","340051","0.0-23.0-0.3","SS1613083738456","","","null","","","","","<p><img src= images/blank.png width =""200"" height = ""200"" style = ""float:right""></p><p><img src=images/blank.png width =""800"" height = ""200""></p>","","","","","","","","","","","",""
"","456.67999999935273","sequential-stimulus-presentation","105","341315","0.0-23.0-1.3","SS1613083738456","trial","","40","800","1256.6799999993527","images/stimuli/spore_stims/simple_01_A_b.gif","images/stimuli/spore_stims/simple_17_A_d.gif","","","","","5","simple_dissimilar","images/stimuli/spore_stims/simple_17_A_d.gif","left","","","","",""
"","null","html-keyboard-response","106","342288","0.0-23.0-0.4","SS1613083738456","","","null","","","","","<p><img src= images/blank.png width =""200"" height = ""200"" style = ""float:right""></p><p><img src=images/blank.png width =""800"" height = ""200""></p>","","","","","","","","","","","",""
"","2299.8550000011455","sequential-stimulus-presentation","107","345394","0.0-23.0-1.4","SS1613083738456","trial","","40","800","3099.8550000011455","images/stimuli/spore_stims/simple_01_A_b.gif","images/stimuli/spore_stims/simple_17_A_d.gif","","","","","5","simple_dissimilar","images/stimuli/spore_stims/simple_17_A_d.gif","left","","","","",""
"","null","html-keyboard-response","108","346547","0.0-23.0-0.5","SS1613083738456","","","null","","","","","<p><img src= images/blank.png width =""200"" height = ""200"" style = ""float:right""></p><p><img src=images/blank.png width =""800"" height = ""200""></p>","","","","","","","","","","","",""
"","404.54500000120606","sequential-stimulus-presentation","109","347762","0.0-23.0-1.5","SS1613083738456","trial","","40","800","1204.545000001206","images/stimuli/spore_stims/simple_01_A_b.gif","images/stimuli/spore_stims/simple_17_A_d.gif","","","","","5","simple_dissimilar","images/stimuli/spore_stims/simple_17_A_d.gif","left","","","","",""
"","null","html-keyboard-response","110","348580","0.0-23.0-0.6","SS1613083738456","","","null","","","","","<p><img src= images/blank.png width =""200"" height = ""200"" style = ""float:right""></p><p><img src=images/blank.png width =""800"" height = ""200""></p>","","","","","","","","","","","",""
"","548.6950000013458","sequential-stimulus-presentation","111","349947","0.0-23.0-1.6","SS1613083738456","trial","","40","800","1348.6950000013458","images/stimuli/spore_stims/simple_01_A_b.gif","images/stimuli/spore_stims/simple_17_A_d.gif","","","","","5","simple_dissimilar","images/stimuli/spore_stims/simple_17_A_d.gif","left","","","","",""
"","null","html-keyboard-response","112","351015","0.0-23.0-0.7","SS1613083738456","","","null","","","","","<p><img src= images/blank.png width =""200"" height = ""200"" style = ""float:right""></p><p><img src=images/blank.png width =""800"" height = ""200""></p>","","","","","","","","","","","",""
"","508.4199999982957","sequential-stimulus-presentation","113","352338","0.0-23.0-1.7","SS1613083738456","trial","","40","800","1308.4199999982957","images/stimuli/spore_stims/simple_01_A_b.gif","images/stimuli/spore_stims/simple_17_A_d.gif","","","","","5","simple_dissimilar","images/stimuli/spore_stims/simple_17_A_d.gif","left","","","","",""
"","2293.310000000929","html-keyboard-response","114","354635","0.0-24.0","SS1613083738456","pref_question","","97","","","","","<video width ='960' height = '540' style='padding-top:8%' autoplay muted><source src='images/stimuli/wall_pref.mp4' type='video/mp4'></video>","1","left","25%","5","","","","","","","",""
"","7968.7400000002235","sequential-stimulus-presentation","115","363411","0.0-25.0","SS1613083738456","pref_reveal","","40","800","8768.740000000224","null","null","","","","","5","","","","background","","","",""
"","null","html-keyboard-response","116","364304","0.0-26.0-0.0","SS1613083738456","","","null","","","","","<p><img src= images/blank.png width =""200"" height = ""200"" style = ""float:right""></p><p><img src=images/blank.png width =""800"" height = ""200""></p>","","","","","","","","","","","",""
"","3300.279999999446","sequential-stimulus-presentation","117","368419","0.0-26.0-1.0","SS1613083738456","trial","","40","800","4100.279999999446","images/stimuli/spore_stims/complex_09_A_a.gif","images/stimuli/spore_stims/complex_16_A_a.gif","","","","","6","complex_dissimilar","images/stimuli/spore_stims/complex_16_A_a.gif","right","","","","",""
"","null","html-keyboard-response","118","369275","0.0-26.0-0.1","SS1613083738456","","","null","","","","","<p><img src= images/blank.png width =""200"" height = ""200"" style = ""float:right""></p><p><img src=images/blank.png width =""800"" height = ""200""></p>","","","","","","","","","","","",""
"","4009.474999998929","sequential-stimulus-presentation","119","374091","0.0-26.0-1.1","SS1613083738456","trial","","40","800","4809.474999998929","images/stimuli/spore_stims/complex_09_A_a.gif","images/stimuli/spore_stims/complex_16_A_a.gif","","","","","6","complex_dissimilar","images/stimuli/spore_stims/complex_16_A_a.gif","right","","","","",""
"","null","html-keyboard-response","120","375121","0.0-26.0-0.2","SS1613083738456","","","null","","","","","<p><img src= images/blank.png width =""200"" height = ""200"" style = ""float:right""></p><p><img src=images/blank.png width =""800"" height = ""200""></p>","","","","","","","","","","","",""
"","8789.48500000115","sequential-stimulus-presentation","121","384714","0.0-26.0-1.2","SS1613083738456","trial","","40","800","9589.48500000115","images/stimuli/spore_stims/complex_09_A_a.gif","images/stimuli/spore_stims/complex_16_A_a.gif","","","","","6","complex_dissimilar","images/stimuli/spore_stims/complex_16_A_a.gif","right","","","","",""
"","null","html-keyboard-response","122","385835","0.0-26.0-0.3","SS1613083738456","","","null","","","","","<p><img src= images/blank.png width =""200"" height = ""200"" style = ""float:right""></p><p><img src=images/blank.png width =""800"" height = ""200""></p>","","","","","","","","","","","",""
"","10601.800000000338","sequential-stimulus-presentation","123","397243","0.0-26.0-1.3","SS1613083738456","trial","","40","800","11401.800000000338","images/stimuli/spore_stims/complex_09_A_a.gif","images/stimuli/spore_stims/complex_16_A_a.gif","","","","","6","complex_dissimilar","images/stimuli/spore_stims/complex_16_A_a.gif","right","","","","",""
"","null","html-keyboard-response","124","398472","0.0-26.0-0.4","SS1613083738456","","","null","","","","","<p><img src= images/blank.png width =""200"" height = ""200"" style = ""float:right""></p><p><img src=images/blank.png width =""800"" height = ""200""></p>","","","","","","","","","","","",""
"","6116.010000001581","sequential-stimulus-presentation","125","405394","0.0-26.0-1.4","SS1613083738456","trial","","40","800","6916.010000001581","images/stimuli/spore_stims/complex_09_A_a.gif","images/stimuli/spore_stims/complex_16_A_a.gif","","","","","6","complex_dissimilar","images/stimuli/spore_stims/complex_16_A_a.gif","right","","","","",""
"","null","html-keyboard-response","126","406477","0.0-26.0-0.5","SS1613083738456","","","null","","","","","<p><img src= images/blank.png width =""200"" height = ""200"" style = ""float:right""></p><p><img src=images/blank.png width =""800"" height = ""200""></p>","","","","","","","","","","","",""
"","5560.050000000047","sequential-stimulus-presentation","127","412843","0.0-26.0-1.5","SS1613083738456","trial","","40","800","6360.050000000047","images/stimuli/spore_stims/complex_09_A_a.gif","images/stimuli/spore_stims/complex_16_A_a.gif","","","","","6","complex_dissimilar","images/stimuli/spore_stims/complex_16_A_a.gif","right","","","","",""
"","null","html-keyboard-response","128","413814","0.0-26.0-0.6","SS1613083738456","","","null","","","","","<p><img src= images/blank.png width =""200"" height = ""200"" style = ""float:right""></p><p><img src=images/blank.png width =""800"" height = ""200""></p>","","","","","","","","","","","",""
"","102.53999999980442","sequential-stimulus-presentation","129","414722","0.0-26.0-1.6","SS1613083738456","trial","","40","800","902.5399999998044","images/stimuli/spore_stims/complex_09_A_a.gif","images/stimuli/spore_stims/complex_16_A_a.gif","","","","","6","complex_dissimilar","images/stimuli/spore_stims/complex_16_A_a.gif","right","","","","",""
"","null","html-keyboard-response","130","415702","0.0-26.0-0.7","SS1613083738456","","","null","","","","","<p><img src= images/blank.png width =""200"" height = ""200"" style = ""float:right""></p><p><img src=images/blank.png width =""800"" height = ""200""></p>","","","","","","","","","","","",""
"","197.9300000020885","sequential-stimulus-presentation","131","416706","0.0-26.0-1.7","SS1613083738456","trial","","40","800","997.9300000020885","images/stimuli/spore_stims/complex_09_A_a.gif","images/stimuli/spore_stims/complex_16_A_a.gif","","","","","6","complex_dissimilar","images/stimuli/spore_stims/complex_09_A_a.gif","left","","","","",""
"","5076.614999998128","html-keyboard-response","132","421787","0.0-27.0","SS1613083738456","pref_question","","98","","","","","<video width ='960' height = '540' style='padding-top:8%' autoplay muted><source src='images/stimuli/wall_pref.mp4' type='video/mp4'></video>","2","middle","45%","6","","","","","","","",""
"","592.4200000008568","sequential-stimulus-presentation","133","423185","0.0-28.0","SS1613083738456","pref_reveal","","40","800","1392.4200000008568","null","null","","","","","6","","","","novel","","","",""
"","null","html-keyboard-response","134","424024","0.0-29.0-0.0","SS1613083738456","","","null","","","","","<p><img src= images/blank.png width =""200"" height = ""200"" style = ""float:right""></p><p><img src=images/blank.png width =""800"" height = ""200""></p>","","","","","","","","","","","",""
"","2108.4949999967357","sequential-stimulus-presentation","135","426938","0.0-29.0-1.0","SS1613083738456","trial","","40","800","2908.4949999967357","images/stimuli/spore_stims/complex_07_A_c.gif","images/stimuli/spore_stims/complex_08_A_a.gif","","","","","7","complex_dissimilar","images/stimuli/spore_stims/complex_08_A_a.gif","middle","","","","",""
"","null","html-keyboard-response","136","428241","0.0-29.0-0.1","SS1613083738456","","","null","","","","","<p><img src= images/blank.png width =""200"" height = ""200"" style = ""float:right""></p><p><img src=images/blank.png width =""800"" height = ""200""></p>","","","","","","","","","","","",""
"","481.8200000008801","sequential-stimulus-presentation","137","429529","0.0-29.0-1.1","SS1613083738456","trial","","40","800","1281.82000000088","images/stimuli/spore_stims/complex_07_A_c.gif","images/stimuli/spore_stims/complex_08_A_a.gif","","","","","7","complex_dissimilar","images/stimuli/spore_stims/complex_08_A_a.gif","middle","","","","",""
"","null","html-keyboard-response","138","430565","0.0-29.0-0.2","SS1613083738456","","","null","","","","","<p><img src= images/blank.png width =""200"" height = ""200"" style = ""float:right""></p><p><img src=images/blank.png width =""800"" height = ""200""></p>","","","","","","","","","","","",""
"","4303.85000000021","sequential-stimulus-presentation","139","435682","0.0-29.0-1.2","SS1613083738456","trial","","40","800","5103.85000000021","images/stimuli/spore_stims/complex_07_A_c.gif","images/stimuli/spore_stims/complex_08_A_a.gif","","","","","7","complex_dissimilar","images/stimuli/spore_stims/complex_07_A_c.gif","left","","","","",""
"","null","html-keyboard-response","140","436714","0.0-29.0-0.3","SS1613083738456","","","null","","","","","<p><img src= images/blank.png width =""200"" height = ""200"" style = ""float:right""></p><p><img src=images/blank.png width =""800"" height = ""200""></p>","","","","","","","","","","","",""
"","2935.7249999993364","sequential-stimulus-presentation","141","440457","0.0-29.0-1.3","SS1613083738456","trial","","40","800","3735.7249999993364","images/stimuli/spore_stims/complex_07_A_c.gif","images/stimuli/spore_stims/complex_08_A_a.gif","","","","","7","complex_dissimilar","images/stimuli/spore_stims/complex_08_A_a.gif","middle","","","","",""
"","null","html-keyboard-response","142","441336","0.0-29.0-0.4","SS1613083738456","","","null","","","","","<p><img src= images/blank.png width =""200"" height = ""200"" style = ""float:right""></p><p><img src=images/blank.png width =""800"" height = ""200""></p>","","","","","","","","","","","",""
"","836.5650000013993","sequential-stimulus-presentation","143","442978","0.0-29.0-1.4","SS1613083738456","trial","","40","800","1636.5650000013993","images/stimuli/spore_stims/complex_07_A_c.gif","images/stimuli/spore_stims/complex_08_A_a.gif","","","","","7","complex_dissimilar","images/stimuli/spore_stims/complex_08_A_a.gif","middle","","","","",""
"","null","html-keyboard-response","144","444248","0.0-29.0-0.5","SS1613083738456","","","null","","","","","<p><img src= images/blank.png width =""200"" height = ""200"" style = ""float:right""></p><p><img src=images/blank.png width =""800"" height = ""200""></p>","","","","","","","","","","","",""
"","1653.6699999996927","sequential-stimulus-presentation","145","446706","0.0-29.0-1.5","SS1613083738456","trial","","40","800","2453.6699999996927","images/stimuli/spore_stims/complex_07_A_c.gif","images/stimuli/spore_stims/complex_08_A_a.gif","","","","","7","complex_dissimilar","images/stimuli/spore_stims/complex_08_A_a.gif","middle","","","","",""
"","null","html-keyboard-response","146","447951","0.0-29.0-0.6","SS1613083738456","","","null","","","","","<p><img src= images/blank.png width =""200"" height = ""200"" style = ""float:right""></p><p><img src=images/blank.png width =""800"" height = ""200""></p>","","","","","","","","","","","",""
"","2069.240000000689","sequential-stimulus-presentation","147","450825","0.0-29.0-1.6","SS1613083738456","trial","","40","800","2869.240000000689","images/stimuli/spore_stims/complex_07_A_c.gif","images/stimuli/spore_stims/complex_08_A_a.gif","","","","","7","complex_dissimilar","images/stimuli/spore_stims/complex_08_A_a.gif","middle","","","","",""
"","null","html-keyboard-response","148","452018","0.0-29.0-0.7","SS1613083738456","","","null","","","","","<p><img src= images/blank.png width =""200"" height = ""200"" style = ""float:right""></p><p><img src=images/blank.png width =""800"" height = ""200""></p>","","","","","","","","","","","",""
"","3433.4600000001956","sequential-stimulus-presentation","149","456257","0.0-29.0-1.7","SS1613083738456","trial","","40","800","4233.460000000196","images/stimuli/spore_stims/complex_07_A_c.gif","images/stimuli/spore_stims/complex_08_A_a.gif","","","","","7","complex_dissimilar","images/stimuli/spore_stims/complex_08_A_a.gif","middle","","","","",""
"","2596.900000000489","html-keyboard-response","150","458858","0.0-30.0","SS1613083738456","pref_question","","97","","","","","<video width ='960' height = '540' style='padding-top:8%' autoplay muted><source src='images/stimuli/wall_pref.mp4' type='video/mp4'></video>","1","left","25%","7","","","","","","","",""
"","441.8650000006892","sequential-stimulus-presentation","151","460106","0.0-31.0","SS1613083738456","pref_reveal","","40","800","1241.8650000006892","null","null","","","","","7","","","","deviant","","","",""
"","null","html-keyboard-response","152","461085","0.0-32.0-0.0","SS1613083738456","","","null","","","","","<p><img src= images/blank.png width =""200"" height = ""200"" style = ""float:right""></p><p><img src=images/blank.png width =""800"" height = ""200""></p>","","","","","","","","","","","",""
"","3749.524999999325","sequential-stimulus-presentation","153","465649","0.0-32.0-1.0","SS1613083738456","trial","","40","800","4549.524999999325","images/stimuli/spore_stims/complex_10_A_b.gif","images/stimuli/spore_stims/complex_10_B_b.gif","","","","","8","complex_similar","images/stimuli/spore_stims/complex_10_B_b.gif","right","","","","",""
"","null","html-keyboard-response","154","466475","0.0-32.0-0.1","SS1613083738456","","","null","","","","","<p><img src= images/blank.png width =""200"" height = ""200"" style = ""float:right""></p><p><img src=images/blank.png width =""800"" height = ""200""></p>","","","","","","","","","","","",""
"","1037.5999999996275","sequential-stimulus-presentation","155","468321","0.0-32.0-1.1","SS1613083738456","trial","","40","800","1837.5999999996275","images/stimuli/spore_stims/complex_10_A_b.gif","images/stimuli/spore_stims/complex_10_B_b.gif","","","","","8","complex_similar","images/stimuli/spore_stims/complex_10_B_b.gif","right","","","","",""
"","null","html-keyboard-response","156","469144","0.0-32.0-0.2","SS1613083738456","","","null","","","","","<p><img src= images/blank.png width =""200"" height = ""200"" style = ""float:right""></p><p><img src=images/blank.png width =""800"" height = ""200""></p>","","","","","","","","","","","",""
"","20.075000000419095","sequential-stimulus-presentation","157","469969","0.0-32.0-1.2","SS1613083738456","trial","","40","800","820.0750000004191","images/stimuli/spore_stims/complex_10_A_b.gif","images/stimuli/spore_stims/complex_10_B_b.gif","","","","","8","complex_similar","images/stimuli/spore_stims/complex_10_B_b.gif","right","","","","",""
"","null","html-keyboard-response","158","470782","0.0-32.0-0.3","SS1613083738456","","","null","","","","","<p><img src= images/blank.png width =""200"" height = ""200"" style = ""float:right""></p><p><img src=images/blank.png width =""800"" height = ""200""></p>","","","","","","","","","","","",""
"","6650.980000002193","sequential-stimulus-presentation","159","478241","0.0-32.0-1.3","SS1613083738456","trial","","40","800","7450.980000002193","images/stimuli/spore_stims/complex_10_A_b.gif","images/stimuli/spore_stims/complex_10_B_b.gif","","","","","8","complex_similar","images/stimuli/spore_stims/complex_10_B_b.gif","right","","","","",""
"","null","html-keyboard-response","160","479337","0.0-32.0-0.4","SS1613083738456","","","null","","","","","<p><img src= images/blank.png width =""200"" height = ""200"" style = ""float:right""></p><p><img src=images/blank.png width =""800"" height = ""200""></p>","","","","","","","","","","","",""
"","1970.2649999998976","sequential-stimulus-presentation","161","482115","0.0-32.0-1.4","SS1613083738456","trial","","40","800","2770.2649999998976","images/stimuli/spore_stims/complex_10_A_b.gif","images/stimuli/spore_stims/complex_10_B_b.gif","","","","","8","complex_similar","images/stimuli/spore_stims/complex_10_B_b.gif","right","","","","",""
"","null","html-keyboard-response","162","483332","0.0-32.0-0.5","SS1613083738456","","","null","","","","","<p><img src= images/blank.png width =""200"" height = ""200"" style = ""float:right""></p><p><img src=images/blank.png width =""800"" height = ""200""></p>","","","","","","","","","","","",""
"","3092.5849999985658","sequential-stimulus-presentation","163","487233","0.0-32.0-1.5","SS1613083738456","trial","","40","800","3892.5849999985658","images/stimuli/spore_stims/complex_10_A_b.gif","images/stimuli/spore_stims/complex_10_B_b.gif","","","","","8","complex_similar","images/stimuli/spore_stims/complex_10_A_b.gif","middle","","","","",""
"","null","html-keyboard-response","164","488289","0.0-32.0-0.6","SS1613083738456","","","null","","","","","<p><img src= images/blank.png width =""200"" height = ""200"" style = ""float:right""></p><p><img src=images/blank.png width =""800"" height = ""200""></p>","","","","","","","","","","","",""
"","5111.170000000158","sequential-stimulus-presentation","165","494217","0.0-32.0-1.6","SS1613083738456","trial","","40","800","5911.170000000158","images/stimuli/spore_stims/complex_10_A_b.gif","images/stimuli/spore_stims/complex_10_B_b.gif","","","","","8","complex_similar","images/stimuli/spore_stims/complex_10_B_b.gif","right","","","","",""
"","null","html-keyboard-response","166","495275","0.0-32.0-0.7","SS1613083738456","","","null","","","","","<p><img src= images/blank.png width =""200"" height = ""200"" style = ""float:right""></p><p><img src=images/blank.png width =""800"" height = ""200""></p>","","","","","","","","","","","",""
"","2029.774999999092","sequential-stimulus-presentation","167","498115","0.0-32.0-1.7","SS1613083738456","trial","","40","800","2829.774999999092","images/stimuli/spore_stims/complex_10_A_b.gif","images/stimuli/spore_stims/complex_10_B_b.gif","","","","","8","complex_similar","images/stimuli/spore_stims/complex_10_B_b.gif","right","","","","",""
"","1354.510000001057","html-keyboard-response","168","499474","0.0-33.0","SS1613083738456","pref_question","","97","","","","","<video width ='960' height = '540' style='padding-top:8%' autoplay muted><source src='images/stimuli/wall_pref.mp4' type='video/mp4'></video>","1","left","25%","8","","","","","","","",""
"","4842.9050000013085","sequential-stimulus-presentation","169","505618","0.0-34.0","SS1613083738456","pref_reveal","","40","800","5642.9050000013085","null","null","","","","","8","","","","novel","","","",""
"","null","html-keyboard-response","170","506657","0.0-35.0-0.0","SS1613083738456","","","null","","","","","<p><img src= images/blank.png width =""200"" height = ""200"" style = ""float:right""></p><p><img src=images/blank.png width =""800"" height = ""200""></p>","","","","","","","","","","","",""
"","3137.1650000000373","sequential-stimulus-presentation","171","510602","0.0-35.0-1.0","SS1613083738456","trial","","40","800","3937.1650000000373","images/stimuli/spore_stims/simple_12_A_c.gif","images/stimuli/spore_stims/simple_12_B_c.gif","","","","","9","simple_similar","images/stimuli/spore_stims/simple_12_B_c.gif","left","","","","",""
"","null","html-keyboard-response","172","511603","0.0-35.0-0.1","SS1613083738456","","","null","","","","","<p><img src= images/blank.png width =""200"" height = ""200"" style = ""float:right""></p><p><img src=images/blank.png width =""800"" height = ""200""></p>","","","","","","","","","","","",""
"","3295.4549999994924","sequential-stimulus-presentation","173","515714","0.0-35.0-1.1","SS1613083738456","trial","","40","800","4095.4549999994924","images/stimuli/spore_stims/simple_12_A_c.gif","images/stimuli/spore_stims/simple_12_B_c.gif","","","","","9","simple_similar","images/stimuli/spore_stims/simple_12_B_c.gif","left","","","","",""
"","null","html-keyboard-response","174","516603","0.0-35.0-0.2","SS1613083738456","","","null","","","","","<p><img src= images/blank.png width =""200"" height = ""200"" style = ""float:right""></p><p><img src=images/blank.png width =""800"" height = ""200""></p>","","","","","","","","","","","",""
"","1677.960000000894","sequential-stimulus-presentation","175","519089","0.0-35.0-1.2","SS1613083738456","trial","","40","800","2477.960000000894","images/stimuli/spore_stims/simple_12_A_c.gif","images/stimuli/spore_stims/simple_12_B_c.gif","","","","","9","simple_similar","images/stimuli/spore_stims/simple_12_A_c.gif","middle","","","","",""
"","null","html-keyboard-response","176","519965","0.0-35.0-0.3","SS1613083738456","","","null","","","","","<p><img src= images/blank.png width =""200"" height = ""200"" style = ""float:right""></p><p><img src=images/blank.png width =""800"" height = ""200""></p>","","","","","","","","","","","",""
"","3829.0999999990454","sequential-stimulus-presentation","177","524601","0.0-35.0-1.3","SS1613083738456","trial","","40","800","4629.099999999045","images/stimuli/spore_stims/simple_12_A_c.gif","images/stimuli/spore_stims/simple_12_B_c.gif","","","","","9","simple_similar","images/stimuli/spore_stims/simple_12_B_c.gif","left","","","","",""
"","null","html-keyboard-response","178","525525","0.0-35.0-0.4","SS1613083738456","","","null","","","","","<p><img src= images/blank.png width =""200"" height = ""200"" style = ""float:right""></p><p><img src=images/blank.png width =""800"" height = ""200""></p>","","","","","","","","","","","",""
"","13564.374999998137","sequential-stimulus-presentation","179","539898","0.0-35.0-1.4","SS1613083738456","trial","","40","800","14364.374999998137","images/stimuli/spore_stims/simple_12_A_c.gif","images/stimuli/spore_stims/simple_12_B_c.gif","","","","","9","simple_similar","images/stimuli/spore_stims/simple_12_B_c.gif","left","","","","",""
"","null","html-keyboard-response","180","540963","0.0-35.0-0.5","SS1613083738456","","","null","","","","","<p><img src= images/blank.png width =""200"" height = ""200"" style = ""float:right""></p><p><img src=images/blank.png width =""800"" height = ""200""></p>","","","","","","","","","","","",""
"","1782.4350000009872","sequential-stimulus-presentation","181","543553","0.0-35.0-1.5","SS1613083738456","trial","","40","800","2582.435000000987","images/stimuli/spore_stims/simple_12_A_c.gif","images/stimuli/spore_stims/simple_12_B_c.gif","","","","","9","simple_similar","images/stimuli/spore_stims/simple_12_B_c.gif","left","","","","",""
"","null","html-keyboard-response","182","544682","0.0-35.0-0.6","SS1613083738456","","","null","","","","","<p><img src= images/blank.png width =""200"" height = ""200"" style = ""float:right""></p><p><img src=images/blank.png width =""800"" height = ""200""></p>","","","","","","","","","","","",""
"","462.79499999945983","sequential-stimulus-presentation","183","545954","0.0-35.0-1.6","SS1613083738456","trial","","40","800","1262.7949999994598","images/stimuli/spore_stims/simple_12_A_c.gif","images/stimuli/spore_stims/simple_12_B_c.gif","","","","","9","simple_similar","images/stimuli/spore_stims/simple_12_B_c.gif","left","","","","",""
"","null","html-keyboard-response","184","547189","0.0-35.0-0.7","SS1613083738456","","","null","","","","","<p><img src= images/blank.png width =""200"" height = ""200"" style = ""float:right""></p><p><img src=images/blank.png width =""800"" height = ""200""></p>","","","","","","","","","","","",""
"","4288.59999999986","sequential-stimulus-presentation","185","552284","0.0-35.0-1.7","SS1613083738456","trial","","40","800","5088.59999999986","images/stimuli/spore_stims/simple_12_A_c.gif","images/stimuli/spore_stims/simple_12_B_c.gif","","","","","9","simple_similar","images/stimuli/spore_stims/simple_12_B_c.gif","left","","","","",""
"","5477.309999998426","html-keyboard-response","186","557770","0.0-36.0","SS1613083738456","pref_question","","98","","","","","<video width ='960' height = '540' style='padding-top:8%' autoplay muted><source src='images/stimuli/wall_pref.mp4' type='video/mp4'></video>","2","middle","45%","9","","","","","","","",""
"","24.010000000940636","sequential-stimulus-presentation","187","558601","0.0-37.0","SS1613083738456","pref_reveal","","40","800","824.0100000009406","null","null","","","","","9","","","","deviant","","","",""
"","null","html-keyboard-response","188","559778","0.0-38.0-0.0","SS1613083738456","","","null","","","","","<p><img src= images/blank.png width =""200"" height = ""200"" style = ""float:right""></p><p><img src=images/blank.png width =""800"" height = ""200""></p>","","","","","","","","","","","",""
"","695.5649999980815","sequential-stimulus-presentation","189","561282","0.0-38.0-1.0","SS1613083738456","trial","","40","800","1495.5649999980815","images/stimuli/spore_stims/simple_15_B_d.gif","images/stimuli/spore_stims/simple_15_A_d.gif","","","","","10","simple_similar","images/stimuli/spore_stims/simple_15_A_d.gif","right","","","","",""
"","null","html-keyboard-response","190","562479","0.0-38.0-0.1","SS1613083738456","","","null","","","","","<p><img src= images/blank.png width =""200"" height = ""200"" style = ""float:right""></p><p><img src=images/blank.png width =""800"" height = ""200""></p>","","","","","","","","","","","",""
"","105.3200000023935","sequential-stimulus-presentation","191","563401","0.0-38.0-1.1","SS1613083738456","trial","","40","800","905.3200000023935","images/stimuli/spore_stims/simple_15_B_d.gif","images/stimuli/spore_stims/simple_15_A_d.gif","","","","","10","simple_similar","images/stimuli/spore_stims/simple_15_A_d.gif","right","","","","",""
"","null","html-keyboard-response","192","564223","0.0-38.0-0.2","SS1613083738456","","","null","","","","","<p><img src= images/blank.png width =""200"" height = ""200"" style = ""float:right""></p><p><img src=images/blank.png width =""800"" height = ""200""></p>","","","","","","","","","","","",""
"","859.539999997709","sequential-stimulus-presentation","193","565889","0.0-38.0-1.2","SS1613083738456","trial","","40","800","1659.539999997709","images/stimuli/spore_stims/simple_15_B_d.gif","images/stimuli/spore_stims/simple_15_A_d.gif","","","","","10","simple_similar","images/stimuli/spore_stims/simple_15_A_d.gif","right","","","","",""
"","null","html-keyboard-response","194","567126","0.0-38.0-0.3","SS1613083738456","","","null","","","","","<p><img src= images/blank.png width =""200"" height = ""200"" style = ""float:right""></p><p><img src=images/blank.png width =""800"" height = ""200""></p>","","","","","","","","","","","",""
"","4702.629999999772","sequential-stimulus-presentation","195","572649","0.0-38.0-1.3","SS1613083738456","trial","","40","800","5502.629999999772","images/stimuli/spore_stims/simple_15_B_d.gif","images/stimuli/spore_stims/simple_15_A_d.gif","","","","","10","simple_similar","images/stimuli/spore_stims/simple_15_A_d.gif","right","","","","",""
"","null","html-keyboard-response","196","573822","0.0-38.0-0.4","SS1613083738456","","","null","","","","","<p><img src= images/blank.png width =""200"" height = ""200"" style = ""float:right""></p><p><img src=images/blank.png width =""800"" height = ""200""></p>","","","","","","","","","","","",""
"","4251.6599999980535","sequential-stimulus-presentation","197","578881","0.0-38.0-1.4","SS1613083738456","trial","","40","800","5051.6599999980535","images/stimuli/spore_stims/simple_15_B_d.gif","images/stimuli/spore_stims/simple_15_A_d.gif","","","","","10","simple_similar","images/stimuli/spore_stims/simple_15_B_d.gif","middle","","","","",""
"","null","html-keyboard-response","198","580180","0.0-38.0-0.5","SS1613083738456","","","null","","","","","<p><img src= images/blank.png width =""200"" height = ""200"" style = ""float:right""></p><p><img src=images/blank.png width =""800"" height = ""200""></p>","","","","","","","","","","","",""
"","7814.435000000172","sequential-stimulus-presentation","199","588817","0.0-38.0-1.5","SS1613083738456","trial","","40","800","8614.435000000172","images/stimuli/spore_stims/simple_15_B_d.gif","images/stimuli/spore_stims/simple_15_A_d.gif","","","","","10","simple_similar","images/stimuli/spore_stims/simple_15_A_d.gif","right","","","","",""
"","null","html-keyboard-response","200","589817","0.0-38.0-0.6","SS1613083738456","","","null","","","","","<p><img src= images/blank.png width =""200"" height = ""200"" style = ""float:right""></p><p><img src=images/blank.png width =""800"" height = ""200""></p>","","","","","","","","","","","",""
"","516.9849999983562","sequential-stimulus-presentation","201","591153","0.0-38.0-1.6","SS1613083738456","trial","","40","800","1316.9849999983562","images/stimuli/spore_stims/simple_15_B_d.gif","images/stimuli/spore_stims/simple_15_A_d.gif","","","","","10","simple_similar","images/stimuli/spore_stims/simple_15_A_d.gif","right","","","","",""
"","null","html-keyboard-response","202","592020","0.0-38.0-0.7","SS1613083738456","","","null","","","","","<p><img src= images/blank.png width =""200"" height = ""200"" style = ""float:right""></p><p><img src=images/blank.png width =""800"" height = ""200""></p>","","","","","","","","","","","",""
"","398.0699999993667","sequential-stimulus-presentation","203","593226","0.0-38.0-1.7","SS1613083738456","trial","","40","800","1198.0699999993667","images/stimuli/spore_stims/simple_15_B_d.gif","images/stimuli/spore_stims/simple_15_A_d.gif","","","","","10","simple_similar","images/stimuli/spore_stims/simple_15_A_d.gif","right","","","","",""
"","1199.474999997532","html-keyboard-response","204","594434","0.0-39.0","SS1613083738456","pref_question","","98","","","","","<video width ='960' height = '540' style='padding-top:8%' autoplay muted><source src='images/stimuli/wall_pref.mp4' type='video/mp4'></video>","2","middle","45%","10","","","","","","","",""
"","4433.235000000452","sequential-stimulus-presentation","205","599674","0.0-40.0","SS1613083738456","pref_reveal","","40","800","5233.235000000452","null","null","","","","","10","","","","deviant","","","",""
"","null","html-keyboard-response","206","600483","0.0-41.0-0.0","SS1613083738456","","","null","","","","","<p><img src= images/blank.png width =""200"" height = ""200"" style = ""float:right""></p><p><img src=images/blank.png width =""800"" height = ""200""></p>","","","","","","","","","","","",""
"","81.18000000098255","sequential-stimulus-presentation","207","601378","0.0-41.0-1.0","SS1613083738456","trial","","40","800","881.1800000009825","images/stimuli/spore_stims/simple_10_B_d.gif","images/stimuli/spore_stims/simple_10_A_d.gif","","","","","11","simple_similar","images/stimuli/spore_stims/simple_10_A_d.gif","right","","","","",""
"","null","html-keyboard-response","208","602516","0.0-41.0-0.1","SS1613083738456","","","null","","","","","<p><img src= images/blank.png width =""200"" height = ""200"" style = ""float:right""></p><p><img src=images/blank.png width =""800"" height = ""200""></p>","","","","","","","","","","","",""
"","21010.470000001136","sequential-stimulus-presentation","209","624338","0.0-41.0-1.1","SS1613083738456","trial","","40","800","21810.470000001136","images/stimuli/spore_stims/simple_10_B_d.gif","images/stimuli/spore_stims/simple_10_A_d.gif","","","","","11","simple_similar","images/stimuli/spore_stims/simple_10_A_d.gif","right","","","","",""
"","null","html-keyboard-response","210","625524","0.0-41.0-0.2","SS1613083738456","","","null","","","","","<p><img src= images/blank.png width =""200"" height = ""200"" style = ""float:right""></p><p><img src=images/blank.png width =""800"" height = ""200""></p>","","","","","","","","","","","",""
"","12601.030000001658","sequential-stimulus-presentation","211","638931","0.0-41.0-1.2","SS1613083738456","trial","","40","800","13401.030000001658","images/stimuli/spore_stims/simple_10_B_d.gif","images/stimuli/spore_stims/simple_10_A_d.gif","","","","","11","simple_similar","images/stimuli/spore_stims/simple_10_B_d.gif","middle","","","","",""
"","null","html-keyboard-response","212","639858","0.0-41.0-0.3","SS1613083738456","","","null","","","","","<p><img src= images/blank.png width =""200"" height = ""200"" style = ""float:right""></p><p><img src=images/blank.png width =""800"" height = ""200""></p>","","","","","","","","","","","",""
"","234.375","sequential-stimulus-presentation","213","640898","0.0-41.0-1.3","SS1613083738456","trial","","40","800","1034.375","images/stimuli/spore_stims/simple_10_B_d.gif","images/stimuli/spore_stims/simple_10_A_d.gif","","","","","11","simple_similar","images/stimuli/spore_stims/simple_10_A_d.gif","right","","","","",""
"","null","html-keyboard-response","214","641888","0.0-41.0-0.4","SS1613083738456","","","null","","","","","<p><img src= images/blank.png width =""200"" height = ""200"" style = ""float:right""></p><p><img src=images/blank.png width =""800"" height = ""200""></p>","","","","","","","","","","","",""
"","8800.194999999832","sequential-stimulus-presentation","215","651500","0.0-41.0-1.4","SS1613083738456","trial","","40","800","9600.194999999832","images/stimuli/spore_stims/simple_10_B_d.gif","images/stimuli/spore_stims/simple_10_A_d.gif","","","","","11","simple_similar","images/stimuli/spore_stims/simple_10_A_d.gif","right","","","","",""
"","null","html-keyboard-response","216","652644","0.0-41.0-0.5","SS1613083738456","","","null","","","","","<p><img src= images/blank.png width =""200"" height = ""200"" style = ""float:right""></p><p><img src=images/blank.png width =""800"" height = ""200""></p>","","","","","","","","","","","",""
"","4686.16000000108","sequential-stimulus-presentation","217","658465","0.0-41.0-1.5","SS1613083738456","trial","","40","800","5486.16000000108","images/stimuli/spore_stims/simple_10_B_d.gif","images/stimuli/spore_stims/simple_10_A_d.gif","","","","","11","simple_similar","images/stimuli/spore_stims/simple_10_A_d.gif","right","","","","",""
"","null","html-keyboard-response","218","659502","0.0-41.0-0.6","SS1613083738456","","","null","","","","","<p><img src= images/blank.png width =""200"" height = ""200"" style = ""float:right""></p><p><img src=images/blank.png width =""800"" height = ""200""></p>","","","","","","","","","","","",""
"","1843.0499999994645","sequential-stimulus-presentation","219","662154","0.0-41.0-1.6","SS1613083738456","trial","","40","800","2643.0499999994645","images/stimuli/spore_stims/simple_10_B_d.gif","images/stimuli/spore_stims/simple_10_A_d.gif","","","","","11","simple_similar","images/stimuli/spore_stims/simple_10_A_d.gif","right","","","","",""
"","null","html-keyboard-response","220","663200","0.0-41.0-0.7","SS1613083738456","","","null","","","","","<p><img src= images/blank.png width =""200"" height = ""200"" style = ""float:right""></p><p><img src=images/blank.png width =""800"" height = ""200""></p>","","","","","","","","","","","",""
"","314.28499999665655","sequential-stimulus-presentation","221","664321","0.0-41.0-1.7","SS1613083738456","trial","","40","800","1114.2849999966566","images/stimuli/spore_stims/simple_10_B_d.gif","images/stimuli/spore_stims/simple_10_A_d.gif","","","","","11","simple_similar","images/stimuli/spore_stims/simple_10_A_d.gif","right","","","","",""
"","7482.570000000182","html-keyboard-response","222","671810","0.0-42.0","SS1613083738456","pref_question","","97","","","","","<video width ='960' height = '540' style='padding-top:8%' autoplay muted><source src='images/stimuli/wall_pref.mp4' type='video/mp4'></video>","1","left","25%","11","","","","","","","",""
"","1269.844999998808","sequential-stimulus-presentation","223","673890","0.0-43.0","SS1613083738456","pref_reveal","","40","800","2069.844999998808","null","null","","","","","11","","","","novel","","","",""
"","null","html-keyboard-response","224","675103","0.0-44.0-0.0","SS1613083738456","","","null","","","","","<p><img src= images/blank.png width =""200"" height = ""200"" style = ""float:right""></p><p><img src=images/blank.png width =""800"" height = ""200""></p>","","","","","","","","","","","",""
"","121.54999999993015","sequential-stimulus-presentation","225","676033","0.0-44.0-1.0","SS1613083738456","trial","","40","800","921.5499999999302","images/stimuli/spore_stims/complex_17_B_c.gif","images/stimuli/spore_stims/complex_17_A_c.gif","","","","","12","complex_similar","images/stimuli/spore_stims/complex_17_A_c.gif","right","","","","",""
"","null","html-keyboard-response","226","677202","0.0-44.0-0.1","SS1613083738456","","","null","","","","","<p><img src= images/blank.png width =""200"" height = ""200"" style = ""float:right""></p><p><img src=images/blank.png width =""800"" height = ""200""></p>","","","","","","","","","","","",""
"","949.5749999987893","sequential-stimulus-presentation","227","678961","0.0-44.0-1.1","SS1613083738456","trial","","40","800","1749.5749999987893","images/stimuli/spore_stims/complex_17_B_c.gif","images/stimuli/spore_stims/complex_17_A_c.gif","","","","","12","complex_similar","images/stimuli/spore_stims/complex_17_A_c.gif","right","","","","",""
"","null","html-keyboard-response","228","679817","0.0-44.0-0.2","SS1613083738456","","","null","","","","","<p><img src= images/blank.png width =""200"" height = ""200"" style = ""float:right""></p><p><img src=images/blank.png width =""800"" height = ""200""></p>","","","","","","","","","","","",""
"","296.67500000144355","sequential-stimulus-presentation","229","680921","0.0-44.0-1.2","SS1613083738456","trial","","40","800","1096.6750000014435","images/stimuli/spore_stims/complex_17_B_c.gif","images/stimuli/spore_stims/complex_17_A_c.gif","","","","","12","complex_similar","images/stimuli/spore_stims/complex_17_A_c.gif","right","","","","",""
"","null","html-keyboard-response","230","682134","0.0-44.0-0.3","SS1613083738456","","","null","","","","","<p><img src= images/blank.png width =""200"" height = ""200"" style = ""float:right""></p><p><img src=images/blank.png width =""800"" height = ""200""></p>","","","","","","","","","","","",""
"","25463.89999999886","sequential-stimulus-presentation","231","708418","0.0-44.0-1.3","SS1613083738456","trial","","40","800","26263.89999999886","images/stimuli/spore_stims/complex_17_B_c.gif","images/stimuli/spore_stims/complex_17_A_c.gif","","","","","12","complex_similar","images/stimuli/spore_stims/complex_17_A_c.gif","right","","","","",""
"","null","html-keyboard-response","232","709486","0.0-44.0-0.4","SS1613083738456","","","null","","","","","<p><img src= images/blank.png width =""200"" height = ""200"" style = ""float:right""></p><p><img src=images/blank.png width =""800"" height = ""200""></p>","","","","","","","","","","","",""
"","817.7250000007916","sequential-stimulus-presentation","233","711113","0.0-44.0-1.4","SS1613083738456","trial","","40","800","1617.7250000007916","images/stimuli/spore_stims/complex_17_B_c.gif","images/stimuli/spore_stims/complex_17_A_c.gif","","","","","12","complex_similar","images/stimuli/spore_stims/complex_17_A_c.gif","right","","","","",""
"","null","html-keyboard-response","234","712221","0.0-44.0-0.5","SS1613083738456","","","null","","","","","<p><img src= images/blank.png width =""200"" height = ""200"" style = ""float:right""></p><p><img src=images/blank.png width =""800"" height = ""200""></p>","","","","","","","","","","","",""
"","13970.180000000284","sequential-stimulus-presentation","235","727018","0.0-44.0-1.5","SS1613083738456","trial","","40","800","14770.180000000284","images/stimuli/spore_stims/complex_17_B_c.gif","images/stimuli/spore_stims/complex_17_A_c.gif","","","","","12","complex_similar","images/stimuli/spore_stims/complex_17_A_c.gif","right","","","","",""
"","null","html-keyboard-response","236","728057","0.0-44.0-0.6","SS1613083738456","","","null","","","","","<p><img src= images/blank.png width =""200"" height = ""200"" style = ""float:right""></p><p><img src=images/blank.png width =""800"" height = ""200""></p>","","","","","","","","","","","",""
"","4174.399999999907","sequential-stimulus-presentation","237","733050","0.0-44.0-1.6","SS1613083738456","trial","","40","800","4974.399999999907","images/stimuli/spore_stims/complex_17_B_c.gif","images/stimuli/spore_stims/complex_17_A_c.gif","","","","","12","complex_similar","images/stimuli/spore_stims/complex_17_B_c.gif","middle","","","","",""
"","null","html-keyboard-response","238","734274","0.0-44.0-0.7","SS1613083738456","","","null","","","","","<p><img src= images/blank.png width =""200"" height = ""200"" style = ""float:right""></p><p><img src=images/blank.png width =""800"" height = ""200""></p>","","","","","","","","","","","",""
"","212.72500000125729","sequential-stimulus-presentation","239","735306","0.0-44.0-1.7","SS1613083738456","trial","","40","800","1012.7250000012573","images/stimuli/spore_stims/complex_17_B_c.gif","images/stimuli/spore_stims/complex_17_A_c.gif","","","","","12","complex_similar","images/stimuli/spore_stims/complex_17_A_c.gif","right","","","","",""
"","1344.569999997504","html-keyboard-response","240","736658","0.0-45.0","SS1613083738456","pref_question","","99","","","","","<video width ='960' height = '540' style='padding-top:8%' autoplay muted><source src='images/stimuli/wall_pref.mp4' type='video/mp4'></video>","3","right","66%","12","","","","","","","",""
"","1855.5199999974575","sequential-stimulus-presentation","241","739323","0.0-46.0","SS1613083738456","pref_reveal","","40","800","2655.5199999974575","null","null","","","","","12","","","","background","","","",""
"","null","html-keyboard-response","242","740176","0.0-47.0-0.0","SS1613083738456","","","null","","","","","<p><img src= images/blank.png width =""200"" height = ""200"" style = ""float:right""></p><p><img src=images/blank.png width =""800"" height = ""200""></p>","","","","","","","","","","","",""
"","540.8250000000698","sequential-stimulus-presentation","243","741530","0.0-47.0-1.0","SS1613083738456","trial","","40","800","1340.8250000000698","images/stimuli/spore_stims/simple_18_B_a.gif","images/stimuli/spore_stims/simple_18_A_a.gif","","","","","13","simple_similar","images/stimuli/spore_stims/simple_18_A_a.gif","middle","","","","",""
"","null","html-keyboard-response","244","742777","0.0-47.0-0.1","SS1613083738456","","","null","","","","","<p><img src= images/blank.png width =""200"" height = ""200"" style = ""float:right""></p><p><img src=images/blank.png width =""800"" height = ""200""></p>","","","","","","","","","","","",""
"","501.33000000275206","sequential-stimulus-presentation","245","744090","0.0-47.0-1.1","SS1613083738456","trial","","40","800","1301.330000002752","images/stimuli/spore_stims/simple_18_B_a.gif","images/stimuli/spore_stims/simple_18_A_a.gif","","","","","13","simple_similar","images/stimuli/spore_stims/simple_18_A_a.gif","middle","","","","",""
"","null","html-keyboard-response","246","745174","0.0-47.0-0.2","SS1613083738456","","","null","","","","","<p><img src= images/blank.png width =""200"" height = ""200"" style = ""float:right""></p><p><img src=images/blank.png width =""800"" height = ""200""></p>","","","","","","","","","","","",""
"","1130.0700000029756","sequential-stimulus-presentation","247","747113","0.0-47.0-1.2","SS1613083738456","trial","","40","800","1930.0700000029756","images/stimuli/spore_stims/simple_18_B_a.gif","images/stimuli/spore_stims/simple_18_A_a.gif","","","","","13","simple_similar","images/stimuli/spore_stims/simple_18_A_a.gif","middle","","","","",""
"","null","html-keyboard-response","248","748242","0.0-47.0-0.3","SS1613083738456","","","null","","","","","<p><img src= images/blank.png width =""200"" height = ""200"" style = ""float:right""></p><p><img src=images/blank.png width =""800"" height = ""200""></p>","","","","","","","","","","","",""
"","1423.3450000028824","sequential-stimulus-presentation","249","750474","0.0-47.0-1.3","SS1613083738456","trial","","40","800","2223.3450000028824","images/stimuli/spore_stims/simple_18_B_a.gif","images/stimuli/spore_stims/simple_18_A_a.gif","","","","","13","simple_similar","images/stimuli/spore_stims/simple_18_A_a.gif","middle","","","","",""
"","null","html-keyboard-response","250","751761","0.0-47.0-0.4","SS1613083738456","","","null","","","","","<p><img src= images/blank.png width =""200"" height = ""200"" style = ""float:right""></p><p><img src=images/blank.png width =""800"" height = ""200""></p>","","","","","","","","","","","",""
"","477.6999999994878","sequential-stimulus-presentation","251","753049","0.0-47.0-1.4","SS1613083738456","trial","","40","800","1277.6999999994878","images/stimuli/spore_stims/simple_18_B_a.gif","images/stimuli/spore_stims/simple_18_A_a.gif","","","","","13","simple_similar","images/stimuli/spore_stims/simple_18_A_a.gif","middle","","","","",""
"","null","html-keyboard-response","252","754222","0.0-47.0-0.5","SS1613083738456","","","null","","","","","<p><img src= images/blank.png width =""200"" height = ""200"" style = ""float:right""></p><p><img src=images/blank.png width =""800"" height = ""200""></p>","","","","","","","","","","","",""
"","562.5","sequential-stimulus-presentation","253","755593","0.0-47.0-1.5","SS1613083738456","trial","","40","800","1362.5","images/stimuli/spore_stims/simple_18_B_a.gif","images/stimuli/spore_stims/simple_18_A_a.gif","","","","","13","simple_similar","images/stimuli/spore_stims/simple_18_A_a.gif","middle","","","","",""
"","null","html-keyboard-response","254","756745","0.0-47.0-0.6","SS1613083738456","","","null","","","","","<p><img src= images/blank.png width =""200"" height = ""200"" style = ""float:right""></p><p><img src=images/blank.png width =""800"" height = ""200""></p>","","","","","","","","","","","",""
"","2841.390000001411","sequential-stimulus-presentation","255","760394","0.0-47.0-1.6","SS1613083738456","trial","","40","800","3641.390000001411","images/stimuli/spore_stims/simple_18_B_a.gif","images/stimuli/spore_stims/simple_18_A_a.gif","","","","","13","simple_similar","images/stimuli/spore_stims/simple_18_A_a.gif","middle","","","","",""
"","null","html-keyboard-response","256","761404","0.0-47.0-0.7","SS1613083738456","","","null","","","","","<p><img src= images/blank.png width =""200"" height = ""200"" style = ""float:right""></p><p><img src=images/blank.png width =""800"" height = ""200""></p>","","","","","","","","","","","",""
"","12603.150000002584","sequential-stimulus-presentation","257","775377","0.0-47.0-1.7","SS1613083738456","trial","","40","800","13403.150000002584","images/stimuli/spore_stims/simple_18_B_a.gif","images/stimuli/spore_stims/simple_18_A_a.gif","","","","","13","simple_similar","images/stimuli/spore_stims/simple_18_B_a.gif","left","","","","",""
"","1194.6400000015274","html-keyboard-response","258","776578","0.0-48.0","SS1613083738456","pref_question","","97","","","","","<video width ='960' height = '540' style='padding-top:8%' autoplay muted><source src='images/stimuli/wall_pref.mp4' type='video/mp4'></video>","1","left","25%","13","","","","","","","",""
"","1007.7200000014855","sequential-stimulus-presentation","259","778393","0.0-49.0","SS1613083738456","pref_reveal","","40","800","1807.7200000014855","null","null","","","","","13","","","","deviant","","","",""
"","null","html-keyboard-response","260","779522","0.0-50.0-0.0","SS1613083738456","","","null","","","","","<p><img src= images/blank.png width =""200"" height = ""200"" style = ""float:right""></p><p><img src=images/blank.png width =""800"" height = ""200""></p>","","","","","","","","","","","",""
"","766.2000000018161","sequential-stimulus-presentation","261","781097","0.0-50.0-1.0","SS1613083738456","trial","","40","800","1566.200000001816","images/stimuli/spore_stims/complex_03_B_b.gif","images/stimuli/spore_stims/complex_15_B_c.gif","","","","","14","complex_dissimilar","images/stimuli/spore_stims/complex_15_B_c.gif","left","","","","",""
"","null","html-keyboard-response","262","782366","0.0-50.0-0.1","SS1613083738456","","","null","","","","","<p><img src= images/blank.png width =""200"" height = ""200"" style = ""float:right""></p><p><img src=images/blank.png width =""800"" height = ""200""></p>","","","","","","","","","","","",""
"","2149.5749999993714","sequential-stimulus-presentation","263","785337","0.0-50.0-1.1","SS1613083738456","trial","","40","800","2949.5749999993714","images/stimuli/spore_stims/complex_03_B_b.gif","images/stimuli/spore_stims/complex_15_B_c.gif","","","","","14","complex_dissimilar","images/stimuli/spore_stims/complex_15_B_c.gif","left","","","","",""
"","null","html-keyboard-response","264","786241","0.0-50.0-0.2","SS1613083738456","","","null","","","","","<p><img src= images/blank.png width =""200"" height = ""200"" style = ""float:right""></p><p><img src=images/blank.png width =""800"" height = ""200""></p>","","","","","","","","","","","",""
"","1374.2549999988405","sequential-stimulus-presentation","265","788425","0.0-50.0-1.2","SS1613083738456","trial","","40","800","2174.2549999988405","images/stimuli/spore_stims/complex_03_B_b.gif","images/stimuli/spore_stims/complex_15_B_c.gif","","","","","14","complex_dissimilar","images/stimuli/spore_stims/complex_03_B_b.gif","right","","","","",""
"","null","html-keyboard-response","266","789299","0.0-50.0-0.3","SS1613083738456","","","null","","","","","<p><img src= images/blank.png width =""200"" height = ""200"" style = ""float:right""></p><p><img src=images/blank.png width =""800"" height = ""200""></p>","","","","","","","","","","","",""
"","3200.3749999967404","sequential-stimulus-presentation","267","793313","0.0-50.0-1.3","SS1613083738456","trial","","40","800","4000.3749999967404","images/stimuli/spore_stims/complex_03_B_b.gif","images/stimuli/spore_stims/complex_15_B_c.gif","","","","","14","complex_dissimilar","images/stimuli/spore_stims/complex_15_B_c.gif","left","","","","",""
"","null","html-keyboard-response","268","794456","0.0-50.0-0.4","SS1613083738456","","","null","","","","","<p><img src= images/blank.png width =""200"" height = ""200"" style = ""float:right""></p><p><img src=images/blank.png width =""800"" height = ""200""></p>","","","","","","","","","","","",""
"","33.4949999996461","sequential-stimulus-presentation","269","795312","0.0-50.0-1.4","SS1613083738456","trial","","40","800","833.4949999996461","images/stimuli/spore_stims/complex_03_B_b.gif","images/stimuli/spore_stims/complex_15_B_c.gif","","","","","14","complex_dissimilar","images/stimuli/spore_stims/complex_15_B_c.gif","left","","","","",""
"","null","html-keyboard-response","270","796437","0.0-50.0-0.5","SS1613083738456","","","null","","","","","<p><img src= images/blank.png width =""200"" height = ""200"" style = ""float:right""></p><p><img src=images/blank.png width =""800"" height = ""200""></p>","","","","","","","","","","","",""
"","307.2199999988079","sequential-stimulus-presentation","271","797552","0.0-50.0-1.5","SS1613083738456","trial","","40","800","1107.219999998808","images/stimuli/spore_stims/complex_03_B_b.gif","images/stimuli/spore_stims/complex_15_B_c.gif","","","","","14","complex_dissimilar","images/stimuli/spore_stims/complex_15_B_c.gif","left","","","","",""
"","null","html-keyboard-response","272","798656","0.0-50.0-0.6","SS1613083738456","","","null","","","","","<p><img src= images/blank.png width =""200"" height = ""200"" style = ""float:right""></p><p><img src=images/blank.png width =""800"" height = ""200""></p>","","","","","","","","","","","",""
"","562.8949999990873","sequential-stimulus-presentation","273","800032","0.0-50.0-1.6","SS1613083738456","trial","","40","800","1362.8949999990873","images/stimuli/spore_stims/complex_03_B_b.gif","images/stimuli/spore_stims/complex_15_B_c.gif","","","","","14","complex_dissimilar","images/stimuli/spore_stims/complex_15_B_c.gif","left","","","","",""
"","null","html-keyboard-response","274","800888","0.0-50.0-0.7","SS1613083738456","","","null","","","","","<p><img src= images/blank.png width =""200"" height = ""200"" style = ""float:right""></p><p><img src=images/blank.png width =""800"" height = ""200""></p>","","","","","","","","","","","",""
"","142.6549999996787","sequential-stimulus-presentation","275","801841","0.0-50.0-1.7","SS1613083738456","trial","","40","800","942.6549999996787","images/stimuli/spore_stims/complex_03_B_b.gif","images/stimuli/spore_stims/complex_15_B_c.gif","","","","","14","complex_dissimilar","images/stimuli/spore_stims/complex_15_B_c.gif","left","","","","",""
"","1273.7699999997858","html-keyboard-response","276","803121","0.0-51.0","SS1613083738456","pref_question","","97","","","","","<video width ='960' height = '540' style='padding-top:8%' autoplay muted><source src='images/stimuli/wall_pref.mp4' type='video/mp4'></video>","1","left","25%","14","","","","","","","",""
"","22177.04500000039","sequential-stimulus-presentation","277","826106","0.0-52.0","SS1613083738456","pref_reveal","","40","800","22977.04500000039","null","null","","","","","14","","","","background","","","",""
"","null","html-keyboard-response","278","827032","0.0-53.0-0.0","SS1613083738456","","","null","","","","","<p><img src= images/blank.png width =""200"" height = ""200"" style = ""float:right""></p><p><img src=images/blank.png width =""800"" height = ""200""></p>","","","","","","","","","","","",""
"","222.7950000015553","sequential-stimulus-presentation","279","828065","0.0-53.0-1.0","SS1613083738456","trial","","40","800","1022.7950000015553","images/stimuli/spore_stims/simple_19_B_c.gif","images/stimuli/spore_stims/simple_11_B_d.gif","","","","","15","simple_dissimilar","images/stimuli/spore_stims/simple_11_B_d.gif","right","","","","",""
"","null","html-keyboard-response","280","829773","0.0-53.0-0.1","SS1613083738456","","","null","","","","","<p><img src= images/blank.png width =""200"" height = ""200"" style = ""float:right""></p><p><img src=images/blank.png width =""800"" height = ""200""></p>","","","","","","","","","","","",""
"","5586.585000000894","sequential-stimulus-presentation","281","836360","0.0-53.0-1.1","SS1613083738456","trial","","40","800","6386.585000000894","images/stimuli/spore_stims/simple_19_B_c.gif","images/stimuli/spore_stims/simple_11_B_d.gif","","","","","15","simple_dissimilar","images/stimuli/spore_stims/simple_11_B_d.gif","right","","","","",""
"","null","html-keyboard-response","282","837329","0.0-53.0-0.2","SS1613083738456","","","null","","","","","<p><img src= images/blank.png width =""200"" height = ""200"" style = ""float:right""></p><p><img src=images/blank.png width =""800"" height = ""200""></p>","","","","","","","","","","","",""
"","34.61500000045635","sequential-stimulus-presentation","283","838185","0.0-53.0-1.2","SS1613083738456","trial","","40","800","834.6150000004563","images/stimuli/spore_stims/simple_19_B_c.gif","images/stimuli/spore_stims/simple_11_B_d.gif","","","","","15","simple_dissimilar","images/stimuli/spore_stims/simple_11_B_d.gif","right","","","","",""
"","null","html-keyboard-response","284","839498","0.0-53.0-0.3","SS1613083738456","","","null","","","","","<p><img src= images/blank.png width =""200"" height = ""200"" style = ""float:right""></p><p><img src=images/blank.png width =""800"" height = ""200""></p>","","","","","","","","","","","",""
"","189.36999999999534","sequential-stimulus-presentation","285","840497","0.0-53.0-1.3","SS1613083738456","trial","","40","800","989.3699999999953","images/stimuli/spore_stims/simple_19_B_c.gif","images/stimuli/spore_stims/simple_11_B_d.gif","","","","","15","simple_dissimilar","images/stimuli/spore_stims/simple_11_B_d.gif","right","","","","",""
"","null","html-keyboard-response","286","841520","0.0-53.0-0.4","SS1613083738456","","","null","","","","","<p><img src= images/blank.png width =""200"" height = ""200"" style = ""float:right""></p><p><img src=images/blank.png width =""800"" height = ""200""></p>","","","","","","","","","","","",""
"","159.6849999986589","sequential-stimulus-presentation","287","842489","0.0-53.0-1.4","SS1613083738456","trial","","40","800","959.6849999986589","images/stimuli/spore_stims/simple_19_B_c.gif","images/stimuli/spore_stims/simple_11_B_d.gif","","","","","15","simple_dissimilar","images/stimuli/spore_stims/simple_11_B_d.gif","right","","","","",""
"","null","html-keyboard-response","288","843306","0.0-53.0-0.5","SS1613083738456","","","null","","","","","<p><img src= images/blank.png width =""200"" height = ""200"" style = ""float:right""></p><p><img src=images/blank.png width =""800"" height = ""200""></p>","","","","","","","","","","","",""
"","100.64000000059605","sequential-stimulus-presentation","289","844225","0.0-53.0-1.5","SS1613083738456","trial","","40","800","900.640000000596","images/stimuli/spore_stims/simple_19_B_c.gif","images/stimuli/spore_stims/simple_11_B_d.gif","","","","","15","simple_dissimilar","images/stimuli/spore_stims/simple_11_B_d.gif","right","","","","",""
"","null","html-keyboard-response","290","845516","0.0-53.0-0.6","SS1613083738456","","","null","","","","","<p><img src= images/blank.png width =""200"" height = ""200"" style = ""float:right""></p><p><img src=images/blank.png width =""800"" height = ""200""></p>","","","","","","","","","","","",""
"","12004.424999999232","sequential-stimulus-presentation","291","858337","0.0-53.0-1.6","SS1613083738456","trial","","40","800","12804.424999999232","images/stimuli/spore_stims/simple_19_B_c.gif","images/stimuli/spore_stims/simple_11_B_d.gif","","","","","15","simple_dissimilar","images/stimuli/spore_stims/simple_19_B_c.gif","left","","","","",""
"","null","html-keyboard-response","292","859490","0.0-53.0-0.7","SS1613083738456","","","null","","","","","<p><img src= images/blank.png width =""200"" height = ""200"" style = ""float:right""></p><p><img src=images/blank.png width =""800"" height = ""200""></p>","","","","","","","","","","","",""
"","98.5","sequential-stimulus-presentation","293","860401","0.0-53.0-1.7","SS1613083738456","trial","","40","800","898.5","images/stimuli/spore_stims/simple_19_B_c.gif","images/stimuli/spore_stims/simple_11_B_d.gif","","","","","15","simple_dissimilar","images/stimuli/spore_stims/simple_11_B_d.gif","right","","","","",""
"","7640.945000002859","html-keyboard-response","294","868050","0.0-54.0","SS1613083738456","pref_question","","99","","","","","<video width ='960' height = '540' style='padding-top:8%' autoplay muted><source src='images/stimuli/wall_pref.mp4' type='video/mp4'></video>","3","right","66%","15","","","","","","","",""
"","5639.514999998966","sequential-stimulus-presentation","295","874496","0.0-55.0","SS1613083738456","pref_reveal","","40","800","6439.514999998966","null","null","","","","","15","","","","background","","","",""
"","null","html-keyboard-response","296","875426","0.0-56.0-0.0","SS1613083738456","","","null","","","","","<p><img src= images/blank.png width =""200"" height = ""200"" style = ""float:right""></p><p><img src=images/blank.png width =""800"" height = ""200""></p>","","","","","","","","","","","",""
"","7.899999996880069","sequential-stimulus-presentation","297","876241","0.0-56.0-1.0","SS1613083738456","trial","","40","800","807.8999999968801","images/stimuli/spore_stims/complex_20_A_c.gif","images/stimuli/spore_stims/complex_13_B_d.gif","","","","","16","complex_dissimilar","images/stimuli/spore_stims/complex_13_B_d.gif","right","","","","",""
"","null","html-keyboard-response","298","877270","0.0-56.0-0.1","SS1613083738456","","","null","","","","","<p><img src= images/blank.png width =""200"" height = ""200"" style = ""float:right""></p><p><img src=images/blank.png width =""800"" height = ""200""></p>","","","","","","","","","","","",""
"","1474.7749999987427","sequential-stimulus-presentation","299","879552","0.0-56.0-1.1","SS1613083738456","trial","","40","800","2274.7749999987427","images/stimuli/spore_stims/complex_20_A_c.gif","images/stimuli/spore_stims/complex_13_B_d.gif","","","","","16","complex_dissimilar","images/stimuli/spore_stims/complex_13_B_d.gif","right","","","","",""
"","null","html-keyboard-response","300","880707","0.0-56.0-0.2","SS1613083738456","","","null","","","","","<p><img src= images/blank.png width =""200"" height = ""200"" style = ""float:right""></p><p><img src=images/blank.png width =""800"" height = ""200""></p>","","","","","","","","","","","",""
"","6560.584999999264","sequential-stimulus-presentation","301","888073","0.0-56.0-1.2","SS1613083738456","trial","","40","800","7360.584999999264","images/stimuli/spore_stims/complex_20_A_c.gif","images/stimuli/spore_stims/complex_13_B_d.gif","","","","","16","complex_dissimilar","images/stimuli/spore_stims/complex_13_B_d.gif","right","","","","",""
"","null","html-keyboard-response","302","889015","0.0-56.0-0.3","SS1613083738456","","","null","","","","","<p><img src= images/blank.png width =""200"" height = ""200"" style = ""float:right""></p><p><img src=images/blank.png width =""800"" height = ""200""></p>","","","","","","","","","","","",""
"","145.21999999857508","sequential-stimulus-presentation","303","889969","0.0-56.0-1.3","SS1613083738456","trial","","40","800","945.2199999985751","images/stimuli/spore_stims/complex_20_A_c.gif","images/stimuli/spore_stims/complex_13_B_d.gif","","","","","16","complex_dissimilar","images/stimuli/spore_stims/complex_13_B_d.gif","right","","","","",""
"","null","html-keyboard-response","304","890901","0.0-56.0-0.4","SS1613083738456","","","null","","","","","<p><img src= images/blank.png width =""200"" height = ""200"" style = ""float:right""></p><p><img src=images/blank.png width =""800"" height = ""200""></p>","","","","","","","","","","","",""
"","213.37499999941792","sequential-stimulus-presentation","305","891920","0.0-56.0-1.4","SS1613083738456","trial","","40","800","1013.3749999994179","images/stimuli/spore_stims/complex_20_A_c.gif","images/stimuli/spore_stims/complex_13_B_d.gif","","","","","16","complex_dissimilar","images/stimuli/spore_stims/complex_13_B_d.gif","right","","","","",""
"","null","html-keyboard-response","306","892880","0.0-56.0-0.5","SS1613083738456","","","null","","","","","<p><img src= images/blank.png width =""200"" height = ""200"" style = ""float:right""></p><p><img src=images/blank.png width =""800"" height = ""200""></p>","","","","","","","","","","","",""
"","681.5700000006473","sequential-stimulus-presentation","307","894376","0.0-56.0-1.5","SS1613083738456","trial","","40","800","1481.5700000006473","images/stimuli/spore_stims/complex_20_A_c.gif","images/stimuli/spore_stims/complex_13_B_d.gif","","","","","16","complex_dissimilar","images/stimuli/spore_stims/complex_20_A_c.gif","left","","","","",""
"","null","html-keyboard-response","308","895511","0.0-56.0-0.6","SS1613083738456","","","null","","","","","<p><img src= images/blank.png width =""200"" height = ""200"" style = ""float:right""></p><p><img src=images/blank.png width =""800"" height = ""200""></p>","","","","","","","","","","","",""
"","1291.3349999981","sequential-stimulus-presentation","309","897609","0.0-56.0-1.6","SS1613083738456","trial","","40","800","2091.3349999981","images/stimuli/spore_stims/complex_20_A_c.gif","images/stimuli/spore_stims/complex_13_B_d.gif","","","","","16","complex_dissimilar","images/stimuli/spore_stims/complex_13_B_d.gif","right","","","","",""
"","null","html-keyboard-response","310","898521","0.0-56.0-0.7","SS1613083738456","","","null","","","","","<p><img src= images/blank.png width =""200"" height = ""200"" style = ""float:right""></p><p><img src=images/blank.png width =""800"" height = ""200""></p>","","","","","","","","","","","",""
"","5899.069999999483","sequential-stimulus-presentation","311","905233","0.0-56.0-1.7","SS1613083738456","trial","","40","800","6699.069999999483","images/stimuli/spore_stims/complex_20_A_c.gif","images/stimuli/spore_stims/complex_13_B_d.gif","","","","","16","complex_dissimilar","images/stimuli/spore_stims/complex_13_B_d.gif","right","","","","",""
"","3195.6250000003492","html-keyboard-response","312","908434","0.0-57.0","SS1613083738456","pref_question","","98","","","","","<video width ='960' height = '540' style='padding-top:8%' autoplay muted><source src='images/stimuli/wall_pref.mp4' type='video/mp4'></video>","2","middle","45%","16","","","","","","","",""
