"view_history","rt","trial_type","trial_index","time_elapsed","internal_node_id","subject","stimulus_type","trial_stimulus","key_press","minimum_viewing_duration","trial_looking_time","block_deviant","block_background","stimulus","wall_pref","location","location_percent","block_number","block_type","stimulus_displayed","position_displayed","stim_type_selected","responses","question_order","stimulus_left","stimulus_right"
"[{""page_index"":0,""viewing_time"":26239.0149999992}]","26239.889999998923","instructions","0","26242","0.0-0.0","SS1613139638754","","","","","","","","","","","","","","","","","","","",""
"[{""page_index"":0,""viewing_time"":8387.230000000272},{""page_index"":1,""viewing_time"":7279.9250000007305}]","15667.520000000877","instructions","1","43913","0.0-1.0","SS1613139638754","instructions","","","","","","","","","","","","","","","","","","",""
"","8098.305000001346","sequential-stimulus-presentation","2","52819","0.0-2.0","SS1613139638754","","","40","800","8898.305000001346","null","null","","","","","","","","","","","","",""
"","2395.204999998896","sequential-stimulus-presentation","3","56019","0.0-3.0","SS1613139638754","","","40","800","3195.204999998896","null","null","","","","","","","","","","","","",""
"[{""page_index"":0,""viewing_time"":3788.669999999911}]","3789.1099999997095","instructions","4","59809","0.0-4.0","SS1613139638754","instructions","","","","","","","","","","","","","","","","","","",""
"","8908.825000000434","html-keyboard-response","5","68722","0.0-5.0","SS1613139638754","instructions","","97","","","","","<video width ='960' height = '540' autoplay muted><source src='images/stimuli/wall_pref.mp4' type='video/mp4'></video>","1","left","25%","","","","","","","","",""
"","3626.0849999998754","sequential-stimulus-presentation","6","73153","0.0-6.0","SS1613139638754","pref_reveal","","40","800","4426.084999999875","null","null","","","","","","","","","","","","",""
"[{""page_index"":0,""viewing_time"":8398.160000000644},{""page_index"":1,""viewing_time"":3864.1549999993003},{""page_index"":2,""viewing_time"":1168.0350000006001},{""page_index"":3,""viewing_time"":887.7649999994901}]","14318.5650000014","instructions","7","87473","0.0-7.0","SS1613139638754","instructions","","","","","","","","","","","","","","","","","","",""
"","null","html-keyboard-response","8","88667","0.0-8.0-0.0","SS1613139638754","","","null","","","","","<p><img src= images/blank.png width =""200"" height = ""200"" style = ""float:right""></p><p><img src=images/blank.png width =""800"" height = ""200""></p>","","","","","","","","","","","",""
"","7630.914999999732","sequential-stimulus-presentation","9","97105","0.0-8.0-1.0","SS1613139638754","trial","","40","800","8430.914999999732","images/stimuli/spore_stims/simple_08_A_a.gif","images/stimuli/spore_stims/simple_06_B_d.gif","","","","","0","simple_dissimilar","images/stimuli/spore_stims/simple_06_B_d.gif","left","","","","",""
"","null","html-keyboard-response","10","98313","0.0-8.0-0.1","SS1613139638754","","","null","","","","","<p><img src= images/blank.png width =""200"" height = ""200"" style = ""float:right""></p><p><img src=images/blank.png width =""800"" height = ""200""></p>","","","","","","","","","","","",""
"","4482.524999999456","sequential-stimulus-presentation","11","103601","0.0-8.0-1.1","SS1613139638754","trial","","40","800","5282.524999999456","images/stimuli/spore_stims/simple_08_A_a.gif","images/stimuli/spore_stims/simple_06_B_d.gif","","","","","0","simple_dissimilar","images/stimuli/spore_stims/simple_06_B_d.gif","left","","","","",""
"","null","html-keyboard-response","12","104405","0.0-8.0-0.2","SS1613139638754","","","null","","","","","<p><img src= images/blank.png width =""200"" height = ""200"" style = ""float:right""></p><p><img src=images/blank.png width =""800"" height = ""200""></p>","","","","","","","","","","","",""
"","4775.100000000733","sequential-stimulus-presentation","13","109986","0.0-8.0-1.2","SS1613139638754","trial","","40","800","5575.100000000733","images/stimuli/spore_stims/simple_08_A_a.gif","images/stimuli/spore_stims/simple_06_B_d.gif","","","","","0","simple_dissimilar","images/stimuli/spore_stims/simple_08_A_a.gif","right","","","","",""
"","null","html-keyboard-response","14","110979","0.0-8.0-0.3","SS1613139638754","","","null","","","","","<p><img src= images/blank.png width =""200"" height = ""200"" style = ""float:right""></p><p><img src=images/blank.png width =""800"" height = ""200""></p>","","","","","","","","","","","",""
"","4065.830000001355","sequential-stimulus-presentation","15","115873","0.0-8.0-1.3","SS1613139638754","trial","","40","800","4865.830000001355","images/stimuli/spore_stims/simple_08_A_a.gif","images/stimuli/spore_stims/simple_06_B_d.gif","","","","","0","simple_dissimilar","images/stimuli/spore_stims/simple_06_B_d.gif","left","","","","",""
"","null","html-keyboard-response","16","117160","0.0-8.0-0.4","SS1613139638754","","","null","","","","","<p><img src= images/blank.png width =""200"" height = ""200"" style = ""float:right""></p><p><img src=images/blank.png width =""800"" height = ""200""></p>","","","","","","","","","","","",""
"","3747.965000000462","sequential-stimulus-presentation","17","121714","0.0-8.0-1.4","SS1613139638754","trial","","40","800","4547.965000000462","images/stimuli/spore_stims/simple_08_A_a.gif","images/stimuli/spore_stims/simple_06_B_d.gif","","","","","0","simple_dissimilar","images/stimuli/spore_stims/simple_06_B_d.gif","left","","","","",""
"","null","html-keyboard-response","18","122563","0.0-8.0-0.5","SS1613139638754","","","null","","","","","<p><img src= images/blank.png width =""200"" height = ""200"" style = ""float:right""></p><p><img src=images/blank.png width =""800"" height = ""200""></p>","","","","","","","","","","","",""
"","712.1050000005052","sequential-stimulus-presentation","19","124081","0.0-8.0-1.5","SS1613139638754","trial","","40","800","1512.1050000005052","images/stimuli/spore_stims/simple_08_A_a.gif","images/stimuli/spore_stims/simple_06_B_d.gif","","","","","0","simple_dissimilar","images/stimuli/spore_stims/simple_06_B_d.gif","left","","","","",""
"","null","html-keyboard-response","20","125294","0.0-8.0-0.6","SS1613139638754","","","null","","","","","<p><img src= images/blank.png width =""200"" height = ""200"" style = ""float:right""></p><p><img src=images/blank.png width =""800"" height = ""200""></p>","","","","","","","","","","","",""
"","3486.8799999985495","sequential-stimulus-presentation","21","129585","0.0-8.0-1.6","SS1613139638754","trial","","40","800","4286.8799999985495","images/stimuli/spore_stims/simple_08_A_a.gif","images/stimuli/spore_stims/simple_06_B_d.gif","","","","","0","simple_dissimilar","images/stimuli/spore_stims/simple_06_B_d.gif","left","","","","",""
"","null","html-keyboard-response","22","130620","0.0-8.0-0.7","SS1613139638754","","","null","","","","","<p><img src= images/blank.png width =""200"" height = ""200"" style = ""float:right""></p><p><img src=images/blank.png width =""800"" height = ""200""></p>","","","","","","","","","","","",""
"","1008.6200000005192","sequential-stimulus-presentation","23","132449","0.0-8.0-1.7","SS1613139638754","trial","","40","800","1808.6200000005192","images/stimuli/spore_stims/simple_08_A_a.gif","images/stimuli/spore_stims/simple_06_B_d.gif","","","","","0","simple_dissimilar","images/stimuli/spore_stims/simple_06_B_d.gif","left","","","","",""
"","1675.7749999997322","html-keyboard-response","24","134130","0.0-9.0","SS1613139638754","pref_question","","50","","","","","<video width ='960' height = '540' style='padding-top:8%' autoplay muted><source src='images/stimuli/wall_pref.mp4' type='video/mp4'></video>","2","middle","45%","0","","","","","","","",""
"","3610.360000000568","sequential-stimulus-presentation","25","138546","0.0-10.0","SS1613139638754","pref_reveal","","40","800","4410.360000000568","null","null","","","","","0","","","","novel","","","",""
"","null","html-keyboard-response","26","139666","0.0-11.0-0.0","SS1613139638754","","","null","","","","","<p><img src= images/blank.png width =""200"" height = ""200"" style = ""float:right""></p><p><img src=images/blank.png width =""800"" height = ""200""></p>","","","","","","","","","","","",""
"","3559.63999999949","sequential-stimulus-presentation","27","144033","0.0-11.0-1.0","SS1613139638754","trial","","40","800","4359.63999999949","images/stimuli/spore_stims/simple_15_A_c.gif","images/stimuli/spore_stims/simple_15_B_c.gif","","","","","1","simple_similar","images/stimuli/spore_stims/simple_15_B_c.gif","right","","","","",""
"","null","html-keyboard-response","28","145013","0.0-11.0-0.1","SS1613139638754","","","null","","","","","<p><img src= images/blank.png width =""200"" height = ""200"" style = ""float:right""></p><p><img src=images/blank.png width =""800"" height = ""200""></p>","","","","","","","","","","","",""
"","2370.319999999978","sequential-stimulus-presentation","29","148193","0.0-11.0-1.1","SS1613139638754","trial","","40","800","3170.319999999978","images/stimuli/spore_stims/simple_15_A_c.gif","images/stimuli/spore_stims/simple_15_B_c.gif","","","","","1","simple_similar","images/stimuli/spore_stims/simple_15_B_c.gif","right","","","","",""
"","null","html-keyboard-response","30","149445","0.0-11.0-0.2","SS1613139638754","","","null","","","","","<p><img src= images/blank.png width =""200"" height = ""200"" style = ""float:right""></p><p><img src=images/blank.png width =""800"" height = ""200""></p>","","","","","","","","","","","",""
"","835.6149999999325","sequential-stimulus-presentation","31","151089","0.0-11.0-1.2","SS1613139638754","trial","","40","800","1635.6149999999325","images/stimuli/spore_stims/simple_15_A_c.gif","images/stimuli/spore_stims/simple_15_B_c.gif","","","","","1","simple_similar","images/stimuli/spore_stims/simple_15_B_c.gif","right","","","","",""
"","null","html-keyboard-response","32","152124","0.0-11.0-0.3","SS1613139638754","","","null","","","","","<p><img src= images/blank.png width =""200"" height = ""200"" style = ""float:right""></p><p><img src=images/blank.png width =""800"" height = ""200""></p>","","","","","","","","","","","",""
"","4130.095000000438","sequential-stimulus-presentation","33","157063","0.0-11.0-1.3","SS1613139638754","trial","","40","800","4930.095000000438","images/stimuli/spore_stims/simple_15_A_c.gif","images/stimuli/spore_stims/simple_15_B_c.gif","","","","","1","simple_similar","images/stimuli/spore_stims/simple_15_A_c.gif","left","","","","",""
"","null","html-keyboard-response","34","158233","0.0-11.0-0.4","SS1613139638754","","","null","","","","","<p><img src= images/blank.png width =""200"" height = ""200"" style = ""float:right""></p><p><img src=images/blank.png width =""800"" height = ""200""></p>","","","","","","","","","","","",""
"","237.46000000025379","sequential-stimulus-presentation","35","159279","0.0-11.0-1.4","SS1613139638754","trial","","40","800","1037.4600000002538","images/stimuli/spore_stims/simple_15_A_c.gif","images/stimuli/spore_stims/simple_15_B_c.gif","","","","","1","simple_similar","images/stimuli/spore_stims/simple_15_B_c.gif","right","","","","",""
"","null","html-keyboard-response","36","160147","0.0-11.0-0.5","SS1613139638754","","","null","","","","","<p><img src= images/blank.png width =""200"" height = ""200"" style = ""float:right""></p><p><img src=images/blank.png width =""800"" height = ""200""></p>","","","","","","","","","","","",""
"","3814.5299999996787","sequential-stimulus-presentation","37","164769","0.0-11.0-1.5","SS1613139638754","trial","","40","800","4614.529999999679","images/stimuli/spore_stims/simple_15_A_c.gif","images/stimuli/spore_stims/simple_15_B_c.gif","","","","","1","simple_similar","images/stimuli/spore_stims/simple_15_B_c.gif","right","","","","",""
"","null","html-keyboard-response","38","165585","0.0-11.0-0.6","SS1613139638754","","","null","","","","","<p><img src= images/blank.png width =""200"" height = ""200"" style = ""float:right""></p><p><img src=images/blank.png width =""800"" height = ""200""></p>","","","","","","","","","","","",""
"","2072.505000000063","sequential-stimulus-presentation","39","168465","0.0-11.0-1.6","SS1613139638754","trial","","40","800","2872.505000000063","images/stimuli/spore_stims/simple_15_A_c.gif","images/stimuli/spore_stims/simple_15_B_c.gif","","","","","1","simple_similar","images/stimuli/spore_stims/simple_15_B_c.gif","right","","","","",""
"","null","html-keyboard-response","40","169612","0.0-11.0-0.7","SS1613139638754","","","null","","","","","<p><img src= images/blank.png width =""200"" height = ""200"" style = ""float:right""></p><p><img src=images/blank.png width =""800"" height = ""200""></p>","","","","","","","","","","","",""
"","1901.5500000005122","sequential-stimulus-presentation","41","172320","0.0-11.0-1.7","SS1613139638754","trial","","40","800","2701.5500000005122","images/stimuli/spore_stims/simple_15_A_c.gif","images/stimuli/spore_stims/simple_15_B_c.gif","","","","","1","simple_similar","images/stimuli/spore_stims/simple_15_B_c.gif","right","","","","",""
"","1404.0050000003248","html-keyboard-response","42","173729","0.0-12.0","SS1613139638754","pref_question","","50","","","","","<video width ='960' height = '540' style='padding-top:8%' autoplay muted><source src='images/stimuli/wall_pref.mp4' type='video/mp4'></video>","2","middle","45%","1","","","","","","","",""
"","6025.920000000042","sequential-stimulus-presentation","43","180561","0.0-13.0","SS1613139638754","pref_reveal","","40","800","6825.920000000042","null","null","","","","","1","","","","novel","","","",""
"","null","html-keyboard-response","44","181847","0.0-14.0-0.0","SS1613139638754","","","null","","","","","<p><img src= images/blank.png width =""200"" height = ""200"" style = ""float:right""></p><p><img src=images/blank.png width =""800"" height = ""200""></p>","","","","","","","","","","","",""
"","4003.740000000107","sequential-stimulus-presentation","45","186658","0.0-14.0-1.0","SS1613139638754","trial","","40","800","4803.740000000107","images/stimuli/spore_stims/complex_05_B_a.gif","images/stimuli/spore_stims/complex_05_A_a.gif","","","","","2","complex_similar","images/stimuli/spore_stims/complex_05_A_a.gif","middle","","","","",""
"","null","html-keyboard-response","46","187547","0.0-14.0-0.1","SS1613139638754","","","null","","","","","<p><img src= images/blank.png width =""200"" height = ""200"" style = ""float:right""></p><p><img src=images/blank.png width =""800"" height = ""200""></p>","","","","","","","","","","","",""
"","672.0249999998487","sequential-stimulus-presentation","47","189026","0.0-14.0-1.1","SS1613139638754","trial","","40","800","1472.0249999998487","images/stimuli/spore_stims/complex_05_B_a.gif","images/stimuli/spore_stims/complex_05_A_a.gif","","","","","2","complex_similar","images/stimuli/spore_stims/complex_05_A_a.gif","middle","","","","",""
"","null","html-keyboard-response","48","189845","0.0-14.0-0.2","SS1613139638754","","","null","","","","","<p><img src= images/blank.png width =""200"" height = ""200"" style = ""float:right""></p><p><img src=images/blank.png width =""800"" height = ""200""></p>","","","","","","","","","","","",""
"","1125.7600000007951","sequential-stimulus-presentation","49","191777","0.0-14.0-1.2","SS1613139638754","trial","","40","800","1925.7600000007951","images/stimuli/spore_stims/complex_05_B_a.gif","images/stimuli/spore_stims/complex_05_A_a.gif","","","","","2","complex_similar","images/stimuli/spore_stims/complex_05_A_a.gif","middle","","","","",""
"","null","html-keyboard-response","50","192769","0.0-14.0-0.3","SS1613139638754","","","null","","","","","<p><img src= images/blank.png width =""200"" height = ""200"" style = ""float:right""></p><p><img src=images/blank.png width =""800"" height = ""200""></p>","","","","","","","","","","","",""
"","2084.6500000006927","sequential-stimulus-presentation","51","195680","0.0-14.0-1.3","SS1613139638754","trial","","40","800","2884.6500000006927","images/stimuli/spore_stims/complex_05_B_a.gif","images/stimuli/spore_stims/complex_05_A_a.gif","","","","","2","complex_similar","images/stimuli/spore_stims/complex_05_A_a.gif","middle","","","","",""
"","null","html-keyboard-response","52","196780","0.0-14.0-0.4","SS1613139638754","","","null","","","","","<p><img src= images/blank.png width =""200"" height = ""200"" style = ""float:right""></p><p><img src=images/blank.png width =""800"" height = ""200""></p>","","","","","","","","","","","",""
"","4687.530000001076","sequential-stimulus-presentation","53","202273","0.0-14.0-1.4","SS1613139638754","trial","","40","800","5487.530000001076","images/stimuli/spore_stims/complex_05_B_a.gif","images/stimuli/spore_stims/complex_05_A_a.gif","","","","","2","complex_similar","images/stimuli/spore_stims/complex_05_B_a.gif","left","","","","",""
"","null","html-keyboard-response","54","203360","0.0-14.0-0.5","SS1613139638754","","","null","","","","","<p><img src= images/blank.png width =""200"" height = ""200"" style = ""float:right""></p><p><img src=images/blank.png width =""800"" height = ""200""></p>","","","","","","","","","","","",""
"","2345.969999998517","sequential-stimulus-presentation","55","206513","0.0-14.0-1.5","SS1613139638754","trial","","40","800","3145.969999998517","images/stimuli/spore_stims/complex_05_B_a.gif","images/stimuli/spore_stims/complex_05_A_a.gif","","","","","2","complex_similar","images/stimuli/spore_stims/complex_05_A_a.gif","middle","","","","",""
"","null","html-keyboard-response","56","207449","0.0-14.0-0.6","SS1613139638754","","","null","","","","","<p><img src= images/blank.png width =""200"" height = ""200"" style = ""float:right""></p><p><img src=images/blank.png width =""800"" height = ""200""></p>","","","","","","","","","","","",""
"","1426.195000000007","sequential-stimulus-presentation","57","209681","0.0-14.0-1.6","SS1613139638754","trial","","40","800","2226.195000000007","images/stimuli/spore_stims/complex_05_B_a.gif","images/stimuli/spore_stims/complex_05_A_a.gif","","","","","2","complex_similar","images/stimuli/spore_stims/complex_05_A_a.gif","middle","","","","",""
"","null","html-keyboard-response","58","210555","0.0-14.0-0.7","SS1613139638754","","","null","","","","","<p><img src= images/blank.png width =""200"" height = ""200"" style = ""float:right""></p><p><img src=images/blank.png width =""800"" height = ""200""></p>","","","","","","","","","","","",""
"","1389.9000000001106","sequential-stimulus-presentation","59","212769","0.0-14.0-1.7","SS1613139638754","trial","","40","800","2189.9000000001106","images/stimuli/spore_stims/complex_05_B_a.gif","images/stimuli/spore_stims/complex_05_A_a.gif","","","","","2","complex_similar","images/stimuli/spore_stims/complex_05_A_a.gif","middle","","","","",""
"","3562.814999999333","html-keyboard-response","60","216337","0.0-15.0","SS1613139638754","pref_question","","51","","","","","<video width ='960' height = '540' style='padding-top:8%' autoplay muted><source src='images/stimuli/wall_pref.mp4' type='video/mp4'></video>","3","right","66%","2","","","","","","","",""
"","4458.580000000453","sequential-stimulus-presentation","61","221601","0.0-16.0","SS1613139638754","pref_reveal","","40","800","5258.580000000453","null","null","","","","","2","","","","novel","","","",""
"","null","html-keyboard-response","62","222840","0.0-17.0-0.0","SS1613139638754","","","null","","","","","<p><img src= images/blank.png width =""200"" height = ""200"" style = ""float:right""></p><p><img src=images/blank.png width =""800"" height = ""200""></p>","","","","","","","","","","","",""
"","4322.325000001001","sequential-stimulus-presentation","63","227970","0.0-17.0-1.0","SS1613139638754","trial","","40","800","5122.325000001001","images/stimuli/spore_stims/complex_13_B_d.gif","images/stimuli/spore_stims/complex_13_A_d.gif","","","","","3","complex_similar","images/stimuli/spore_stims/complex_13_A_d.gif","right","","","","",""
"","null","html-keyboard-response","64","229201","0.0-17.0-0.1","SS1613139638754","","","null","","","","","<p><img src= images/blank.png width =""200"" height = ""200"" style = ""float:right""></p><p><img src=images/blank.png width =""800"" height = ""200""></p>","","","","","","","","","","","",""
"","1416.5599999996484","sequential-stimulus-presentation","65","231425","0.0-17.0-1.1","SS1613139638754","trial","","40","800","2216.5599999996484","images/stimuli/spore_stims/complex_13_B_d.gif","images/stimuli/spore_stims/complex_13_A_d.gif","","","","","3","complex_similar","images/stimuli/spore_stims/complex_13_A_d.gif","right","","","","",""
"","null","html-keyboard-response","66","232401","0.0-17.0-0.2","SS1613139638754","","","null","","","","","<p><img src= images/blank.png width =""200"" height = ""200"" style = ""float:right""></p><p><img src=images/blank.png width =""800"" height = ""200""></p>","","","","","","","","","","","",""
"","856.6049999989918","sequential-stimulus-presentation","67","234065","0.0-17.0-1.2","SS1613139638754","trial","","40","800","1656.6049999989918","images/stimuli/spore_stims/complex_13_B_d.gif","images/stimuli/spore_stims/complex_13_A_d.gif","","","","","3","complex_similar","images/stimuli/spore_stims/complex_13_A_d.gif","right","","","","",""
"","null","html-keyboard-response","68","235297","0.0-17.0-0.3","SS1613139638754","","","null","","","","","<p><img src= images/blank.png width =""200"" height = ""200"" style = ""float:right""></p><p><img src=images/blank.png width =""800"" height = ""200""></p>","","","","","","","","","","","",""
"","826.5150000006543","sequential-stimulus-presentation","69","236929","0.0-17.0-1.3","SS1613139638754","trial","","40","800","1626.5150000006543","images/stimuli/spore_stims/complex_13_B_d.gif","images/stimuli/spore_stims/complex_13_A_d.gif","","","","","3","complex_similar","images/stimuli/spore_stims/complex_13_A_d.gif","right","","","","",""
"","null","html-keyboard-response","70","237987","0.0-17.0-0.4","SS1613139638754","","","null","","","","","<p><img src= images/blank.png width =""200"" height = ""200"" style = ""float:right""></p><p><img src=images/blank.png width =""800"" height = ""200""></p>","","","","","","","","","","","",""
"","4712.125","sequential-stimulus-presentation","71","243505","0.0-17.0-1.4","SS1613139638754","trial","","40","800","5512.125","images/stimuli/spore_stims/complex_13_B_d.gif","images/stimuli/spore_stims/complex_13_A_d.gif","","","","","3","complex_similar","images/stimuli/spore_stims/complex_13_B_d.gif","middle","","","","",""
"","null","html-keyboard-response","72","244691","0.0-17.0-0.5","SS1613139638754","","","null","","","","","<p><img src= images/blank.png width =""200"" height = ""200"" style = ""float:right""></p><p><img src=images/blank.png width =""800"" height = ""200""></p>","","","","","","","","","","","",""
"","1735.000000000582","sequential-stimulus-presentation","73","247233","0.0-17.0-1.5","SS1613139638754","trial","","40","800","2535.000000000582","images/stimuli/spore_stims/complex_13_B_d.gif","images/stimuli/spore_stims/complex_13_A_d.gif","","","","","3","complex_similar","images/stimuli/spore_stims/complex_13_A_d.gif","right","","","","",""
"","null","html-keyboard-response","74","248390","0.0-17.0-0.6","SS1613139638754","","","null","","","","","<p><img src= images/blank.png width =""200"" height = ""200"" style = ""float:right""></p><p><img src=images/blank.png width =""800"" height = ""200""></p>","","","","","","","","","","","",""
"","1427.6200000004028","sequential-stimulus-presentation","75","250625","0.0-17.0-1.6","SS1613139638754","trial","","40","800","2227.620000000403","images/stimuli/spore_stims/complex_13_B_d.gif","images/stimuli/spore_stims/complex_13_A_d.gif","","","","","3","complex_similar","images/stimuli/spore_stims/complex_13_A_d.gif","right","","","","",""
"","null","html-keyboard-response","76","251922","0.0-17.0-0.7","SS1613139638754","","","null","","","","","<p><img src= images/blank.png width =""200"" height = ""200"" style = ""float:right""></p><p><img src=images/blank.png width =""800"" height = ""200""></p>","","","","","","","","","","","",""
"","1760.7599999991944","sequential-stimulus-presentation","77","254497","0.0-17.0-1.7","SS1613139638754","trial","","40","800","2560.7599999991944","images/stimuli/spore_stims/complex_13_B_d.gif","images/stimuli/spore_stims/complex_13_A_d.gif","","","","","3","complex_similar","images/stimuli/spore_stims/complex_13_A_d.gif","right","","","","",""
"","2043.2350000010338","html-keyboard-response","78","256545","0.0-18.0","SS1613139638754","pref_question","","50","","","","","<video width ='960' height = '540' style='padding-top:8%' autoplay muted><source src='images/stimuli/wall_pref.mp4' type='video/mp4'></video>","2","middle","45%","3","","","","","","","",""
"","2667.930000001448","sequential-stimulus-presentation","79","260049","0.0-19.0","SS1613139638754","pref_reveal","","40","800","3467.930000001448","null","null","","","","","3","","","","deviant","","","",""
"","null","html-keyboard-response","80","260859","0.0-20.0-0.0","SS1613139638754","","","null","","","","","<p><img src= images/blank.png width =""200"" height = ""200"" style = ""float:right""></p><p><img src=images/blank.png width =""800"" height = ""200""></p>","","","","","","","","","","","",""
"","2835.519999998738","sequential-stimulus-presentation","81","264513","0.0-20.0-1.0","SS1613139638754","trial","","40","800","3635.519999998738","images/stimuli/spore_stims/simple_01_B_b.gif","images/stimuli/spore_stims/simple_04_B_c.gif","","","","","4","simple_dissimilar","images/stimuli/spore_stims/simple_04_B_c.gif","middle","","","","",""
"","null","html-keyboard-response","82","265387","0.0-20.0-0.1","SS1613139638754","","","null","","","","","<p><img src= images/blank.png width =""200"" height = ""200"" style = ""float:right""></p><p><img src=images/blank.png width =""800"" height = ""200""></p>","","","","","","","","","","","",""
"","2255.1899999998277","sequential-stimulus-presentation","83","268448","0.0-20.0-1.1","SS1613139638754","trial","","40","800","3055.1899999998277","images/stimuli/spore_stims/simple_01_B_b.gif","images/stimuli/spore_stims/simple_04_B_c.gif","","","","","4","simple_dissimilar","images/stimuli/spore_stims/simple_04_B_c.gif","middle","","","","",""
"","null","html-keyboard-response","84","269433","0.0-20.0-0.2","SS1613139638754","","","null","","","","","<p><img src= images/blank.png width =""200"" height = ""200"" style = ""float:right""></p><p><img src=images/blank.png width =""800"" height = ""200""></p>","","","","","","","","","","","",""
"","1086.695000000007","sequential-stimulus-presentation","85","271328","0.0-20.0-1.2","SS1613139638754","trial","","40","800","1886.695000000007","images/stimuli/spore_stims/simple_01_B_b.gif","images/stimuli/spore_stims/simple_04_B_c.gif","","","","","4","simple_dissimilar","images/stimuli/spore_stims/simple_04_B_c.gif","middle","","","","",""
"","null","html-keyboard-response","86","272175","0.0-20.0-0.3","SS1613139638754","","","null","","","","","<p><img src= images/blank.png width =""200"" height = ""200"" style = ""float:right""></p><p><img src=images/blank.png width =""800"" height = ""200""></p>","","","","","","","","","","","",""
"","1523.1199999998207","sequential-stimulus-presentation","87","274529","0.0-20.0-1.3","SS1613139638754","trial","","40","800","2323.1199999998207","images/stimuli/spore_stims/simple_01_B_b.gif","images/stimuli/spore_stims/simple_04_B_c.gif","","","","","4","simple_dissimilar","images/stimuli/spore_stims/simple_04_B_c.gif","middle","","","","",""
"","null","html-keyboard-response","88","275810","0.0-20.0-0.4","SS1613139638754","","","null","","","","","<p><img src= images/blank.png width =""200"" height = ""200"" style = ""float:right""></p><p><img src=images/blank.png width =""800"" height = ""200""></p>","","","","","","","","","","","",""
"","886.6749999997555","sequential-stimulus-presentation","89","277504","0.0-20.0-1.4","SS1613139638754","trial","","40","800","1686.6749999997555","images/stimuli/spore_stims/simple_01_B_b.gif","images/stimuli/spore_stims/simple_04_B_c.gif","","","","","4","simple_dissimilar","images/stimuli/spore_stims/simple_04_B_c.gif","middle","","","","",""
"","null","html-keyboard-response","90","278551","0.0-20.0-0.5","SS1613139638754","","","null","","","","","<p><img src= images/blank.png width =""200"" height = ""200"" style = ""float:right""></p><p><img src=images/blank.png width =""800"" height = ""200""></p>","","","","","","","","","","","",""
"","1619.8150000000023","sequential-stimulus-presentation","91","280976","0.0-20.0-1.5","SS1613139638754","trial","","40","800","2419.8150000000023","images/stimuli/spore_stims/simple_01_B_b.gif","images/stimuli/spore_stims/simple_04_B_c.gif","","","","","4","simple_dissimilar","images/stimuli/spore_stims/simple_04_B_c.gif","middle","","","","",""
"","null","html-keyboard-response","92","281962","0.0-20.0-0.6","SS1613139638754","","","null","","","","","<p><img src= images/blank.png width =""200"" height = ""200"" style = ""float:right""></p><p><img src=images/blank.png width =""800"" height = ""200""></p>","","","","","","","","","","","",""
"","1872.6900000001187","sequential-stimulus-presentation","93","284657","0.0-20.0-1.6","SS1613139638754","trial","","40","800","2672.6900000001187","images/stimuli/spore_stims/simple_01_B_b.gif","images/stimuli/spore_stims/simple_04_B_c.gif","","","","","4","simple_dissimilar","images/stimuli/spore_stims/simple_01_B_b.gif","left","","","","",""
"","null","html-keyboard-response","94","285692","0.0-20.0-0.7","SS1613139638754","","","null","","","","","<p><img src= images/blank.png width =""200"" height = ""200"" style = ""float:right""></p><p><img src=images/blank.png width =""800"" height = ""200""></p>","","","","","","","","","","","",""
"","1037.7649999990826","sequential-stimulus-presentation","95","287536","0.0-20.0-1.7","SS1613139638754","trial","","40","800","1837.7649999990826","images/stimuli/spore_stims/simple_01_B_b.gif","images/stimuli/spore_stims/simple_04_B_c.gif","","","","","4","simple_dissimilar","images/stimuli/spore_stims/simple_04_B_c.gif","middle","","","","",""
"","2347.4750000005006","html-keyboard-response","96","289888","0.0-21.0","SS1613139638754","pref_question","","49","","","","","<video width ='960' height = '540' style='padding-top:8%' autoplay muted><source src='images/stimuli/wall_pref.mp4' type='video/mp4'></video>","1","left","25%","4","","","","","","","",""
"","1322.4499999996624","sequential-stimulus-presentation","97","292017","0.0-22.0","SS1613139638754","pref_reveal","","40","800","2122.4499999996624","null","null","","","","","4","","","","deviant","","","",""
"","null","html-keyboard-response","98","292982","0.0-23.0-0.0","SS1613139638754","","","null","","","","","<p><img src= images/blank.png width =""200"" height = ""200"" style = ""float:right""></p><p><img src=images/blank.png width =""800"" height = ""200""></p>","","","","","","","","","","","",""
"","4388.50500000082","sequential-stimulus-presentation","99","298177","0.0-23.0-1.0","SS1613139638754","trial","","40","800","5188.50500000082","images/stimuli/spore_stims/complex_15_A_d.gif","images/stimuli/spore_stims/complex_15_B_d.gif","","","","","5","complex_similar","images/stimuli/spore_stims/complex_15_B_d.gif","middle","","","","",""
"","null","html-keyboard-response","100","299357","0.0-23.0-0.1","SS1613139638754","","","null","","","","","<p><img src= images/blank.png width =""200"" height = ""200"" style = ""float:right""></p><p><img src=images/blank.png width =""800"" height = ""200""></p>","","","","","","","","","","","",""
"","1309.2149999993271","sequential-stimulus-presentation","101","301472","0.0-23.0-1.1","SS1613139638754","trial","","40","800","2109.214999999327","images/stimuli/spore_stims/complex_15_A_d.gif","images/stimuli/spore_stims/complex_15_B_d.gif","","","","","5","complex_similar","images/stimuli/spore_stims/complex_15_B_d.gif","middle","","","","",""
"","null","html-keyboard-response","102","302744","0.0-23.0-0.2","SS1613139638754","","","null","","","","","<p><img src= images/blank.png width =""200"" height = ""200"" style = ""float:right""></p><p><img src=images/blank.png width =""800"" height = ""200""></p>","","","","","","","","","","","",""
"","1440.6400000007125","sequential-stimulus-presentation","103","305008","0.0-23.0-1.2","SS1613139638754","trial","","40","800","2240.6400000007125","images/stimuli/spore_stims/complex_15_A_d.gif","images/stimuli/spore_stims/complex_15_B_d.gif","","","","","5","complex_similar","images/stimuli/spore_stims/complex_15_B_d.gif","middle","","","","",""
"","null","html-keyboard-response","104","305860","0.0-23.0-0.3","SS1613139638754","","","null","","","","","<p><img src= images/blank.png width =""200"" height = ""200"" style = ""float:right""></p><p><img src=images/blank.png width =""800"" height = ""200""></p>","","","","","","","","","","","",""
"","822.3299999990268","sequential-stimulus-presentation","105","307489","0.0-23.0-1.3","SS1613139638754","trial","","40","800","1622.3299999990268","images/stimuli/spore_stims/complex_15_A_d.gif","images/stimuli/spore_stims/complex_15_B_d.gif","","","","","5","complex_similar","images/stimuli/spore_stims/complex_15_B_d.gif","middle","","","","",""
"","null","html-keyboard-response","106","308475","0.0-23.0-0.4","SS1613139638754","","","null","","","","","<p><img src= images/blank.png width =""200"" height = ""200"" style = ""float:right""></p><p><img src=images/blank.png width =""800"" height = ""200""></p>","","","","","","","","","","","",""
"","655.0299999999115","sequential-stimulus-presentation","107","309937","0.0-23.0-1.4","SS1613139638754","trial","","40","800","1455.0299999999115","images/stimuli/spore_stims/complex_15_A_d.gif","images/stimuli/spore_stims/complex_15_B_d.gif","","","","","5","complex_similar","images/stimuli/spore_stims/complex_15_B_d.gif","middle","","","","",""
"","null","html-keyboard-response","108","310932","0.0-23.0-0.5","SS1613139638754","","","null","","","","","<p><img src= images/blank.png width =""200"" height = ""200"" style = ""float:right""></p><p><img src=images/blank.png width =""800"" height = ""200""></p>","","","","","","","","","","","",""
"","822.6500000000815","sequential-stimulus-presentation","109","312576","0.0-23.0-1.5","SS1613139638754","trial","","40","800","1622.6500000000815","images/stimuli/spore_stims/complex_15_A_d.gif","images/stimuli/spore_stims/complex_15_B_d.gif","","","","","5","complex_similar","images/stimuli/spore_stims/complex_15_B_d.gif","middle","","","","",""
"","null","html-keyboard-response","110","313489","0.0-23.0-0.6","SS1613139638754","","","null","","","","","<p><img src= images/blank.png width =""200"" height = ""200"" style = ""float:right""></p><p><img src=images/blank.png width =""800"" height = ""200""></p>","","","","","","","","","","","",""
"","681.1450000004843","sequential-stimulus-presentation","111","314976","0.0-23.0-1.6","SS1613139638754","trial","","40","800","1481.1450000004843","images/stimuli/spore_stims/complex_15_A_d.gif","images/stimuli/spore_stims/complex_15_B_d.gif","","","","","5","complex_similar","images/stimuli/spore_stims/complex_15_B_d.gif","middle","","","","",""
"","null","html-keyboard-response","112","316053","0.0-23.0-0.7","SS1613139638754","","","null","","","","","<p><img src= images/blank.png width =""200"" height = ""200"" style = ""float:right""></p><p><img src=images/blank.png width =""800"" height = ""200""></p>","","","","","","","","","","","",""
"","4357.49000000034","sequential-stimulus-presentation","113","321217","0.0-23.0-1.7","SS1613139638754","trial","","40","800","5157.49000000034","images/stimuli/spore_stims/complex_15_A_d.gif","images/stimuli/spore_stims/complex_15_B_d.gif","","","","","5","complex_similar","images/stimuli/spore_stims/complex_15_A_d.gif","right","","","","",""
"","1482.330000000773","html-keyboard-response","114","322704","0.0-24.0","SS1613139638754","pref_question","","51","","","","","<video width ='960' height = '540' style='padding-top:8%' autoplay muted><source src='images/stimuli/wall_pref.mp4' type='video/mp4'></video>","3","right","66%","5","","","","","","","",""
"","809.7600000001257","sequential-stimulus-presentation","115","324321","0.0-25.0","SS1613139638754","pref_reveal","","40","800","1609.7600000001257","null","null","","","","","5","","","","deviant","","","",""
"","null","html-keyboard-response","116","325409","0.0-26.0-0.0","SS1613139638754","","","null","","","","","<p><img src= images/blank.png width =""200"" height = ""200"" style = ""float:right""></p><p><img src=images/blank.png width =""800"" height = ""200""></p>","","","","","","","","","","","",""
"","1128.0850000002538","sequential-stimulus-presentation","117","327345","0.0-26.0-1.0","SS1613139638754","trial","","40","800","1928.0850000002538","images/stimuli/spore_stims/simple_10_B_a.gif","images/stimuli/spore_stims/simple_03_B_c.gif","","","","","6","simple_dissimilar","images/stimuli/spore_stims/simple_03_B_c.gif","right","","","","",""
"","null","html-keyboard-response","118","328625","0.0-26.0-0.1","SS1613139638754","","","null","","","","","<p><img src= images/blank.png width =""200"" height = ""200"" style = ""float:right""></p><p><img src=images/blank.png width =""800"" height = ""200""></p>","","","","","","","","","","","",""
"","1585.9749999999767","sequential-stimulus-presentation","119","331041","0.0-26.0-1.1","SS1613139638754","trial","","40","800","2385.9749999999767","images/stimuli/spore_stims/simple_10_B_a.gif","images/stimuli/spore_stims/simple_03_B_c.gif","","","","","6","simple_dissimilar","images/stimuli/spore_stims/simple_03_B_c.gif","right","","","","",""
"","null","html-keyboard-response","120","332108","0.0-26.0-0.2","SS1613139638754","","","null","","","","","<p><img src= images/blank.png width =""200"" height = ""200"" style = ""float:right""></p><p><img src=images/blank.png width =""800"" height = ""200""></p>","","","","","","","","","","","",""
"","846.2749999998487","sequential-stimulus-presentation","121","333761","0.0-26.0-1.2","SS1613139638754","trial","","40","800","1646.2749999998487","images/stimuli/spore_stims/simple_10_B_a.gif","images/stimuli/spore_stims/simple_03_B_c.gif","","","","","6","simple_dissimilar","images/stimuli/spore_stims/simple_03_B_c.gif","right","","","","",""
"","null","html-keyboard-response","122","334974","0.0-26.0-0.3","SS1613139638754","","","null","","","","","<p><img src= images/blank.png width =""200"" height = ""200"" style = ""float:right""></p><p><img src=images/blank.png width =""800"" height = ""200""></p>","","","","","","","","","","","",""
"","747.4199999996927","sequential-stimulus-presentation","123","336529","0.0-26.0-1.3","SS1613139638754","trial","","40","800","1547.4199999996927","images/stimuli/spore_stims/simple_10_B_a.gif","images/stimuli/spore_stims/simple_03_B_c.gif","","","","","6","simple_dissimilar","images/stimuli/spore_stims/simple_03_B_c.gif","right","","","","",""
"","null","html-keyboard-response","124","337371","0.0-26.0-0.4","SS1613139638754","","","null","","","","","<p><img src= images/blank.png width =""200"" height = ""200"" style = ""float:right""></p><p><img src=images/blank.png width =""800"" height = ""200""></p>","","","","","","","","","","","",""
"","797.6100000014994","sequential-stimulus-presentation","125","338976","0.0-26.0-1.4","SS1613139638754","trial","","40","800","1597.6100000014994","images/stimuli/spore_stims/simple_10_B_a.gif","images/stimuli/spore_stims/simple_03_B_c.gif","","","","","6","simple_dissimilar","images/stimuli/spore_stims/simple_03_B_c.gif","right","","","","",""
"","null","html-keyboard-response","126","340015","0.0-26.0-0.5","SS1613139638754","","","null","","","","","<p><img src= images/blank.png width =""200"" height = ""200"" style = ""float:right""></p><p><img src=images/blank.png width =""800"" height = ""200""></p>","","","","","","","","","","","",""
"","779.0899999999674","sequential-stimulus-presentation","127","341600","0.0-26.0-1.5","SS1613139638754","trial","","40","800","1579.0899999999674","images/stimuli/spore_stims/simple_10_B_a.gif","images/stimuli/spore_stims/simple_03_B_c.gif","","","","","6","simple_dissimilar","images/stimuli/spore_stims/simple_03_B_c.gif","right","","","","",""
"","null","html-keyboard-response","128","342809","0.0-26.0-0.6","SS1613139638754","","","null","","","","","<p><img src= images/blank.png width =""200"" height = ""200"" style = ""float:right""></p><p><img src=images/blank.png width =""800"" height = ""200""></p>","","","","","","","","","","","",""
"","481.3200000007637","sequential-stimulus-presentation","129","344097","0.0-26.0-1.6","SS1613139638754","trial","","40","800","1281.3200000007637","images/stimuli/spore_stims/simple_10_B_a.gif","images/stimuli/spore_stims/simple_03_B_c.gif","","","","","6","simple_dissimilar","images/stimuli/spore_stims/simple_03_B_c.gif","right","","","","",""
"","null","html-keyboard-response","130","345127","0.0-26.0-0.7","SS1613139638754","","","null","","","","","<p><img src= images/blank.png width =""200"" height = ""200"" style = ""float:right""></p><p><img src=images/blank.png width =""800"" height = ""200""></p>","","","","","","","","","","","",""
"","1363.115000000107","sequential-stimulus-presentation","131","347298","0.0-26.0-1.7","SS1613139638754","trial","","40","800","2163.115000000107","images/stimuli/spore_stims/simple_10_B_a.gif","images/stimuli/spore_stims/simple_03_B_c.gif","","","","","6","simple_dissimilar","images/stimuli/spore_stims/simple_10_B_a.gif","middle","","","","",""
"","1241.8699999998207","html-keyboard-response","132","348545","0.0-27.0","SS1613139638754","pref_question","","49","","","","","<video width ='960' height = '540' style='padding-top:8%' autoplay muted><source src='images/stimuli/wall_pref.mp4' type='video/mp4'></video>","1","left","25%","6","","","","","","","",""
"","2394.1950000007637","sequential-stimulus-presentation","133","351745","0.0-28.0","SS1613139638754","pref_reveal","","40","800","3194.1950000007637","null","null","","","","","6","","","","novel","","","",""
"","null","html-keyboard-response","134","352856","0.0-29.0-0.0","SS1613139638754","","","null","","","","","<p><img src= images/blank.png width =""200"" height = ""200"" style = ""float:right""></p><p><img src=images/blank.png width =""800"" height = ""200""></p>","","","","","","","","","","","",""
"","3105.93499999959","sequential-stimulus-presentation","135","356787","0.0-29.0-1.0","SS1613139638754","trial","","40","800","3905.93499999959","images/stimuli/spore_stims/complex_04_A_b.gif","images/stimuli/spore_stims/complex_20_A_d.gif","","","","","7","complex_dissimilar","images/stimuli/spore_stims/complex_20_A_d.gif","left","","","","",""
"","null","html-keyboard-response","136","357891","0.0-29.0-0.1","SS1613139638754","","","null","","","","","<p><img src= images/blank.png width =""200"" height = ""200"" style = ""float:right""></p><p><img src=images/blank.png width =""800"" height = ""200""></p>","","","","","","","","","","","",""
"","486.54499999975087","sequential-stimulus-presentation","137","359184","0.0-29.0-1.1","SS1613139638754","trial","","40","800","1286.5449999997509","images/stimuli/spore_stims/complex_04_A_b.gif","images/stimuli/spore_stims/complex_20_A_d.gif","","","","","7","complex_dissimilar","images/stimuli/spore_stims/complex_20_A_d.gif","left","","","","",""
"","null","html-keyboard-response","138","360213","0.0-29.0-0.2","SS1613139638754","","","null","","","","","<p><img src= images/blank.png width =""200"" height = ""200"" style = ""float:right""></p><p><img src=images/blank.png width =""800"" height = ""200""></p>","","","","","","","","","","","",""
"","1589.1999999984982","sequential-stimulus-presentation","139","362609","0.0-29.0-1.2","SS1613139638754","trial","","40","800","2389.1999999984982","images/stimuli/spore_stims/complex_04_A_b.gif","images/stimuli/spore_stims/complex_20_A_d.gif","","","","","7","complex_dissimilar","images/stimuli/spore_stims/complex_20_A_d.gif","left","","","","",""
"","null","html-keyboard-response","140","363496","0.0-29.0-0.3","SS1613139638754","","","null","","","","","<p><img src= images/blank.png width =""200"" height = ""200"" style = ""float:right""></p><p><img src=images/blank.png width =""800"" height = ""200""></p>","","","","","","","","","","","",""
"","1937.2949999996927","sequential-stimulus-presentation","141","366240","0.0-29.0-1.3","SS1613139638754","trial","","40","800","2737.2949999996927","images/stimuli/spore_stims/complex_04_A_b.gif","images/stimuli/spore_stims/complex_20_A_d.gif","","","","","7","complex_dissimilar","images/stimuli/spore_stims/complex_04_A_b.gif","right","","","","",""
"","null","html-keyboard-response","142","367150","0.0-29.0-0.4","SS1613139638754","","","null","","","","","<p><img src= images/blank.png width =""200"" height = ""200"" style = ""float:right""></p><p><img src=images/blank.png width =""800"" height = ""200""></p>","","","","","","","","","","","",""
"","1851.5399999996298","sequential-stimulus-presentation","143","369809","0.0-29.0-1.4","SS1613139638754","trial","","40","800","2651.53999999963","images/stimuli/spore_stims/complex_04_A_b.gif","images/stimuli/spore_stims/complex_20_A_d.gif","","","","","7","complex_dissimilar","images/stimuli/spore_stims/complex_20_A_d.gif","left","","","","",""
"","null","html-keyboard-response","144","370743","0.0-29.0-0.5","SS1613139638754","","","null","","","","","<p><img src= images/blank.png width =""200"" height = ""200"" style = ""float:right""></p><p><img src=images/blank.png width =""800"" height = ""200""></p>","","","","","","","","","","","",""
"","560.914999999979","sequential-stimulus-presentation","145","372112","0.0-29.0-1.5","SS1613139638754","trial","","40","800","1360.914999999979","images/stimuli/spore_stims/complex_04_A_b.gif","images/stimuli/spore_stims/complex_20_A_d.gif","","","","","7","complex_dissimilar","images/stimuli/spore_stims/complex_20_A_d.gif","left","","","","",""
"","null","html-keyboard-response","146","373180","0.0-29.0-0.6","SS1613139638754","","","null","","","","","<p><img src= images/blank.png width =""200"" height = ""200"" style = ""float:right""></p><p><img src=images/blank.png width =""800"" height = ""200""></p>","","","","","","","","","","","",""
"","540.1750000001048","sequential-stimulus-presentation","147","374529","0.0-29.0-1.6","SS1613139638754","trial","","40","800","1340.1750000001048","images/stimuli/spore_stims/complex_04_A_b.gif","images/stimuli/spore_stims/complex_20_A_d.gif","","","","","7","complex_dissimilar","images/stimuli/spore_stims/complex_20_A_d.gif","left","","","","",""
"","null","html-keyboard-response","148","375363","0.0-29.0-0.7","SS1613139638754","","","null","","","","","<p><img src= images/blank.png width =""200"" height = ""200"" style = ""float:right""></p><p><img src=images/blank.png width =""800"" height = ""200""></p>","","","","","","","","","","","",""
"","644.2399999996414","sequential-stimulus-presentation","149","376817","0.0-29.0-1.7","SS1613139638754","trial","","40","800","1444.2399999996414","images/stimuli/spore_stims/complex_04_A_b.gif","images/stimuli/spore_stims/complex_20_A_d.gif","","","","","7","complex_dissimilar","images/stimuli/spore_stims/complex_20_A_d.gif","left","","","","",""
"","1082.2050000006566","html-keyboard-response","150","377904","0.0-30.0","SS1613139638754","pref_question","","50","","","","","<video width ='960' height = '540' style='padding-top:8%' autoplay muted><source src='images/stimuli/wall_pref.mp4' type='video/mp4'></video>","2","middle","45%","7","","","","","","","",""
"","20905.32499999972","sequential-stimulus-presentation","151","399617","0.0-31.0","SS1613139638754","pref_reveal","","40","800","21705.32499999972","null","null","","","","","7","","","","novel","","","",""
"","null","html-keyboard-response","152","400750","0.0-32.0-0.0","SS1613139638754","","","null","","","","","<p><img src= images/blank.png width =""200"" height = ""200"" style = ""float:right""></p><p><img src=images/blank.png width =""800"" height = ""200""></p>","","","","","","","","","","","",""
"","1035.7249999997439","sequential-stimulus-presentation","153","402592","0.0-32.0-1.0","SS1613139638754","trial","","40","800","1835.7249999997439","images/stimuli/spore_stims/simple_02_A_a.gif","images/stimuli/spore_stims/simple_02_B_a.gif","","","","","8","simple_similar","images/stimuli/spore_stims/simple_02_B_a.gif","middle","","","","",""
"","null","html-keyboard-response","154","403436","0.0-32.0-0.1","SS1613139638754","","","null","","","","","<p><img src= images/blank.png width =""200"" height = ""200"" style = ""float:right""></p><p><img src=images/blank.png width =""800"" height = ""200""></p>","","","","","","","","","","","",""
"","1020.1899999993038","sequential-stimulus-presentation","155","405280","0.0-32.0-1.1","SS1613139638754","trial","","40","800","1820.1899999993038","images/stimuli/spore_stims/simple_02_A_a.gif","images/stimuli/spore_stims/simple_02_B_a.gif","","","","","8","simple_similar","images/stimuli/spore_stims/simple_02_B_a.gif","middle","","","","",""
"","null","html-keyboard-response","156","406358","0.0-32.0-0.2","SS1613139638754","","","null","","","","","<p><img src= images/blank.png width =""200"" height = ""200"" style = ""float:right""></p><p><img src=images/blank.png width =""800"" height = ""200""></p>","","","","","","","","","","","",""
"","823.9650000013644","sequential-stimulus-presentation","157","408001","0.0-32.0-1.2","SS1613139638754","trial","","40","800","1623.9650000013644","images/stimuli/spore_stims/simple_02_A_a.gif","images/stimuli/spore_stims/simple_02_B_a.gif","","","","","8","simple_similar","images/stimuli/spore_stims/simple_02_B_a.gif","middle","","","","",""
"","null","html-keyboard-response","158","408899","0.0-32.0-0.3","SS1613139638754","","","null","","","","","<p><img src= images/blank.png width =""200"" height = ""200"" style = ""float:right""></p><p><img src=images/blank.png width =""800"" height = ""200""></p>","","","","","","","","","","","",""
"","806.0150000001304","sequential-stimulus-presentation","159","410513","0.0-32.0-1.3","SS1613139638754","trial","","40","800","1606.0150000001304","images/stimuli/spore_stims/simple_02_A_a.gif","images/stimuli/spore_stims/simple_02_B_a.gif","","","","","8","simple_similar","images/stimuli/spore_stims/simple_02_B_a.gif","middle","","","","",""
"","null","html-keyboard-response","160","411620","0.0-32.0-0.4","SS1613139638754","","","null","","","","","<p><img src= images/blank.png width =""200"" height = ""200"" style = ""float:right""></p><p><img src=images/blank.png width =""800"" height = ""200""></p>","","","","","","","","","","","",""
"","598.00499999983","sequential-stimulus-presentation","161","413025","0.0-32.0-1.4","SS1613139638754","trial","","40","800","1398.00499999983","images/stimuli/spore_stims/simple_02_A_a.gif","images/stimuli/spore_stims/simple_02_B_a.gif","","","","","8","simple_similar","images/stimuli/spore_stims/simple_02_B_a.gif","middle","","","","",""
"","null","html-keyboard-response","162","414258","0.0-32.0-0.5","SS1613139638754","","","null","","","","","<p><img src= images/blank.png width =""200"" height = ""200"" style = ""float:right""></p><p><img src=images/blank.png width =""800"" height = ""200""></p>","","","","","","","","","","","",""
"","507.8200000007637","sequential-stimulus-presentation","163","415616","0.0-32.0-1.5","SS1613139638754","trial","","40","800","1307.8200000007637","images/stimuli/spore_stims/simple_02_A_a.gif","images/stimuli/spore_stims/simple_02_B_a.gif","","","","","8","simple_similar","images/stimuli/spore_stims/simple_02_B_a.gif","middle","","","","",""
"","null","html-keyboard-response","164","416893","0.0-32.0-0.6","SS1613139638754","","","null","","","","","<p><img src= images/blank.png width =""200"" height = ""200"" style = ""float:right""></p><p><img src=images/blank.png width =""800"" height = ""200""></p>","","","","","","","","","","","",""
"","651.6149999988265","sequential-stimulus-presentation","165","418352","0.0-32.0-1.6","SS1613139638754","trial","","40","800","1451.6149999988265","images/stimuli/spore_stims/simple_02_A_a.gif","images/stimuli/spore_stims/simple_02_B_a.gif","","","","","8","simple_similar","images/stimuli/spore_stims/simple_02_A_a.gif","right","","","","",""
"","null","html-keyboard-response","166","419474","0.0-32.0-0.7","SS1613139638754","","","null","","","","","<p><img src= images/blank.png width =""200"" height = ""200"" style = ""float:right""></p><p><img src=images/blank.png width =""800"" height = ""200""></p>","","","","","","","","","","","",""
"","1127.1649999998626","sequential-stimulus-presentation","167","421409","0.0-32.0-1.7","SS1613139638754","trial","","40","800","1927.1649999998626","images/stimuli/spore_stims/simple_02_A_a.gif","images/stimuli/spore_stims/simple_02_B_a.gif","","","","","8","simple_similar","images/stimuli/spore_stims/simple_02_B_a.gif","middle","","","","",""
"","1256.8100000008126","html-keyboard-response","168","422673","0.0-33.0","SS1613139638754","pref_question","","49","","","","","<video width ='960' height = '540' style='padding-top:8%' autoplay muted><source src='images/stimuli/wall_pref.mp4' type='video/mp4'></video>","1","left","25%","8","","","","","","","",""
"","19880.659999998927","sequential-stimulus-presentation","169","443361","0.0-34.0","SS1613139638754","pref_reveal","","40","800","20680.659999998927","null","null","","","","","8","","","","novel","","","",""
"","null","html-keyboard-response","170","444312","0.0-35.0-0.0","SS1613139638754","","","null","","","","","<p><img src= images/blank.png width =""200"" height = ""200"" style = ""float:right""></p><p><img src=images/blank.png width =""800"" height = ""200""></p>","","","","","","","","","","","",""
"","30463.299999999464","sequential-stimulus-presentation","171","475586","0.0-35.0-1.0","SS1613139638754","trial","","40","800","31263.299999999464","images/stimuli/spore_stims/complex_09_B_d.gif","images/stimuli/spore_stims/complex_14_A_a.gif","","","","","9","complex_dissimilar","images/stimuli/spore_stims/complex_14_A_a.gif","middle","","","","",""
"","null","html-keyboard-response","172","476599","0.0-35.0-0.1","SS1613139638754","","","null","","","","","<p><img src= images/blank.png width =""200"" height = ""200"" style = ""float:right""></p><p><img src=images/blank.png width =""800"" height = ""200""></p>","","","","","","","","","","","",""
"","54338.10000000085","sequential-stimulus-presentation","173","531745","0.0-35.0-1.1","SS1613139638754","trial","","40","800","55138.10000000085","images/stimuli/spore_stims/complex_09_B_d.gif","images/stimuli/spore_stims/complex_14_A_a.gif","","","","","9","complex_dissimilar","images/stimuli/spore_stims/complex_14_A_a.gif","middle","","","","",""
"","null","html-keyboard-response","174","532787","0.0-35.0-0.2","SS1613139638754","","","null","","","","","<p><img src= images/blank.png width =""200"" height = ""200"" style = ""float:right""></p><p><img src=images/blank.png width =""800"" height = ""200""></p>","","","","","","","","","","","",""
"","661.5100000000093","sequential-stimulus-presentation","175","534257","0.0-35.0-1.2","SS1613139638754","trial","","40","800","1461.5100000000093","images/stimuli/spore_stims/complex_09_B_d.gif","images/stimuli/spore_stims/complex_14_A_a.gif","","","","","9","complex_dissimilar","images/stimuli/spore_stims/complex_14_A_a.gif","middle","","","","",""
"","null","html-keyboard-response","176","535113","0.0-35.0-0.3","SS1613139638754","","","null","","","","","<p><img src= images/blank.png width =""200"" height = ""200"" style = ""float:right""></p><p><img src=images/blank.png width =""800"" height = ""200""></p>","","","","","","","","","","","",""
"","129.89000000013039","sequential-stimulus-presentation","177","536051","0.0-35.0-1.3","SS1613139638754","trial","","40","800","929.8900000001304","images/stimuli/spore_stims/complex_09_B_d.gif","images/stimuli/spore_stims/complex_14_A_a.gif","","","","","9","complex_dissimilar","images/stimuli/spore_stims/complex_14_A_a.gif","middle","","","","",""
"","null","html-keyboard-response","178","536893","0.0-35.0-0.4","SS1613139638754","","","null","","","","","<p><img src= images/blank.png width =""200"" height = ""200"" style = ""float:right""></p><p><img src=images/blank.png width =""800"" height = ""200""></p>","","","","","","","","","","","",""
"","554.2000000005355","sequential-stimulus-presentation","179","538272","0.0-35.0-1.4","SS1613139638754","trial","","40","800","1354.2000000005355","images/stimuli/spore_stims/complex_09_B_d.gif","images/stimuli/spore_stims/complex_14_A_a.gif","","","","","9","complex_dissimilar","images/stimuli/spore_stims/complex_14_A_a.gif","middle","","","","",""
"","null","html-keyboard-response","180","539555","0.0-35.0-0.5","SS1613139638754","","","null","","","","","<p><img src= images/blank.png width =""200"" height = ""200"" style = ""float:right""></p><p><img src=images/blank.png width =""800"" height = ""200""></p>","","","","","","","","","","","",""
"","387.18999999936204","sequential-stimulus-presentation","181","540752","0.0-35.0-1.5","SS1613139638754","trial","","40","800","1187.189999999362","images/stimuli/spore_stims/complex_09_B_d.gif","images/stimuli/spore_stims/complex_14_A_a.gif","","","","","9","complex_dissimilar","images/stimuli/spore_stims/complex_14_A_a.gif","middle","","","","",""
"","null","html-keyboard-response","182","541898","0.0-35.0-0.6","SS1613139638754","","","null","","","","","<p><img src= images/blank.png width =""200"" height = ""200"" style = ""float:right""></p><p><img src=images/blank.png width =""800"" height = ""200""></p>","","","","","","","","","","","",""
"","45102.880000000354","sequential-stimulus-presentation","183","587809","0.0-35.0-1.6","SS1613139638754","trial","","40","800","45902.880000000354","images/stimuli/spore_stims/complex_09_B_d.gif","images/stimuli/spore_stims/complex_14_A_a.gif","","","","","9","complex_dissimilar","images/stimuli/spore_stims/complex_14_A_a.gif","middle","","","","",""
"","null","html-keyboard-response","184","588806","0.0-35.0-0.7","SS1613139638754","","","null","","","","","<p><img src= images/blank.png width =""200"" height = ""200"" style = ""float:right""></p><p><img src=images/blank.png width =""800"" height = ""200""></p>","","","","","","","","","","","",""
"","30241.915000000503","sequential-stimulus-presentation","185","619858","0.0-35.0-1.7","SS1613139638754","trial","","40","800","31041.915000000503","images/stimuli/spore_stims/complex_09_B_d.gif","images/stimuli/spore_stims/complex_14_A_a.gif","","","","","9","complex_dissimilar","images/stimuli/spore_stims/complex_09_B_d.gif","left","","","","",""
"","1543.085000001127","html-keyboard-response","186","621410","0.0-36.0","SS1613139638754","pref_question","","51","","","","","<video width ='960' height = '540' style='padding-top:8%' autoplay muted><source src='images/stimuli/wall_pref.mp4' type='video/mp4'></video>","3","right","66%","9","","","","","","","",""
"","1463.3999999987427","sequential-stimulus-presentation","187","623681","0.0-37.0","SS1613139638754","pref_reveal","","40","800","2263.3999999987427","null","null","","","","","9","","","","novel","","","",""
"","null","html-keyboard-response","188","624493","0.0-38.0-0.0","SS1613139638754","","","null","","","","","<p><img src= images/blank.png width =""200"" height = ""200"" style = ""float:right""></p><p><img src=images/blank.png width =""800"" height = ""200""></p>","","","","","","","","","","","",""
"","140300.9700000002","sequential-stimulus-presentation","189","765602","0.0-38.0-1.0","SS1613139638754","trial","","40","800","141100.9700000002","images/stimuli/spore_stims/complex_16_B_c.gif","images/stimuli/spore_stims/complex_09_A_d.gif","","","","","10","complex_dissimilar","images/stimuli/spore_stims/complex_09_A_d.gif","right","","","","",""
"","null","html-keyboard-response","190","766695","0.0-38.0-0.1","SS1613139638754","","","null","","","","","<p><img src= images/blank.png width =""200"" height = ""200"" style = ""float:right""></p><p><img src=images/blank.png width =""800"" height = ""200""></p>","","","","","","","","","","","",""
"","40972.92500000005","sequential-stimulus-presentation","191","808482","0.0-38.0-1.1","SS1613139638754","trial","","40","800","41772.92500000005","images/stimuli/spore_stims/complex_16_B_c.gif","images/stimuli/spore_stims/complex_09_A_d.gif","","","","","10","complex_dissimilar","images/stimuli/spore_stims/complex_09_A_d.gif","right","","","","",""
"","null","html-keyboard-response","192","809777","0.0-38.0-0.2","SS1613139638754","","","null","","","","","<p><img src= images/blank.png width =""200"" height = ""200"" style = ""float:right""></p><p><img src=images/blank.png width =""800"" height = ""200""></p>","","","","","","","","","","","",""
"","2102.2649999995483","sequential-stimulus-presentation","193","812689","0.0-38.0-1.2","SS1613139638754","trial","","40","800","2902.2649999995483","images/stimuli/spore_stims/complex_16_B_c.gif","images/stimuli/spore_stims/complex_09_A_d.gif","","","","","10","complex_dissimilar","images/stimuli/spore_stims/complex_09_A_d.gif","right","","","","",""
"","null","html-keyboard-response","194","813738","0.0-38.0-0.3","SS1613139638754","","","null","","","","","<p><img src= images/blank.png width =""200"" height = ""200"" style = ""float:right""></p><p><img src=images/blank.png width =""800"" height = ""200""></p>","","","","","","","","","","","",""
"","7614.005000001285","sequential-stimulus-presentation","195","822162","0.0-38.0-1.3","SS1613139638754","trial","","40","800","8414.005000001285","images/stimuli/spore_stims/complex_16_B_c.gif","images/stimuli/spore_stims/complex_09_A_d.gif","","","","","10","complex_dissimilar","images/stimuli/spore_stims/complex_09_A_d.gif","right","","","","",""
"","null","html-keyboard-response","196","823463","0.0-38.0-0.4","SS1613139638754","","","null","","","","","<p><img src= images/blank.png width =""200"" height = ""200"" style = ""float:right""></p><p><img src=images/blank.png width =""800"" height = ""200""></p>","","","","","","","","","","","",""
"","4368.7150000005495","sequential-stimulus-presentation","197","828641","0.0-38.0-1.4","SS1613139638754","trial","","40","800","5168.7150000005495","images/stimuli/spore_stims/complex_16_B_c.gif","images/stimuli/spore_stims/complex_09_A_d.gif","","","","","10","complex_dissimilar","images/stimuli/spore_stims/complex_09_A_d.gif","right","","","","",""
"","null","html-keyboard-response","198","829500","0.0-38.0-0.5","SS1613139638754","","","null","","","","","<p><img src= images/blank.png width =""200"" height = ""200"" style = ""float:right""></p><p><img src=images/blank.png width =""800"" height = ""200""></p>","","","","","","","","","","","",""
"","18152.73000000161","sequential-stimulus-presentation","199","848466","0.0-38.0-1.5","SS1613139638754","trial","","40","800","18952.73000000161","images/stimuli/spore_stims/complex_16_B_c.gif","images/stimuli/spore_stims/complex_09_A_d.gif","","","","","10","complex_dissimilar","images/stimuli/spore_stims/complex_09_A_d.gif","right","","","","",""
"","null","html-keyboard-response","200","849615","0.0-38.0-0.6","SS1613139638754","","","null","","","","","<p><img src= images/blank.png width =""200"" height = ""200"" style = ""float:right""></p><p><img src=images/blank.png width =""800"" height = ""200""></p>","","","","","","","","","","","",""
"","711.4199999996927","sequential-stimulus-presentation","201","851137","0.0-38.0-1.6","SS1613139638754","trial","","40","800","1511.4199999996927","images/stimuli/spore_stims/complex_16_B_c.gif","images/stimuli/spore_stims/complex_09_A_d.gif","","","","","10","complex_dissimilar","images/stimuli/spore_stims/complex_09_A_d.gif","right","","","","",""
"","null","html-keyboard-response","202","851974","0.0-38.0-0.7","SS1613139638754","","","null","","","","","<p><img src= images/blank.png width =""200"" height = ""200"" style = ""float:right""></p><p><img src=images/blank.png width =""800"" height = ""200""></p>","","","","","","","","","","","",""
"","115.12500000034925","sequential-stimulus-presentation","203","852897","0.0-38.0-1.7","SS1613139638754","trial","","40","800","915.1250000003492","images/stimuli/spore_stims/complex_16_B_c.gif","images/stimuli/spore_stims/complex_09_A_d.gif","","","","","10","complex_dissimilar","images/stimuli/spore_stims/complex_16_B_c.gif","middle","","","","",""
"","2233.1849999991246","html-keyboard-response","204","855137","0.0-39.0","SS1613139638754","pref_question","","50","","","","","<video width ='960' height = '540' style='padding-top:8%' autoplay muted><source src='images/stimuli/wall_pref.mp4' type='video/mp4'></video>","2","middle","45%","10","","","","","","","",""
"","1095.765000000014","sequential-stimulus-presentation","205","857042","0.0-40.0","SS1613139638754","pref_reveal","","40","800","1895.765000000014","null","null","","","","","10","","","","deviant","","","",""
"","null","html-keyboard-response","206","858335","0.0-41.0-0.0","SS1613139638754","","","null","","","","","<p><img src= images/blank.png width =""200"" height = ""200"" style = ""float:right""></p><p><img src=images/blank.png width =""800"" height = ""200""></p>","","","","","","","","","","","",""
"","325.5399999998044","sequential-stimulus-presentation","207","859489","0.0-41.0-1.0","SS1613139638754","trial","","40","800","1125.5399999998044","images/stimuli/spore_stims/simple_10_A_a.gif","images/stimuli/spore_stims/simple_19_B_a.gif","","","","","11","simple_dissimilar","images/stimuli/spore_stims/simple_19_B_a.gif","left","","","","",""
"","null","html-keyboard-response","208","860596","0.0-41.0-0.1","SS1613139638754","","","null","","","","","<p><img src= images/blank.png width =""200"" height = ""200"" style = ""float:right""></p><p><img src=images/blank.png width =""800"" height = ""200""></p>","","","","","","","","","","","",""
"","16483.734999999753","sequential-stimulus-presentation","209","877890","0.0-41.0-1.1","SS1613139638754","trial","","40","800","17283.734999999753","images/stimuli/spore_stims/simple_10_A_a.gif","images/stimuli/spore_stims/simple_19_B_a.gif","","","","","11","simple_dissimilar","images/stimuli/spore_stims/simple_19_B_a.gif","left","","","","",""
"","null","html-keyboard-response","210","878891","0.0-41.0-0.2","SS1613139638754","","","null","","","","","<p><img src= images/blank.png width =""200"" height = ""200"" style = ""float:right""></p><p><img src=images/blank.png width =""800"" height = ""200""></p>","","","","","","","","","","","",""
"","213933.3449999995","sequential-stimulus-presentation","211","1093634","0.0-41.0-1.2","SS1613139638754","trial","","40","800","214733.3449999995","images/stimuli/spore_stims/simple_10_A_a.gif","images/stimuli/spore_stims/simple_19_B_a.gif","","","","","11","simple_dissimilar","images/stimuli/spore_stims/simple_19_B_a.gif","left","","","","",""
"","null","html-keyboard-response","212","1094624","0.0-41.0-0.3","SS1613139638754","","","null","","","","","<p><img src= images/blank.png width =""200"" height = ""200"" style = ""float:right""></p><p><img src=images/blank.png width =""800"" height = ""200""></p>","","","","","","","","","","","",""
"","56.88000000012107","sequential-stimulus-presentation","213","1095488","0.0-41.0-1.3","SS1613139638754","trial","","40","800","856.8800000001211","images/stimuli/spore_stims/simple_10_A_a.gif","images/stimuli/spore_stims/simple_19_B_a.gif","","","","","11","simple_dissimilar","images/stimuli/spore_stims/simple_19_B_a.gif","left","","","","",""
"","null","html-keyboard-response","214","1096683","0.0-41.0-0.4","SS1613139638754","","","null","","","","","<p><img src= images/blank.png width =""200"" height = ""200"" style = ""float:right""></p><p><img src=images/blank.png width =""800"" height = ""200""></p>","","","","","","","","","","","",""
"","493.9050000011921","sequential-stimulus-presentation","215","1097985","0.0-41.0-1.4","SS1613139638754","trial","","40","800","1293.905000001192","images/stimuli/spore_stims/simple_10_A_a.gif","images/stimuli/spore_stims/simple_19_B_a.gif","","","","","11","simple_dissimilar","images/stimuli/spore_stims/simple_19_B_a.gif","left","","","","",""
"","null","html-keyboard-response","216","1099165","0.0-41.0-0.5","SS1613139638754","","","null","","","","","<p><img src= images/blank.png width =""200"" height = ""200"" style = ""float:right""></p><p><img src=images/blank.png width =""800"" height = ""200""></p>","","","","","","","","","","","",""
"","286.8650000002235","sequential-stimulus-presentation","217","1100449","0.0-41.0-1.5","SS1613139638754","trial","","40","800","1086.8650000002235","images/stimuli/spore_stims/simple_10_A_a.gif","images/stimuli/spore_stims/simple_19_B_a.gif","","","","","11","simple_dissimilar","images/stimuli/spore_stims/simple_10_A_a.gif","right","","","","",""
"","null","html-keyboard-response","218","1101672","0.0-41.0-0.6","SS1613139638754","","","null","","","","","<p><img src= images/blank.png width =""200"" height = ""200"" style = ""float:right""></p><p><img src=images/blank.png width =""800"" height = ""200""></p>","","","","","","","","","","","",""
"","1523.6749999984168","sequential-stimulus-presentation","219","1104005","0.0-41.0-1.6","SS1613139638754","trial","","40","800","2323.6749999984168","images/stimuli/spore_stims/simple_10_A_a.gif","images/stimuli/spore_stims/simple_19_B_a.gif","","","","","11","simple_dissimilar","images/stimuli/spore_stims/simple_19_B_a.gif","left","","","","",""
"","null","html-keyboard-response","220","1105056","0.0-41.0-0.7","SS1613139638754","","","null","","","","","<p><img src= images/blank.png width =""200"" height = ""200"" style = ""float:right""></p><p><img src=images/blank.png width =""800"" height = ""200""></p>","","","","","","","","","","","",""
"","408.52000000094995","sequential-stimulus-presentation","221","1106273","0.0-41.0-1.7","SS1613139638754","trial","","40","800","1208.52000000095","images/stimuli/spore_stims/simple_10_A_a.gif","images/stimuli/spore_stims/simple_19_B_a.gif","","","","","11","simple_dissimilar","images/stimuli/spore_stims/simple_19_B_a.gif","left","","","","",""
"","1607.8450000004377","html-keyboard-response","222","1107889","0.0-42.0","SS1613139638754","pref_question","","51","","","","","<video width ='960' height = '540' style='padding-top:8%' autoplay muted><source src='images/stimuli/wall_pref.mp4' type='video/mp4'></video>","3","right","66%","11","","","","","","","",""
"","567.25","sequential-stimulus-presentation","223","1109265","0.0-43.0","SS1613139638754","pref_reveal","","40","800","1367.25","null","null","","","","","11","","","","deviant","","","",""
"","null","html-keyboard-response","224","1110237","0.0-44.0-0.0","SS1613139638754","","","null","","","","","<p><img src= images/blank.png width =""200"" height = ""200"" style = ""float:right""></p><p><img src=images/blank.png width =""800"" height = ""200""></p>","","","","","","","","","","","",""
"","183.85500000114553","sequential-stimulus-presentation","225","1111233","0.0-44.0-1.0","SS1613139638754","trial","","40","800","983.8550000011455","images/stimuli/spore_stims/complex_17_B_d.gif","images/stimuli/spore_stims/complex_11_B_a.gif","","","","","12","complex_dissimilar","images/stimuli/spore_stims/complex_11_B_a.gif","left","","","","",""
"","null","html-keyboard-response","226","1112227","0.0-44.0-0.1","SS1613139638754","","","null","","","","","<p><img src= images/blank.png width =""200"" height = ""200"" style = ""float:right""></p><p><img src=images/blank.png width =""800"" height = ""200""></p>","","","","","","","","","","","",""
"","949.2900000005029","sequential-stimulus-presentation","227","1113985","0.0-44.0-1.1","SS1613139638754","trial","","40","800","1749.290000000503","images/stimuli/spore_stims/complex_17_B_d.gif","images/stimuli/spore_stims/complex_11_B_a.gif","","","","","12","complex_dissimilar","images/stimuli/spore_stims/complex_11_B_a.gif","left","","","","",""
"","null","html-keyboard-response","228","1115238","0.0-44.0-0.2","SS1613139638754","","","null","","","","","<p><img src= images/blank.png width =""200"" height = ""200"" style = ""float:right""></p><p><img src=images/blank.png width =""800"" height = ""200""></p>","","","","","","","","","","","",""
"","975.6100000012666","sequential-stimulus-presentation","229","1117025","0.0-44.0-1.2","SS1613139638754","trial","","40","800","1775.6100000012666","images/stimuli/spore_stims/complex_17_B_d.gif","images/stimuli/spore_stims/complex_11_B_a.gif","","","","","12","complex_dissimilar","images/stimuli/spore_stims/complex_11_B_a.gif","left","","","","",""
"","null","html-keyboard-response","230","1119166","0.0-44.0-0.3","SS1613139638754","","","null","","","","","<p><img src= images/blank.png width =""200"" height = ""200"" style = ""float:right""></p><p><img src=images/blank.png width =""800"" height = ""200""></p>","","","","","","","","","","","",""
"","1542.625","sequential-stimulus-presentation","231","1121709","0.0-44.0-1.3","SS1613139638754","trial","","40","800","2342.625","images/stimuli/spore_stims/complex_17_B_d.gif","images/stimuli/spore_stims/complex_11_B_a.gif","","","","","12","complex_dissimilar","images/stimuli/spore_stims/complex_11_B_a.gif","left","","","","",""
"","null","html-keyboard-response","232","1122796","0.0-44.0-0.4","SS1613139638754","","","null","","","","","<p><img src= images/blank.png width =""200"" height = ""200"" style = ""float:right""></p><p><img src=images/blank.png width =""800"" height = ""200""></p>","","","","","","","","","","","",""
"","3483.089999999618","sequential-stimulus-presentation","233","1127107","0.0-44.0-1.4","SS1613139638754","trial","","40","800","4283.089999999618","images/stimuli/spore_stims/complex_17_B_d.gif","images/stimuli/spore_stims/complex_11_B_a.gif","","","","","12","complex_dissimilar","images/stimuli/spore_stims/complex_17_B_d.gif","middle","","","","",""
"","null","html-keyboard-response","234","1128040","0.0-44.0-0.5","SS1613139638754","","","null","","","","","<p><img src= images/blank.png width =""200"" height = ""200"" style = ""float:right""></p><p><img src=images/blank.png width =""800"" height = ""200""></p>","","","","","","","","","","","",""
"","1776.0250000008382","sequential-stimulus-presentation","235","1130625","0.0-44.0-1.5","SS1613139638754","trial","","40","800","2576.025000000838","images/stimuli/spore_stims/complex_17_B_d.gif","images/stimuli/spore_stims/complex_11_B_a.gif","","","","","12","complex_dissimilar","images/stimuli/spore_stims/complex_11_B_a.gif","left","","","","",""
"","null","html-keyboard-response","236","1131572","0.0-44.0-0.6","SS1613139638754","","","null","","","","","<p><img src= images/blank.png width =""200"" height = ""200"" style = ""float:right""></p><p><img src=images/blank.png width =""800"" height = ""200""></p>","","","","","","","","","","","",""
"","371.2149999993853","sequential-stimulus-presentation","237","1132753","0.0-44.0-1.6","SS1613139638754","trial","","40","800","1171.2149999993853","images/stimuli/spore_stims/complex_17_B_d.gif","images/stimuli/spore_stims/complex_11_B_a.gif","","","","","12","complex_dissimilar","images/stimuli/spore_stims/complex_11_B_a.gif","left","","","","",""
"","null","html-keyboard-response","238","1133926","0.0-44.0-0.7","SS1613139638754","","","null","","","","","<p><img src= images/blank.png width =""200"" height = ""200"" style = ""float:right""></p><p><img src=images/blank.png width =""800"" height = ""200""></p>","","","","","","","","","","","",""
"","3650.729999999283","sequential-stimulus-presentation","239","1138387","0.0-44.0-1.7","SS1613139638754","trial","","40","800","4450.729999999283","images/stimuli/spore_stims/complex_17_B_d.gif","images/stimuli/spore_stims/complex_11_B_a.gif","","","","","12","complex_dissimilar","images/stimuli/spore_stims/complex_11_B_a.gif","left","","","","",""
"","5492.770000000717","html-keyboard-response","240","1143889","0.0-45.0","SS1613139638754","pref_question","","98","","","","","<video width ='960' height = '540' style='padding-top:8%' autoplay muted><source src='images/stimuli/wall_pref.mp4' type='video/mp4'></video>","2","middle","45%","12","","","","","","","",""
"","1908.3950000004843","sequential-stimulus-presentation","241","1146609","0.0-46.0","SS1613139638754","pref_reveal","","40","800","2708.3950000004843","null","null","","","","","12","","","","deviant","","","",""
"","null","html-keyboard-response","242","1147864","0.0-47.0-0.0","SS1613139638754","","","null","","","","","<p><img src= images/blank.png width =""200"" height = ""200"" style = ""float:right""></p><p><img src=images/blank.png width =""800"" height = ""200""></p>","","","","","","","","","","","",""
"","574.2850000006147","sequential-stimulus-presentation","243","1149249","0.0-47.0-1.0","SS1613139638754","trial","","40","800","1374.2850000006147","images/stimuli/spore_stims/complex_06_A_b.gif","images/stimuli/spore_stims/complex_13_B_a.gif","","","","","13","complex_dissimilar","images/stimuli/spore_stims/complex_13_B_a.gif","right","","","","",""
"","null","html-keyboard-response","244","1150180","0.0-47.0-0.1","SS1613139638754","","","null","","","","","<p><img src= images/blank.png width =""200"" height = ""200"" style = ""float:right""></p><p><img src=images/blank.png width =""800"" height = ""200""></p>","","","","","","","","","","","",""
"","6512.085000000428","sequential-stimulus-presentation","245","1157505","0.0-47.0-1.1","SS1613139638754","trial","","40","800","7312.085000000428","images/stimuli/spore_stims/complex_06_A_b.gif","images/stimuli/spore_stims/complex_13_B_a.gif","","","","","13","complex_dissimilar","images/stimuli/spore_stims/complex_13_B_a.gif","right","","","","",""
"","null","html-keyboard-response","246","1158549","0.0-47.0-0.2","SS1613139638754","","","null","","","","","<p><img src= images/blank.png width =""200"" height = ""200"" style = ""float:right""></p><p><img src=images/blank.png width =""800"" height = ""200""></p>","","","","","","","","","","","",""
"","959.7949999987613","sequential-stimulus-presentation","247","1160321","0.0-47.0-1.2","SS1613139638754","trial","","40","800","1759.7949999987613","images/stimuli/spore_stims/complex_06_A_b.gif","images/stimuli/spore_stims/complex_13_B_a.gif","","","","","13","complex_dissimilar","images/stimuli/spore_stims/complex_13_B_a.gif","right","","","","",""
"","null","html-keyboard-response","248","1161390","0.0-47.0-0.3","SS1613139638754","","","null","","","","","<p><img src= images/blank.png width =""200"" height = ""200"" style = ""float:right""></p><p><img src=images/blank.png width =""800"" height = ""200""></p>","","","","","","","","","","","",""
"","13691.114999999758","sequential-stimulus-presentation","249","1175889","0.0-47.0-1.3","SS1613139638754","trial","","40","800","14491.114999999758","images/stimuli/spore_stims/complex_06_A_b.gif","images/stimuli/spore_stims/complex_13_B_a.gif","","","","","13","complex_dissimilar","images/stimuli/spore_stims/complex_13_B_a.gif","right","","","","",""
"","null","html-keyboard-response","250","1177012","0.0-47.0-0.4","SS1613139638754","","","null","","","","","<p><img src= images/blank.png width =""200"" height = ""200"" style = ""float:right""></p><p><img src=images/blank.png width =""800"" height = ""200""></p>","","","","","","","","","","","",""
"","403.0799999998417","sequential-stimulus-presentation","251","1178225","0.0-47.0-1.4","SS1613139638754","trial","","40","800","1203.0799999998417","images/stimuli/spore_stims/complex_06_A_b.gif","images/stimuli/spore_stims/complex_13_B_a.gif","","","","","13","complex_dissimilar","images/stimuli/spore_stims/complex_13_B_a.gif","right","","","","",""
"","null","html-keyboard-response","252","1179506","0.0-47.0-0.5","SS1613139638754","","","null","","","","","<p><img src= images/blank.png width =""200"" height = ""200"" style = ""float:right""></p><p><img src=images/blank.png width =""800"" height = ""200""></p>","","","","","","","","","","","",""
"","5175.629999999888","sequential-stimulus-presentation","253","1185489","0.0-47.0-1.5","SS1613139638754","trial","","40","800","5975.629999999888","images/stimuli/spore_stims/complex_06_A_b.gif","images/stimuli/spore_stims/complex_13_B_a.gif","","","","","13","complex_dissimilar","images/stimuli/spore_stims/complex_13_B_a.gif","right","","","","",""
"","null","html-keyboard-response","254","1186376","0.0-47.0-0.6","SS1613139638754","","","null","","","","","<p><img src= images/blank.png width =""200"" height = ""200"" style = ""float:right""></p><p><img src=images/blank.png width =""800"" height = ""200""></p>","","","","","","","","","","","",""
"","286.474999998929","sequential-stimulus-presentation","255","1187473","0.0-47.0-1.6","SS1613139638754","trial","","40","800","1086.474999998929","images/stimuli/spore_stims/complex_06_A_b.gif","images/stimuli/spore_stims/complex_13_B_a.gif","","","","","13","complex_dissimilar","images/stimuli/spore_stims/complex_06_A_b.gif","left","","","","",""
"","null","html-keyboard-response","256","1188715","0.0-47.0-0.7","SS1613139638754","","","null","","","","","<p><img src= images/blank.png width =""200"" height = ""200"" style = ""float:right""></p><p><img src=images/blank.png width =""800"" height = ""200""></p>","","","","","","","","","","","",""
"","333.9049999995623","sequential-stimulus-presentation","257","1189857","0.0-47.0-1.7","SS1613139638754","trial","","40","800","1133.9049999995623","images/stimuli/spore_stims/complex_06_A_b.gif","images/stimuli/spore_stims/complex_13_B_a.gif","","","","","13","complex_dissimilar","images/stimuli/spore_stims/complex_13_B_a.gif","right","","","","",""
"","1416.5300000004936","html-keyboard-response","258","1191281","0.0-48.0","SS1613139638754","pref_question","","98","","","","","<video width ='960' height = '540' style='padding-top:8%' autoplay muted><source src='images/stimuli/wall_pref.mp4' type='video/mp4'></video>","2","middle","45%","13","","","","","","","",""
"","390.62999999988824","sequential-stimulus-presentation","259","1192481","0.0-49.0","SS1613139638754","pref_reveal","","40","800","1190.6299999998882","null","null","","","","","13","","","","novel","","","",""
"","null","html-keyboard-response","260","1193317","0.0-50.0-0.0","SS1613139638754","","","null","","","","","<p><img src= images/blank.png width =""200"" height = ""200"" style = ""float:right""></p><p><img src=images/blank.png width =""800"" height = ""200""></p>","","","","","","","","","","","",""
"","8546.244999999413","sequential-stimulus-presentation","261","1202673","0.0-50.0-1.0","SS1613139638754","trial","","40","800","9346.244999999413","images/stimuli/spore_stims/complex_19_B_d.gif","images/stimuli/spore_stims/complex_19_A_d.gif","","","","","14","complex_similar","images/stimuli/spore_stims/complex_19_A_d.gif","middle","","","","",""
"","null","html-keyboard-response","262","1203519","0.0-50.0-0.1","SS1613139638754","","","null","","","","","<p><img src= images/blank.png width =""200"" height = ""200"" style = ""float:right""></p><p><img src=images/blank.png width =""800"" height = ""200""></p>","","","","","","","","","","","",""
"","25.309999999124557","sequential-stimulus-presentation","263","1204369","0.0-50.0-1.1","SS1613139638754","trial","","40","800","825.3099999991246","images/stimuli/spore_stims/complex_19_B_d.gif","images/stimuli/spore_stims/complex_19_A_d.gif","","","","","14","complex_similar","images/stimuli/spore_stims/complex_19_A_d.gif","middle","","","","",""
"","null","html-keyboard-response","264","1205192","0.0-50.0-0.2","SS1613139638754","","","null","","","","","<p><img src= images/blank.png width =""200"" height = ""200"" style = ""float:right""></p><p><img src=images/blank.png width =""800"" height = ""200""></p>","","","","","","","","","","","",""
"","527.4850000005681","sequential-stimulus-presentation","265","1206529","0.0-50.0-1.2","SS1613139638754","trial","","40","800","1327.485000000568","images/stimuli/spore_stims/complex_19_B_d.gif","images/stimuli/spore_stims/complex_19_A_d.gif","","","","","14","complex_similar","images/stimuli/spore_stims/complex_19_A_d.gif","middle","","","","",""
"","null","html-keyboard-response","266","1207420","0.0-50.0-0.3","SS1613139638754","","","null","","","","","<p><img src= images/blank.png width =""200"" height = ""200"" style = ""float:right""></p><p><img src=images/blank.png width =""800"" height = ""200""></p>","","","","","","","","","","","",""
"","514.839999999851","sequential-stimulus-presentation","267","1208769","0.0-50.0-1.3","SS1613139638754","trial","","40","800","1314.839999999851","images/stimuli/spore_stims/complex_19_B_d.gif","images/stimuli/spore_stims/complex_19_A_d.gif","","","","","14","complex_similar","images/stimuli/spore_stims/complex_19_A_d.gif","middle","","","","",""
"","null","html-keyboard-response","268","1209755","0.0-50.0-0.4","SS1613139638754","","","null","","","","","<p><img src= images/blank.png width =""200"" height = ""200"" style = ""float:right""></p><p><img src=images/blank.png width =""800"" height = ""200""></p>","","","","","","","","","","","",""
"","496.87000000081025","sequential-stimulus-presentation","269","1211073","0.0-50.0-1.4","SS1613139638754","trial","","40","800","1296.8700000008103","images/stimuli/spore_stims/complex_19_B_d.gif","images/stimuli/spore_stims/complex_19_A_d.gif","","","","","14","complex_similar","images/stimuli/spore_stims/complex_19_B_d.gif","left","","","","",""
"","null","html-keyboard-response","270","1212048","0.0-50.0-0.5","SS1613139638754","","","null","","","","","<p><img src= images/blank.png width =""200"" height = ""200"" style = ""float:right""></p><p><img src=images/blank.png width =""800"" height = ""200""></p>","","","","","","","","","","","",""
"","777.8200000012293","sequential-stimulus-presentation","271","1213635","0.0-50.0-1.5","SS1613139638754","trial","","40","800","1577.8200000012293","images/stimuli/spore_stims/complex_19_B_d.gif","images/stimuli/spore_stims/complex_19_A_d.gif","","","","","14","complex_similar","images/stimuli/spore_stims/complex_19_A_d.gif","middle","","","","",""
"","null","html-keyboard-response","272","1214558","0.0-50.0-0.6","SS1613139638754","","","null","","","","","<p><img src= images/blank.png width =""200"" height = ""200"" style = ""float:right""></p><p><img src=images/blank.png width =""800"" height = ""200""></p>","","","","","","","","","","","",""
"","441.1899999997113","sequential-stimulus-presentation","273","1215809","0.0-50.0-1.6","SS1613139638754","trial","","40","800","1241.1899999997113","images/stimuli/spore_stims/complex_19_B_d.gif","images/stimuli/spore_stims/complex_19_A_d.gif","","","","","14","complex_similar","images/stimuli/spore_stims/complex_19_A_d.gif","middle","","","","",""
"","null","html-keyboard-response","274","1216824","0.0-50.0-0.7","SS1613139638754","","","null","","","","","<p><img src= images/blank.png width =""200"" height = ""200"" style = ""float:right""></p><p><img src=images/blank.png width =""800"" height = ""200""></p>","","","","","","","","","","","",""
"","486.8550000009127","sequential-stimulus-presentation","275","1218145","0.0-50.0-1.7","SS1613139638754","trial","","40","800","1286.8550000009127","images/stimuli/spore_stims/complex_19_B_d.gif","images/stimuli/spore_stims/complex_19_A_d.gif","","","","","14","complex_similar","images/stimuli/spore_stims/complex_19_A_d.gif","middle","","","","",""
"","1845.970000000205","html-keyboard-response","276","1220001","0.0-51.0","SS1613139638754","pref_question","","97","","","","","<video width ='960' height = '540' style='padding-top:8%' autoplay muted><source src='images/stimuli/wall_pref.mp4' type='video/mp4'></video>","1","left","25%","14","","","","","","","",""
"","855.0150000010617","sequential-stimulus-presentation","277","1221665","0.0-52.0","SS1613139638754","pref_reveal","","40","800","1655.0150000010617","null","null","","","","","14","","","","deviant","","","",""
"","null","html-keyboard-response","278","1222488","0.0-53.0-0.0","SS1613139638754","","","null","","","","","<p><img src= images/blank.png width =""200"" height = ""200"" style = ""float:right""></p><p><img src=images/blank.png width =""800"" height = ""200""></p>","","","","","","","","","","","",""
"","1321.545000000624","sequential-stimulus-presentation","279","1224625","0.0-53.0-1.0","SS1613139638754","trial","","40","800","2121.545000000624","images/stimuli/spore_stims/simple_19_A_b.gif","images/stimuli/spore_stims/simple_14_B_d.gif","","","","","15","simple_dissimilar","images/stimuli/spore_stims/simple_14_B_d.gif","left","","","","",""
"","null","html-keyboard-response","280","1225742","0.0-53.0-0.1","SS1613139638754","","","null","","","","","<p><img src= images/blank.png width =""200"" height = ""200"" style = ""float:right""></p><p><img src=images/blank.png width =""800"" height = ""200""></p>","","","","","","","","","","","",""
"","3862.7450000003446","sequential-stimulus-presentation","281","1230417","0.0-53.0-1.1","SS1613139638754","trial","","40","800","4662.745000000345","images/stimuli/spore_stims/simple_19_A_b.gif","images/stimuli/spore_stims/simple_14_B_d.gif","","","","","15","simple_dissimilar","images/stimuli/spore_stims/simple_14_B_d.gif","left","","","","",""
"","null","html-keyboard-response","282","1231558","0.0-53.0-0.2","SS1613139638754","","","null","","","","","<p><img src= images/blank.png width =""200"" height = ""200"" style = ""float:right""></p><p><img src=images/blank.png width =""800"" height = ""200""></p>","","","","","","","","","","","",""
"","5921.519999999786","sequential-stimulus-presentation","283","1238290","0.0-53.0-1.2","SS1613139638754","trial","","40","800","6721.519999999786","images/stimuli/spore_stims/simple_19_A_b.gif","images/stimuli/spore_stims/simple_14_B_d.gif","","","","","15","simple_dissimilar","images/stimuli/spore_stims/simple_19_A_b.gif","right","","","","",""
"","null","html-keyboard-response","284","1239179","0.0-53.0-0.3","SS1613139638754","","","null","","","","","<p><img src= images/blank.png width =""200"" height = ""200"" style = ""float:right""></p><p><img src=images/blank.png width =""800"" height = ""200""></p>","","","","","","","","","","","",""
"","5797.979999999283","sequential-stimulus-presentation","285","1245793","0.0-53.0-1.3","SS1613139638754","trial","","40","800","6597.979999999283","images/stimuli/spore_stims/simple_19_A_b.gif","images/stimuli/spore_stims/simple_14_B_d.gif","","","","","15","simple_dissimilar","images/stimuli/spore_stims/simple_14_B_d.gif","left","","","","",""
"","null","html-keyboard-response","286","1246846","0.0-53.0-0.4","SS1613139638754","","","null","","","","","<p><img src= images/blank.png width =""200"" height = ""200"" style = ""float:right""></p><p><img src=images/blank.png width =""800"" height = ""200""></p>","","","","","","","","","","","",""
"","409.05500000016764","sequential-stimulus-presentation","287","1248065","0.0-53.0-1.4","SS1613139638754","trial","","40","800","1209.0550000001676","images/stimuli/spore_stims/simple_19_A_b.gif","images/stimuli/spore_stims/simple_14_B_d.gif","","","","","15","simple_dissimilar","images/stimuli/spore_stims/simple_14_B_d.gif","left","","","","",""
"","null","html-keyboard-response","288","1249187","0.0-53.0-0.5","SS1613139638754","","","null","","","","","<p><img src= images/blank.png width =""200"" height = ""200"" style = ""float:right""></p><p><img src=images/blank.png width =""800"" height = ""200""></p>","","","","","","","","","","","",""
"","9833.719999998808","sequential-stimulus-presentation","289","1259842","0.0-53.0-1.5","SS1613139638754","trial","","40","800","10633.719999998808","images/stimuli/spore_stims/simple_19_A_b.gif","images/stimuli/spore_stims/simple_14_B_d.gif","","","","","15","simple_dissimilar","images/stimuli/spore_stims/simple_14_B_d.gif","left","","","","",""
"","null","html-keyboard-response","290","1260845","0.0-53.0-0.6","SS1613139638754","","","null","","","","","<p><img src= images/blank.png width =""200"" height = ""200"" style = ""float:right""></p><p><img src=images/blank.png width =""800"" height = ""200""></p>","","","","","","","","","","","",""
"","393.14999999990687","sequential-stimulus-presentation","291","1262049","0.0-53.0-1.6","SS1613139638754","trial","","40","800","1193.1499999999069","images/stimuli/spore_stims/simple_19_A_b.gif","images/stimuli/spore_stims/simple_14_B_d.gif","","","","","15","simple_dissimilar","images/stimuli/spore_stims/simple_14_B_d.gif","left","","","","",""
"","null","html-keyboard-response","292","1263317","0.0-53.0-0.7","SS1613139638754","","","null","","","","","<p><img src= images/blank.png width =""200"" height = ""200"" style = ""float:right""></p><p><img src=images/blank.png width =""800"" height = ""200""></p>","","","","","","","","","","","",""
"","4947.479999998817","sequential-stimulus-presentation","293","1269073","0.0-53.0-1.7","SS1613139638754","trial","","40","800","5747.479999998817","images/stimuli/spore_stims/simple_19_A_b.gif","images/stimuli/spore_stims/simple_14_B_d.gif","","","","","15","simple_dissimilar","images/stimuli/spore_stims/simple_14_B_d.gif","left","","","","",""
"","1608.3299999991432","html-keyboard-response","294","1270690","0.0-54.0","SS1613139638754","pref_question","","97","","","","","<video width ='960' height = '540' style='padding-top:8%' autoplay muted><source src='images/stimuli/wall_pref.mp4' type='video/mp4'></video>","1","left","25%","15","","","","","","","",""
"","390.1299999996554","sequential-stimulus-presentation","295","1271889","0.0-55.0","SS1613139638754","pref_reveal","","40","800","1190.1299999996554","null","null","","","","","15","","","","background","","","",""
"","null","html-keyboard-response","296","1272828","0.0-56.0-0.0","SS1613139638754","","","null","","","","","<p><img src= images/blank.png width =""200"" height = ""200"" style = ""float:right""></p><p><img src=images/blank.png width =""800"" height = ""200""></p>","","","","","","","","","","","",""
"","5944.999999999767","sequential-stimulus-presentation","297","1279585","0.0-56.0-1.0","SS1613139638754","trial","","40","800","6744.999999999767","images/stimuli/spore_stims/simple_17_B_b.gif","images/stimuli/spore_stims/simple_17_A_b.gif","","","","","16","simple_similar","images/stimuli/spore_stims/simple_17_A_b.gif","left","","","","",""
"","null","html-keyboard-response","298","1280715","0.0-56.0-0.1","SS1613139638754","","","null","","","","","<p><img src= images/blank.png width =""200"" height = ""200"" style = ""float:right""></p><p><img src=images/blank.png width =""800"" height = ""200""></p>","","","","","","","","","","","",""
"","495.44500000053085","sequential-stimulus-presentation","299","1282049","0.0-56.0-1.1","SS1613139638754","trial","","40","800","1295.4450000005309","images/stimuli/spore_stims/simple_17_B_b.gif","images/stimuli/spore_stims/simple_17_A_b.gif","","","","","16","simple_similar","images/stimuli/spore_stims/simple_17_A_b.gif","left","","","","",""
"","null","html-keyboard-response","300","1282952","0.0-56.0-0.2","SS1613139638754","","","null","","","","","<p><img src= images/blank.png width =""200"" height = ""200"" style = ""float:right""></p><p><img src=images/blank.png width =""800"" height = ""200""></p>","","","","","","","","","","","",""
"","607.4399999999441","sequential-stimulus-presentation","301","1284369","0.0-56.0-1.2","SS1613139638754","trial","","40","800","1407.4399999999441","images/stimuli/spore_stims/simple_17_B_b.gif","images/stimuli/spore_stims/simple_17_A_b.gif","","","","","16","simple_similar","images/stimuli/spore_stims/simple_17_A_b.gif","left","","","","",""
"","null","html-keyboard-response","302","1285465","0.0-56.0-0.3","SS1613139638754","","","null","","","","","<p><img src= images/blank.png width =""200"" height = ""200"" style = ""float:right""></p><p><img src=images/blank.png width =""800"" height = ""200""></p>","","","","","","","","","","","",""
"","462.1350000014063","sequential-stimulus-presentation","303","1286737","0.0-56.0-1.3","SS1613139638754","trial","","40","800","1262.1350000014063","images/stimuli/spore_stims/simple_17_B_b.gif","images/stimuli/spore_stims/simple_17_A_b.gif","","","","","16","simple_similar","images/stimuli/spore_stims/simple_17_B_b.gif","right","","","","",""
"","null","html-keyboard-response","304","1287638","0.0-56.0-0.4","SS1613139638754","","","null","","","","","<p><img src= images/blank.png width =""200"" height = ""200"" style = ""float:right""></p><p><img src=images/blank.png width =""800"" height = ""200""></p>","","","","","","","","","","","",""
"","7553.649999999907","sequential-stimulus-presentation","305","1296002","0.0-56.0-1.4","SS1613139638754","trial","","40","800","8353.649999999907","images/stimuli/spore_stims/simple_17_B_b.gif","images/stimuli/spore_stims/simple_17_A_b.gif","","","","","16","simple_similar","images/stimuli/spore_stims/simple_17_A_b.gif","left","","","","",""
"","null","html-keyboard-response","306","1297298","0.0-56.0-0.5","SS1613139638754","","","null","","","","","<p><img src= images/blank.png width =""200"" height = ""200"" style = ""float:right""></p><p><img src=images/blank.png width =""800"" height = ""200""></p>","","","","","","","","","","","",""
"","8304.739999999525","sequential-stimulus-presentation","307","1306418","0.0-56.0-1.5","SS1613139638754","trial","","40","800","9104.739999999525","images/stimuli/spore_stims/simple_17_B_b.gif","images/stimuli/spore_stims/simple_17_A_b.gif","","","","","16","simple_similar","images/stimuli/spore_stims/simple_17_A_b.gif","left","","","","",""
"","null","html-keyboard-response","308","1307413","0.0-56.0-0.6","SS1613139638754","","","null","","","","","<p><img src= images/blank.png width =""200"" height = ""200"" style = ""float:right""></p><p><img src=images/blank.png width =""800"" height = ""200""></p>","","","","","","","","","","","",""
"","578.6200000001118","sequential-stimulus-presentation","309","1308801","0.0-56.0-1.6","SS1613139638754","trial","","40","800","1378.6200000001118","images/stimuli/spore_stims/simple_17_B_b.gif","images/stimuli/spore_stims/simple_17_A_b.gif","","","","","16","simple_similar","images/stimuli/spore_stims/simple_17_A_b.gif","left","","","","",""
"","null","html-keyboard-response","310","1309887","0.0-56.0-0.7","SS1613139638754","","","null","","","","","<p><img src= images/blank.png width =""200"" height = ""200"" style = ""float:right""></p><p><img src=images/blank.png width =""800"" height = ""200""></p>","","","","","","","","","","","",""
"","359.03500000131316","sequential-stimulus-presentation","311","1311057","0.0-56.0-1.7","SS1613139638754","trial","","40","800","1159.0350000013132","images/stimuli/spore_stims/simple_17_B_b.gif","images/stimuli/spore_stims/simple_17_A_b.gif","","","","","16","simple_similar","images/stimuli/spore_stims/simple_17_A_b.gif","left","","","","",""
