"view_history","rt","trial_type","trial_index","time_elapsed","internal_node_id","subject","stimulus_type","trial_stimulus","key_press","minimum_viewing_duration","trial_looking_time","block_deviant","block_background","stimulus","wall_pref","location","location_percent","block_number","block_type","stimulus_displayed","position_displayed","stim_type_selected","responses","question_order","stimulus_left","stimulus_right"
"[{""page_index"":0,""viewing_time"":5171.0000000020955}]","5171.0000000020955","instructions","0","5174","0.0-0.0","SS1613098735687","","","","","","","","","","","","","","","","","","","",""
"[{""page_index"":0,""viewing_time"":2654.000000009546},{""page_index"":1,""viewing_time"":4846.999999979744}]","7502.000000007683","instructions","1","14677","0.0-1.0","SS1613098735687","instructions","","","","","","","","","","","","","","","","","","",""
"","1304.0000000037253","sequential-stimulus-presentation","2","16789","0.0-2.0","SS1613098735687","","","40","800","2104.0000000037253","null","null","","","","","","","","","","","","",""
"","1655.9999999881256","sequential-stimulus-presentation","3","19252","0.0-3.0","SS1613098735687","","","40","800","2455.9999999881256","null","null","","","","","","","","","","","","",""
"[{""page_index"":0,""viewing_time"":3621.000000013737}]","3622.000000003027","instructions","4","22876","0.0-4.0","SS1613098735687","instructions","","","","","","","","","","","","","","","","","","",""
"","2269.000000000233","html-keyboard-response","5","25149","0.0-5.0","SS1613098735687","instructions","","98","","","","","<video width ='960' height = '540' autoplay muted><source src='images/stimuli/wall_pref.mp4' type='video/mp4'></video>","2","middle","45%","","","","","","","","",""
"","1095.0000000011642","sequential-stimulus-presentation","6","27053","0.0-6.0","SS1613098735687","pref_reveal","","40","800","1895.0000000011642","null","null","","","","","","","","","","","","",""
"[{""page_index"":0,""viewing_time"":1654.000000009546},{""page_index"":1,""viewing_time"":2687.999999994645},{""page_index"":2,""viewing_time"":1111.0000000044238},{""page_index"":3,""viewing_time"":1071.9999999855645}]","6525.999999983469","instructions","7","33581","0.0-7.0","SS1613098735687","instructions","","","","","","","","","","","","","","","","","","",""
"","null","html-keyboard-response","8","34831","0.0-8.0-0.0","SS1613098735687","","","null","","","","","<p><img src= images/blank.png width =""200"" height = ""200"" style = ""float:right""></p><p><img src=images/blank.png width =""800"" height = ""200""></p>","","","","","","","","","","","",""
"","4895.999999978812","sequential-stimulus-presentation","9","40533","0.0-8.0-1.0","SS1613098735687","trial","","40","800","5695.999999978812","images/stimuli/spore_stims/simple_16_A_a.gif","images/stimuli/spore_stims/simple_16_B_a.gif","","","","","0","simple_similar","images/stimuli/spore_stims/simple_16_B_a.gif","middle","","","","",""
"","null","html-keyboard-response","10","41644","0.0-8.0-0.1","SS1613098735687","","","null","","","","","<p><img src= images/blank.png width =""200"" height = ""200"" style = ""float:right""></p><p><img src=images/blank.png width =""800"" height = ""200""></p>","","","","","","","","","","","",""
"","628.999999986263","sequential-stimulus-presentation","11","43078","0.0-8.0-1.1","SS1613098735687","trial","","40","800","1428.999999986263","images/stimuli/spore_stims/simple_16_A_a.gif","images/stimuli/spore_stims/simple_16_B_a.gif","","","","","0","simple_similar","images/stimuli/spore_stims/simple_16_B_a.gif","middle","","","","",""
"","null","html-keyboard-response","12","44046","0.0-8.0-0.2","SS1613098735687","","","null","","","","","<p><img src= images/blank.png width =""200"" height = ""200"" style = ""float:right""></p><p><img src=images/blank.png width =""800"" height = ""200""></p>","","","","","","","","","","","",""
"","806.0000000114087","sequential-stimulus-presentation","13","45657","0.0-8.0-1.2","SS1613098735687","trial","","40","800","1606.0000000114087","images/stimuli/spore_stims/simple_16_A_a.gif","images/stimuli/spore_stims/simple_16_B_a.gif","","","","","0","simple_similar","images/stimuli/spore_stims/simple_16_B_a.gif","middle","","","","",""
"","null","html-keyboard-response","14","46484","0.0-8.0-0.3","SS1613098735687","","","null","","","","","<p><img src= images/blank.png width =""200"" height = ""200"" style = ""float:right""></p><p><img src=images/blank.png width =""800"" height = ""200""></p>","","","","","","","","","","","",""
"","555.0000000221189","sequential-stimulus-presentation","15","47846","0.0-8.0-1.3","SS1613098735687","trial","","40","800","1355.000000022119","images/stimuli/spore_stims/simple_16_A_a.gif","images/stimuli/spore_stims/simple_16_B_a.gif","","","","","0","simple_similar","images/stimuli/spore_stims/simple_16_B_a.gif","middle","","","","",""
"","null","html-keyboard-response","16","49109","0.0-8.0-0.4","SS1613098735687","","","null","","","","","<p><img src= images/blank.png width =""200"" height = ""200"" style = ""float:right""></p><p><img src=images/blank.png width =""800"" height = ""200""></p>","","","","","","","","","","","",""
"","793.9999999944121","sequential-stimulus-presentation","17","50713","0.0-8.0-1.4","SS1613098735687","trial","","40","800","1593.999999994412","images/stimuli/spore_stims/simple_16_A_a.gif","images/stimuli/spore_stims/simple_16_B_a.gif","","","","","0","simple_similar","images/stimuli/spore_stims/simple_16_B_a.gif","middle","","","","",""
"","null","html-keyboard-response","18","51564","0.0-8.0-0.5","SS1613098735687","","","null","","","","","<p><img src= images/blank.png width =""200"" height = ""200"" style = ""float:right""></p><p><img src=images/blank.png width =""800"" height = ""200""></p>","","","","","","","","","","","",""
"","89.00000000721775","sequential-stimulus-presentation","19","52461","0.0-8.0-1.5","SS1613098735687","trial","","40","800","889.0000000072177","images/stimuli/spore_stims/simple_16_A_a.gif","images/stimuli/spore_stims/simple_16_B_a.gif","","","","","0","simple_similar","images/stimuli/spore_stims/simple_16_B_a.gif","middle","","","","",""
"","null","html-keyboard-response","20","53513","0.0-8.0-0.6","SS1613098735687","","","null","","","","","<p><img src= images/blank.png width =""200"" height = ""200"" style = ""float:right""></p><p><img src=images/blank.png width =""800"" height = ""200""></p>","","","","","","","","","","","",""
"","982.9999999783468","sequential-stimulus-presentation","21","55302","0.0-8.0-1.6","SS1613098735687","trial","","40","800","1782.9999999783468","images/stimuli/spore_stims/simple_16_A_a.gif","images/stimuli/spore_stims/simple_16_B_a.gif","","","","","0","simple_similar","images/stimuli/spore_stims/simple_16_A_a.gif","right","","","","",""
"","null","html-keyboard-response","22","56254","0.0-8.0-0.7","SS1613098735687","","","null","","","","","<p><img src= images/blank.png width =""200"" height = ""200"" style = ""float:right""></p><p><img src=images/blank.png width =""800"" height = ""200""></p>","","","","","","","","","","","",""
"","879.0000000153668","sequential-stimulus-presentation","23","57941","0.0-8.0-1.7","SS1613098735687","trial","","40","800","1679.0000000153668","images/stimuli/spore_stims/simple_16_A_a.gif","images/stimuli/spore_stims/simple_16_B_a.gif","","","","","0","simple_similar","images/stimuli/spore_stims/simple_16_B_a.gif","middle","","","","",""
"","1581.000000005588","html-keyboard-response","24","59526","0.0-9.0","SS1613098735687","pref_question","","98","","","","","<video width ='960' height = '540' style='padding-top:8%' autoplay muted><source src='images/stimuli/wall_pref.mp4' type='video/mp4'></video>","2","middle","45%","0","","","","","","","",""
"","1906.0000000172295","sequential-stimulus-presentation","25","62238","0.0-10.0","SS1613098735687","pref_reveal","","40","800","2706.0000000172295","null","null","","","","","0","","","","background","","","",""
"","null","html-keyboard-response","26","63484","0.0-11.0-0.0","SS1613098735687","","","null","","","","","<p><img src= images/blank.png width =""200"" height = ""200"" style = ""float:right""></p><p><img src=images/blank.png width =""800"" height = ""200""></p>","","","","","","","","","","","",""
"","834.9999999918509","sequential-stimulus-presentation","27","65124","0.0-11.0-1.0","SS1613098735687","trial","","40","800","1634.999999991851","images/stimuli/spore_stims/complex_17_B_b.gif","images/stimuli/spore_stims/complex_17_A_b.gif","","","","","1","complex_similar","images/stimuli/spore_stims/complex_17_A_b.gif","right","","","","",""
"","null","html-keyboard-response","28","66168","0.0-11.0-0.1","SS1613098735687","","","null","","","","","<p><img src= images/blank.png width =""200"" height = ""200"" style = ""float:right""></p><p><img src=images/blank.png width =""800"" height = ""200""></p>","","","","","","","","","","","",""
"","615.9999999799766","sequential-stimulus-presentation","29","67589","0.0-11.0-1.1","SS1613098735687","trial","","40","800","1415.9999999799766","images/stimuli/spore_stims/complex_17_B_b.gif","images/stimuli/spore_stims/complex_17_A_b.gif","","","","","1","complex_similar","images/stimuli/spore_stims/complex_17_A_b.gif","right","","","","",""
"","null","html-keyboard-response","30","68704","0.0-11.0-0.2","SS1613098735687","","","null","","","","","<p><img src= images/blank.png width =""200"" height = ""200"" style = ""float:right""></p><p><img src=images/blank.png width =""800"" height = ""200""></p>","","","","","","","","","","","",""
"","758.0000000016298","sequential-stimulus-presentation","31","70269","0.0-11.0-1.2","SS1613098735687","trial","","40","800","1558.0000000016298","images/stimuli/spore_stims/complex_17_B_b.gif","images/stimuli/spore_stims/complex_17_A_b.gif","","","","","1","complex_similar","images/stimuli/spore_stims/complex_17_A_b.gif","right","","","","",""
"","null","html-keyboard-response","32","71230","0.0-11.0-0.3","SS1613098735687","","","null","","","","","<p><img src= images/blank.png width =""200"" height = ""200"" style = ""float:right""></p><p><img src=images/blank.png width =""800"" height = ""200""></p>","","","","","","","","","","","",""
"","1353.9999999920838","sequential-stimulus-presentation","33","73390","0.0-11.0-1.3","SS1613098735687","trial","","40","800","2153.9999999920838","images/stimuli/spore_stims/complex_17_B_b.gif","images/stimuli/spore_stims/complex_17_A_b.gif","","","","","1","complex_similar","images/stimuli/spore_stims/complex_17_A_b.gif","right","","","","",""
"","null","html-keyboard-response","34","74564","0.0-11.0-0.4","SS1613098735687","","","null","","","","","<p><img src= images/blank.png width =""200"" height = ""200"" style = ""float:right""></p><p><img src=images/blank.png width =""800"" height = ""200""></p>","","","","","","","","","","","",""
"","16920.99999997299","sequential-stimulus-presentation","35","92294","0.0-11.0-1.4","SS1613098735687","trial","","40","800","17720.99999997299","images/stimuli/spore_stims/complex_17_B_b.gif","images/stimuli/spore_stims/complex_17_A_b.gif","","","","","1","complex_similar","images/stimuli/spore_stims/complex_17_A_b.gif","right","","","","",""
"","null","html-keyboard-response","36","93278","0.0-11.0-0.5","SS1613098735687","","","null","","","","","<p><img src= images/blank.png width =""200"" height = ""200"" style = ""float:right""></p><p><img src=images/blank.png width =""800"" height = ""200""></p>","","","","","","","","","","","",""
"","6133.99999999092","sequential-stimulus-presentation","37","100221","0.0-11.0-1.5","SS1613098735687","trial","","40","800","6933.99999999092","images/stimuli/spore_stims/complex_17_B_b.gif","images/stimuli/spore_stims/complex_17_A_b.gif","","","","","1","complex_similar","images/stimuli/spore_stims/complex_17_A_b.gif","right","","","","",""
"","null","html-keyboard-response","38","101519","0.0-11.0-0.6","SS1613098735687","","","null","","","","","<p><img src= images/blank.png width =""200"" height = ""200"" style = ""float:right""></p><p><img src=images/blank.png width =""800"" height = ""200""></p>","","","","","","","","","","","",""
"","554.9999999930151","sequential-stimulus-presentation","39","102882","0.0-11.0-1.6","SS1613098735687","trial","","40","800","1354.999999993015","images/stimuli/spore_stims/complex_17_B_b.gif","images/stimuli/spore_stims/complex_17_A_b.gif","","","","","1","complex_similar","images/stimuli/spore_stims/complex_17_B_b.gif","middle","","","","",""
"","null","html-keyboard-response","40","104064","0.0-11.0-0.7","SS1613098735687","","","null","","","","","<p><img src= images/blank.png width =""200"" height = ""200"" style = ""float:right""></p><p><img src=images/blank.png width =""800"" height = ""200""></p>","","","","","","","","","","","",""
"","883.9999999909196","sequential-stimulus-presentation","41","105774","0.0-11.0-1.7","SS1613098735687","trial","","40","800","1683.9999999909196","images/stimuli/spore_stims/complex_17_B_b.gif","images/stimuli/spore_stims/complex_17_A_b.gif","","","","","1","complex_similar","images/stimuli/spore_stims/complex_17_A_b.gif","right","","","","",""
"","3419.999999983702","html-keyboard-response","42","109198","0.0-12.0","SS1613098735687","pref_question","","98","","","","","<video width ='960' height = '540' style='padding-top:8%' autoplay muted><source src='images/stimuli/wall_pref.mp4' type='video/mp4'></video>","2","middle","45%","1","","","","","","","",""
"","9684.999999997672","sequential-stimulus-presentation","43","119689","0.0-13.0","SS1613098735687","pref_reveal","","40","800","10484.999999997672","null","null","","","","","1","","","","deviant","","","",""
"","null","html-keyboard-response","44","120651","0.0-14.0-0.0","SS1613098735687","","","null","","","","","<p><img src= images/blank.png width =""200"" height = ""200"" style = ""float:right""></p><p><img src=images/blank.png width =""800"" height = ""200""></p>","","","","","","","","","","","",""
"","31290.00000000815","sequential-stimulus-presentation","45","152749","0.0-14.0-1.0","SS1613098735687","trial","","40","800","32090.00000000815","images/stimuli/spore_stims/complex_16_B_c.gif","images/stimuli/spore_stims/complex_16_A_c.gif","","","","","2","complex_similar","images/stimuli/spore_stims/complex_16_A_c.gif","middle","","","","",""
"","null","html-keyboard-response","46","153925","0.0-14.0-0.1","SS1613098735687","","","null","","","","","<p><img src= images/blank.png width =""200"" height = ""200"" style = ""float:right""></p><p><img src=images/blank.png width =""800"" height = ""200""></p>","","","","","","","","","","","",""
"","19081.999999994878","sequential-stimulus-presentation","47","173813","0.0-14.0-1.1","SS1613098735687","trial","","40","800","19881.999999994878","images/stimuli/spore_stims/complex_16_B_c.gif","images/stimuli/spore_stims/complex_16_A_c.gif","","","","","2","complex_similar","images/stimuli/spore_stims/complex_16_A_c.gif","middle","","","","",""
"","null","html-keyboard-response","48","174740","0.0-14.0-0.2","SS1613098735687","","","null","","","","","<p><img src= images/blank.png width =""200"" height = ""200"" style = ""float:right""></p><p><img src=images/blank.png width =""800"" height = ""200""></p>","","","","","","","","","","","",""
"","14555.999999982305","sequential-stimulus-presentation","49","190103","0.0-14.0-1.2","SS1613098735687","trial","","40","800","15355.999999982305","images/stimuli/spore_stims/complex_16_B_c.gif","images/stimuli/spore_stims/complex_16_A_c.gif","","","","","2","complex_similar","images/stimuli/spore_stims/complex_16_A_c.gif","middle","","","","",""
"","null","html-keyboard-response","50","191056","0.0-14.0-0.3","SS1613098735687","","","null","","","","","<p><img src= images/blank.png width =""200"" height = ""200"" style = ""float:right""></p><p><img src=images/blank.png width =""800"" height = ""200""></p>","","","","","","","","","","","",""
"","2494.0000000060536","sequential-stimulus-presentation","51","195036","0.0-14.0-1.3","SS1613098735687","trial","","40","800","3294.0000000060536","images/stimuli/spore_stims/complex_16_B_c.gif","images/stimuli/spore_stims/complex_16_A_c.gif","","","","","2","complex_similar","images/stimuli/spore_stims/complex_16_A_c.gif","middle","","","","",""
"","null","html-keyboard-response","52","195898","0.0-14.0-0.4","SS1613098735687","","","null","","","","","<p><img src= images/blank.png width =""200"" height = ""200"" style = ""float:right""></p><p><img src=images/blank.png width =""800"" height = ""200""></p>","","","","","","","","","","","",""
"","58862.999999983","sequential-stimulus-presentation","53","255569","0.0-14.0-1.4","SS1613098735687","trial","","40","800","59662.999999983","images/stimuli/spore_stims/complex_16_B_c.gif","images/stimuli/spore_stims/complex_16_A_c.gif","","","","","2","complex_similar","images/stimuli/spore_stims/complex_16_A_c.gif","middle","","","","",""
"","null","html-keyboard-response","54","256562","0.0-14.0-0.5","SS1613098735687","","","null","","","","","<p><img src= images/blank.png width =""200"" height = ""200"" style = ""float:right""></p><p><img src=images/blank.png width =""800"" height = ""200""></p>","","","","","","","","","","","",""
"","11145.000000018626","sequential-stimulus-presentation","55","268520","0.0-14.0-1.5","SS1613098735687","trial","","40","800","11945.000000018626","images/stimuli/spore_stims/complex_16_B_c.gif","images/stimuli/spore_stims/complex_16_A_c.gif","","","","","2","complex_similar","images/stimuli/spore_stims/complex_16_A_c.gif","middle","","","","",""
"","null","html-keyboard-response","56","269555","0.0-14.0-0.6","SS1613098735687","","","null","","","","","<p><img src= images/blank.png width =""200"" height = ""200"" style = ""float:right""></p><p><img src=images/blank.png width =""800"" height = ""200""></p>","","","","","","","","","","","",""
"","23494.000000006054","sequential-stimulus-presentation","57","293858","0.0-14.0-1.6","SS1613098735687","trial","","40","800","24294.000000006054","images/stimuli/spore_stims/complex_16_B_c.gif","images/stimuli/spore_stims/complex_16_A_c.gif","","","","","2","complex_similar","images/stimuli/spore_stims/complex_16_A_c.gif","middle","","","","",""
"","null","html-keyboard-response","58","294709","0.0-14.0-0.7","SS1613098735687","","","null","","","","","<p><img src= images/blank.png width =""200"" height = ""200"" style = ""float:right""></p><p><img src=images/blank.png width =""800"" height = ""200""></p>","","","","","","","","","","","",""
"","1514.999999984866","sequential-stimulus-presentation","59","297032","0.0-14.0-1.7","SS1613098735687","trial","","40","800","2314.999999984866","images/stimuli/spore_stims/complex_16_B_c.gif","images/stimuli/spore_stims/complex_16_A_c.gif","","","","","2","complex_similar","images/stimuli/spore_stims/complex_16_B_c.gif","right","","","","",""
"","3393.000000010943","html-keyboard-response","60","300430","0.0-15.0","SS1613098735687","pref_question","","98","","","","","<video width ='960' height = '540' style='padding-top:8%' autoplay muted><source src='images/stimuli/wall_pref.mp4' type='video/mp4'></video>","2","middle","45%","2","","","","","","","",""
"","2828.9999999979045","sequential-stimulus-presentation","61","304068","0.0-16.0","SS1613098735687","pref_reveal","","40","800","3628.9999999979045","null","null","","","","","2","","","","background","","","",""
"","null","html-keyboard-response","62","305220","0.0-17.0-0.0","SS1613098735687","","","null","","","","","<p><img src= images/blank.png width =""200"" height = ""200"" style = ""float:right""></p><p><img src=images/blank.png width =""800"" height = ""200""></p>","","","","","","","","","","","",""
"","810.9999999869615","sequential-stimulus-presentation","63","306845","0.0-17.0-1.0","SS1613098735687","trial","","40","800","1610.9999999869615","images/stimuli/spore_stims/simple_19_B_c.gif","images/stimuli/spore_stims/simple_19_A_c.gif","","","","","3","simple_similar","images/stimuli/spore_stims/simple_19_A_c.gif","middle","","","","",""
"","null","html-keyboard-response","64","307663","0.0-17.0-0.1","SS1613098735687","","","null","","","","","<p><img src= images/blank.png width =""200"" height = ""200"" style = ""float:right""></p><p><img src=images/blank.png width =""800"" height = ""200""></p>","","","","","","","","","","","",""
"","3608.9999999967404","sequential-stimulus-presentation","65","312078","0.0-17.0-1.1","SS1613098735687","trial","","40","800","4408.99999999674","images/stimuli/spore_stims/simple_19_B_c.gif","images/stimuli/spore_stims/simple_19_A_c.gif","","","","","3","simple_similar","images/stimuli/spore_stims/simple_19_A_c.gif","middle","","","","",""
"","null","html-keyboard-response","66","312899","0.0-17.0-0.2","SS1613098735687","","","null","","","","","<p><img src= images/blank.png width =""200"" height = ""200"" style = ""float:right""></p><p><img src=images/blank.png width =""800"" height = ""200""></p>","","","","","","","","","","","",""
"","4528.999999980442","sequential-stimulus-presentation","67","318233","0.0-17.0-1.2","SS1613098735687","trial","","40","800","5328.999999980442","images/stimuli/spore_stims/simple_19_B_c.gif","images/stimuli/spore_stims/simple_19_A_c.gif","","","","","3","simple_similar","images/stimuli/spore_stims/simple_19_B_c.gif","right","","","","",""
"","null","html-keyboard-response","68","319390","0.0-17.0-0.3","SS1613098735687","","","null","","","","","<p><img src= images/blank.png width =""200"" height = ""200"" style = ""float:right""></p><p><img src=images/blank.png width =""800"" height = ""200""></p>","","","","","","","","","","","",""
"","680.9999999823049","sequential-stimulus-presentation","69","320877","0.0-17.0-1.3","SS1613098735687","trial","","40","800","1480.9999999823049","images/stimuli/spore_stims/simple_19_B_c.gif","images/stimuli/spore_stims/simple_19_A_c.gif","","","","","3","simple_similar","images/stimuli/spore_stims/simple_19_A_c.gif","middle","","","","",""
"","null","html-keyboard-response","70","321758","0.0-17.0-0.4","SS1613098735687","","","null","","","","","<p><img src= images/blank.png width =""200"" height = ""200"" style = ""float:right""></p><p><img src=images/blank.png width =""800"" height = ""200""></p>","","","","","","","","","","","",""
"","1870.9999999846332","sequential-stimulus-presentation","71","324437","0.0-17.0-1.4","SS1613098735687","trial","","40","800","2670.999999984633","images/stimuli/spore_stims/simple_19_B_c.gif","images/stimuli/spore_stims/simple_19_A_c.gif","","","","","3","simple_similar","images/stimuli/spore_stims/simple_19_A_c.gif","middle","","","","",""
"","null","html-keyboard-response","72","325487","0.0-17.0-0.5","SS1613098735687","","","null","","","","","<p><img src= images/blank.png width =""200"" height = ""200"" style = ""float:right""></p><p><img src=images/blank.png width =""800"" height = ""200""></p>","","","","","","","","","","","",""
"","81.00000000558794","sequential-stimulus-presentation","73","326374","0.0-17.0-1.5","SS1613098735687","trial","","40","800","881.0000000055879","images/stimuli/spore_stims/simple_19_B_c.gif","images/stimuli/spore_stims/simple_19_A_c.gif","","","","","3","simple_similar","images/stimuli/spore_stims/simple_19_A_c.gif","middle","","","","",""
"","null","html-keyboard-response","74","327603","0.0-17.0-0.6","SS1613098735687","","","null","","","","","<p><img src= images/blank.png width =""200"" height = ""200"" style = ""float:right""></p><p><img src=images/blank.png width =""800"" height = ""200""></p>","","","","","","","","","","","",""
"","4622.000000003027","sequential-stimulus-presentation","75","333031","0.0-17.0-1.6","SS1613098735687","trial","","40","800","5422.000000003027","images/stimuli/spore_stims/simple_19_B_c.gif","images/stimuli/spore_stims/simple_19_A_c.gif","","","","","3","simple_similar","images/stimuli/spore_stims/simple_19_A_c.gif","middle","","","","",""
"","null","html-keyboard-response","76","334118","0.0-17.0-0.7","SS1613098735687","","","null","","","","","<p><img src= images/blank.png width =""200"" height = ""200"" style = ""float:right""></p><p><img src=images/blank.png width =""800"" height = ""200""></p>","","","","","","","","","","","",""
"","2551.999999996042","sequential-stimulus-presentation","77","337478","0.0-17.0-1.7","SS1613098735687","trial","","40","800","3351.999999996042","images/stimuli/spore_stims/simple_19_B_c.gif","images/stimuli/spore_stims/simple_19_A_c.gif","","","","","3","simple_similar","images/stimuli/spore_stims/simple_19_A_c.gif","middle","","","","",""
"","4467.000000004191","html-keyboard-response","78","341949","0.0-18.0","SS1613098735687","pref_question","","97","","","","","<video width ='960' height = '540' style='padding-top:8%' autoplay muted><source src='images/stimuli/wall_pref.mp4' type='video/mp4'></video>","1","left","25%","3","","","","","","","",""
"","24082.999999984168","sequential-stimulus-presentation","79","366839","0.0-19.0","SS1613098735687","pref_reveal","","40","800","24882.999999984168","null","null","","","","","3","","","","novel","","","",""
"","null","html-keyboard-response","80","368026","0.0-20.0-0.0","SS1613098735687","","","null","","","","","<p><img src= images/blank.png width =""200"" height = ""200"" style = ""float:right""></p><p><img src=images/blank.png width =""800"" height = ""200""></p>","","","","","","","","","","","",""
"","5891.999999992549","sequential-stimulus-presentation","81","374725","0.0-20.0-1.0","SS1613098735687","trial","","40","800","6691.999999992549","images/stimuli/spore_stims/complex_06_B_c.gif","images/stimuli/spore_stims/complex_06_A_c.gif","","","","","4","complex_similar","images/stimuli/spore_stims/complex_06_A_c.gif","left","","","","",""
"","null","html-keyboard-response","82","375806","0.0-20.0-0.1","SS1613098735687","","","null","","","","","<p><img src= images/blank.png width =""200"" height = ""200"" style = ""float:right""></p><p><img src=images/blank.png width =""800"" height = ""200""></p>","","","","","","","","","","","",""
"","6233.000000007451","sequential-stimulus-presentation","83","382848","0.0-20.0-1.1","SS1613098735687","trial","","40","800","7033.000000007451","images/stimuli/spore_stims/complex_06_B_c.gif","images/stimuli/spore_stims/complex_06_A_c.gif","","","","","4","complex_similar","images/stimuli/spore_stims/complex_06_A_c.gif","left","","","","",""
"","null","html-keyboard-response","84","384130","0.0-20.0-0.2","SS1613098735687","","","null","","","","","<p><img src= images/blank.png width =""200"" height = ""200"" style = ""float:right""></p><p><img src=images/blank.png width =""800"" height = ""200""></p>","","","","","","","","","","","",""
"","2274.9999999941792","sequential-stimulus-presentation","85","387213","0.0-20.0-1.2","SS1613098735687","trial","","40","800","3074.9999999941792","images/stimuli/spore_stims/complex_06_B_c.gif","images/stimuli/spore_stims/complex_06_A_c.gif","","","","","4","complex_similar","images/stimuli/spore_stims/complex_06_B_c.gif","right","","","","",""
"","null","html-keyboard-response","86","388465","0.0-20.0-0.3","SS1613098735687","","","null","","","","","<p><img src= images/blank.png width =""200"" height = ""200"" style = ""float:right""></p><p><img src=images/blank.png width =""800"" height = ""200""></p>","","","","","","","","","","","",""
"","2311.0000000160653","sequential-stimulus-presentation","87","391583","0.0-20.0-1.3","SS1613098735687","trial","","40","800","3111.0000000160653","images/stimuli/spore_stims/complex_06_B_c.gif","images/stimuli/spore_stims/complex_06_A_c.gif","","","","","4","complex_similar","images/stimuli/spore_stims/complex_06_A_c.gif","left","","","","",""
"","null","html-keyboard-response","88","392779","0.0-20.0-0.4","SS1613098735687","","","null","","","","","<p><img src= images/blank.png width =""200"" height = ""200"" style = ""float:right""></p><p><img src=images/blank.png width =""800"" height = ""200""></p>","","","","","","","","","","","",""
"","1012.0000000169966","sequential-stimulus-presentation","89","394599","0.0-20.0-1.4","SS1613098735687","trial","","40","800","1812.0000000169966","images/stimuli/spore_stims/complex_06_B_c.gif","images/stimuli/spore_stims/complex_06_A_c.gif","","","","","4","complex_similar","images/stimuli/spore_stims/complex_06_A_c.gif","left","","","","",""
"","null","html-keyboard-response","90","395792","0.0-20.0-0.5","SS1613098735687","","","null","","","","","<p><img src= images/blank.png width =""200"" height = ""200"" style = ""float:right""></p><p><img src=images/blank.png width =""800"" height = ""200""></p>","","","","","","","","","","","",""
"","1333.0000000132713","sequential-stimulus-presentation","91","397933","0.0-20.0-1.5","SS1613098735687","trial","","40","800","2133.0000000132713","images/stimuli/spore_stims/complex_06_B_c.gif","images/stimuli/spore_stims/complex_06_A_c.gif","","","","","4","complex_similar","images/stimuli/spore_stims/complex_06_A_c.gif","left","","","","",""
"","null","html-keyboard-response","92","399221","0.0-20.0-0.6","SS1613098735687","","","null","","","","","<p><img src= images/blank.png width =""200"" height = ""200"" style = ""float:right""></p><p><img src=images/blank.png width =""800"" height = ""200""></p>","","","","","","","","","","","",""
"","1250.9999999892898","sequential-stimulus-presentation","93","401285","0.0-20.0-1.6","SS1613098735687","trial","","40","800","2050.99999998929","images/stimuli/spore_stims/complex_06_B_c.gif","images/stimuli/spore_stims/complex_06_A_c.gif","","","","","4","complex_similar","images/stimuli/spore_stims/complex_06_A_c.gif","left","","","","",""
"","null","html-keyboard-response","94","402266","0.0-20.0-0.7","SS1613098735687","","","null","","","","","<p><img src= images/blank.png width =""200"" height = ""200"" style = ""float:right""></p><p><img src=images/blank.png width =""800"" height = ""200""></p>","","","","","","","","","","","",""
"","1877.0000000076834","sequential-stimulus-presentation","95","404950","0.0-20.0-1.7","SS1613098735687","trial","","40","800","2677.0000000076834","images/stimuli/spore_stims/complex_06_B_c.gif","images/stimuli/spore_stims/complex_06_A_c.gif","","","","","4","complex_similar","images/stimuli/spore_stims/complex_06_A_c.gif","left","","","","",""
"","3595.999999990454","html-keyboard-response","96","408551","0.0-21.0","SS1613098735687","pref_question","","98","","","","","<video width ='960' height = '540' style='padding-top:8%' autoplay muted><source src='images/stimuli/wall_pref.mp4' type='video/mp4'></video>","2","middle","45%","4","","","","","","","",""
"","3095.999999990454","sequential-stimulus-presentation","97","412453","0.0-22.0","SS1613098735687","pref_reveal","","40","800","3895.999999990454","null","null","","","","","4","","","","novel","","","",""
"","null","html-keyboard-response","98","413719","0.0-23.0-0.0","SS1613098735687","","","null","","","","","<p><img src= images/blank.png width =""200"" height = ""200"" style = ""float:right""></p><p><img src=images/blank.png width =""800"" height = ""200""></p>","","","","","","","","","","","",""
"","1221.0000000195578","sequential-stimulus-presentation","99","415782","0.0-23.0-1.0","SS1613098735687","trial","","40","800","2021.0000000195578","images/stimuli/spore_stims/simple_07_A_b.gif","images/stimuli/spore_stims/simple_13_A_d.gif","","","","","5","simple_dissimilar","images/stimuli/spore_stims/simple_13_A_d.gif","middle","","","","",""
"","null","html-keyboard-response","100","416771","0.0-23.0-0.1","SS1613098735687","","","null","","","","","<p><img src= images/blank.png width =""200"" height = ""200"" style = ""float:right""></p><p><img src=images/blank.png width =""800"" height = ""200""></p>","","","","","","","","","","","",""
"","5234.99999998603","sequential-stimulus-presentation","101","422811","0.0-23.0-1.1","SS1613098735687","trial","","40","800","6034.99999998603","images/stimuli/spore_stims/simple_07_A_b.gif","images/stimuli/spore_stims/simple_13_A_d.gif","","","","","5","simple_dissimilar","images/stimuli/spore_stims/simple_13_A_d.gif","middle","","","","",""
"","null","html-keyboard-response","102","423853","0.0-23.0-0.2","SS1613098735687","","","null","","","","","<p><img src= images/blank.png width =""200"" height = ""200"" style = ""float:right""></p><p><img src=images/blank.png width =""800"" height = ""200""></p>","","","","","","","","","","","",""
"","1157.0000000065193","sequential-stimulus-presentation","103","425820","0.0-23.0-1.2","SS1613098735687","trial","","40","800","1957.0000000065193","images/stimuli/spore_stims/simple_07_A_b.gif","images/stimuli/spore_stims/simple_13_A_d.gif","","","","","5","simple_dissimilar","images/stimuli/spore_stims/simple_13_A_d.gif","middle","","","","",""
"","null","html-keyboard-response","104","426889","0.0-23.0-0.3","SS1613098735687","","","null","","","","","<p><img src= images/blank.png width =""200"" height = ""200"" style = ""float:right""></p><p><img src=images/blank.png width =""800"" height = ""200""></p>","","","","","","","","","","","",""
"","3563.9999999839347","sequential-stimulus-presentation","105","431259","0.0-23.0-1.3","SS1613098735687","trial","","40","800","4363.999999983935","images/stimuli/spore_stims/simple_07_A_b.gif","images/stimuli/spore_stims/simple_13_A_d.gif","","","","","5","simple_dissimilar","images/stimuli/spore_stims/simple_07_A_b.gif","right","","","","",""
"","null","html-keyboard-response","106","432244","0.0-23.0-0.4","SS1613098735687","","","null","","","","","<p><img src= images/blank.png width =""200"" height = ""200"" style = ""float:right""></p><p><img src=images/blank.png width =""800"" height = ""200""></p>","","","","","","","","","","","",""
"","4684.999999997672","sequential-stimulus-presentation","107","437737","0.0-23.0-1.4","SS1613098735687","trial","","40","800","5484.999999997672","images/stimuli/spore_stims/simple_07_A_b.gif","images/stimuli/spore_stims/simple_13_A_d.gif","","","","","5","simple_dissimilar","images/stimuli/spore_stims/simple_13_A_d.gif","middle","","","","",""
"","null","html-keyboard-response","108","438966","0.0-23.0-0.5","SS1613098735687","","","null","","","","","<p><img src= images/blank.png width =""200"" height = ""200"" style = ""float:right""></p><p><img src=images/blank.png width =""800"" height = ""200""></p>","","","","","","","","","","","",""
"","1302.9999999853317","sequential-stimulus-presentation","109","441076","0.0-23.0-1.5","SS1613098735687","trial","","40","800","2102.9999999853317","images/stimuli/spore_stims/simple_07_A_b.gif","images/stimuli/spore_stims/simple_13_A_d.gif","","","","","5","simple_dissimilar","images/stimuli/spore_stims/simple_13_A_d.gif","middle","","","","",""
"","null","html-keyboard-response","110","442094","0.0-23.0-0.6","SS1613098735687","","","null","","","","","<p><img src= images/blank.png width =""200"" height = ""200"" style = ""float:right""></p><p><img src=images/blank.png width =""800"" height = ""200""></p>","","","","","","","","","","","",""
"","2142.0000000216532","sequential-stimulus-presentation","111","445045","0.0-23.0-1.6","SS1613098735687","trial","","40","800","2942.0000000216532","images/stimuli/spore_stims/simple_07_A_b.gif","images/stimuli/spore_stims/simple_13_A_d.gif","","","","","5","simple_dissimilar","images/stimuli/spore_stims/simple_13_A_d.gif","middle","","","","",""
"","null","html-keyboard-response","112","445900","0.0-23.0-0.7","SS1613098735687","","","null","","","","","<p><img src= images/blank.png width =""200"" height = ""200"" style = ""float:right""></p><p><img src=images/blank.png width =""800"" height = ""200""></p>","","","","","","","","","","","",""
"","3971.000000019558","sequential-stimulus-presentation","113","450679","0.0-23.0-1.7","SS1613098735687","trial","","40","800","4771.000000019558","images/stimuli/spore_stims/simple_07_A_b.gif","images/stimuli/spore_stims/simple_13_A_d.gif","","","","","5","simple_dissimilar","images/stimuli/spore_stims/simple_13_A_d.gif","middle","","","","",""
"","2839.0000000072177","html-keyboard-response","114","453524","0.0-24.0","SS1613098735687","pref_question","","97","","","","","<video width ='960' height = '540' style='padding-top:8%' autoplay muted><source src='images/stimuli/wall_pref.mp4' type='video/mp4'></video>","1","left","25%","5","","","","","","","",""
"","4040.999999997439","sequential-stimulus-presentation","115","458372","0.0-25.0","SS1613098735687","pref_reveal","","40","800","4840.999999997439","null","null","","","","","5","","","","novel","","","",""
"","null","html-keyboard-response","116","459281","0.0-26.0-0.0","SS1613098735687","","","null","","","","","<p><img src= images/blank.png width =""200"" height = ""200"" style = ""float:right""></p><p><img src=images/blank.png width =""800"" height = ""200""></p>","","","","","","","","","","","",""
"","142.9999999818392","sequential-stimulus-presentation","117","460237","0.0-26.0-1.0","SS1613098735687","trial","","40","800","942.9999999818392","images/stimuli/spore_stims/complex_10_B_c.gif","images/stimuli/spore_stims/complex_12_B_b.gif","","","","","6","complex_dissimilar","images/stimuli/spore_stims/complex_12_B_b.gif","right","","","","",""
"","null","html-keyboard-response","118","461054","0.0-26.0-0.1","SS1613098735687","","","null","","","","","<p><img src= images/blank.png width =""200"" height = ""200"" style = ""float:right""></p><p><img src=images/blank.png width =""800"" height = ""200""></p>","","","","","","","","","","","",""
"","3718.0000000225846","sequential-stimulus-presentation","119","465613","0.0-26.0-1.1","SS1613098735687","trial","","40","800","4518.000000022585","images/stimuli/spore_stims/complex_10_B_c.gif","images/stimuli/spore_stims/complex_12_B_b.gif","","","","","6","complex_dissimilar","images/stimuli/spore_stims/complex_12_B_b.gif","right","","","","",""
"","null","html-keyboard-response","120","466450","0.0-26.0-0.2","SS1613098735687","","","null","","","","","<p><img src= images/blank.png width =""200"" height = ""200"" style = ""float:right""></p><p><img src=images/blank.png width =""800"" height = ""200""></p>","","","","","","","","","","","",""
"","3186.9999999762513","sequential-stimulus-presentation","121","470446","0.0-26.0-1.2","SS1613098735687","trial","","40","800","3986.9999999762513","images/stimuli/spore_stims/complex_10_B_c.gif","images/stimuli/spore_stims/complex_12_B_b.gif","","","","","6","complex_dissimilar","images/stimuli/spore_stims/complex_12_B_b.gif","right","","","","",""
"","null","html-keyboard-response","122","471302","0.0-26.0-0.3","SS1613098735687","","","null","","","","","<p><img src= images/blank.png width =""200"" height = ""200"" style = ""float:right""></p><p><img src=images/blank.png width =""800"" height = ""200""></p>","","","","","","","","","","","",""
"","407.00000000651926","sequential-stimulus-presentation","123","472517","0.0-26.0-1.3","SS1613098735687","trial","","40","800","1207.0000000065193","images/stimuli/spore_stims/complex_10_B_c.gif","images/stimuli/spore_stims/complex_12_B_b.gif","","","","","6","complex_dissimilar","images/stimuli/spore_stims/complex_12_B_b.gif","right","","","","",""
"","null","html-keyboard-response","124","473626","0.0-26.0-0.4","SS1613098735687","","","null","","","","","<p><img src= images/blank.png width =""200"" height = ""200"" style = ""float:right""></p><p><img src=images/blank.png width =""800"" height = ""200""></p>","","","","","","","","","","","",""
"","1361.9999999937136","sequential-stimulus-presentation","125","475798","0.0-26.0-1.4","SS1613098735687","trial","","40","800","2161.9999999937136","images/stimuli/spore_stims/complex_10_B_c.gif","images/stimuli/spore_stims/complex_12_B_b.gif","","","","","6","complex_dissimilar","images/stimuli/spore_stims/complex_12_B_b.gif","right","","","","",""
"","null","html-keyboard-response","126","476735","0.0-26.0-0.5","SS1613098735687","","","null","","","","","<p><img src= images/blank.png width =""200"" height = ""200"" style = ""float:right""></p><p><img src=images/blank.png width =""800"" height = ""200""></p>","","","","","","","","","","","",""
"","1429.0000000037253","sequential-stimulus-presentation","127","478972","0.0-26.0-1.5","SS1613098735687","trial","","40","800","2229.0000000037253","images/stimuli/spore_stims/complex_10_B_c.gif","images/stimuli/spore_stims/complex_12_B_b.gif","","","","","6","complex_dissimilar","images/stimuli/spore_stims/complex_12_B_b.gif","right","","","","",""
"","null","html-keyboard-response","128","480174","0.0-26.0-0.6","SS1613098735687","","","null","","","","","<p><img src= images/blank.png width =""200"" height = ""200"" style = ""float:right""></p><p><img src=images/blank.png width =""800"" height = ""200""></p>","","","","","","","","","","","",""
"","1414.9999999790452","sequential-stimulus-presentation","129","482397","0.0-26.0-1.6","SS1613098735687","trial","","40","800","2214.9999999790452","images/stimuli/spore_stims/complex_10_B_c.gif","images/stimuli/spore_stims/complex_12_B_b.gif","","","","","6","complex_dissimilar","images/stimuli/spore_stims/complex_12_B_b.gif","right","","","","",""
"","null","html-keyboard-response","130","483585","0.0-26.0-0.7","SS1613098735687","","","null","","","","","<p><img src= images/blank.png width =""200"" height = ""200"" style = ""float:right""></p><p><img src=images/blank.png width =""800"" height = ""200""></p>","","","","","","","","","","","",""
"","339.99999999650754","sequential-stimulus-presentation","131","484733","0.0-26.0-1.7","SS1613098735687","trial","","40","800","1139.9999999965075","images/stimuli/spore_stims/complex_10_B_c.gif","images/stimuli/spore_stims/complex_12_B_b.gif","","","","","6","complex_dissimilar","images/stimuli/spore_stims/complex_10_B_c.gif","middle","","","","",""
"","3944.999999977881","html-keyboard-response","132","488685","0.0-27.0","SS1613098735687","pref_question","","97","","","","","<video width ='960' height = '540' style='padding-top:8%' autoplay muted><source src='images/stimuli/wall_pref.mp4' type='video/mp4'></video>","1","left","25%","6","","","","","","","",""
"","2974.000000016531","sequential-stimulus-presentation","133","492477","0.0-28.0","SS1613098735687","pref_reveal","","40","800","3774.000000016531","null","null","","","","","6","","","","novel","","","",""
"","null","html-keyboard-response","134","493352","0.0-29.0-0.0","SS1613098735687","","","null","","","","","<p><img src= images/blank.png width =""200"" height = ""200"" style = ""float:right""></p><p><img src=images/blank.png width =""800"" height = ""200""></p>","","","","","","","","","","","",""
"","4008.00000000163","sequential-stimulus-presentation","135","498167","0.0-29.0-1.0","SS1613098735687","trial","","40","800","4808.00000000163","images/stimuli/spore_stims/complex_05_B_b.gif","images/stimuli/spore_stims/complex_15_A_d.gif","","","","","7","complex_dissimilar","images/stimuli/spore_stims/complex_15_A_d.gif","middle","","","","",""
"","null","html-keyboard-response","136","499351","0.0-29.0-0.1","SS1613098735687","","","null","","","","","<p><img src= images/blank.png width =""200"" height = ""200"" style = ""float:right""></p><p><img src=images/blank.png width =""800"" height = ""200""></p>","","","","","","","","","","","",""
"","4681.000000011409","sequential-stimulus-presentation","137","504838","0.0-29.0-1.1","SS1613098735687","trial","","40","800","5481.000000011409","images/stimuli/spore_stims/complex_05_B_b.gif","images/stimuli/spore_stims/complex_15_A_d.gif","","","","","7","complex_dissimilar","images/stimuli/spore_stims/complex_15_A_d.gif","middle","","","","",""
"","null","html-keyboard-response","138","505671","0.0-29.0-0.2","SS1613098735687","","","null","","","","","<p><img src= images/blank.png width =""200"" height = ""200"" style = ""float:right""></p><p><img src=images/blank.png width =""800"" height = ""200""></p>","","","","","","","","","","","",""
"","478.99999999208376","sequential-stimulus-presentation","139","506957","0.0-29.0-1.2","SS1613098735687","trial","","40","800","1278.9999999920838","images/stimuli/spore_stims/complex_05_B_b.gif","images/stimuli/spore_stims/complex_15_A_d.gif","","","","","7","complex_dissimilar","images/stimuli/spore_stims/complex_15_A_d.gif","middle","","","","",""
"","null","html-keyboard-response","140","507769","0.0-29.0-0.3","SS1613098735687","","","null","","","","","<p><img src= images/blank.png width =""200"" height = ""200"" style = ""float:right""></p><p><img src=images/blank.png width =""800"" height = ""200""></p>","","","","","","","","","","","",""
"","723.9999999874271","sequential-stimulus-presentation","141","509302","0.0-29.0-1.3","SS1613098735687","trial","","40","800","1523.9999999874271","images/stimuli/spore_stims/complex_05_B_b.gif","images/stimuli/spore_stims/complex_15_A_d.gif","","","","","7","complex_dissimilar","images/stimuli/spore_stims/complex_05_B_b.gif","left","","","","",""
"","null","html-keyboard-response","142","510581","0.0-29.0-0.4","SS1613098735687","","","null","","","","","<p><img src= images/blank.png width =""200"" height = ""200"" style = ""float:right""></p><p><img src=images/blank.png width =""800"" height = ""200""></p>","","","","","","","","","","","",""
"","441.0000000207219","sequential-stimulus-presentation","143","511830","0.0-29.0-1.4","SS1613098735687","trial","","40","800","1241.000000020722","images/stimuli/spore_stims/complex_05_B_b.gif","images/stimuli/spore_stims/complex_15_A_d.gif","","","","","7","complex_dissimilar","images/stimuli/spore_stims/complex_15_A_d.gif","middle","","","","",""
"","null","html-keyboard-response","144","512704","0.0-29.0-0.5","SS1613098735687","","","null","","","","","<p><img src= images/blank.png width =""200"" height = ""200"" style = ""float:right""></p><p><img src=images/blank.png width =""800"" height = ""200""></p>","","","","","","","","","","","",""
"","1684.9999999976717","sequential-stimulus-presentation","145","515197","0.0-29.0-1.5","SS1613098735687","trial","","40","800","2484.9999999976717","images/stimuli/spore_stims/complex_05_B_b.gif","images/stimuli/spore_stims/complex_15_A_d.gif","","","","","7","complex_dissimilar","images/stimuli/spore_stims/complex_15_A_d.gif","middle","","","","",""
"","null","html-keyboard-response","146","516163","0.0-29.0-0.6","SS1613098735687","","","null","","","","","<p><img src= images/blank.png width =""200"" height = ""200"" style = ""float:right""></p><p><img src=images/blank.png width =""800"" height = ""200""></p>","","","","","","","","","","","",""
"","6164.999999979045","sequential-stimulus-presentation","147","523135","0.0-29.0-1.6","SS1613098735687","trial","","40","800","6964.999999979045","images/stimuli/spore_stims/complex_05_B_b.gif","images/stimuli/spore_stims/complex_15_A_d.gif","","","","","7","complex_dissimilar","images/stimuli/spore_stims/complex_15_A_d.gif","middle","","","","",""
"","null","html-keyboard-response","148","523992","0.0-29.0-0.7","SS1613098735687","","","null","","","","","<p><img src= images/blank.png width =""200"" height = ""200"" style = ""float:right""></p><p><img src=images/blank.png width =""800"" height = ""200""></p>","","","","","","","","","","","",""
"","5557.0000000006985","sequential-stimulus-presentation","149","530358","0.0-29.0-1.7","SS1613098735687","trial","","40","800","6357.0000000006985","images/stimuli/spore_stims/complex_05_B_b.gif","images/stimuli/spore_stims/complex_15_A_d.gif","","","","","7","complex_dissimilar","images/stimuli/spore_stims/complex_15_A_d.gif","middle","","","","",""
"","3976.9999999844003","html-keyboard-response","150","534341","0.0-30.0","SS1613098735687","pref_question","","97","","","","","<video width ='960' height = '540' style='padding-top:8%' autoplay muted><source src='images/stimuli/wall_pref.mp4' type='video/mp4'></video>","1","left","25%","7","","","","","","","",""
"","1429.999999993015","sequential-stimulus-presentation","151","536581","0.0-31.0","SS1613098735687","pref_reveal","","40","800","2229.999999993015","null","null","","","","","7","","","","deviant","","","",""
"","null","html-keyboard-response","152","537395","0.0-32.0-0.0","SS1613098735687","","","null","","","","","<p><img src= images/blank.png width =""200"" height = ""200"" style = ""float:right""></p><p><img src=images/blank.png width =""800"" height = ""200""></p>","","","","","","","","","","","",""
"","4874.00000001071","sequential-stimulus-presentation","153","543077","0.0-32.0-1.0","SS1613098735687","trial","","40","800","5674.00000001071","images/stimuli/spore_stims/complex_02_B_b.gif","images/stimuli/spore_stims/complex_18_A_c.gif","","","","","8","complex_dissimilar","images/stimuli/spore_stims/complex_18_A_c.gif","left","","","","",""
"","null","html-keyboard-response","154","544102","0.0-32.0-0.1","SS1613098735687","","","null","","","","","<p><img src= images/blank.png width =""200"" height = ""200"" style = ""float:right""></p><p><img src=images/blank.png width =""800"" height = ""200""></p>","","","","","","","","","","","",""
"","4804.000000003725","sequential-stimulus-presentation","155","549721","0.0-32.0-1.1","SS1613098735687","trial","","40","800","5604.000000003725","images/stimuli/spore_stims/complex_02_B_b.gif","images/stimuli/spore_stims/complex_18_A_c.gif","","","","","8","complex_dissimilar","images/stimuli/spore_stims/complex_18_A_c.gif","left","","","","",""
"","null","html-keyboard-response","156","550747","0.0-32.0-0.2","SS1613098735687","","","null","","","","","<p><img src= images/blank.png width =""200"" height = ""200"" style = ""float:right""></p><p><img src=images/blank.png width =""800"" height = ""200""></p>","","","","","","","","","","","",""
"","1466.0000000149012","sequential-stimulus-presentation","157","553029","0.0-32.0-1.2","SS1613098735687","trial","","40","800","2266.000000014901","images/stimuli/spore_stims/complex_02_B_b.gif","images/stimuli/spore_stims/complex_18_A_c.gif","","","","","8","complex_dissimilar","images/stimuli/spore_stims/complex_18_A_c.gif","left","","","","",""
"","null","html-keyboard-response","158","554323","0.0-32.0-0.3","SS1613098735687","","","null","","","","","<p><img src= images/blank.png width =""200"" height = ""200"" style = ""float:right""></p><p><img src=images/blank.png width =""800"" height = ""200""></p>","","","","","","","","","","","",""
"","467.00000000419095","sequential-stimulus-presentation","159","555597","0.0-32.0-1.3","SS1613098735687","trial","","40","800","1267.000000004191","images/stimuli/spore_stims/complex_02_B_b.gif","images/stimuli/spore_stims/complex_18_A_c.gif","","","","","8","complex_dissimilar","images/stimuli/spore_stims/complex_18_A_c.gif","left","","","","",""
"","null","html-keyboard-response","160","556439","0.0-32.0-0.4","SS1613098735687","","","null","","","","","<p><img src= images/blank.png width =""200"" height = ""200"" style = ""float:right""></p><p><img src=images/blank.png width =""800"" height = ""200""></p>","","","","","","","","","","","",""
"","982.0000000181608","sequential-stimulus-presentation","161","558229","0.0-32.0-1.4","SS1613098735687","trial","","40","800","1782.0000000181608","images/stimuli/spore_stims/complex_02_B_b.gif","images/stimuli/spore_stims/complex_18_A_c.gif","","","","","8","complex_dissimilar","images/stimuli/spore_stims/complex_18_A_c.gif","left","","","","",""
"","null","html-keyboard-response","162","559515","0.0-32.0-0.5","SS1613098735687","","","null","","","","","<p><img src= images/blank.png width =""200"" height = ""200"" style = ""float:right""></p><p><img src=images/blank.png width =""800"" height = ""200""></p>","","","","","","","","","","","",""
"","638.0000000062864","sequential-stimulus-presentation","163","560960","0.0-32.0-1.5","SS1613098735687","trial","","40","800","1438.0000000062864","images/stimuli/spore_stims/complex_02_B_b.gif","images/stimuli/spore_stims/complex_18_A_c.gif","","","","","8","complex_dissimilar","images/stimuli/spore_stims/complex_18_A_c.gif","left","","","","",""
"","null","html-keyboard-response","164","562248","0.0-32.0-0.6","SS1613098735687","","","null","","","","","<p><img src= images/blank.png width =""200"" height = ""200"" style = ""float:right""></p><p><img src=images/blank.png width =""800"" height = ""200""></p>","","","","","","","","","","","",""
"","139.999999984866","sequential-stimulus-presentation","165","563196","0.0-32.0-1.6","SS1613098735687","trial","","40","800","939.999999984866","images/stimuli/spore_stims/complex_02_B_b.gif","images/stimuli/spore_stims/complex_18_A_c.gif","","","","","8","complex_dissimilar","images/stimuli/spore_stims/complex_18_A_c.gif","left","","","","",""
"","null","html-keyboard-response","166","564300","0.0-32.0-0.7","SS1613098735687","","","null","","","","","<p><img src= images/blank.png width =""200"" height = ""200"" style = ""float:right""></p><p><img src=images/blank.png width =""800"" height = ""200""></p>","","","","","","","","","","","",""
"","3040.000000008149","sequential-stimulus-presentation","167","568150","0.0-32.0-1.7","SS1613098735687","trial","","40","800","3840.000000008149","images/stimuli/spore_stims/complex_02_B_b.gif","images/stimuli/spore_stims/complex_18_A_c.gif","","","","","8","complex_dissimilar","images/stimuli/spore_stims/complex_02_B_b.gif","middle","","","","",""
"","3094.0000000118744","html-keyboard-response","168","571253","0.0-33.0","SS1613098735687","pref_question","","97","","","","","<video width ='960' height = '540' style='padding-top:8%' autoplay muted><source src='images/stimuli/wall_pref.mp4' type='video/mp4'></video>","1","left","25%","8","","","","","","","",""
"","2274.9999999941792","sequential-stimulus-presentation","169","574340","0.0-34.0","SS1613098735687","pref_reveal","","40","800","3074.9999999941792","null","null","","","","","8","","","","background","","","",""
"","null","html-keyboard-response","170","575531","0.0-35.0-0.0","SS1613098735687","","","null","","","","","<p><img src= images/blank.png width =""200"" height = ""200"" style = ""float:right""></p><p><img src=images/blank.png width =""800"" height = ""200""></p>","","","","","","","","","","","",""
"","3196.9999999855645","sequential-stimulus-presentation","171","579541","0.0-35.0-1.0","SS1613098735687","trial","","40","800","3996.9999999855645","images/stimuli/spore_stims/complex_01_B_b.gif","images/stimuli/spore_stims/complex_05_A_c.gif","","","","","9","complex_dissimilar","images/stimuli/spore_stims/complex_05_A_c.gif","right","","","","",""
"","null","html-keyboard-response","172","580640","0.0-35.0-0.1","SS1613098735687","","","null","","","","","<p><img src= images/blank.png width =""200"" height = ""200"" style = ""float:right""></p><p><img src=images/blank.png width =""800"" height = ""200""></p>","","","","","","","","","","","",""
"","1060.9999999869615","sequential-stimulus-presentation","173","582510","0.0-35.0-1.1","SS1613098735687","trial","","40","800","1860.9999999869615","images/stimuli/spore_stims/complex_01_B_b.gif","images/stimuli/spore_stims/complex_05_A_c.gif","","","","","9","complex_dissimilar","images/stimuli/spore_stims/complex_05_A_c.gif","right","","","","",""
"","null","html-keyboard-response","174","583459","0.0-35.0-0.2","SS1613098735687","","","null","","","","","<p><img src= images/blank.png width =""200"" height = ""200"" style = ""float:right""></p><p><img src=images/blank.png width =""800"" height = ""200""></p>","","","","","","","","","","","",""
"","3065.999999991618","sequential-stimulus-presentation","175","587333","0.0-35.0-1.2","SS1613098735687","trial","","40","800","3865.999999991618","images/stimuli/spore_stims/complex_01_B_b.gif","images/stimuli/spore_stims/complex_05_A_c.gif","","","","","9","complex_dissimilar","images/stimuli/spore_stims/complex_05_A_c.gif","right","","","","",""
"","null","html-keyboard-response","176","588625","0.0-35.0-0.3","SS1613098735687","","","null","","","","","<p><img src= images/blank.png width =""200"" height = ""200"" style = ""float:right""></p><p><img src=images/blank.png width =""800"" height = ""200""></p>","","","","","","","","","","","",""
"","3961.9999999995343","sequential-stimulus-presentation","177","593396","0.0-35.0-1.3","SS1613098735687","trial","","40","800","4761.999999999534","images/stimuli/spore_stims/complex_01_B_b.gif","images/stimuli/spore_stims/complex_05_A_c.gif","","","","","9","complex_dissimilar","images/stimuli/spore_stims/complex_05_A_c.gif","right","","","","",""
"","null","html-keyboard-response","178","594275","0.0-35.0-0.4","SS1613098735687","","","null","","","","","<p><img src= images/blank.png width =""200"" height = ""200"" style = ""float:right""></p><p><img src=images/blank.png width =""800"" height = ""200""></p>","","","","","","","","","","","",""
"","4110.99999997532","sequential-stimulus-presentation","179","599195","0.0-35.0-1.4","SS1613098735687","trial","","40","800","4910.99999997532","images/stimuli/spore_stims/complex_01_B_b.gif","images/stimuli/spore_stims/complex_05_A_c.gif","","","","","9","complex_dissimilar","images/stimuli/spore_stims/complex_01_B_b.gif","left","","","","",""
"","null","html-keyboard-response","180","600106","0.0-35.0-0.5","SS1613098735687","","","null","","","","","<p><img src= images/blank.png width =""200"" height = ""200"" style = ""float:right""></p><p><img src=images/blank.png width =""800"" height = ""200""></p>","","","","","","","","","","","",""
"","1557.0000000006985","sequential-stimulus-presentation","181","602474","0.0-35.0-1.5","SS1613098735687","trial","","40","800","2357.0000000006985","images/stimuli/spore_stims/complex_01_B_b.gif","images/stimuli/spore_stims/complex_05_A_c.gif","","","","","9","complex_dissimilar","images/stimuli/spore_stims/complex_05_A_c.gif","right","","","","",""
"","null","html-keyboard-response","182","603557","0.0-35.0-0.6","SS1613098735687","","","null","","","","","<p><img src= images/blank.png width =""200"" height = ""200"" style = ""float:right""></p><p><img src=images/blank.png width =""800"" height = ""200""></p>","","","","","","","","","","","",""
"","2823.000000003958","sequential-stimulus-presentation","183","607188","0.0-35.0-1.6","SS1613098735687","trial","","40","800","3623.000000003958","images/stimuli/spore_stims/complex_01_B_b.gif","images/stimuli/spore_stims/complex_05_A_c.gif","","","","","9","complex_dissimilar","images/stimuli/spore_stims/complex_05_A_c.gif","right","","","","",""
"","null","html-keyboard-response","184","608210","0.0-35.0-0.7","SS1613098735687","","","null","","","","","<p><img src= images/blank.png width =""200"" height = ""200"" style = ""float:right""></p><p><img src=images/blank.png width =""800"" height = ""200""></p>","","","","","","","","","","","",""
"","1937.000000005355","sequential-stimulus-presentation","185","610956","0.0-35.0-1.7","SS1613098735687","trial","","40","800","2737.000000005355","images/stimuli/spore_stims/complex_01_B_b.gif","images/stimuli/spore_stims/complex_05_A_c.gif","","","","","9","complex_dissimilar","images/stimuli/spore_stims/complex_05_A_c.gif","right","","","","",""
"","2488.000000012107","html-keyboard-response","186","613452","0.0-36.0","SS1613098735687","pref_question","","98","","","","","<video width ='960' height = '540' style='padding-top:8%' autoplay muted><source src='images/stimuli/wall_pref.mp4' type='video/mp4'></video>","2","middle","45%","9","","","","","","","",""
"","1584.999999991851","sequential-stimulus-presentation","187","615846","0.0-37.0","SS1613098735687","pref_reveal","","40","800","2384.999999991851","null","null","","","","","9","","","","novel","","","",""
"","null","html-keyboard-response","188","616818","0.0-38.0-0.0","SS1613098735687","","","null","","","","","<p><img src= images/blank.png width =""200"" height = ""200"" style = ""float:right""></p><p><img src=images/blank.png width =""800"" height = ""200""></p>","","","","","","","","","","","",""
"","769.9999999895226","sequential-stimulus-presentation","189","618395","0.0-38.0-1.0","SS1613098735687","trial","","40","800","1569.9999999895226","images/stimuli/spore_stims/simple_17_B_b.gif","images/stimuli/spore_stims/simple_17_A_b.gif","","","","","10","simple_similar","images/stimuli/spore_stims/simple_17_A_b.gif","right","","","","",""
"","null","html-keyboard-response","190","619421","0.0-38.0-0.1","SS1613098735687","","","null","","","","","<p><img src= images/blank.png width =""200"" height = ""200"" style = ""float:right""></p><p><img src=images/blank.png width =""800"" height = ""200""></p>","","","","","","","","","","","",""
"","6084.999999991851","sequential-stimulus-presentation","191","626343","0.0-38.0-1.1","SS1613098735687","trial","","40","800","6884.999999991851","images/stimuli/spore_stims/simple_17_B_b.gif","images/stimuli/spore_stims/simple_17_A_b.gif","","","","","10","simple_similar","images/stimuli/spore_stims/simple_17_A_b.gif","right","","","","",""
"","null","html-keyboard-response","192","627189","0.0-38.0-0.2","SS1613098735687","","","null","","","","","<p><img src= images/blank.png width =""200"" height = ""200"" style = ""float:right""></p><p><img src=images/blank.png width =""800"" height = ""200""></p>","","","","","","","","","","","",""
"","2109.99999998603","sequential-stimulus-presentation","193","630108","0.0-38.0-1.2","SS1613098735687","trial","","40","800","2909.99999998603","images/stimuli/spore_stims/simple_17_B_b.gif","images/stimuli/spore_stims/simple_17_A_b.gif","","","","","10","simple_similar","images/stimuli/spore_stims/simple_17_B_b.gif","left","","","","",""
"","null","html-keyboard-response","194","631052","0.0-38.0-0.3","SS1613098735687","","","null","","","","","<p><img src= images/blank.png width =""200"" height = ""200"" style = ""float:right""></p><p><img src=images/blank.png width =""800"" height = ""200""></p>","","","","","","","","","","","",""
"","535.9999999927823","sequential-stimulus-presentation","195","632404","0.0-38.0-1.3","SS1613098735687","trial","","40","800","1335.9999999927823","images/stimuli/spore_stims/simple_17_B_b.gif","images/stimuli/spore_stims/simple_17_A_b.gif","","","","","10","simple_similar","images/stimuli/spore_stims/simple_17_A_b.gif","right","","","","",""
"","null","html-keyboard-response","196","633474","0.0-38.0-0.4","SS1613098735687","","","null","","","","","<p><img src= images/blank.png width =""200"" height = ""200"" style = ""float:right""></p><p><img src=images/blank.png width =""800"" height = ""200""></p>","","","","","","","","","","","",""
"","1408.9999999850988","sequential-stimulus-presentation","197","635691","0.0-38.0-1.4","SS1613098735687","trial","","40","800","2208.999999985099","images/stimuli/spore_stims/simple_17_B_b.gif","images/stimuli/spore_stims/simple_17_A_b.gif","","","","","10","simple_similar","images/stimuli/spore_stims/simple_17_A_b.gif","right","","","","",""
"","null","html-keyboard-response","198","636913","0.0-38.0-0.5","SS1613098735687","","","null","","","","","<p><img src= images/blank.png width =""200"" height = ""200"" style = ""float:right""></p><p><img src=images/blank.png width =""800"" height = ""200""></p>","","","","","","","","","","","",""
"","2395.0000000186265","sequential-stimulus-presentation","199","640116","0.0-38.0-1.5","SS1613098735687","trial","","40","800","3195.0000000186265","images/stimuli/spore_stims/simple_17_B_b.gif","images/stimuli/spore_stims/simple_17_A_b.gif","","","","","10","simple_similar","images/stimuli/spore_stims/simple_17_A_b.gif","right","","","","",""
"","null","html-keyboard-response","200","641258","0.0-38.0-0.6","SS1613098735687","","","null","","","","","<p><img src= images/blank.png width =""200"" height = ""200"" style = ""float:right""></p><p><img src=images/blank.png width =""800"" height = ""200""></p>","","","","","","","","","","","",""
"","1223.9999999874271","sequential-stimulus-presentation","201","643292","0.0-38.0-1.6","SS1613098735687","trial","","40","800","2023.9999999874271","images/stimuli/spore_stims/simple_17_B_b.gif","images/stimuli/spore_stims/simple_17_A_b.gif","","","","","10","simple_similar","images/stimuli/spore_stims/simple_17_A_b.gif","right","","","","",""
"","null","html-keyboard-response","202","644415","0.0-38.0-0.7","SS1613098735687","","","null","","","","","<p><img src= images/blank.png width =""200"" height = ""200"" style = ""float:right""></p><p><img src=images/blank.png width =""800"" height = ""200""></p>","","","","","","","","","","","",""
"","1546.0000000020955","sequential-stimulus-presentation","203","646773","0.0-38.0-1.7","SS1613098735687","trial","","40","800","2346.0000000020955","images/stimuli/spore_stims/simple_17_B_b.gif","images/stimuli/spore_stims/simple_17_A_b.gif","","","","","10","simple_similar","images/stimuli/spore_stims/simple_17_A_b.gif","right","","","","",""
"","4616.00000000908","html-keyboard-response","204","651398","0.0-39.0","SS1613098735687","pref_question","","97","","","","","<video width ='960' height = '540' style='padding-top:8%' autoplay muted><source src='images/stimuli/wall_pref.mp4' type='video/mp4'></video>","1","left","25%","10","","","","","","","",""
"","2030.0000000279397","sequential-stimulus-presentation","205","654237","0.0-40.0","SS1613098735687","pref_reveal","","40","800","2830.0000000279397","null","null","","","","","10","","","","deviant","","","",""
"","null","html-keyboard-response","206","655104","0.0-41.0-0.0","SS1613098735687","","","null","","","","","<p><img src= images/blank.png width =""200"" height = ""200"" style = ""float:right""></p><p><img src=images/blank.png width =""800"" height = ""200""></p>","","","","","","","","","","","",""
"","3354.9999999813735","sequential-stimulus-presentation","207","659268","0.0-41.0-1.0","SS1613098735687","trial","","40","800","4154.999999981374","images/stimuli/spore_stims/complex_07_B_c.gif","images/stimuli/spore_stims/complex_07_A_c.gif","","","","","11","complex_similar","images/stimuli/spore_stims/complex_07_A_c.gif","right","","","","",""
"","null","html-keyboard-response","208","660339","0.0-41.0-0.1","SS1613098735687","","","null","","","","","<p><img src= images/blank.png width =""200"" height = ""200"" style = ""float:right""></p><p><img src=images/blank.png width =""800"" height = ""200""></p>","","","","","","","","","","","",""
"","1095.999999990454","sequential-stimulus-presentation","209","662246","0.0-41.0-1.1","SS1613098735687","trial","","40","800","1895.999999990454","images/stimuli/spore_stims/complex_07_B_c.gif","images/stimuli/spore_stims/complex_07_A_c.gif","","","","","11","complex_similar","images/stimuli/spore_stims/complex_07_A_c.gif","right","","","","",""
"","null","html-keyboard-response","210","663373","0.0-41.0-0.2","SS1613098735687","","","null","","","","","<p><img src= images/blank.png width =""200"" height = ""200"" style = ""float:right""></p><p><img src=images/blank.png width =""800"" height = ""200""></p>","","","","","","","","","","","",""
"","2910.0000000034925","sequential-stimulus-presentation","211","667092","0.0-41.0-1.2","SS1613098735687","trial","","40","800","3710.0000000034925","images/stimuli/spore_stims/complex_07_B_c.gif","images/stimuli/spore_stims/complex_07_A_c.gif","","","","","11","complex_similar","images/stimuli/spore_stims/complex_07_A_c.gif","right","","","","",""
"","null","html-keyboard-response","212","667977","0.0-41.0-0.3","SS1613098735687","","","null","","","","","<p><img src= images/blank.png width =""200"" height = ""200"" style = ""float:right""></p><p><img src=images/blank.png width =""800"" height = ""200""></p>","","","","","","","","","","","",""
"","2441.000000020722","sequential-stimulus-presentation","213","671229","0.0-41.0-1.3","SS1613098735687","trial","","40","800","3241.000000020722","images/stimuli/spore_stims/complex_07_B_c.gif","images/stimuli/spore_stims/complex_07_A_c.gif","","","","","11","complex_similar","images/stimuli/spore_stims/complex_07_A_c.gif","right","","","","",""
"","null","html-keyboard-response","214","672405","0.0-41.0-0.4","SS1613098735687","","","null","","","","","<p><img src= images/blank.png width =""200"" height = ""200"" style = ""float:right""></p><p><img src=images/blank.png width =""800"" height = ""200""></p>","","","","","","","","","","","",""
"","1654.000000009546","sequential-stimulus-presentation","215","674872","0.0-41.0-1.4","SS1613098735687","trial","","40","800","2454.000000009546","images/stimuli/spore_stims/complex_07_B_c.gif","images/stimuli/spore_stims/complex_07_A_c.gif","","","","","11","complex_similar","images/stimuli/spore_stims/complex_07_A_c.gif","right","","","","",""
"","null","html-keyboard-response","216","676007","0.0-41.0-0.5","SS1613098735687","","","null","","","","","<p><img src= images/blank.png width =""200"" height = ""200"" style = ""float:right""></p><p><img src=images/blank.png width =""800"" height = ""200""></p>","","","","","","","","","","","",""
"","1326.0000000009313","sequential-stimulus-presentation","217","678142","0.0-41.0-1.5","SS1613098735687","trial","","40","800","2126.0000000009313","images/stimuli/spore_stims/complex_07_B_c.gif","images/stimuli/spore_stims/complex_07_A_c.gif","","","","","11","complex_similar","images/stimuli/spore_stims/complex_07_A_c.gif","right","","","","",""
"","null","html-keyboard-response","218","679318","0.0-41.0-0.6","SS1613098735687","","","null","","","","","<p><img src= images/blank.png width =""200"" height = ""200"" style = ""float:right""></p><p><img src=images/blank.png width =""800"" height = ""200""></p>","","","","","","","","","","","",""
"","2403.999999980442","sequential-stimulus-presentation","219","682529","0.0-41.0-1.6","SS1613098735687","trial","","40","800","3203.999999980442","images/stimuli/spore_stims/complex_07_B_c.gif","images/stimuli/spore_stims/complex_07_A_c.gif","","","","","11","complex_similar","images/stimuli/spore_stims/complex_07_A_c.gif","right","","","","",""
"","null","html-keyboard-response","220","683744","0.0-41.0-0.7","SS1613098735687","","","null","","","","","<p><img src= images/blank.png width =""200"" height = ""200"" style = ""float:right""></p><p><img src=images/blank.png width =""800"" height = ""200""></p>","","","","","","","","","","","",""
"","2309.9999999976717","sequential-stimulus-presentation","221","686863","0.0-41.0-1.7","SS1613098735687","trial","","40","800","3109.9999999976717","images/stimuli/spore_stims/complex_07_B_c.gif","images/stimuli/spore_stims/complex_07_A_c.gif","","","","","11","complex_similar","images/stimuli/spore_stims/complex_07_B_c.gif","middle","","","","",""
"","2285.0000000034925","html-keyboard-response","222","689160","0.0-42.0","SS1613098735687","pref_question","","97","","","","","<video width ='960' height = '540' style='padding-top:8%' autoplay muted><source src='images/stimuli/wall_pref.mp4' type='video/mp4'></video>","1","left","25%","11","","","","","","","",""
"","1035.0000000034925","sequential-stimulus-presentation","223","691006","0.0-43.0","SS1613098735687","pref_reveal","","40","800","1835.0000000034925","null","null","","","","","11","","","","novel","","","",""
"","null","html-keyboard-response","224","692006","0.0-44.0-0.0","SS1613098735687","","","null","","","","","<p><img src= images/blank.png width =""200"" height = ""200"" style = ""float:right""></p><p><img src=images/blank.png width =""800"" height = ""200""></p>","","","","","","","","","","","",""
"","5644.000000000233","sequential-stimulus-presentation","225","698463","0.0-44.0-1.0","SS1613098735687","trial","","40","800","6444.000000000233","images/stimuli/spore_stims/simple_05_A_a.gif","images/stimuli/spore_stims/simple_20_A_a.gif","","","","","12","simple_dissimilar","images/stimuli/spore_stims/simple_20_A_a.gif","middle","","","","",""
"","null","html-keyboard-response","226","699500","0.0-44.0-0.1","SS1613098735687","","","null","","","","","<p><img src= images/blank.png width =""200"" height = ""200"" style = ""float:right""></p><p><img src=images/blank.png width =""800"" height = ""200""></p>","","","","","","","","","","","",""
"","1208.0000000132713","sequential-stimulus-presentation","227","701519","0.0-44.0-1.1","SS1613098735687","trial","","40","800","2008.0000000132713","images/stimuli/spore_stims/simple_05_A_a.gif","images/stimuli/spore_stims/simple_20_A_a.gif","","","","","12","simple_dissimilar","images/stimuli/spore_stims/simple_20_A_a.gif","middle","","","","",""
"","null","html-keyboard-response","228","702534","0.0-44.0-0.2","SS1613098735687","","","null","","","","","<p><img src= images/blank.png width =""200"" height = ""200"" style = ""float:right""></p><p><img src=images/blank.png width =""800"" height = ""200""></p>","","","","","","","","","","","",""
"","1769.0000000002328","sequential-stimulus-presentation","229","705112","0.0-44.0-1.2","SS1613098735687","trial","","40","800","2569.000000000233","images/stimuli/spore_stims/simple_05_A_a.gif","images/stimuli/spore_stims/simple_20_A_a.gif","","","","","12","simple_dissimilar","images/stimuli/spore_stims/simple_20_A_a.gif","middle","","","","",""
"","null","html-keyboard-response","230","706419","0.0-44.0-0.3","SS1613098735687","","","null","","","","","<p><img src= images/blank.png width =""200"" height = ""200"" style = ""float:right""></p><p><img src=images/blank.png width =""800"" height = ""200""></p>","","","","","","","","","","","",""
"","553.9999999746215","sequential-stimulus-presentation","231","707782","0.0-44.0-1.3","SS1613098735687","trial","","40","800","1353.9999999746215","images/stimuli/spore_stims/simple_05_A_a.gif","images/stimuli/spore_stims/simple_20_A_a.gif","","","","","12","simple_dissimilar","images/stimuli/spore_stims/simple_20_A_a.gif","middle","","","","",""
"","null","html-keyboard-response","232","708769","0.0-44.0-0.4","SS1613098735687","","","null","","","","","<p><img src= images/blank.png width =""200"" height = ""200"" style = ""float:right""></p><p><img src=images/blank.png width =""800"" height = ""200""></p>","","","","","","","","","","","",""
"","2770.9999999788124","sequential-stimulus-presentation","233","712350","0.0-44.0-1.4","SS1613098735687","trial","","40","800","3570.9999999788124","images/stimuli/spore_stims/simple_05_A_a.gif","images/stimuli/spore_stims/simple_20_A_a.gif","","","","","12","simple_dissimilar","images/stimuli/spore_stims/simple_05_A_a.gif","right","","","","",""
"","null","html-keyboard-response","234","713628","0.0-44.0-0.5","SS1613098735687","","","null","","","","","<p><img src= images/blank.png width =""200"" height = ""200"" style = ""float:right""></p><p><img src=images/blank.png width =""800"" height = ""200""></p>","","","","","","","","","","","",""
"","1912.0000000111759","sequential-stimulus-presentation","235","716350","0.0-44.0-1.5","SS1613098735687","trial","","40","800","2712.000000011176","images/stimuli/spore_stims/simple_05_A_a.gif","images/stimuli/spore_stims/simple_20_A_a.gif","","","","","12","simple_dissimilar","images/stimuli/spore_stims/simple_20_A_a.gif","middle","","","","",""
"","null","html-keyboard-response","236","717592","0.0-44.0-0.6","SS1613098735687","","","null","","","","","<p><img src= images/blank.png width =""200"" height = ""200"" style = ""float:right""></p><p><img src=images/blank.png width =""800"" height = ""200""></p>","","","","","","","","","","","",""
"","788.9999999897555","sequential-stimulus-presentation","237","719189","0.0-44.0-1.6","SS1613098735687","trial","","40","800","1588.9999999897555","images/stimuli/spore_stims/simple_05_A_a.gif","images/stimuli/spore_stims/simple_20_A_a.gif","","","","","12","simple_dissimilar","images/stimuli/spore_stims/simple_20_A_a.gif","middle","","","","",""
"","null","html-keyboard-response","238","720378","0.0-44.0-0.7","SS1613098735687","","","null","","","","","<p><img src= images/blank.png width =""200"" height = ""200"" style = ""float:right""></p><p><img src=images/blank.png width =""800"" height = ""200""></p>","","","","","","","","","","","",""
"","1586.9999999995343","sequential-stimulus-presentation","239","722784","0.0-44.0-1.7","SS1613098735687","trial","","40","800","2386.9999999995343","images/stimuli/spore_stims/simple_05_A_a.gif","images/stimuli/spore_stims/simple_20_A_a.gif","","","","","12","simple_dissimilar","images/stimuli/spore_stims/simple_20_A_a.gif","middle","","","","",""
"","2867.99999998766","html-keyboard-response","240","725664","0.0-45.0","SS1613098735687","pref_question","","98","","","","","<video width ='960' height = '540' style='padding-top:8%' autoplay muted><source src='images/stimuli/wall_pref.mp4' type='video/mp4'></video>","2","middle","45%","12","","","","","","","",""
"","5660.0000000034925","sequential-stimulus-presentation","241","732142","0.0-46.0","SS1613098735687","pref_reveal","","40","800","6460.0000000034925","null","null","","","","","12","","","","background","","","",""
"","null","html-keyboard-response","242","733377","0.0-47.0-0.0","SS1613098735687","","","null","","","","","<p><img src= images/blank.png width =""200"" height = ""200"" style = ""float:right""></p><p><img src=images/blank.png width =""800"" height = ""200""></p>","","","","","","","","","","","",""
"","3379.999999975553","sequential-stimulus-presentation","243","737579","0.0-47.0-1.0","SS1613098735687","trial","","40","800","4179.999999975553","images/stimuli/spore_stims/simple_06_A_b.gif","images/stimuli/spore_stims/simple_10_B_b.gif","","","","","13","simple_dissimilar","images/stimuli/spore_stims/simple_10_B_b.gif","right","","","","",""
"","null","html-keyboard-response","244","738681","0.0-47.0-0.1","SS1613098735687","","","null","","","","","<p><img src= images/blank.png width =""200"" height = ""200"" style = ""float:right""></p><p><img src=images/blank.png width =""800"" height = ""200""></p>","","","","","","","","","","","",""
"","684.9999999976717","sequential-stimulus-presentation","245","740196","0.0-47.0-1.1","SS1613098735687","trial","","40","800","1484.9999999976717","images/stimuli/spore_stims/simple_06_A_b.gif","images/stimuli/spore_stims/simple_10_B_b.gif","","","","","13","simple_dissimilar","images/stimuli/spore_stims/simple_10_B_b.gif","right","","","","",""
"","null","html-keyboard-response","246","741482","0.0-47.0-0.2","SS1613098735687","","","null","","","","","<p><img src= images/blank.png width =""200"" height = ""200"" style = ""float:right""></p><p><img src=images/blank.png width =""800"" height = ""200""></p>","","","","","","","","","","","",""
"","1375","sequential-stimulus-presentation","247","743670","0.0-47.0-1.2","SS1613098735687","trial","","40","800","2175","images/stimuli/spore_stims/simple_06_A_b.gif","images/stimuli/spore_stims/simple_10_B_b.gif","","","","","13","simple_dissimilar","images/stimuli/spore_stims/simple_10_B_b.gif","right","","","","",""
"","null","html-keyboard-response","248","744733","0.0-47.0-0.3","SS1613098735687","","","null","","","","","<p><img src= images/blank.png width =""200"" height = ""200"" style = ""float:right""></p><p><img src=images/blank.png width =""800"" height = ""200""></p>","","","","","","","","","","","",""
"","1600.9999999951106","sequential-stimulus-presentation","249","747154","0.0-47.0-1.3","SS1613098735687","trial","","40","800","2400.9999999951106","images/stimuli/spore_stims/simple_06_A_b.gif","images/stimuli/spore_stims/simple_10_B_b.gif","","","","","13","simple_dissimilar","images/stimuli/spore_stims/simple_10_B_b.gif","right","","","","",""
"","null","html-keyboard-response","250","748217","0.0-47.0-0.4","SS1613098735687","","","null","","","","","<p><img src= images/blank.png width =""200"" height = ""200"" style = ""float:right""></p><p><img src=images/blank.png width =""800"" height = ""200""></p>","","","","","","","","","","","",""
"","2.9999999969732016","sequential-stimulus-presentation","251","749031","0.0-47.0-1.4","SS1613098735687","trial","","40","800","802.9999999969732","images/stimuli/spore_stims/simple_06_A_b.gif","images/stimuli/spore_stims/simple_10_B_b.gif","","","","","13","simple_dissimilar","images/stimuli/spore_stims/simple_10_B_b.gif","right","","","","",""
"","null","html-keyboard-response","252","749842","0.0-47.0-0.5","SS1613098735687","","","null","","","","","<p><img src= images/blank.png width =""200"" height = ""200"" style = ""float:right""></p><p><img src=images/blank.png width =""800"" height = ""200""></p>","","","","","","","","","","","",""
"","1004.0000000153668","sequential-stimulus-presentation","253","751661","0.0-47.0-1.5","SS1613098735687","trial","","40","800","1804.0000000153668","images/stimuli/spore_stims/simple_06_A_b.gif","images/stimuli/spore_stims/simple_10_B_b.gif","","","","","13","simple_dissimilar","images/stimuli/spore_stims/simple_10_B_b.gif","right","","","","",""
"","null","html-keyboard-response","254","752699","0.0-47.0-0.6","SS1613098735687","","","null","","","","","<p><img src= images/blank.png width =""200"" height = ""200"" style = ""float:right""></p><p><img src=images/blank.png width =""800"" height = ""200""></p>","","","","","","","","","","","",""
"","576.0000000009313","sequential-stimulus-presentation","255","754085","0.0-47.0-1.6","SS1613098735687","trial","","40","800","1376.0000000009313","images/stimuli/spore_stims/simple_06_A_b.gif","images/stimuli/spore_stims/simple_10_B_b.gif","","","","","13","simple_dissimilar","images/stimuli/spore_stims/simple_10_B_b.gif","right","","","","",""
"","null","html-keyboard-response","256","755339","0.0-47.0-0.7","SS1613098735687","","","null","","","","","<p><img src= images/blank.png width =""200"" height = ""200"" style = ""float:right""></p><p><img src=images/blank.png width =""800"" height = ""200""></p>","","","","","","","","","","","",""
"","720.999999990454","sequential-stimulus-presentation","257","756871","0.0-47.0-1.7","SS1613098735687","trial","","40","800","1520.999999990454","images/stimuli/spore_stims/simple_06_A_b.gif","images/stimuli/spore_stims/simple_10_B_b.gif","","","","","13","simple_dissimilar","images/stimuli/spore_stims/simple_06_A_b.gif","left","","","","",""
"","3351.9999999844003","html-keyboard-response","258","760232","0.0-48.0","SS1613098735687","pref_question","","98","","","","","<video width ='960' height = '540' style='padding-top:8%' autoplay muted><source src='images/stimuli/wall_pref.mp4' type='video/mp4'></video>","2","middle","45%","13","","","","","","","",""
"","2339.9999999965075","sequential-stimulus-presentation","259","763381","0.0-49.0","SS1613098735687","pref_reveal","","40","800","3139.9999999965075","null","null","","","","","13","","","","novel","","","",""
"","null","html-keyboard-response","260","764402","0.0-50.0-0.0","SS1613098735687","","","null","","","","","<p><img src= images/blank.png width =""200"" height = ""200"" style = ""float:right""></p><p><img src=images/blank.png width =""800"" height = ""200""></p>","","","","","","","","","","","",""
"","1480.9999999997672","sequential-stimulus-presentation","261","766693","0.0-50.0-1.0","SS1613098735687","trial","","40","800","2280.999999999767","images/stimuli/spore_stims/simple_03_A_c.gif","images/stimuli/spore_stims/simple_03_B_c.gif","","","","","14","simple_similar","images/stimuli/spore_stims/simple_03_B_c.gif","right","","","","",""
"","null","html-keyboard-response","262","767584","0.0-50.0-0.1","SS1613098735687","","","null","","","","","<p><img src= images/blank.png width =""200"" height = ""200"" style = ""float:right""></p><p><img src=images/blank.png width =""800"" height = ""200""></p>","","","","","","","","","","","",""
"","6331.999999994878","sequential-stimulus-presentation","263","774725","0.0-50.0-1.1","SS1613098735687","trial","","40","800","7131.999999994878","images/stimuli/spore_stims/simple_03_A_c.gif","images/stimuli/spore_stims/simple_03_B_c.gif","","","","","14","simple_similar","images/stimuli/spore_stims/simple_03_B_c.gif","right","","","","",""
"","null","html-keyboard-response","264","775886","0.0-50.0-0.2","SS1613098735687","","","null","","","","","<p><img src= images/blank.png width =""200"" height = ""200"" style = ""float:right""></p><p><img src=images/blank.png width =""800"" height = ""200""></p>","","","","","","","","","","","",""
"","1461.0000000102445","sequential-stimulus-presentation","265","778156","0.0-50.0-1.2","SS1613098735687","trial","","40","800","2261.0000000102445","images/stimuli/spore_stims/simple_03_A_c.gif","images/stimuli/spore_stims/simple_03_B_c.gif","","","","","14","simple_similar","images/stimuli/spore_stims/simple_03_B_c.gif","right","","","","",""
"","null","html-keyboard-response","266","778968","0.0-50.0-0.3","SS1613098735687","","","null","","","","","<p><img src= images/blank.png width =""200"" height = ""200"" style = ""float:right""></p><p><img src=images/blank.png width =""800"" height = ""200""></p>","","","","","","","","","","","",""
"","1673.9999999990687","sequential-stimulus-presentation","267","781454","0.0-50.0-1.3","SS1613098735687","trial","","40","800","2473.9999999990687","images/stimuli/spore_stims/simple_03_A_c.gif","images/stimuli/spore_stims/simple_03_B_c.gif","","","","","14","simple_similar","images/stimuli/spore_stims/simple_03_B_c.gif","right","","","","",""
"","null","html-keyboard-response","268","782700","0.0-50.0-0.4","SS1613098735687","","","null","","","","","<p><img src= images/blank.png width =""200"" height = ""200"" style = ""float:right""></p><p><img src=images/blank.png width =""800"" height = ""200""></p>","","","","","","","","","","","",""
"","781.0000000172295","sequential-stimulus-presentation","269","784292","0.0-50.0-1.4","SS1613098735687","trial","","40","800","1581.0000000172295","images/stimuli/spore_stims/simple_03_A_c.gif","images/stimuli/spore_stims/simple_03_B_c.gif","","","","","14","simple_similar","images/stimuli/spore_stims/simple_03_A_c.gif","middle","","","","",""
"","null","html-keyboard-response","270","785291","0.0-50.0-0.5","SS1613098735687","","","null","","","","","<p><img src= images/blank.png width =""200"" height = ""200"" style = ""float:right""></p><p><img src=images/blank.png width =""800"" height = ""200""></p>","","","","","","","","","","","",""
"","1048.000000009779","sequential-stimulus-presentation","271","787150","0.0-50.0-1.5","SS1613098735687","trial","","40","800","1848.000000009779","images/stimuli/spore_stims/simple_03_A_c.gif","images/stimuli/spore_stims/simple_03_B_c.gif","","","","","14","simple_similar","images/stimuli/spore_stims/simple_03_B_c.gif","right","","","","",""
"","null","html-keyboard-response","272","788395","0.0-50.0-0.6","SS1613098735687","","","null","","","","","<p><img src= images/blank.png width =""200"" height = ""200"" style = ""float:right""></p><p><img src=images/blank.png width =""800"" height = ""200""></p>","","","","","","","","","","","",""
"","4671.0000000020955","sequential-stimulus-presentation","273","793877","0.0-50.0-1.6","SS1613098735687","trial","","40","800","5471.0000000020955","images/stimuli/spore_stims/simple_03_A_c.gif","images/stimuli/spore_stims/simple_03_B_c.gif","","","","","14","simple_similar","images/stimuli/spore_stims/simple_03_B_c.gif","right","","","","",""
"","null","html-keyboard-response","274","794791","0.0-50.0-0.7","SS1613098735687","","","null","","","","","<p><img src= images/blank.png width =""200"" height = ""200"" style = ""float:right""></p><p><img src=images/blank.png width =""800"" height = ""200""></p>","","","","","","","","","","","",""
"","2636.000000027707","sequential-stimulus-presentation","275","798237","0.0-50.0-1.7","SS1613098735687","trial","","40","800","3436.000000027707","images/stimuli/spore_stims/simple_03_A_c.gif","images/stimuli/spore_stims/simple_03_B_c.gif","","","","","14","simple_similar","images/stimuli/spore_stims/simple_03_B_c.gif","right","","","","",""
"","6062.999999994645","html-keyboard-response","276","804310","0.0-51.0","SS1613098735687","pref_question","","99","","","","","<video width ='960' height = '540' style='padding-top:8%' autoplay muted><source src='images/stimuli/wall_pref.mp4' type='video/mp4'></video>","3","right","66%","14","","","","","","","",""
"","4580.999999976484","sequential-stimulus-presentation","277","809703","0.0-52.0","SS1613098735687","pref_reveal","","40","800","5380.999999976484","null","null","","","","","14","","","","background","","","",""
"","null","html-keyboard-response","278","810959","0.0-53.0-0.0","SS1613098735687","","","null","","","","","<p><img src= images/blank.png width =""200"" height = ""200"" style = ""float:right""></p><p><img src=images/blank.png width =""800"" height = ""200""></p>","","","","","","","","","","","",""
"","3377.999999996973","sequential-stimulus-presentation","279","815149","0.0-53.0-1.0","SS1613098735687","trial","","40","800","4177.999999996973","images/stimuli/spore_stims/simple_09_B_a.gif","images/stimuli/spore_stims/simple_18_B_d.gif","","","","","15","simple_dissimilar","images/stimuli/spore_stims/simple_18_B_d.gif","left","","","","",""
"","null","html-keyboard-response","280","816041","0.0-53.0-0.1","SS1613098735687","","","null","","","","","<p><img src= images/blank.png width =""200"" height = ""200"" style = ""float:right""></p><p><img src=images/blank.png width =""800"" height = ""200""></p>","","","","","","","","","","","",""
"","929.0000000037253","sequential-stimulus-presentation","281","817781","0.0-53.0-1.1","SS1613098735687","trial","","40","800","1729.0000000037253","images/stimuli/spore_stims/simple_09_B_a.gif","images/stimuli/spore_stims/simple_18_B_d.gif","","","","","15","simple_dissimilar","images/stimuli/spore_stims/simple_18_B_d.gif","left","","","","",""
"","null","html-keyboard-response","282","818634","0.0-53.0-0.2","SS1613098735687","","","null","","","","","<p><img src= images/blank.png width =""200"" height = ""200"" style = ""float:right""></p><p><img src=images/blank.png width =""800"" height = ""200""></p>","","","","","","","","","","","",""
"","353.99999999208376","sequential-stimulus-presentation","283","819798","0.0-53.0-1.2","SS1613098735687","trial","","40","800","1153.9999999920838","images/stimuli/spore_stims/simple_09_B_a.gif","images/stimuli/spore_stims/simple_18_B_d.gif","","","","","15","simple_dissimilar","images/stimuli/spore_stims/simple_09_B_a.gif","middle","","","","",""
"","null","html-keyboard-response","284","820927","0.0-53.0-0.3","SS1613098735687","","","null","","","","","<p><img src= images/blank.png width =""200"" height = ""200"" style = ""float:right""></p><p><img src=images/blank.png width =""800"" height = ""200""></p>","","","","","","","","","","","",""
"","2431.0000000114087","sequential-stimulus-presentation","285","824167","0.0-53.0-1.3","SS1613098735687","trial","","40","800","3231.0000000114087","images/stimuli/spore_stims/simple_09_B_a.gif","images/stimuli/spore_stims/simple_18_B_d.gif","","","","","15","simple_dissimilar","images/stimuli/spore_stims/simple_18_B_d.gif","left","","","","",""
"","null","html-keyboard-response","286","825317","0.0-53.0-0.4","SS1613098735687","","","null","","","","","<p><img src= images/blank.png width =""200"" height = ""200"" style = ""float:right""></p><p><img src=images/blank.png width =""800"" height = ""200""></p>","","","","","","","","","","","",""
"","1581.000000005588","sequential-stimulus-presentation","287","827709","0.0-53.0-1.4","SS1613098735687","trial","","40","800","2381.000000005588","images/stimuli/spore_stims/simple_09_B_a.gif","images/stimuli/spore_stims/simple_18_B_d.gif","","","","","15","simple_dissimilar","images/stimuli/spore_stims/simple_18_B_d.gif","left","","","","",""
"","null","html-keyboard-response","288","828649","0.0-53.0-0.5","SS1613098735687","","","null","","","","","<p><img src= images/blank.png width =""200"" height = ""200"" style = ""float:right""></p><p><img src=images/blank.png width =""800"" height = ""200""></p>","","","","","","","","","","","",""
"","3162.000000011176","sequential-stimulus-presentation","289","832620","0.0-53.0-1.5","SS1613098735687","trial","","40","800","3962.000000011176","images/stimuli/spore_stims/simple_09_B_a.gif","images/stimuli/spore_stims/simple_18_B_d.gif","","","","","15","simple_dissimilar","images/stimuli/spore_stims/simple_18_B_d.gif","left","","","","",""
"","null","html-keyboard-response","290","833561","0.0-53.0-0.6","SS1613098735687","","","null","","","","","<p><img src= images/blank.png width =""200"" height = ""200"" style = ""float:right""></p><p><img src=images/blank.png width =""800"" height = ""200""></p>","","","","","","","","","","","",""
"","2209.999999991851","sequential-stimulus-presentation","291","836585","0.0-53.0-1.6","SS1613098735687","trial","","40","800","3009.999999991851","images/stimuli/spore_stims/simple_09_B_a.gif","images/stimuli/spore_stims/simple_18_B_d.gif","","","","","15","simple_dissimilar","images/stimuli/spore_stims/simple_18_B_d.gif","left","","","","",""
"","null","html-keyboard-response","292","837806","0.0-53.0-0.7","SS1613098735687","","","null","","","","","<p><img src= images/blank.png width =""200"" height = ""200"" style = ""float:right""></p><p><img src=images/blank.png width =""800"" height = ""200""></p>","","","","","","","","","","","",""
"","334.00000000256114","sequential-stimulus-presentation","293","838949","0.0-53.0-1.7","SS1613098735687","trial","","40","800","1134.0000000025611","images/stimuli/spore_stims/simple_09_B_a.gif","images/stimuli/spore_stims/simple_18_B_d.gif","","","","","15","simple_dissimilar","images/stimuli/spore_stims/simple_18_B_d.gif","left","","","","",""
"","4269.999999989523","html-keyboard-response","294","843230","0.0-54.0","SS1613098735687","pref_question","","99","","","","","<video width ='960' height = '540' style='padding-top:8%' autoplay muted><source src='images/stimuli/wall_pref.mp4' type='video/mp4'></video>","3","right","66%","15","","","","","","","",""
"","3446.0000000253785","sequential-stimulus-presentation","295","847486","0.0-55.0","SS1613098735687","pref_reveal","","40","800","4246.0000000253785","null","null","","","","","15","","","","novel","","","",""
"","null","html-keyboard-response","296","848693","0.0-56.0-0.0","SS1613098735687","","","null","","","","","<p><img src= images/blank.png width =""200"" height = ""200"" style = ""float:right""></p><p><img src=images/blank.png width =""800"" height = ""200""></p>","","","","","","","","","","","",""
"","1627.9999999969732","sequential-stimulus-presentation","297","851134","0.0-56.0-1.0","SS1613098735687","trial","","40","800","2427.999999996973","images/stimuli/spore_stims/complex_11_A_c.gif","images/stimuli/spore_stims/complex_01_A_b.gif","","","","","16","complex_dissimilar","images/stimuli/spore_stims/complex_01_A_b.gif","right","","","","",""
"","null","html-keyboard-response","298","852310","0.0-56.0-0.1","SS1613098735687","","","null","","","","","<p><img src= images/blank.png width =""200"" height = ""200"" style = ""float:right""></p><p><img src=images/blank.png width =""800"" height = ""200""></p>","","","","","","","","","","","",""
"","1210.9999999811407","sequential-stimulus-presentation","299","854334","0.0-56.0-1.1","SS1613098735687","trial","","40","800","2010.9999999811407","images/stimuli/spore_stims/complex_11_A_c.gif","images/stimuli/spore_stims/complex_01_A_b.gif","","","","","16","complex_dissimilar","images/stimuli/spore_stims/complex_01_A_b.gif","right","","","","",""
"","null","html-keyboard-response","300","855186","0.0-56.0-0.2","SS1613098735687","","","null","","","","","<p><img src= images/blank.png width =""200"" height = ""200"" style = ""float:right""></p><p><img src=images/blank.png width =""800"" height = ""200""></p>","","","","","","","","","","","",""
"","1693.9999999885913","sequential-stimulus-presentation","301","857695","0.0-56.0-1.2","SS1613098735687","trial","","40","800","2493.9999999885913","images/stimuli/spore_stims/complex_11_A_c.gif","images/stimuli/spore_stims/complex_01_A_b.gif","","","","","16","complex_dissimilar","images/stimuli/spore_stims/complex_01_A_b.gif","right","","","","",""
"","null","html-keyboard-response","302","858886","0.0-56.0-0.3","SS1613098735687","","","null","","","","","<p><img src= images/blank.png width =""200"" height = ""200"" style = ""float:right""></p><p><img src=images/blank.png width =""800"" height = ""200""></p>","","","","","","","","","","","",""
"","1057.0000000006985","sequential-stimulus-presentation","303","860754","0.0-56.0-1.3","SS1613098735687","trial","","40","800","1857.0000000006985","images/stimuli/spore_stims/complex_11_A_c.gif","images/stimuli/spore_stims/complex_01_A_b.gif","","","","","16","complex_dissimilar","images/stimuli/spore_stims/complex_11_A_c.gif","middle","","","","",""
"","null","html-keyboard-response","304","861857","0.0-56.0-0.4","SS1613098735687","","","null","","","","","<p><img src= images/blank.png width =""200"" height = ""200"" style = ""float:right""></p><p><img src=images/blank.png width =""800"" height = ""200""></p>","","","","","","","","","","","",""
"","185.99999998696148","sequential-stimulus-presentation","305","862859","0.0-56.0-1.4","SS1613098735687","trial","","40","800","985.9999999869615","images/stimuli/spore_stims/complex_11_A_c.gif","images/stimuli/spore_stims/complex_01_A_b.gif","","","","","16","complex_dissimilar","images/stimuli/spore_stims/complex_01_A_b.gif","right","","","","",""
"","null","html-keyboard-response","306","863695","0.0-56.0-0.5","SS1613098735687","","","null","","","","","<p><img src= images/blank.png width =""200"" height = ""200"" style = ""float:right""></p><p><img src=images/blank.png width =""800"" height = ""200""></p>","","","","","","","","","","","",""
"","822.0000000146683","sequential-stimulus-presentation","307","865326","0.0-56.0-1.5","SS1613098735687","trial","","40","800","1622.0000000146683","images/stimuli/spore_stims/complex_11_A_c.gif","images/stimuli/spore_stims/complex_01_A_b.gif","","","","","16","complex_dissimilar","images/stimuli/spore_stims/complex_01_A_b.gif","right","","","","",""
"","null","html-keyboard-response","308","866151","0.0-56.0-0.6","SS1613098735687","","","null","","","","","<p><img src= images/blank.png width =""200"" height = ""200"" style = ""float:right""></p><p><img src=images/blank.png width =""800"" height = ""200""></p>","","","","","","","","","","","",""
"","1524.0000000048894","sequential-stimulus-presentation","309","868485","0.0-56.0-1.6","SS1613098735687","trial","","40","800","2324.0000000048894","images/stimuli/spore_stims/complex_11_A_c.gif","images/stimuli/spore_stims/complex_01_A_b.gif","","","","","16","complex_dissimilar","images/stimuli/spore_stims/complex_01_A_b.gif","right","","","","",""
"","null","html-keyboard-response","310","869747","0.0-56.0-0.7","SS1613098735687","","","null","","","","","<p><img src= images/blank.png width =""200"" height = ""200"" style = ""float:right""></p><p><img src=images/blank.png width =""800"" height = ""200""></p>","","","","","","","","","","","",""
"","2062.000000005355","sequential-stimulus-presentation","311","872622","0.0-56.0-1.7","SS1613098735687","trial","","40","800","2862.000000005355","images/stimuli/spore_stims/complex_11_A_c.gif","images/stimuli/spore_stims/complex_01_A_b.gif","","","","","16","complex_dissimilar","images/stimuli/spore_stims/complex_01_A_b.gif","right","","","","",""
"","5614.000000001397","html-keyboard-response","312","878253","0.0-57.0","SS1613098735687","pref_question","","99","","","","","<video width ='960' height = '540' style='padding-top:8%' autoplay muted><source src='images/stimuli/wall_pref.mp4' type='video/mp4'></video>","3","right","66%","16","","","","","","","",""
