"view_history","rt","trial_type","trial_index","time_elapsed","internal_node_id","subject","stimulus_type","trial_stimulus","key_press","minimum_viewing_duration","trial_looking_time","block_deviant","block_background","stimulus","wall_pref","location","location_percent","block_number","block_type","stimulus_displayed","position_displayed","stim_type_selected","responses","question_order","stimulus_left","stimulus_right"
"[{""page_index"":0,""viewing_time"":23453.214999986812}]","23455.229999963194","instructions","0","23459","0.0-0.0","SS1613178783628","","","","","","","","","","","","","","","","","","","",""
"[{""page_index"":0,""viewing_time"":23179.180000093766},{""page_index"":1,""viewing_time"":35958.544999943115}]","59137.99499999732","instructions","1","84604","0.0-1.0","SS1613178783628","instructions","","","","","","","","","","","","","","","","","","",""
"","2226.4349999604747","sequential-stimulus-presentation","2","87642","0.0-2.0","SS1613178783628","","","40","800","3026.4349999604747","null","null","","","","","","","","","","","","",""
"","918.2649999856949","sequential-stimulus-presentation","3","89369","0.0-3.0","SS1613178783628","","","40","800","1718.2649999856949","null","null","","","","","","","","","","","","",""
"[{""page_index"":0,""viewing_time"":3427.9950000345707}]","3428.6850000498816","instructions","4","92799","0.0-4.0","SS1613178783628","instructions","","","","","","","","","","","","","","","","","","",""
"","11618.519999901764","html-keyboard-response","5","104428","0.0-5.0","SS1613178783628","instructions","","97","","","","","<video width ='960' height = '540' autoplay muted><source src='images/stimuli/wall_pref.mp4' type='video/mp4'></video>","1","left","25%","","","","","","","","",""
"","9395.084999967366","sequential-stimulus-presentation","6","114635","0.0-6.0","SS1613178783628","pref_reveal","","40","800","10195.084999967366","null","null","","","","","","","","","","","","",""
"[{""page_index"":0,""viewing_time"":1742.8250000812113},{""page_index"":1,""viewing_time"":7886.7349999491125},{""page_index"":2,""viewing_time"":2303.760000038892},{""page_index"":3,""viewing_time"":1543.6500000068918}]","13477.670000051148","instructions","7","128115","0.0-7.0","SS1613178783628","instructions","","","","","","","","","","","","","","","","","","",""
"","null","html-keyboard-response","8","129104","0.0-8.0-0.0","SS1613178783628","","","null","","","","","<p><img src= images/blank.png width =""200"" height = ""200"" style = ""float:right""></p><p><img src=images/blank.png width =""800"" height = ""200""></p>","","","","","","","","","","","",""
"","1135.3300000773743","sequential-stimulus-presentation","9","131051","0.0-8.0-1.0","SS1613178783628","trial","","40","800","1935.3300000773743","images/stimuli/spore_stims/simple_14_A_c.gif","images/stimuli/spore_stims/simple_14_B_c.gif","","","","","0","simple_similar","images/stimuli/spore_stims/simple_14_B_c.gif","right","","","","",""
"","null","html-keyboard-response","10","131893","0.0-8.0-0.1","SS1613178783628","","","null","","","","","<p><img src= images/blank.png width =""200"" height = ""200"" style = ""float:right""></p><p><img src=images/blank.png width =""800"" height = ""200""></p>","","","","","","","","","","","",""
"","5163.965000072494","sequential-stimulus-presentation","11","137866","0.0-8.0-1.1","SS1613178783628","trial","","40","800","5963.965000072494","images/stimuli/spore_stims/simple_14_A_c.gif","images/stimuli/spore_stims/simple_14_B_c.gif","","","","","0","simple_similar","images/stimuli/spore_stims/simple_14_B_c.gif","right","","","","",""
"","null","html-keyboard-response","12","138905","0.0-8.0-0.2","SS1613178783628","","","null","","","","","<p><img src= images/blank.png width =""200"" height = ""200"" style = ""float:right""></p><p><img src=images/blank.png width =""800"" height = ""200""></p>","","","","","","","","","","","",""
"","4799.424999975599","sequential-stimulus-presentation","13","144514","0.0-8.0-1.2","SS1613178783628","trial","","40","800","5599.424999975599","images/stimuli/spore_stims/simple_14_A_c.gif","images/stimuli/spore_stims/simple_14_B_c.gif","","","","","0","simple_similar","images/stimuli/spore_stims/simple_14_B_c.gif","right","","","","",""
"","null","html-keyboard-response","14","145479","0.0-8.0-0.3","SS1613178783628","","","null","","","","","<p><img src= images/blank.png width =""200"" height = ""200"" style = ""float:right""></p><p><img src=images/blank.png width =""800"" height = ""200""></p>","","","","","","","","","","","",""
"","926.5299999387935","sequential-stimulus-presentation","15","147219","0.0-8.0-1.3","SS1613178783628","trial","","40","800","1726.5299999387935","images/stimuli/spore_stims/simple_14_A_c.gif","images/stimuli/spore_stims/simple_14_B_c.gif","","","","","0","simple_similar","images/stimuli/spore_stims/simple_14_B_c.gif","right","","","","",""
"","null","html-keyboard-response","16","148366","0.0-8.0-0.4","SS1613178783628","","","null","","","","","<p><img src= images/blank.png width =""200"" height = ""200"" style = ""float:right""></p><p><img src=images/blank.png width =""800"" height = ""200""></p>","","","","","","","","","","","",""
"","939.3600000767037","sequential-stimulus-presentation","17","150114","0.0-8.0-1.4","SS1613178783628","trial","","40","800","1739.3600000767037","images/stimuli/spore_stims/simple_14_A_c.gif","images/stimuli/spore_stims/simple_14_B_c.gif","","","","","0","simple_similar","images/stimuli/spore_stims/simple_14_B_c.gif","right","","","","",""
"","null","html-keyboard-response","18","151072","0.0-8.0-0.5","SS1613178783628","","","null","","","","","<p><img src= images/blank.png width =""200"" height = ""200"" style = ""float:right""></p><p><img src=images/blank.png width =""800"" height = ""200""></p>","","","","","","","","","","","",""
"","873.035000055097","sequential-stimulus-presentation","19","152754","0.0-8.0-1.5","SS1613178783628","trial","","40","800","1673.035000055097","images/stimuli/spore_stims/simple_14_A_c.gif","images/stimuli/spore_stims/simple_14_B_c.gif","","","","","0","simple_similar","images/stimuli/spore_stims/simple_14_A_c.gif","left","","","","",""
"","null","html-keyboard-response","20","153923","0.0-8.0-0.6","SS1613178783628","","","null","","","","","<p><img src= images/blank.png width =""200"" height = ""200"" style = ""float:right""></p><p><img src=images/blank.png width =""800"" height = ""200""></p>","","","","","","","","","","","",""
"","710.5849999934435","sequential-stimulus-presentation","21","155443","0.0-8.0-1.6","SS1613178783628","trial","","40","800","1510.5849999934435","images/stimuli/spore_stims/simple_14_A_c.gif","images/stimuli/spore_stims/simple_14_B_c.gif","","","","","0","simple_similar","images/stimuli/spore_stims/simple_14_B_c.gif","right","","","","",""
"","null","html-keyboard-response","22","156324","0.0-8.0-0.7","SS1613178783628","","","null","","","","","<p><img src= images/blank.png width =""200"" height = ""200"" style = ""float:right""></p><p><img src=images/blank.png width =""800"" height = ""200""></p>","","","","","","","","","","","",""
"","838.5550000239164","sequential-stimulus-presentation","23","157971","0.0-8.0-1.7","SS1613178783628","trial","","40","800","1638.5550000239164","images/stimuli/spore_stims/simple_14_A_c.gif","images/stimuli/spore_stims/simple_14_B_c.gif","","","","","0","simple_similar","images/stimuli/spore_stims/simple_14_B_c.gif","right","","","","",""
"","1051.39500007499","html-keyboard-response","24","159027","0.0-9.0","SS1613178783628","pref_question","","99","","","","","<video width ='960' height = '540' style='padding-top:8%' autoplay muted><source src='images/stimuli/wall_pref.mp4' type='video/mp4'></video>","3","right","66%","0","","","","","","","",""
"","1148.3199999202043","sequential-stimulus-presentation","25","161019","0.0-10.0","SS1613178783628","pref_reveal","","40","800","1948.3199999202043","null","null","","","","","0","","","","background","","","",""
"","null","html-keyboard-response","26","162163","0.0-11.0-0.0","SS1613178783628","","","null","","","","","<p><img src= images/blank.png width =""200"" height = ""200"" style = ""float:right""></p><p><img src=images/blank.png width =""800"" height = ""200""></p>","","","","","","","","","","","",""
"","551.4799999073148","sequential-stimulus-presentation","27","163523","0.0-11.0-1.0","SS1613178783628","trial","","40","800","1351.4799999073148","images/stimuli/spore_stims/complex_16_B_a.gif","images/stimuli/spore_stims/complex_07_B_c.gif","","","","","1","complex_dissimilar","images/stimuli/spore_stims/complex_07_B_c.gif","middle","","","","",""
"","null","html-keyboard-response","28","164402","0.0-11.0-0.1","SS1613178783628","","","null","","","","","<p><img src= images/blank.png width =""200"" height = ""200"" style = ""float:right""></p><p><img src=images/blank.png width =""800"" height = ""200""></p>","","","","","","","","","","","",""
"","458.10499996878207","sequential-stimulus-presentation","29","165667","0.0-11.0-1.1","SS1613178783628","trial","","40","800","1258.104999968782","images/stimuli/spore_stims/complex_16_B_a.gif","images/stimuli/spore_stims/complex_07_B_c.gif","","","","","1","complex_dissimilar","images/stimuli/spore_stims/complex_07_B_c.gif","middle","","","","",""
"","null","html-keyboard-response","30","166785","0.0-11.0-0.2","SS1613178783628","","","null","","","","","<p><img src= images/blank.png width =""200"" height = ""200"" style = ""float:right""></p><p><img src=images/blank.png width =""800"" height = ""200""></p>","","","","","","","","","","","",""
"","362.24499996751547","sequential-stimulus-presentation","31","167956","0.0-11.0-1.2","SS1613178783628","trial","","40","800","1162.2449999675155","images/stimuli/spore_stims/complex_16_B_a.gif","images/stimuli/spore_stims/complex_07_B_c.gif","","","","","1","complex_dissimilar","images/stimuli/spore_stims/complex_16_B_a.gif","left","","","","",""
"","null","html-keyboard-response","32","169098","0.0-11.0-0.3","SS1613178783628","","","null","","","","","<p><img src= images/blank.png width =""200"" height = ""200"" style = ""float:right""></p><p><img src=images/blank.png width =""800"" height = ""200""></p>","","","","","","","","","","","",""
"","328.87500000651926","sequential-stimulus-presentation","33","170235","0.0-11.0-1.3","SS1613178783628","trial","","40","800","1128.8750000065193","images/stimuli/spore_stims/complex_16_B_a.gif","images/stimuli/spore_stims/complex_07_B_c.gif","","","","","1","complex_dissimilar","images/stimuli/spore_stims/complex_07_B_c.gif","middle","","","","",""
"","null","html-keyboard-response","34","171325","0.0-11.0-0.4","SS1613178783628","","","null","","","","","<p><img src= images/blank.png width =""200"" height = ""200"" style = ""float:right""></p><p><img src=images/blank.png width =""800"" height = ""200""></p>","","","","","","","","","","","",""
"","5.590000073425472","sequential-stimulus-presentation","35","172138","0.0-11.0-1.4","SS1613178783628","trial","","40","800","805.5900000734255","images/stimuli/spore_stims/complex_16_B_a.gif","images/stimuli/spore_stims/complex_07_B_c.gif","","","","","1","complex_dissimilar","images/stimuli/spore_stims/complex_07_B_c.gif","middle","","","","",""
"","null","html-keyboard-response","36","172963","0.0-11.0-0.5","SS1613178783628","","","null","","","","","<p><img src= images/blank.png width =""200"" height = ""200"" style = ""float:right""></p><p><img src=images/blank.png width =""800"" height = ""200""></p>","","","","","","","","","","","",""
"","476.75000003073364","sequential-stimulus-presentation","37","174251","0.0-11.0-1.5","SS1613178783628","trial","","40","800","1276.7500000307336","images/stimuli/spore_stims/complex_16_B_a.gif","images/stimuli/spore_stims/complex_07_B_c.gif","","","","","1","complex_dissimilar","images/stimuli/spore_stims/complex_07_B_c.gif","middle","","","","",""
"","null","html-keyboard-response","38","175485","0.0-11.0-0.6","SS1613178783628","","","null","","","","","<p><img src= images/blank.png width =""200"" height = ""200"" style = ""float:right""></p><p><img src=images/blank.png width =""800"" height = ""200""></p>","","","","","","","","","","","",""
"","449.6599999256432","sequential-stimulus-presentation","39","176746","0.0-11.0-1.6","SS1613178783628","trial","","40","800","1249.6599999256432","images/stimuli/spore_stims/complex_16_B_a.gif","images/stimuli/spore_stims/complex_07_B_c.gif","","","","","1","complex_dissimilar","images/stimuli/spore_stims/complex_07_B_c.gif","middle","","","","",""
"","null","html-keyboard-response","40","177654","0.0-11.0-0.7","SS1613178783628","","","null","","","","","<p><img src= images/blank.png width =""200"" height = ""200"" style = ""float:right""></p><p><img src=images/blank.png width =""800"" height = ""200""></p>","","","","","","","","","","","",""
"","1154.7899999422953","sequential-stimulus-presentation","41","179620","0.0-11.0-1.7","SS1613178783628","trial","","40","800","1954.7899999422953","images/stimuli/spore_stims/complex_16_B_a.gif","images/stimuli/spore_stims/complex_07_B_c.gif","","","","","1","complex_dissimilar","images/stimuli/spore_stims/complex_07_B_c.gif","middle","","","","",""
"","1344.8099999222904","html-keyboard-response","42","180971","0.0-12.0","SS1613178783628","pref_question","","98","","","","","<video width ='960' height = '540' style='padding-top:8%' autoplay muted><source src='images/stimuli/wall_pref.mp4' type='video/mp4'></video>","2","middle","45%","1","","","","","","","",""
"","602.7349999640137","sequential-stimulus-presentation","43","182386","0.0-13.0","SS1613178783628","pref_reveal","","40","800","1402.7349999640137","null","null","","","","","1","","","","background","","","",""
"","null","html-keyboard-response","44","183550","0.0-14.0-0.0","SS1613178783628","","","null","","","","","<p><img src= images/blank.png width =""200"" height = ""200"" style = ""float:right""></p><p><img src=images/blank.png width =""800"" height = ""200""></p>","","","","","","","","","","","",""
"","224.41499994602054","sequential-stimulus-presentation","45","184586","0.0-14.0-1.0","SS1613178783628","trial","","40","800","1024.4149999460205","images/stimuli/spore_stims/complex_15_A_d.gif","images/stimuli/spore_stims/complex_15_B_d.gif","","","","","2","complex_similar","images/stimuli/spore_stims/complex_15_B_d.gif","right","","","","",""
"","null","html-keyboard-response","46","185787","0.0-14.0-0.1","SS1613178783628","","","null","","","","","<p><img src= images/blank.png width =""200"" height = ""200"" style = ""float:right""></p><p><img src=images/blank.png width =""800"" height = ""200""></p>","","","","","","","","","","","",""
"","387.2699999483302","sequential-stimulus-presentation","47","186986","0.0-14.0-1.1","SS1613178783628","trial","","40","800","1187.2699999483302","images/stimuli/spore_stims/complex_15_A_d.gif","images/stimuli/spore_stims/complex_15_B_d.gif","","","","","2","complex_similar","images/stimuli/spore_stims/complex_15_B_d.gif","right","","","","",""
"","null","html-keyboard-response","48","188172","0.0-14.0-0.2","SS1613178783628","","","null","","","","","<p><img src= images/blank.png width =""200"" height = ""200"" style = ""float:right""></p><p><img src=images/blank.png width =""800"" height = ""200""></p>","","","","","","","","","","","",""
"","367.55999992601573","sequential-stimulus-presentation","49","189354","0.0-14.0-1.2","SS1613178783628","trial","","40","800","1167.5599999260157","images/stimuli/spore_stims/complex_15_A_d.gif","images/stimuli/spore_stims/complex_15_B_d.gif","","","","","2","complex_similar","images/stimuli/spore_stims/complex_15_B_d.gif","right","","","","",""
"","null","html-keyboard-response","50","190410","0.0-14.0-0.3","SS1613178783628","","","null","","","","","<p><img src= images/blank.png width =""200"" height = ""200"" style = ""float:right""></p><p><img src=images/blank.png width =""800"" height = ""200""></p>","","","","","","","","","","","",""
"","390.15999995172024","sequential-stimulus-presentation","51","191610","0.0-14.0-1.3","SS1613178783628","trial","","40","800","1190.1599999517202","images/stimuli/spore_stims/complex_15_A_d.gif","images/stimuli/spore_stims/complex_15_B_d.gif","","","","","2","complex_similar","images/stimuli/spore_stims/complex_15_B_d.gif","right","","","","",""
"","null","html-keyboard-response","52","192786","0.0-14.0-0.4","SS1613178783628","","","null","","","","","<p><img src= images/blank.png width =""200"" height = ""200"" style = ""float:right""></p><p><img src=images/blank.png width =""800"" height = ""200""></p>","","","","","","","","","","","",""
"","710.590000031516","sequential-stimulus-presentation","53","194314","0.0-14.0-1.4","SS1613178783628","trial","","40","800","1510.590000031516","images/stimuli/spore_stims/complex_15_A_d.gif","images/stimuli/spore_stims/complex_15_B_d.gif","","","","","2","complex_similar","images/stimuli/spore_stims/complex_15_B_d.gif","right","","","","",""
"","null","html-keyboard-response","54","195535","0.0-14.0-0.5","SS1613178783628","","","null","","","","","<p><img src= images/blank.png width =""200"" height = ""200"" style = ""float:right""></p><p><img src=images/blank.png width =""800"" height = ""200""></p>","","","","","","","","","","","",""
"","401.6950000077486","sequential-stimulus-presentation","55","196746","0.0-14.0-1.5","SS1613178783628","trial","","40","800","1201.6950000077486","images/stimuli/spore_stims/complex_15_A_d.gif","images/stimuli/spore_stims/complex_15_B_d.gif","","","","","2","complex_similar","images/stimuli/spore_stims/complex_15_A_d.gif","left","","","","",""
"","null","html-keyboard-response","56","197641","0.0-14.0-0.6","SS1613178783628","","","null","","","","","<p><img src= images/blank.png width =""200"" height = ""200"" style = ""float:right""></p><p><img src=images/blank.png width =""800"" height = ""200""></p>","","","","","","","","","","","",""
"","1070.9999999962747","sequential-stimulus-presentation","57","199524","0.0-14.0-1.6","SS1613178783628","trial","","40","800","1870.9999999962747","images/stimuli/spore_stims/complex_15_A_d.gif","images/stimuli/spore_stims/complex_15_B_d.gif","","","","","2","complex_similar","images/stimuli/spore_stims/complex_15_B_d.gif","right","","","","",""
"","null","html-keyboard-response","58","200813","0.0-14.0-0.7","SS1613178783628","","","null","","","","","<p><img src= images/blank.png width =""200"" height = ""200"" style = ""float:right""></p><p><img src=images/blank.png width =""800"" height = ""200""></p>","","","","","","","","","","","",""
"","456.50500000920147","sequential-stimulus-presentation","59","202082","0.0-14.0-1.7","SS1613178783628","trial","","40","800","1256.5050000092015","images/stimuli/spore_stims/complex_15_A_d.gif","images/stimuli/spore_stims/complex_15_B_d.gif","","","","","2","complex_similar","images/stimuli/spore_stims/complex_15_B_d.gif","right","","","","",""
"","1640.1799999875948","html-keyboard-response","60","203730","0.0-15.0","SS1613178783628","pref_question","","97","","","","","<video width ='960' height = '540' style='padding-top:8%' autoplay muted><source src='images/stimuli/wall_pref.mp4' type='video/mp4'></video>","1","left","25%","2","","","","","","","",""
"","180.17499998677522","sequential-stimulus-presentation","61","204722","0.0-16.0","SS1613178783628","pref_reveal","","40","800","980.1749999867752","null","null","","","","","2","","","","deviant","","","",""
"","null","html-keyboard-response","62","205627","0.0-17.0-0.0","SS1613178783628","","","null","","","","","<p><img src= images/blank.png width =""200"" height = ""200"" style = ""float:right""></p><p><img src=images/blank.png width =""800"" height = ""200""></p>","","","","","","","","","","","",""
"","706.1599999433383","sequential-stimulus-presentation","63","207149","0.0-17.0-1.0","SS1613178783628","trial","","40","800","1506.1599999433383","images/stimuli/spore_stims/complex_18_B_b.gif","images/stimuli/spore_stims/complex_18_A_b.gif","","","","","3","complex_similar","images/stimuli/spore_stims/complex_18_A_b.gif","middle","","","","",""
"","null","html-keyboard-response","64","208174","0.0-17.0-0.1","SS1613178783628","","","null","","","","","<p><img src= images/blank.png width =""200"" height = ""200"" style = ""float:right""></p><p><img src=images/blank.png width =""800"" height = ""200""></p>","","","","","","","","","","","",""
"","1210.5450000381097","sequential-stimulus-presentation","65","210236","0.0-17.0-1.1","SS1613178783628","trial","","40","800","2010.5450000381097","images/stimuli/spore_stims/complex_18_B_b.gif","images/stimuli/spore_stims/complex_18_A_b.gif","","","","","3","complex_similar","images/stimuli/spore_stims/complex_18_A_b.gif","middle","","","","",""
"","null","html-keyboard-response","66","211301","0.0-17.0-0.2","SS1613178783628","","","null","","","","","<p><img src= images/blank.png width =""200"" height = ""200"" style = ""float:right""></p><p><img src=images/blank.png width =""800"" height = ""200""></p>","","","","","","","","","","","",""
"","638.2599999196827","sequential-stimulus-presentation","67","212753","0.0-17.0-1.2","SS1613178783628","trial","","40","800","1438.2599999196827","images/stimuli/spore_stims/complex_18_B_b.gif","images/stimuli/spore_stims/complex_18_A_b.gif","","","","","3","complex_similar","images/stimuli/spore_stims/complex_18_A_b.gif","middle","","","","",""
"","null","html-keyboard-response","68","213633","0.0-17.0-0.3","SS1613178783628","","","null","","","","","<p><img src= images/blank.png width =""200"" height = ""200"" style = ""float:right""></p><p><img src=images/blank.png width =""800"" height = ""200""></p>","","","","","","","","","","","",""
"","1113.3550000377","sequential-stimulus-presentation","69","215563","0.0-17.0-1.3","SS1613178783628","trial","","40","800","1913.3550000377","images/stimuli/spore_stims/complex_18_B_b.gif","images/stimuli/spore_stims/complex_18_A_b.gif","","","","","3","complex_similar","images/stimuli/spore_stims/complex_18_A_b.gif","middle","","","","",""
"","null","html-keyboard-response","70","216573","0.0-17.0-0.4","SS1613178783628","","","null","","","","","<p><img src= images/blank.png width =""200"" height = ""200"" style = ""float:right""></p><p><img src=images/blank.png width =""800"" height = ""200""></p>","","","","","","","","","","","",""
"","975.2050000242889","sequential-stimulus-presentation","71","218363","0.0-17.0-1.4","SS1613178783628","trial","","40","800","1775.205000024289","images/stimuli/spore_stims/complex_18_B_b.gif","images/stimuli/spore_stims/complex_18_A_b.gif","","","","","3","complex_similar","images/stimuli/spore_stims/complex_18_A_b.gif","middle","","","","",""
"","null","html-keyboard-response","72","219167","0.0-17.0-0.5","SS1613178783628","","","null","","","","","<p><img src= images/blank.png width =""200"" height = ""200"" style = ""float:right""></p><p><img src=images/blank.png width =""800"" height = ""200""></p>","","","","","","","","","","","",""
"","512.1199999703094","sequential-stimulus-presentation","73","220492","0.0-17.0-1.5","SS1613178783628","trial","","40","800","1312.1199999703094","images/stimuli/spore_stims/complex_18_B_b.gif","images/stimuli/spore_stims/complex_18_A_b.gif","","","","","3","complex_similar","images/stimuli/spore_stims/complex_18_A_b.gif","middle","","","","",""
"","null","html-keyboard-response","74","221355","0.0-17.0-0.6","SS1613178783628","","","null","","","","","<p><img src= images/blank.png width =""200"" height = ""200"" style = ""float:right""></p><p><img src=images/blank.png width =""800"" height = ""200""></p>","","","","","","","","","","","",""
"","411.3099999958649","sequential-stimulus-presentation","75","222579","0.0-17.0-1.6","SS1613178783628","trial","","40","800","1211.309999995865","images/stimuli/spore_stims/complex_18_B_b.gif","images/stimuli/spore_stims/complex_18_A_b.gif","","","","","3","complex_similar","images/stimuli/spore_stims/complex_18_A_b.gif","middle","","","","",""
"","null","html-keyboard-response","76","223450","0.0-17.0-0.7","SS1613178783628","","","null","","","","","<p><img src= images/blank.png width =""200"" height = ""200"" style = ""float:right""></p><p><img src=images/blank.png width =""800"" height = ""200""></p>","","","","","","","","","","","",""
"","541.2250000517815","sequential-stimulus-presentation","77","224803","0.0-17.0-1.7","SS1613178783628","trial","","40","800","1341.2250000517815","images/stimuli/spore_stims/complex_18_B_b.gif","images/stimuli/spore_stims/complex_18_A_b.gif","","","","","3","complex_similar","images/stimuli/spore_stims/complex_18_B_b.gif","right","","","","",""
"","2045.354999951087","html-keyboard-response","78","226859","0.0-18.0","SS1613178783628","pref_question","","98","","","","","<video width ='960' height = '540' style='padding-top:8%' autoplay muted><source src='images/stimuli/wall_pref.mp4' type='video/mp4'></video>","2","middle","45%","3","","","","","","","",""
"","833.8299999013543","sequential-stimulus-presentation","79","228500","0.0-19.0","SS1613178783628","pref_reveal","","40","800","1633.8299999013543","null","null","","","","","3","","","","background","","","",""
"","null","html-keyboard-response","80","229554","0.0-20.0-0.0","SS1613178783628","","","null","","","","","<p><img src= images/blank.png width =""200"" height = ""200"" style = ""float:right""></p><p><img src=images/blank.png width =""800"" height = ""200""></p>","","","","","","","","","","","",""
"","1851.6250000102445","sequential-stimulus-presentation","81","232218","0.0-20.0-1.0","SS1613178783628","trial","","40","800","2651.6250000102445","images/stimuli/spore_stims/complex_13_A_d.gif","images/stimuli/spore_stims/complex_01_A_a.gif","","","","","4","complex_dissimilar","images/stimuli/spore_stims/complex_01_A_a.gif","middle","","","","",""
"","null","html-keyboard-response","82","233322","0.0-20.0-0.1","SS1613178783628","","","null","","","","","<p><img src= images/blank.png width =""200"" height = ""200"" style = ""float:right""></p><p><img src=images/blank.png width =""800"" height = ""200""></p>","","","","","","","","","","","",""
"","491.8700000271201","sequential-stimulus-presentation","83","234627","0.0-20.0-1.1","SS1613178783628","trial","","40","800","1291.87000002712","images/stimuli/spore_stims/complex_13_A_d.gif","images/stimuli/spore_stims/complex_01_A_a.gif","","","","","4","complex_dissimilar","images/stimuli/spore_stims/complex_01_A_a.gif","middle","","","","",""
"","null","html-keyboard-response","84","235888","0.0-20.0-0.2","SS1613178783628","","","null","","","","","<p><img src= images/blank.png width =""200"" height = ""200"" style = ""float:right""></p><p><img src=images/blank.png width =""800"" height = ""200""></p>","","","","","","","","","","","",""
"","482.2299999650568","sequential-stimulus-presentation","85","237186","0.0-20.0-1.2","SS1613178783628","trial","","40","800","1282.2299999650568","images/stimuli/spore_stims/complex_13_A_d.gif","images/stimuli/spore_stims/complex_01_A_a.gif","","","","","4","complex_dissimilar","images/stimuli/spore_stims/complex_01_A_a.gif","middle","","","","",""
"","null","html-keyboard-response","86","238131","0.0-20.0-0.3","SS1613178783628","","","null","","","","","<p><img src= images/blank.png width =""200"" height = ""200"" style = ""float:right""></p><p><img src=images/blank.png width =""800"" height = ""200""></p>","","","","","","","","","","","",""
"","370.920000015758","sequential-stimulus-presentation","87","239315","0.0-20.0-1.3","SS1613178783628","trial","","40","800","1170.920000015758","images/stimuli/spore_stims/complex_13_A_d.gif","images/stimuli/spore_stims/complex_01_A_a.gif","","","","","4","complex_dissimilar","images/stimuli/spore_stims/complex_01_A_a.gif","middle","","","","",""
"","null","html-keyboard-response","88","240143","0.0-20.0-0.4","SS1613178783628","","","null","","","","","<p><img src= images/blank.png width =""200"" height = ""200"" style = ""float:right""></p><p><img src=images/blank.png width =""800"" height = ""200""></p>","","","","","","","","","","","",""
"","1363.6149999219924","sequential-stimulus-presentation","89","242319","0.0-20.0-1.4","SS1613178783628","trial","","40","800","2163.6149999219924","images/stimuli/spore_stims/complex_13_A_d.gif","images/stimuli/spore_stims/complex_01_A_a.gif","","","","","4","complex_dissimilar","images/stimuli/spore_stims/complex_01_A_a.gif","middle","","","","",""
"","null","html-keyboard-response","90","243554","0.0-20.0-0.5","SS1613178783628","","","null","","","","","<p><img src= images/blank.png width =""200"" height = ""200"" style = ""float:right""></p><p><img src=images/blank.png width =""800"" height = ""200""></p>","","","","","","","","","","","",""
"","506.53500005137175","sequential-stimulus-presentation","91","244874","0.0-20.0-1.5","SS1613178783628","trial","","40","800","1306.5350000513718","images/stimuli/spore_stims/complex_13_A_d.gif","images/stimuli/spore_stims/complex_01_A_a.gif","","","","","4","complex_dissimilar","images/stimuli/spore_stims/complex_01_A_a.gif","middle","","","","",""
"","null","html-keyboard-response","92","245908","0.0-20.0-0.6","SS1613178783628","","","null","","","","","<p><img src= images/blank.png width =""200"" height = ""200"" style = ""float:right""></p><p><img src=images/blank.png width =""800"" height = ""200""></p>","","","","","","","","","","","",""
"","553.7750000366941","sequential-stimulus-presentation","93","247274","0.0-20.0-1.6","SS1613178783628","trial","","40","800","1353.775000036694","images/stimuli/spore_stims/complex_13_A_d.gif","images/stimuli/spore_stims/complex_01_A_a.gif","","","","","4","complex_dissimilar","images/stimuli/spore_stims/complex_13_A_d.gif","left","","","","",""
"","null","html-keyboard-response","94","248133","0.0-20.0-0.7","SS1613178783628","","","null","","","","","<p><img src= images/blank.png width =""200"" height = ""200"" style = ""float:right""></p><p><img src=images/blank.png width =""800"" height = ""200""></p>","","","","","","","","","","","",""
"","1296.595000079833","sequential-stimulus-presentation","95","250243","0.0-20.0-1.7","SS1613178783628","trial","","40","800","2096.595000079833","images/stimuli/spore_stims/complex_13_A_d.gif","images/stimuli/spore_stims/complex_01_A_a.gif","","","","","4","complex_dissimilar","images/stimuli/spore_stims/complex_01_A_a.gif","middle","","","","",""
"","3441.150000086054","html-keyboard-response","96","253691","0.0-21.0","SS1613178783628","pref_question","","97","","","","","<video width ='960' height = '540' style='padding-top:8%' autoplay muted><source src='images/stimuli/wall_pref.mp4' type='video/mp4'></video>","1","left","25%","4","","","","","","","",""
"","255.31000003684312","sequential-stimulus-presentation","97","254786","0.0-22.0","SS1613178783628","pref_reveal","","40","800","1055.3100000368431","null","null","","","","","4","","","","deviant","","","",""
"","null","html-keyboard-response","98","255619","0.0-23.0-0.0","SS1613178783628","","","null","","","","","<p><img src= images/blank.png width =""200"" height = ""200"" style = ""float:right""></p><p><img src=images/blank.png width =""800"" height = ""200""></p>","","","","","","","","","","","",""
"","225.3749999217689","sequential-stimulus-presentation","99","256658","0.0-23.0-1.0","SS1613178783628","trial","","40","800","1025.374999921769","images/stimuli/spore_stims/complex_14_B_b.gif","images/stimuli/spore_stims/complex_14_A_b.gif","","","","","5","complex_similar","images/stimuli/spore_stims/complex_14_A_b.gif","right","","","","",""
"","null","html-keyboard-response","100","257596","0.0-23.0-0.1","SS1613178783628","","","null","","","","","<p><img src= images/blank.png width =""200"" height = ""200"" style = ""float:right""></p><p><img src=images/blank.png width =""800"" height = ""200""></p>","","","","","","","","","","","",""
"","809.9599999841303","sequential-stimulus-presentation","101","259218","0.0-23.0-1.1","SS1613178783628","trial","","40","800","1609.9599999841303","images/stimuli/spore_stims/complex_14_B_b.gif","images/stimuli/spore_stims/complex_14_A_b.gif","","","","","5","complex_similar","images/stimuli/spore_stims/complex_14_A_b.gif","right","","","","",""
"","null","html-keyboard-response","102","260476","0.0-23.0-0.2","SS1613178783628","","","null","","","","","<p><img src= images/blank.png width =""200"" height = ""200"" style = ""float:right""></p><p><img src=images/blank.png width =""800"" height = ""200""></p>","","","","","","","","","","","",""
"","527.5100000435486","sequential-stimulus-presentation","103","261818","0.0-23.0-1.2","SS1613178783628","trial","","40","800","1327.5100000435486","images/stimuli/spore_stims/complex_14_B_b.gif","images/stimuli/spore_stims/complex_14_A_b.gif","","","","","5","complex_similar","images/stimuli/spore_stims/complex_14_A_b.gif","right","","","","",""
"","null","html-keyboard-response","104","262674","0.0-23.0-0.3","SS1613178783628","","","null","","","","","<p><img src= images/blank.png width =""200"" height = ""200"" style = ""float:right""></p><p><img src=images/blank.png width =""800"" height = ""200""></p>","","","","","","","","","","","",""
"","683.4549999330193","sequential-stimulus-presentation","105","264171","0.0-23.0-1.3","SS1613178783628","trial","","40","800","1483.4549999330193","images/stimuli/spore_stims/complex_14_B_b.gif","images/stimuli/spore_stims/complex_14_A_b.gif","","","","","5","complex_similar","images/stimuli/spore_stims/complex_14_A_b.gif","right","","","","",""
"","null","html-keyboard-response","106","265113","0.0-23.0-0.4","SS1613178783628","","","null","","","","","<p><img src= images/blank.png width =""200"" height = ""200"" style = ""float:right""></p><p><img src=images/blank.png width =""800"" height = ""200""></p>","","","","","","","","","","","",""
"","952.6949999853969","sequential-stimulus-presentation","107","266882","0.0-23.0-1.4","SS1613178783628","trial","","40","800","1752.6949999853969","images/stimuli/spore_stims/complex_14_B_b.gif","images/stimuli/spore_stims/complex_14_A_b.gif","","","","","5","complex_similar","images/stimuli/spore_stims/complex_14_B_b.gif","middle","","","","",""
"","null","html-keyboard-response","108","268005","0.0-23.0-0.5","SS1613178783628","","","null","","","","","<p><img src= images/blank.png width =""200"" height = ""200"" style = ""float:right""></p><p><img src=images/blank.png width =""800"" height = ""200""></p>","","","","","","","","","","","",""
"","687.6700000138953","sequential-stimulus-presentation","109","269506","0.0-23.0-1.5","SS1613178783628","trial","","40","800","1487.6700000138953","images/stimuli/spore_stims/complex_14_B_b.gif","images/stimuli/spore_stims/complex_14_A_b.gif","","","","","5","complex_similar","images/stimuli/spore_stims/complex_14_A_b.gif","right","","","","",""
"","null","html-keyboard-response","110","270370","0.0-23.0-0.6","SS1613178783628","","","null","","","","","<p><img src= images/blank.png width =""200"" height = ""200"" style = ""float:right""></p><p><img src=images/blank.png width =""800"" height = ""200""></p>","","","","","","","","","","","",""
"","409.49500002898276","sequential-stimulus-presentation","111","271594","0.0-23.0-1.6","SS1613178783628","trial","","40","800","1209.4950000289828","images/stimuli/spore_stims/complex_14_B_b.gif","images/stimuli/spore_stims/complex_14_A_b.gif","","","","","5","complex_similar","images/stimuli/spore_stims/complex_14_A_b.gif","right","","","","",""
"","null","html-keyboard-response","112","272557","0.0-23.0-0.7","SS1613178783628","","","null","","","","","<p><img src= images/blank.png width =""200"" height = ""200"" style = ""float:right""></p><p><img src=images/blank.png width =""800"" height = ""200""></p>","","","","","","","","","","","",""
"","367.36000003293157","sequential-stimulus-presentation","113","273738","0.0-23.0-1.7","SS1613178783628","trial","","40","800","1167.3600000329316","images/stimuli/spore_stims/complex_14_B_b.gif","images/stimuli/spore_stims/complex_14_A_b.gif","","","","","5","complex_similar","images/stimuli/spore_stims/complex_14_A_b.gif","right","","","","",""
"","3068.3000000426546","html-keyboard-response","114","276820","0.0-24.0","SS1613178783628","pref_question","","97","","","","","<video width ='960' height = '540' style='padding-top:8%' autoplay muted><source src='images/stimuli/wall_pref.mp4' type='video/mp4'></video>","1","left","25%","5","","","","","","","",""
"","1186.9000000879169","sequential-stimulus-presentation","115","278819","0.0-25.0","SS1613178783628","pref_reveal","","40","800","1986.9000000879169","null","null","","","","","5","","","","novel","","","",""
"","null","html-keyboard-response","116","279965","0.0-26.0-0.0","SS1613178783628","","","null","","","","","<p><img src= images/blank.png width =""200"" height = ""200"" style = ""float:right""></p><p><img src=images/blank.png width =""800"" height = ""200""></p>","","","","","","","","","","","",""
"","632.6699999626726","sequential-stimulus-presentation","117","281411","0.0-26.0-1.0","SS1613178783628","trial","","40","800","1432.6699999626726","images/stimuli/spore_stims/complex_13_B_b.gif","images/stimuli/spore_stims/complex_12_A_b.gif","","","","","6","complex_dissimilar","images/stimuli/spore_stims/complex_12_A_b.gif","right","","","","",""
"","null","html-keyboard-response","118","282318","0.0-26.0-0.1","SS1613178783628","","","null","","","","","<p><img src= images/blank.png width =""200"" height = ""200"" style = ""float:right""></p><p><img src=images/blank.png width =""800"" height = ""200""></p>","","","","","","","","","","","",""
"","630.7449999731034","sequential-stimulus-presentation","119","283763","0.0-26.0-1.1","SS1613178783628","trial","","40","800","1430.7449999731034","images/stimuli/spore_stims/complex_13_B_b.gif","images/stimuli/spore_stims/complex_12_A_b.gif","","","","","6","complex_dissimilar","images/stimuli/spore_stims/complex_12_A_b.gif","right","","","","",""
"","null","html-keyboard-response","120","284603","0.0-26.0-0.2","SS1613178783628","","","null","","","","","<p><img src= images/blank.png width =""200"" height = ""200"" style = ""float:right""></p><p><img src=images/blank.png width =""800"" height = ""200""></p>","","","","","","","","","","","",""
"","105.8999999659136","sequential-stimulus-presentation","121","285524","0.0-26.0-1.2","SS1613178783628","trial","","40","800","905.8999999659136","images/stimuli/spore_stims/complex_13_B_b.gif","images/stimuli/spore_stims/complex_12_A_b.gif","","","","","6","complex_dissimilar","images/stimuli/spore_stims/complex_12_A_b.gif","right","","","","",""
"","null","html-keyboard-response","122","286502","0.0-26.0-0.3","SS1613178783628","","","null","","","","","<p><img src= images/blank.png width =""200"" height = ""200"" style = ""float:right""></p><p><img src=images/blank.png width =""800"" height = ""200""></p>","","","","","","","","","","","",""
"","415.0600000284612","sequential-stimulus-presentation","123","287731","0.0-26.0-1.3","SS1613178783628","trial","","40","800","1215.0600000284612","images/stimuli/spore_stims/complex_13_B_b.gif","images/stimuli/spore_stims/complex_12_A_b.gif","","","","","6","complex_dissimilar","images/stimuli/spore_stims/complex_12_A_b.gif","right","","","","",""
"","null","html-keyboard-response","124","288668","0.0-26.0-0.4","SS1613178783628","","","null","","","","","<p><img src= images/blank.png width =""200"" height = ""200"" style = ""float:right""></p><p><img src=images/blank.png width =""800"" height = ""200""></p>","","","","","","","","","","","",""
"","458.44499999657273","sequential-stimulus-presentation","125","289940","0.0-26.0-1.4","SS1613178783628","trial","","40","800","1258.4449999965727","images/stimuli/spore_stims/complex_13_B_b.gif","images/stimuli/spore_stims/complex_12_A_b.gif","","","","","6","complex_dissimilar","images/stimuli/spore_stims/complex_12_A_b.gif","right","","","","",""
"","null","html-keyboard-response","126","290919","0.0-26.0-0.5","SS1613178783628","","","null","","","","","<p><img src= images/blank.png width =""200"" height = ""200"" style = ""float:right""></p><p><img src=images/blank.png width =""800"" height = ""200""></p>","","","","","","","","","","","",""
"","719.1900000907481","sequential-stimulus-presentation","127","292451","0.0-26.0-1.5","SS1613178783628","trial","","40","800","1519.190000090748","images/stimuli/spore_stims/complex_13_B_b.gif","images/stimuli/spore_stims/complex_12_A_b.gif","","","","","6","complex_dissimilar","images/stimuli/spore_stims/complex_12_A_b.gif","right","","","","",""
"","null","html-keyboard-response","128","293395","0.0-26.0-0.6","SS1613178783628","","","null","","","","","<p><img src= images/blank.png width =""200"" height = ""200"" style = ""float:right""></p><p><img src=images/blank.png width =""800"" height = ""200""></p>","","","","","","","","","","","",""
"","23.739999975077808","sequential-stimulus-presentation","129","294267","0.0-26.0-1.6","SS1613178783628","trial","","40","800","823.7399999750778","images/stimuli/spore_stims/complex_13_B_b.gif","images/stimuli/spore_stims/complex_12_A_b.gif","","","","","6","complex_dissimilar","images/stimuli/spore_stims/complex_12_A_b.gif","right","","","","",""
"","null","html-keyboard-response","130","295252","0.0-26.0-0.7","SS1613178783628","","","null","","","","","<p><img src= images/blank.png width =""200"" height = ""200"" style = ""float:right""></p><p><img src=images/blank.png width =""800"" height = ""200""></p>","","","","","","","","","","","",""
"","513.6850000126287","sequential-stimulus-presentation","131","296579","0.0-26.0-1.7","SS1613178783628","trial","","40","800","1313.6850000126287","images/stimuli/spore_stims/complex_13_B_b.gif","images/stimuli/spore_stims/complex_12_A_b.gif","","","","","6","complex_dissimilar","images/stimuli/spore_stims/complex_13_B_b.gif","middle","","","","",""
"","2106.9050000514835","html-keyboard-response","132","298693","0.0-27.0","SS1613178783628","pref_question","","99","","","","","<video width ='960' height = '540' style='padding-top:8%' autoplay muted><source src='images/stimuli/wall_pref.mp4' type='video/mp4'></video>","3","right","66%","6","","","","","","","",""
"","222.52000006847084","sequential-stimulus-presentation","133","299731","0.0-28.0","SS1613178783628","pref_reveal","","40","800","1022.5200000684708","null","null","","","","","6","","","","background","","","",""
"","null","html-keyboard-response","134","300929","0.0-29.0-0.0","SS1613178783628","","","null","","","","","<p><img src= images/blank.png width =""200"" height = ""200"" style = ""float:right""></p><p><img src=images/blank.png width =""800"" height = ""200""></p>","","","","","","","","","","","",""
"","1234.6600000746548","sequential-stimulus-presentation","135","302979","0.0-29.0-1.0","SS1613178783628","trial","","40","800","2034.6600000746548","images/stimuli/spore_stims/simple_02_A_a.gif","images/stimuli/spore_stims/simple_10_B_a.gif","","","","","7","simple_dissimilar","images/stimuli/spore_stims/simple_10_B_a.gif","left","","","","",""
"","null","html-keyboard-response","136","304117","0.0-29.0-0.1","SS1613178783628","","","null","","","","","<p><img src= images/blank.png width =""200"" height = ""200"" style = ""float:right""></p><p><img src=images/blank.png width =""800"" height = ""200""></p>","","","","","","","","","","","",""
"","1127.585000009276","sequential-stimulus-presentation","137","306059","0.0-29.0-1.1","SS1613178783628","trial","","40","800","1927.585000009276","images/stimuli/spore_stims/simple_02_A_a.gif","images/stimuli/spore_stims/simple_10_B_a.gif","","","","","7","simple_dissimilar","images/stimuli/spore_stims/simple_10_B_a.gif","left","","","","",""
"","null","html-keyboard-response","138","307011","0.0-29.0-0.2","SS1613178783628","","","null","","","","","<p><img src= images/blank.png width =""200"" height = ""200"" style = ""float:right""></p><p><img src=images/blank.png width =""800"" height = ""200""></p>","","","","","","","","","","","",""
"","2577.6750000659376","sequential-stimulus-presentation","139","310396","0.0-29.0-1.2","SS1613178783628","trial","","40","800","3377.6750000659376","images/stimuli/spore_stims/simple_02_A_a.gif","images/stimuli/spore_stims/simple_10_B_a.gif","","","","","7","simple_dissimilar","images/stimuli/spore_stims/simple_10_B_a.gif","left","","","","",""
"","null","html-keyboard-response","140","311356","0.0-29.0-0.3","SS1613178783628","","","null","","","","","<p><img src= images/blank.png width =""200"" height = ""200"" style = ""float:right""></p><p><img src=images/blank.png width =""800"" height = ""200""></p>","","","","","","","","","","","",""
"","1744.2499999888241","sequential-stimulus-presentation","141","313915","0.0-29.0-1.3","SS1613178783628","trial","","40","800","2544.249999988824","images/stimuli/spore_stims/simple_02_A_a.gif","images/stimuli/spore_stims/simple_10_B_a.gif","","","","","7","simple_dissimilar","images/stimuli/spore_stims/simple_10_B_a.gif","left","","","","",""
"","null","html-keyboard-response","142","315164","0.0-29.0-0.4","SS1613178783628","","","null","","","","","<p><img src= images/blank.png width =""200"" height = ""200"" style = ""float:right""></p><p><img src=images/blank.png width =""800"" height = ""200""></p>","","","","","","","","","","","",""
"","5071.839999989606","sequential-stimulus-presentation","143","321052","0.0-29.0-1.4","SS1613178783628","trial","","40","800","5871.839999989606","images/stimuli/spore_stims/simple_02_A_a.gif","images/stimuli/spore_stims/simple_10_B_a.gif","","","","","7","simple_dissimilar","images/stimuli/spore_stims/simple_10_B_a.gif","left","","","","",""
"","null","html-keyboard-response","144","321872","0.0-29.0-0.5","SS1613178783628","","","null","","","","","<p><img src= images/blank.png width =""200"" height = ""200"" style = ""float:right""></p><p><img src=images/blank.png width =""800"" height = ""200""></p>","","","","","","","","","","","",""
"","443.4950000140816","sequential-stimulus-presentation","145","323130","0.0-29.0-1.5","SS1613178783628","trial","","40","800","1243.4950000140816","images/stimuli/spore_stims/simple_02_A_a.gif","images/stimuli/spore_stims/simple_10_B_a.gif","","","","","7","simple_dissimilar","images/stimuli/spore_stims/simple_10_B_a.gif","left","","","","",""
"","null","html-keyboard-response","146","323962","0.0-29.0-0.6","SS1613178783628","","","null","","","","","<p><img src= images/blank.png width =""200"" height = ""200"" style = ""float:right""></p><p><img src=images/blank.png width =""800"" height = ""200""></p>","","","","","","","","","","","",""
"","193.66500002797693","sequential-stimulus-presentation","147","324971","0.0-29.0-1.6","SS1613178783628","trial","","40","800","993.6650000279769","images/stimuli/spore_stims/simple_02_A_a.gif","images/stimuli/spore_stims/simple_10_B_a.gif","","","","","7","simple_dissimilar","images/stimuli/spore_stims/simple_02_A_a.gif","right","","","","",""
"","null","html-keyboard-response","148","326146","0.0-29.0-0.7","SS1613178783628","","","null","","","","","<p><img src= images/blank.png width =""200"" height = ""200"" style = ""float:right""></p><p><img src=images/blank.png width =""800"" height = ""200""></p>","","","","","","","","","","","",""
"","132.71500007249415","sequential-stimulus-presentation","149","327098","0.0-29.0-1.7","SS1613178783628","trial","","40","800","932.7150000724941","images/stimuli/spore_stims/simple_02_A_a.gif","images/stimuli/spore_stims/simple_10_B_a.gif","","","","","7","simple_dissimilar","images/stimuli/spore_stims/simple_10_B_a.gif","left","","","","",""
"","965.7799999695271","html-keyboard-response","150","328090","0.0-30.0","SS1613178783628","pref_question","","97","","","","","<video width ='960' height = '540' style='padding-top:8%' autoplay muted><source src='images/stimuli/wall_pref.mp4' type='video/mp4'></video>","1","left","25%","7","","","","","","","",""
"","2213.3799999719486","sequential-stimulus-presentation","151","331116","0.0-31.0","SS1613178783628","pref_reveal","","40","800","3013.3799999719486","null","null","","","","","7","","","","background","","","",""
"","null","html-keyboard-response","152","332060","0.0-32.0-0.0","SS1613178783628","","","null","","","","","<p><img src= images/blank.png width =""200"" height = ""200"" style = ""float:right""></p><p><img src=images/blank.png width =""800"" height = ""200""></p>","","","","","","","","","","","",""
"","525.7149999961257","sequential-stimulus-presentation","153","333402","0.0-32.0-1.0","SS1613178783628","trial","","40","800","1325.7149999961257","images/stimuli/spore_stims/simple_05_B_c.gif","images/stimuli/spore_stims/simple_19_A_b.gif","","","","","8","simple_dissimilar","images/stimuli/spore_stims/simple_19_A_b.gif","middle","","","","",""
"","null","html-keyboard-response","154","334680","0.0-32.0-0.1","SS1613178783628","","","null","","","","","<p><img src= images/blank.png width =""200"" height = ""200"" style = ""float:right""></p><p><img src=images/blank.png width =""800"" height = ""200""></p>","","","","","","","","","","","",""
"","403.62500003539026","sequential-stimulus-presentation","155","335914","0.0-32.0-1.1","SS1613178783628","trial","","40","800","1203.6250000353903","images/stimuli/spore_stims/simple_05_B_c.gif","images/stimuli/spore_stims/simple_19_A_b.gif","","","","","8","simple_dissimilar","images/stimuli/spore_stims/simple_19_A_b.gif","middle","","","","",""
"","null","html-keyboard-response","156","337204","0.0-32.0-0.2","SS1613178783628","","","null","","","","","<p><img src= images/blank.png width =""200"" height = ""200"" style = ""float:right""></p><p><img src=images/blank.png width =""800"" height = ""200""></p>","","","","","","","","","","","",""
"","279.50499998405576","sequential-stimulus-presentation","157","338299","0.0-32.0-1.2","SS1613178783628","trial","","40","800","1079.5049999840558","images/stimuli/spore_stims/simple_05_B_c.gif","images/stimuli/spore_stims/simple_19_A_b.gif","","","","","8","simple_dissimilar","images/stimuli/spore_stims/simple_19_A_b.gif","middle","","","","",""
"","null","html-keyboard-response","158","339120","0.0-32.0-0.3","SS1613178783628","","","null","","","","","<p><img src= images/blank.png width =""200"" height = ""200"" style = ""float:right""></p><p><img src=images/blank.png width =""800"" height = ""200""></p>","","","","","","","","","","","",""
"","549.3850000202656","sequential-stimulus-presentation","159","340483","0.0-32.0-1.3","SS1613178783628","trial","","40","800","1349.3850000202656","images/stimuli/spore_stims/simple_05_B_c.gif","images/stimuli/spore_stims/simple_19_A_b.gif","","","","","8","simple_dissimilar","images/stimuli/spore_stims/simple_19_A_b.gif","middle","","","","",""
"","null","html-keyboard-response","160","341629","0.0-32.0-0.4","SS1613178783628","","","null","","","","","<p><img src= images/blank.png width =""200"" height = ""200"" style = ""float:right""></p><p><img src=images/blank.png width =""800"" height = ""200""></p>","","","","","","","","","","","",""
"","887.1199999703094","sequential-stimulus-presentation","161","343331","0.0-32.0-1.4","SS1613178783628","trial","","40","800","1687.1199999703094","images/stimuli/spore_stims/simple_05_B_c.gif","images/stimuli/spore_stims/simple_19_A_b.gif","","","","","8","simple_dissimilar","images/stimuli/spore_stims/simple_19_A_b.gif","middle","","","","",""
"","null","html-keyboard-response","162","344388","0.0-32.0-0.5","SS1613178783628","","","null","","","","","<p><img src= images/blank.png width =""200"" height = ""200"" style = ""float:right""></p><p><img src=images/blank.png width =""800"" height = ""200""></p>","","","","","","","","","","","",""
"","558.3300000289455","sequential-stimulus-presentation","163","345763","0.0-32.0-1.5","SS1613178783628","trial","","40","800","1358.3300000289455","images/stimuli/spore_stims/simple_05_B_c.gif","images/stimuli/spore_stims/simple_19_A_b.gif","","","","","8","simple_dissimilar","images/stimuli/spore_stims/simple_19_A_b.gif","middle","","","","",""
"","null","html-keyboard-response","164","346643","0.0-32.0-0.6","SS1613178783628","","","null","","","","","<p><img src= images/blank.png width =""200"" height = ""200"" style = ""float:right""></p><p><img src=images/blank.png width =""800"" height = ""200""></p>","","","","","","","","","","","",""
"","218.2800000300631","sequential-stimulus-presentation","165","347677","0.0-32.0-1.6","SS1613178783628","trial","","40","800","1018.2800000300631","images/stimuli/spore_stims/simple_05_B_c.gif","images/stimuli/spore_stims/simple_19_A_b.gif","","","","","8","simple_dissimilar","images/stimuli/spore_stims/simple_19_A_b.gif","middle","","","","",""
"","null","html-keyboard-response","166","348926","0.0-32.0-0.7","SS1613178783628","","","null","","","","","<p><img src= images/blank.png width =""200"" height = ""200"" style = ""float:right""></p><p><img src=images/blank.png width =""800"" height = ""200""></p>","","","","","","","","","","","",""
"","158.52499997708946","sequential-stimulus-presentation","167","349898","0.0-32.0-1.7","SS1613178783628","trial","","40","800","958.5249999770895","images/stimuli/spore_stims/simple_05_B_c.gif","images/stimuli/spore_stims/simple_19_A_b.gif","","","","","8","simple_dissimilar","images/stimuli/spore_stims/simple_05_B_c.gif","left","","","","",""
"","1625.0199999194592","html-keyboard-response","168","351531","0.0-33.0","SS1613178783628","pref_question","","97","","","","","<video width ='960' height = '540' style='padding-top:8%' autoplay muted><source src='images/stimuli/wall_pref.mp4' type='video/mp4'></video>","1","left","25%","8","","","","","","","",""
"","986.8850000202656","sequential-stimulus-presentation","169","353332","0.0-34.0","SS1613178783628","pref_reveal","","40","800","1786.8850000202656","null","null","","","","","8","","","","deviant","","","",""
"","null","html-keyboard-response","170","354245","0.0-35.0-0.0","SS1613178783628","","","null","","","","","<p><img src= images/blank.png width =""200"" height = ""200"" style = ""float:right""></p><p><img src=images/blank.png width =""800"" height = ""200""></p>","","","","","","","","","","","",""
"","366.80499999783933","sequential-stimulus-presentation","171","355427","0.0-35.0-1.0","SS1613178783628","trial","","40","800","1166.8049999978393","images/stimuli/spore_stims/complex_12_B_d.gif","images/stimuli/spore_stims/complex_02_B_d.gif","","","","","9","complex_dissimilar","images/stimuli/spore_stims/complex_02_B_d.gif","middle","","","","",""
"","null","html-keyboard-response","172","356418","0.0-35.0-0.1","SS1613178783628","","","null","","","","","<p><img src= images/blank.png width =""200"" height = ""200"" style = ""float:right""></p><p><img src=images/blank.png width =""800"" height = ""200""></p>","","","","","","","","","","","",""
"","89.24000000115484","sequential-stimulus-presentation","173","357322","0.0-35.0-1.1","SS1613178783628","trial","","40","800","889.2400000011548","images/stimuli/spore_stims/complex_12_B_d.gif","images/stimuli/spore_stims/complex_02_B_d.gif","","","","","9","complex_dissimilar","images/stimuli/spore_stims/complex_02_B_d.gif","middle","","","","",""
"","null","html-keyboard-response","174","358168","0.0-35.0-0.2","SS1613178783628","","","null","","","","","<p><img src= images/blank.png width =""200"" height = ""200"" style = ""float:right""></p><p><img src=images/blank.png width =""800"" height = ""200""></p>","","","","","","","","","","","",""
"","987.2400000458583","sequential-stimulus-presentation","175","359970","0.0-35.0-1.2","SS1613178783628","trial","","40","800","1787.2400000458583","images/stimuli/spore_stims/complex_12_B_d.gif","images/stimuli/spore_stims/complex_02_B_d.gif","","","","","9","complex_dissimilar","images/stimuli/spore_stims/complex_02_B_d.gif","middle","","","","",""
"","null","html-keyboard-response","176","361182","0.0-35.0-0.3","SS1613178783628","","","null","","","","","<p><img src= images/blank.png width =""200"" height = ""200"" style = ""float:right""></p><p><img src=images/blank.png width =""800"" height = ""200""></p>","","","","","","","","","","","",""
"","247.15000006835908","sequential-stimulus-presentation","177","362266","0.0-35.0-1.3","SS1613178783628","trial","","40","800","1047.150000068359","images/stimuli/spore_stims/complex_12_B_d.gif","images/stimuli/spore_stims/complex_02_B_d.gif","","","","","9","complex_dissimilar","images/stimuli/spore_stims/complex_02_B_d.gif","middle","","","","",""
"","null","html-keyboard-response","178","363511","0.0-35.0-0.4","SS1613178783628","","","null","","","","","<p><img src= images/blank.png width =""200"" height = ""200"" style = ""float:right""></p><p><img src=images/blank.png width =""800"" height = ""200""></p>","","","","","","","","","","","",""
"","531.9100000197068","sequential-stimulus-presentation","179","364858","0.0-35.0-1.4","SS1613178783628","trial","","40","800","1331.9100000197068","images/stimuli/spore_stims/complex_12_B_d.gif","images/stimuli/spore_stims/complex_02_B_d.gif","","","","","9","complex_dissimilar","images/stimuli/spore_stims/complex_02_B_d.gif","middle","","","","",""
"","null","html-keyboard-response","180","365991","0.0-35.0-0.5","SS1613178783628","","","null","","","","","<p><img src= images/blank.png width =""200"" height = ""200"" style = ""float:right""></p><p><img src=images/blank.png width =""800"" height = ""200""></p>","","","","","","","","","","","",""
"","372.56500008516014","sequential-stimulus-presentation","181","367178","0.0-35.0-1.5","SS1613178783628","trial","","40","800","1172.5650000851601","images/stimuli/spore_stims/complex_12_B_d.gif","images/stimuli/spore_stims/complex_02_B_d.gif","","","","","9","complex_dissimilar","images/stimuli/spore_stims/complex_02_B_d.gif","middle","","","","",""
"","null","html-keyboard-response","182","368020","0.0-35.0-0.6","SS1613178783628","","","null","","","","","<p><img src= images/blank.png width =""200"" height = ""200"" style = ""float:right""></p><p><img src=images/blank.png width =""800"" height = ""200""></p>","","","","","","","","","","","",""
"","111.89999990165234","sequential-stimulus-presentation","183","368946","0.0-35.0-1.6","SS1613178783628","trial","","40","800","911.8999999016523","images/stimuli/spore_stims/complex_12_B_d.gif","images/stimuli/spore_stims/complex_02_B_d.gif","","","","","9","complex_dissimilar","images/stimuli/spore_stims/complex_02_B_d.gif","middle","","","","",""
"","null","html-keyboard-response","184","370021","0.0-35.0-0.7","SS1613178783628","","","null","","","","","<p><img src= images/blank.png width =""200"" height = ""200"" style = ""float:right""></p><p><img src=images/blank.png width =""800"" height = ""200""></p>","","","","","","","","","","","",""
"","919.7500000009313","sequential-stimulus-presentation","185","371778","0.0-35.0-1.7","SS1613178783628","trial","","40","800","1719.7500000009313","images/stimuli/spore_stims/complex_12_B_d.gif","images/stimuli/spore_stims/complex_02_B_d.gif","","","","","9","complex_dissimilar","images/stimuli/spore_stims/complex_12_B_d.gif","right","","","","",""
"","1331.8100000033155","html-keyboard-response","186","373123","0.0-36.0","SS1613178783628","pref_question","","99","","","","","<video width ='960' height = '540' style='padding-top:8%' autoplay muted><source src='images/stimuli/wall_pref.mp4' type='video/mp4'></video>","3","right","66%","9","","","","","","","",""
"","505.2099999738857","sequential-stimulus-presentation","187","374442","0.0-37.0","SS1613178783628","pref_reveal","","40","800","1305.2099999738857","null","null","","","","","9","","","","deviant","","","",""
"","null","html-keyboard-response","188","375502","0.0-38.0-0.0","SS1613178783628","","","null","","","","","<p><img src= images/blank.png width =""200"" height = ""200"" style = ""float:right""></p><p><img src=images/blank.png width =""800"" height = ""200""></p>","","","","","","","","","","","",""
"","584.7749999957159","sequential-stimulus-presentation","189","376907","0.0-38.0-1.0","SS1613178783628","trial","","40","800","1384.774999995716","images/stimuli/spore_stims/complex_19_A_d.gif","images/stimuli/spore_stims/complex_19_B_d.gif","","","","","10","complex_similar","images/stimuli/spore_stims/complex_19_B_d.gif","left","","","","",""
"","null","html-keyboard-response","190","378209","0.0-38.0-0.1","SS1613178783628","","","null","","","","","<p><img src= images/blank.png width =""200"" height = ""200"" style = ""float:right""></p><p><img src=images/blank.png width =""800"" height = ""200""></p>","","","","","","","","","","","",""
"","243.22000006213784","sequential-stimulus-presentation","191","379266","0.0-38.0-1.1","SS1613178783628","trial","","40","800","1043.2200000621378","images/stimuli/spore_stims/complex_19_A_d.gif","images/stimuli/spore_stims/complex_19_B_d.gif","","","","","10","complex_similar","images/stimuli/spore_stims/complex_19_B_d.gif","left","","","","",""
"","null","html-keyboard-response","192","380502","0.0-38.0-0.2","SS1613178783628","","","null","","","","","<p><img src= images/blank.png width =""200"" height = ""200"" style = ""float:right""></p><p><img src=images/blank.png width =""800"" height = ""200""></p>","","","","","","","","","","","",""
"","353.22499996982515","sequential-stimulus-presentation","193","381674","0.0-38.0-1.2","SS1613178783628","trial","","40","800","1153.2249999698251","images/stimuli/spore_stims/complex_19_A_d.gif","images/stimuli/spore_stims/complex_19_B_d.gif","","","","","10","complex_similar","images/stimuli/spore_stims/complex_19_B_d.gif","left","","","","",""
"","null","html-keyboard-response","194","382727","0.0-38.0-0.3","SS1613178783628","","","null","","","","","<p><img src= images/blank.png width =""200"" height = ""200"" style = ""float:right""></p><p><img src=images/blank.png width =""800"" height = ""200""></p>","","","","","","","","","","","",""
"","858.8150000432506","sequential-stimulus-presentation","195","384402","0.0-38.0-1.3","SS1613178783628","trial","","40","800","1658.8150000432506","images/stimuli/spore_stims/complex_19_A_d.gif","images/stimuli/spore_stims/complex_19_B_d.gif","","","","","10","complex_similar","images/stimuli/spore_stims/complex_19_B_d.gif","left","","","","",""
"","null","html-keyboard-response","196","385237","0.0-38.0-0.4","SS1613178783628","","","null","","","","","<p><img src= images/blank.png width =""200"" height = ""200"" style = ""float:right""></p><p><img src=images/blank.png width =""800"" height = ""200""></p>","","","","","","","","","","","",""
"","241.18499993346632","sequential-stimulus-presentation","197","386297","0.0-38.0-1.4","SS1613178783628","trial","","40","800","1041.1849999334663","images/stimuli/spore_stims/complex_19_A_d.gif","images/stimuli/spore_stims/complex_19_B_d.gif","","","","","10","complex_similar","images/stimuli/spore_stims/complex_19_B_d.gif","left","","","","",""
"","null","html-keyboard-response","198","387390","0.0-38.0-0.5","SS1613178783628","","","null","","","","","<p><img src= images/blank.png width =""200"" height = ""200"" style = ""float:right""></p><p><img src=images/blank.png width =""800"" height = ""200""></p>","","","","","","","","","","","",""
"","228.90999994706362","sequential-stimulus-presentation","199","388435","0.0-38.0-1.5","SS1613178783628","trial","","40","800","1028.9099999470636","images/stimuli/spore_stims/complex_19_A_d.gif","images/stimuli/spore_stims/complex_19_B_d.gif","","","","","10","complex_similar","images/stimuli/spore_stims/complex_19_B_d.gif","left","","","","",""
"","null","html-keyboard-response","200","389411","0.0-38.0-0.6","SS1613178783628","","","null","","","","","<p><img src= images/blank.png width =""200"" height = ""200"" style = ""float:right""></p><p><img src=images/blank.png width =""800"" height = ""200""></p>","","","","","","","","","","","",""
"","2031.5900000277907","sequential-stimulus-presentation","201","392258","0.0-38.0-1.6","SS1613178783628","trial","","40","800","2831.5900000277907","images/stimuli/spore_stims/complex_19_A_d.gif","images/stimuli/spore_stims/complex_19_B_d.gif","","","","","10","complex_similar","images/stimuli/spore_stims/complex_19_B_d.gif","left","","","","",""
"","null","html-keyboard-response","202","393120","0.0-38.0-0.7","SS1613178783628","","","null","","","","","<p><img src= images/blank.png width =""200"" height = ""200"" style = ""float:right""></p><p><img src=images/blank.png width =""800"" height = ""200""></p>","","","","","","","","","","","",""
"","665.1450000936165","sequential-stimulus-presentation","203","394601","0.0-38.0-1.7","SS1613178783628","trial","","40","800","1465.1450000936165","images/stimuli/spore_stims/complex_19_A_d.gif","images/stimuli/spore_stims/complex_19_B_d.gif","","","","","10","complex_similar","images/stimuli/spore_stims/complex_19_A_d.gif","middle","","","","",""
"","1199.2749999044463","html-keyboard-response","204","395812","0.0-39.0","SS1613178783628","pref_question","","98","","","","","<video width ='960' height = '540' style='padding-top:8%' autoplay muted><source src='images/stimuli/wall_pref.mp4' type='video/mp4'></video>","2","middle","45%","10","","","","","","","",""
"","177.09000001195818","sequential-stimulus-presentation","205","396808","0.0-40.0","SS1613178783628","pref_reveal","","40","800","977.0900000119582","null","null","","","","","10","","","","deviant","","","",""
"","null","html-keyboard-response","206","397892","0.0-41.0-0.0","SS1613178783628","","","null","","","","","<p><img src= images/blank.png width =""200"" height = ""200"" style = ""float:right""></p><p><img src=images/blank.png width =""800"" height = ""200""></p>","","","","","","","","","","","",""
"","145.3050000127405","sequential-stimulus-presentation","207","398854","0.0-41.0-1.0","SS1613178783628","trial","","40","800","945.3050000127405","images/stimuli/spore_stims/simple_16_A_b.gif","images/stimuli/spore_stims/simple_12_A_a.gif","","","","","11","simple_dissimilar","images/stimuli/spore_stims/simple_12_A_a.gif","middle","","","","",""
"","null","html-keyboard-response","208","399888","0.0-41.0-0.1","SS1613178783628","","","null","","","","","<p><img src= images/blank.png width =""200"" height = ""200"" style = ""float:right""></p><p><img src=images/blank.png width =""800"" height = ""200""></p>","","","","","","","","","","","",""
"","818.7700000125915","sequential-stimulus-presentation","209","401548","0.0-41.0-1.1","SS1613178783628","trial","","40","800","1618.7700000125915","images/stimuli/spore_stims/simple_16_A_b.gif","images/stimuli/spore_stims/simple_12_A_a.gif","","","","","11","simple_dissimilar","images/stimuli/spore_stims/simple_12_A_a.gif","middle","","","","",""
"","null","html-keyboard-response","210","402564","0.0-41.0-0.2","SS1613178783628","","","null","","","","","<p><img src= images/blank.png width =""200"" height = ""200"" style = ""float:right""></p><p><img src=images/blank.png width =""800"" height = ""200""></p>","","","","","","","","","","","",""
"","308.7900000391528","sequential-stimulus-presentation","211","403691","0.0-41.0-1.2","SS1613178783628","trial","","40","800","1108.7900000391528","images/stimuli/spore_stims/simple_16_A_b.gif","images/stimuli/spore_stims/simple_12_A_a.gif","","","","","11","simple_dissimilar","images/stimuli/spore_stims/simple_16_A_b.gif","right","","","","",""
"","null","html-keyboard-response","212","404562","0.0-41.0-0.3","SS1613178783628","","","null","","","","","<p><img src= images/blank.png width =""200"" height = ""200"" style = ""float:right""></p><p><img src=images/blank.png width =""800"" height = ""200""></p>","","","","","","","","","","","",""
"","377.48999998439103","sequential-stimulus-presentation","213","405755","0.0-41.0-1.3","SS1613178783628","trial","","40","800","1177.489999984391","images/stimuli/spore_stims/simple_16_A_b.gif","images/stimuli/spore_stims/simple_12_A_a.gif","","","","","11","simple_dissimilar","images/stimuli/spore_stims/simple_12_A_a.gif","middle","","","","",""
"","null","html-keyboard-response","214","406994","0.0-41.0-0.4","SS1613178783628","","","null","","","","","<p><img src= images/blank.png width =""200"" height = ""200"" style = ""float:right""></p><p><img src=images/blank.png width =""800"" height = ""200""></p>","","","","","","","","","","","",""
"","1929.4200000585988","sequential-stimulus-presentation","215","409739","0.0-41.0-1.4","SS1613178783628","trial","","40","800","2729.420000058599","images/stimuli/spore_stims/simple_16_A_b.gif","images/stimuli/spore_stims/simple_12_A_a.gif","","","","","11","simple_dissimilar","images/stimuli/spore_stims/simple_12_A_a.gif","middle","","","","",""
"","null","html-keyboard-response","216","410545","0.0-41.0-0.5","SS1613178783628","","","null","","","","","<p><img src= images/blank.png width =""200"" height = ""200"" style = ""float:right""></p><p><img src=images/blank.png width =""800"" height = ""200""></p>","","","","","","","","","","","",""
"","768.3249999536201","sequential-stimulus-presentation","217","412131","0.0-41.0-1.5","SS1613178783628","trial","","40","800","1568.3249999536201","images/stimuli/spore_stims/simple_16_A_b.gif","images/stimuli/spore_stims/simple_12_A_a.gif","","","","","11","simple_dissimilar","images/stimuli/spore_stims/simple_12_A_a.gif","middle","","","","",""
"","null","html-keyboard-response","218","413393","0.0-41.0-0.6","SS1613178783628","","","null","","","","","<p><img src= images/blank.png width =""200"" height = ""200"" style = ""float:right""></p><p><img src=images/blank.png width =""800"" height = ""200""></p>","","","","","","","","","","","",""
"","1858.8150000432506","sequential-stimulus-presentation","219","416068","0.0-41.0-1.6","SS1613178783628","trial","","40","800","2658.8150000432506","images/stimuli/spore_stims/simple_16_A_b.gif","images/stimuli/spore_stims/simple_12_A_a.gif","","","","","11","simple_dissimilar","images/stimuli/spore_stims/simple_12_A_a.gif","middle","","","","",""
"","null","html-keyboard-response","220","417303","0.0-41.0-0.7","SS1613178783628","","","null","","","","","<p><img src= images/blank.png width =""200"" height = ""200"" style = ""float:right""></p><p><img src=images/blank.png width =""800"" height = ""200""></p>","","","","","","","","","","","",""
"","1046.239999937825","sequential-stimulus-presentation","221","419170","0.0-41.0-1.7","SS1613178783628","trial","","40","800","1846.239999937825","images/stimuli/spore_stims/simple_16_A_b.gif","images/stimuli/spore_stims/simple_12_A_a.gif","","","","","11","simple_dissimilar","images/stimuli/spore_stims/simple_12_A_a.gif","middle","","","","",""
"","1421.944999950938","html-keyboard-response","222","420620","0.0-42.0","SS1613178783628","pref_question","","98","","","","","<video width ='960' height = '540' style='padding-top:8%' autoplay muted><source src='images/stimuli/wall_pref.mp4' type='video/mp4'></video>","2","middle","45%","11","","","","","","","",""
"","608.2499999320135","sequential-stimulus-presentation","223","422044","0.0-43.0","SS1613178783628","pref_reveal","","40","800","1408.2499999320135","null","null","","","","","11","","","","background","","","",""
"","null","html-keyboard-response","224","422878","0.0-44.0-0.0","SS1613178783628","","","null","","","","","<p><img src= images/blank.png width =""200"" height = ""200"" style = ""float:right""></p><p><img src=images/blank.png width =""800"" height = ""200""></p>","","","","","","","","","","","",""
"","755.6999999796972","sequential-stimulus-presentation","225","424451","0.0-44.0-1.0","SS1613178783628","trial","","40","800","1555.6999999796972","images/stimuli/spore_stims/simple_04_B_b.gif","images/stimuli/spore_stims/simple_17_B_a.gif","","","","","12","simple_dissimilar","images/stimuli/spore_stims/simple_17_B_a.gif","left","","","","",""
"","null","html-keyboard-response","226","425287","0.0-44.0-0.1","SS1613178783628","","","null","","","","","<p><img src= images/blank.png width =""200"" height = ""200"" style = ""float:right""></p><p><img src=images/blank.png width =""800"" height = ""200""></p>","","","","","","","","","","","",""
"","362.58499999530613","sequential-stimulus-presentation","227","426466","0.0-44.0-1.1","SS1613178783628","trial","","40","800","1162.5849999953061","images/stimuli/spore_stims/simple_04_B_b.gif","images/stimuli/spore_stims/simple_17_B_a.gif","","","","","12","simple_dissimilar","images/stimuli/spore_stims/simple_17_B_a.gif","left","","","","",""
"","null","html-keyboard-response","228","427281","0.0-44.0-0.2","SS1613178783628","","","null","","","","","<p><img src= images/blank.png width =""200"" height = ""200"" style = ""float:right""></p><p><img src=images/blank.png width =""800"" height = ""200""></p>","","","","","","","","","","","",""
"","361.61500005982816","sequential-stimulus-presentation","229","428459","0.0-44.0-1.2","SS1613178783628","trial","","40","800","1161.6150000598282","images/stimuli/spore_stims/simple_04_B_b.gif","images/stimuli/spore_stims/simple_17_B_a.gif","","","","","12","simple_dissimilar","images/stimuli/spore_stims/simple_17_B_a.gif","left","","","","",""
"","null","html-keyboard-response","230","429710","0.0-44.0-0.3","SS1613178783628","","","null","","","","","<p><img src= images/blank.png width =""200"" height = ""200"" style = ""float:right""></p><p><img src=images/blank.png width =""800"" height = ""200""></p>","","","","","","","","","","","",""
"","2406.9050000980496","sequential-stimulus-presentation","231","432940","0.0-44.0-1.3","SS1613178783628","trial","","40","800","3206.9050000980496","images/stimuli/spore_stims/simple_04_B_b.gif","images/stimuli/spore_stims/simple_17_B_a.gif","","","","","12","simple_dissimilar","images/stimuli/spore_stims/simple_17_B_a.gif","left","","","","",""
"","null","html-keyboard-response","232","434125","0.0-44.0-0.4","SS1613178783628","","","null","","","","","<p><img src= images/blank.png width =""200"" height = ""200"" style = ""float:right""></p><p><img src=images/blank.png width =""800"" height = ""200""></p>","","","","","","","","","","","",""
"","98.80499995779246","sequential-stimulus-presentation","233","435042","0.0-44.0-1.4","SS1613178783628","trial","","40","800","898.8049999577925","images/stimuli/spore_stims/simple_04_B_b.gif","images/stimuli/spore_stims/simple_17_B_a.gif","","","","","12","simple_dissimilar","images/stimuli/spore_stims/simple_04_B_b.gif","right","","","","",""
"","null","html-keyboard-response","234","436275","0.0-44.0-0.5","SS1613178783628","","","null","","","","","<p><img src= images/blank.png width =""200"" height = ""200"" style = ""float:right""></p><p><img src=images/blank.png width =""800"" height = ""200""></p>","","","","","","","","","","","",""
"","16176.029999973252","sequential-stimulus-presentation","235","453267","0.0-44.0-1.5","SS1613178783628","trial","","40","800","16976.029999973252","images/stimuli/spore_stims/simple_04_B_b.gif","images/stimuli/spore_stims/simple_17_B_a.gif","","","","","12","simple_dissimilar","images/stimuli/spore_stims/simple_17_B_a.gif","left","","","","",""
"","null","html-keyboard-response","236","454142","0.0-44.0-0.6","SS1613178783628","","","null","","","","","<p><img src= images/blank.png width =""200"" height = ""200"" style = ""float:right""></p><p><img src=images/blank.png width =""800"" height = ""200""></p>","","","","","","","","","","","",""
"","569.9249999597669","sequential-stimulus-presentation","237","455531","0.0-44.0-1.6","SS1613178783628","trial","","40","800","1369.9249999597669","images/stimuli/spore_stims/simple_04_B_b.gif","images/stimuli/spore_stims/simple_17_B_a.gif","","","","","12","simple_dissimilar","images/stimuli/spore_stims/simple_17_B_a.gif","left","","","","",""
"","null","html-keyboard-response","238","456635","0.0-44.0-0.7","SS1613178783628","","","null","","","","","<p><img src= images/blank.png width =""200"" height = ""200"" style = ""float:right""></p><p><img src=images/blank.png width =""800"" height = ""200""></p>","","","","","","","","","","","",""
"","1215.764999971725","sequential-stimulus-presentation","239","458667","0.0-44.0-1.7","SS1613178783628","trial","","40","800","2015.764999971725","images/stimuli/spore_stims/simple_04_B_b.gif","images/stimuli/spore_stims/simple_17_B_a.gif","","","","","12","simple_dissimilar","images/stimuli/spore_stims/simple_17_B_a.gif","left","","","","",""
"","793.4149999637157","html-keyboard-response","240","459475","0.0-45.0","SS1613178783628","pref_question","","98","","","","","<video width ='960' height = '540' style='padding-top:8%' autoplay muted><source src='images/stimuli/wall_pref.mp4' type='video/mp4'></video>","2","middle","45%","12","","","","","","","",""
"","2868.845000048168","sequential-stimulus-presentation","241","463155","0.0-46.0","SS1613178783628","pref_reveal","","40","800","3668.845000048168","null","null","","","","","12","","","","novel","","","",""
"","null","html-keyboard-response","242","464087","0.0-47.0-0.0","SS1613178783628","","","null","","","","","<p><img src= images/blank.png width =""200"" height = ""200"" style = ""float:right""></p><p><img src=images/blank.png width =""800"" height = ""200""></p>","","","","","","","","","","","",""
"","562.2050000820309","sequential-stimulus-presentation","243","465491","0.0-47.0-1.0","SS1613178783628","trial","","40","800","1362.205000082031","images/stimuli/spore_stims/complex_04_A_d.gif","images/stimuli/spore_stims/complex_04_B_d.gif","","","","","13","complex_similar","images/stimuli/spore_stims/complex_04_B_d.gif","left","","","","",""
"","null","html-keyboard-response","244","466695","0.0-47.0-0.1","SS1613178783628","","","null","","","","","<p><img src= images/blank.png width =""200"" height = ""200"" style = ""float:right""></p><p><img src=images/blank.png width =""800"" height = ""200""></p>","","","","","","","","","","","",""
"","1009.554999996908","sequential-stimulus-presentation","245","468523","0.0-47.0-1.1","SS1613178783628","trial","","40","800","1809.554999996908","images/stimuli/spore_stims/complex_04_A_d.gif","images/stimuli/spore_stims/complex_04_B_d.gif","","","","","13","complex_similar","images/stimuli/spore_stims/complex_04_B_d.gif","left","","","","",""
"","null","html-keyboard-response","246","469532","0.0-47.0-0.2","SS1613178783628","","","null","","","","","<p><img src= images/blank.png width =""200"" height = ""200"" style = ""float:right""></p><p><img src=images/blank.png width =""800"" height = ""200""></p>","","","","","","","","","","","",""
"","91.8999999994412","sequential-stimulus-presentation","247","470442","0.0-47.0-1.2","SS1613178783628","trial","","40","800","891.8999999994412","images/stimuli/spore_stims/complex_04_A_d.gif","images/stimuli/spore_stims/complex_04_B_d.gif","","","","","13","complex_similar","images/stimuli/spore_stims/complex_04_B_d.gif","left","","","","",""
"","null","html-keyboard-response","248","471259","0.0-47.0-0.3","SS1613178783628","","","null","","","","","<p><img src= images/blank.png width =""200"" height = ""200"" style = ""float:right""></p><p><img src=images/blank.png width =""800"" height = ""200""></p>","","","","","","","","","","","",""
"","703.4950000233948","sequential-stimulus-presentation","249","472779","0.0-47.0-1.3","SS1613178783628","trial","","40","800","1503.4950000233948","images/stimuli/spore_stims/complex_04_A_d.gif","images/stimuli/spore_stims/complex_04_B_d.gif","","","","","13","complex_similar","images/stimuli/spore_stims/complex_04_B_d.gif","left","","","","",""
"","null","html-keyboard-response","250","473924","0.0-47.0-0.4","SS1613178783628","","","null","","","","","<p><img src= images/blank.png width =""200"" height = ""200"" style = ""float:right""></p><p><img src=images/blank.png width =""800"" height = ""200""></p>","","","","","","","","","","","",""
"","178.0450000660494","sequential-stimulus-presentation","251","474915","0.0-47.0-1.4","SS1613178783628","trial","","40","800","978.0450000660494","images/stimuli/spore_stims/complex_04_A_d.gif","images/stimuli/spore_stims/complex_04_B_d.gif","","","","","13","complex_similar","images/stimuli/spore_stims/complex_04_B_d.gif","left","","","","",""
"","null","html-keyboard-response","252","475969","0.0-47.0-0.5","SS1613178783628","","","null","","","","","<p><img src= images/blank.png width =""200"" height = ""200"" style = ""float:right""></p><p><img src=images/blank.png width =""800"" height = ""200""></p>","","","","","","","","","","","",""
"","82.4799999827519","sequential-stimulus-presentation","253","476866","0.0-47.0-1.5","SS1613178783628","trial","","40","800","882.4799999827519","images/stimuli/spore_stims/complex_04_A_d.gif","images/stimuli/spore_stims/complex_04_B_d.gif","","","","","13","complex_similar","images/stimuli/spore_stims/complex_04_B_d.gif","left","","","","",""
"","null","html-keyboard-response","254","477810","0.0-47.0-0.6","SS1613178783628","","","null","","","","","<p><img src= images/blank.png width =""200"" height = ""200"" style = ""float:right""></p><p><img src=images/blank.png width =""800"" height = ""200""></p>","","","","","","","","","","","",""
"","3834.759999997914","sequential-stimulus-presentation","255","482485","0.0-47.0-1.6","SS1613178783628","trial","","40","800","4634.759999997914","images/stimuli/spore_stims/complex_04_A_d.gif","images/stimuli/spore_stims/complex_04_B_d.gif","","","","","13","complex_similar","images/stimuli/spore_stims/complex_04_A_d.gif","middle","","","","",""
"","null","html-keyboard-response","256","483620","0.0-47.0-0.7","SS1613178783628","","","null","","","","","<p><img src= images/blank.png width =""200"" height = ""200"" style = ""float:right""></p><p><img src=images/blank.png width =""800"" height = ""200""></p>","","","","","","","","","","","",""
"","1748.0999999679625","sequential-stimulus-presentation","257","486186","0.0-47.0-1.7","SS1613178783628","trial","","40","800","2548.0999999679625","images/stimuli/spore_stims/complex_04_A_d.gif","images/stimuli/spore_stims/complex_04_B_d.gif","","","","","13","complex_similar","images/stimuli/spore_stims/complex_04_B_d.gif","left","","","","",""
"","1007.465000031516","html-keyboard-response","258","487203","0.0-48.0","SS1613178783628","pref_question","","97","","","","","<video width ='960' height = '540' style='padding-top:8%' autoplay muted><source src='images/stimuli/wall_pref.mp4' type='video/mp4'></video>","1","left","25%","13","","","","","","","",""
"","727.0749999443069","sequential-stimulus-presentation","259","488746","0.0-49.0","SS1613178783628","pref_reveal","","40","800","1527.074999944307","null","null","","","","","13","","","","background","","","",""
"","null","html-keyboard-response","260","489562","0.0-50.0-0.0","SS1613178783628","","","null","","","","","<p><img src= images/blank.png width =""200"" height = ""200"" style = ""float:right""></p><p><img src=images/blank.png width =""800"" height = ""200""></p>","","","","","","","","","","","",""
"","683.7750000413507","sequential-stimulus-presentation","261","491066","0.0-50.0-1.0","SS1613178783628","trial","","40","800","1483.7750000413507","images/stimuli/spore_stims/simple_10_B_c.gif","images/stimuli/spore_stims/simple_10_A_c.gif","","","","","14","simple_similar","images/stimuli/spore_stims/simple_10_A_c.gif","left","","","","",""
"","null","html-keyboard-response","262","492096","0.0-50.0-0.1","SS1613178783628","","","null","","","","","<p><img src= images/blank.png width =""200"" height = ""200"" style = ""float:right""></p><p><img src=images/blank.png width =""800"" height = ""200""></p>","","","","","","","","","","","",""
"","379.68500005081296","sequential-stimulus-presentation","263","493314","0.0-50.0-1.1","SS1613178783628","trial","","40","800","1179.685000050813","images/stimuli/spore_stims/simple_10_B_c.gif","images/stimuli/spore_stims/simple_10_A_c.gif","","","","","14","simple_similar","images/stimuli/spore_stims/simple_10_A_c.gif","left","","","","",""
"","null","html-keyboard-response","264","494424","0.0-50.0-0.2","SS1613178783628","","","null","","","","","<p><img src= images/blank.png width =""200"" height = ""200"" style = ""float:right""></p><p><img src=images/blank.png width =""800"" height = ""200""></p>","","","","","","","","","","","",""
"","171.22000001836568","sequential-stimulus-presentation","265","495417","0.0-50.0-1.2","SS1613178783628","trial","","40","800","971.2200000183657","images/stimuli/spore_stims/simple_10_B_c.gif","images/stimuli/spore_stims/simple_10_A_c.gif","","","","","14","simple_similar","images/stimuli/spore_stims/simple_10_A_c.gif","left","","","","",""
"","null","html-keyboard-response","266","496610","0.0-50.0-0.3","SS1613178783628","","","null","","","","","<p><img src= images/blank.png width =""200"" height = ""200"" style = ""float:right""></p><p><img src=images/blank.png width =""800"" height = ""200""></p>","","","","","","","","","","","",""
"","23.415000061504543","sequential-stimulus-presentation","267","497450","0.0-50.0-1.3","SS1613178783628","trial","","40","800","823.4150000615045","images/stimuli/spore_stims/simple_10_B_c.gif","images/stimuli/spore_stims/simple_10_A_c.gif","","","","","14","simple_similar","images/stimuli/spore_stims/simple_10_A_c.gif","left","","","","",""
"","null","html-keyboard-response","268","498524","0.0-50.0-0.4","SS1613178783628","","","null","","","","","<p><img src= images/blank.png width =""200"" height = ""200"" style = ""float:right""></p><p><img src=images/blank.png width =""800"" height = ""200""></p>","","","","","","","","","","","",""
"","1252.5100000202656","sequential-stimulus-presentation","269","500594","0.0-50.0-1.4","SS1613178783628","trial","","40","800","2052.5100000202656","images/stimuli/spore_stims/simple_10_B_c.gif","images/stimuli/spore_stims/simple_10_A_c.gif","","","","","14","simple_similar","images/stimuli/spore_stims/simple_10_A_c.gif","left","","","","",""
"","null","html-keyboard-response","270","501624","0.0-50.0-0.5","SS1613178783628","","","null","","","","","<p><img src= images/blank.png width =""200"" height = ""200"" style = ""float:right""></p><p><img src=images/blank.png width =""800"" height = ""200""></p>","","","","","","","","","","","",""
"","694.2000000271946","sequential-stimulus-presentation","271","503138","0.0-50.0-1.5","SS1613178783628","trial","","40","800","1494.2000000271946","images/stimuli/spore_stims/simple_10_B_c.gif","images/stimuli/spore_stims/simple_10_A_c.gif","","","","","14","simple_similar","images/stimuli/spore_stims/simple_10_A_c.gif","left","","","","",""
"","null","html-keyboard-response","272","503956","0.0-50.0-0.6","SS1613178783628","","","null","","","","","<p><img src= images/blank.png width =""200"" height = ""200"" style = ""float:right""></p><p><img src=images/blank.png width =""800"" height = ""200""></p>","","","","","","","","","","","",""
"","1494.6699999272823","sequential-stimulus-presentation","273","506274","0.0-50.0-1.6","SS1613178783628","trial","","40","800","2294.6699999272823","images/stimuli/spore_stims/simple_10_B_c.gif","images/stimuli/spore_stims/simple_10_A_c.gif","","","","","14","simple_similar","images/stimuli/spore_stims/simple_10_B_c.gif","middle","","","","",""
"","null","html-keyboard-response","274","507239","0.0-50.0-0.7","SS1613178783628","","","null","","","","","<p><img src= images/blank.png width =""200"" height = ""200"" style = ""float:right""></p><p><img src=images/blank.png width =""800"" height = ""200""></p>","","","","","","","","","","","",""
"","550.2550000092015","sequential-stimulus-presentation","275","508610","0.0-50.0-1.7","SS1613178783628","trial","","40","800","1350.2550000092015","images/stimuli/spore_stims/simple_10_B_c.gif","images/stimuli/spore_stims/simple_10_A_c.gif","","","","","14","simple_similar","images/stimuli/spore_stims/simple_10_A_c.gif","left","","","","",""
"","5232.56500007119","html-keyboard-response","276","513858","0.0-51.0","SS1613178783628","pref_question","","98","","","","","<video width ='960' height = '540' style='padding-top:8%' autoplay muted><source src='images/stimuli/wall_pref.mp4' type='video/mp4'></video>","2","middle","45%","14","","","","","","","",""
"","8.614999940618873","sequential-stimulus-presentation","277","514685","0.0-52.0","SS1613178783628","pref_reveal","","40","800","808.6149999406189","null","null","","","","","14","","","","deviant","","","",""
"","null","html-keyboard-response","278","515581","0.0-53.0-0.0","SS1613178783628","","","null","","","","","<p><img src= images/blank.png width =""200"" height = ""200"" style = ""float:right""></p><p><img src=images/blank.png width =""800"" height = ""200""></p>","","","","","","","","","","","",""
"","1450.3750000149012","sequential-stimulus-presentation","279","517851","0.0-53.0-1.0","SS1613178783628","trial","","40","800","2250.375000014901","images/stimuli/spore_stims/complex_10_B_b.gif","images/stimuli/spore_stims/complex_03_B_d.gif","","","","","15","complex_dissimilar","images/stimuli/spore_stims/complex_03_B_d.gif","right","","","","",""
"","null","html-keyboard-response","280","518848","0.0-53.0-0.1","SS1613178783628","","","null","","","","","<p><img src= images/blank.png width =""200"" height = ""200"" style = ""float:right""></p><p><img src=images/blank.png width =""800"" height = ""200""></p>","","","","","","","","","","","",""
"","1385.3149999631569","sequential-stimulus-presentation","281","521051","0.0-53.0-1.1","SS1613178783628","trial","","40","800","2185.314999963157","images/stimuli/spore_stims/complex_10_B_b.gif","images/stimuli/spore_stims/complex_03_B_d.gif","","","","","15","complex_dissimilar","images/stimuli/spore_stims/complex_03_B_d.gif","right","","","","",""
"","null","html-keyboard-response","282","522061","0.0-53.0-0.2","SS1613178783628","","","null","","","","","<p><img src= images/blank.png width =""200"" height = ""200"" style = ""float:right""></p><p><img src=images/blank.png width =""800"" height = ""200""></p>","","","","","","","","","","","",""
"","489.94999995920807","sequential-stimulus-presentation","283","523371","0.0-53.0-1.2","SS1613178783628","trial","","40","800","1289.949999959208","images/stimuli/spore_stims/complex_10_B_b.gif","images/stimuli/spore_stims/complex_03_B_d.gif","","","","","15","complex_dissimilar","images/stimuli/spore_stims/complex_03_B_d.gif","right","","","","",""
"","null","html-keyboard-response","284","524197","0.0-53.0-0.3","SS1613178783628","","","null","","","","","<p><img src= images/blank.png width =""200"" height = ""200"" style = ""float:right""></p><p><img src=images/blank.png width =""800"" height = ""200""></p>","","","","","","","","","","","",""
"","291.3549999939278","sequential-stimulus-presentation","285","525307","0.0-53.0-1.3","SS1613178783628","trial","","40","800","1091.3549999939278","images/stimuli/spore_stims/complex_10_B_b.gif","images/stimuli/spore_stims/complex_03_B_d.gif","","","","","15","complex_dissimilar","images/stimuli/spore_stims/complex_03_B_d.gif","right","","","","",""
"","null","html-keyboard-response","286","526388","0.0-53.0-0.4","SS1613178783628","","","null","","","","","<p><img src= images/blank.png width =""200"" height = ""200"" style = ""float:right""></p><p><img src=images/blank.png width =""800"" height = ""200""></p>","","","","","","","","","","","",""
"","352.2400000365451","sequential-stimulus-presentation","287","527563","0.0-53.0-1.4","SS1613178783628","trial","","40","800","1152.240000036545","images/stimuli/spore_stims/complex_10_B_b.gif","images/stimuli/spore_stims/complex_03_B_d.gif","","","","","15","complex_dissimilar","images/stimuli/spore_stims/complex_03_B_d.gif","right","","","","",""
"","null","html-keyboard-response","288","528651","0.0-53.0-0.5","SS1613178783628","","","null","","","","","<p><img src= images/blank.png width =""200"" height = ""200"" style = ""float:right""></p><p><img src=images/blank.png width =""800"" height = ""200""></p>","","","","","","","","","","","",""
"","527.5900000706315","sequential-stimulus-presentation","289","529995","0.0-53.0-1.5","SS1613178783628","trial","","40","800","1327.5900000706315","images/stimuli/spore_stims/complex_10_B_b.gif","images/stimuli/spore_stims/complex_03_B_d.gif","","","","","15","complex_dissimilar","images/stimuli/spore_stims/complex_03_B_d.gif","right","","","","",""
"","null","html-keyboard-response","290","531030","0.0-53.0-0.6","SS1613178783628","","","null","","","","","<p><img src= images/blank.png width =""200"" height = ""200"" style = ""float:right""></p><p><img src=images/blank.png width =""800"" height = ""200""></p>","","","","","","","","","","","",""
"","355.0549999345094","sequential-stimulus-presentation","291","532204","0.0-53.0-1.6","SS1613178783628","trial","","40","800","1155.0549999345094","images/stimuli/spore_stims/complex_10_B_b.gif","images/stimuli/spore_stims/complex_03_B_d.gif","","","","","15","complex_dissimilar","images/stimuli/spore_stims/complex_10_B_b.gif","left","","","","",""
"","null","html-keyboard-response","292","533492","0.0-53.0-0.7","SS1613178783628","","","null","","","","","<p><img src= images/blank.png width =""200"" height = ""200"" style = ""float:right""></p><p><img src=images/blank.png width =""800"" height = ""200""></p>","","","","","","","","","","","",""
"","333.79000006243587","sequential-stimulus-presentation","293","534643","0.0-53.0-1.7","SS1613178783628","trial","","40","800","1133.7900000624359","images/stimuli/spore_stims/complex_10_B_b.gif","images/stimuli/spore_stims/complex_03_B_d.gif","","","","","15","complex_dissimilar","images/stimuli/spore_stims/complex_03_B_d.gif","right","","","","",""
"","5249.92500001099","html-keyboard-response","294","539909","0.0-54.0","SS1613178783628","pref_question","","98","","","","","<video width ='960' height = '540' style='padding-top:8%' autoplay muted><source src='images/stimuli/wall_pref.mp4' type='video/mp4'></video>","2","middle","45%","15","","","","","","","",""
"","553.1900000059977","sequential-stimulus-presentation","295","541283","0.0-55.0","SS1613178783628","pref_reveal","","40","800","1353.1900000059977","null","null","","","","","15","","","","novel","","","",""
"","null","html-keyboard-response","296","542396","0.0-56.0-0.0","SS1613178783628","","","null","","","","","<p><img src= images/blank.png width =""200"" height = ""200"" style = ""float:right""></p><p><img src=images/blank.png width =""800"" height = ""200""></p>","","","","","","","","","","","",""
"","10.89000003412366","sequential-stimulus-presentation","297","543227","0.0-56.0-1.0","SS1613178783628","trial","","40","800","810.8900000341237","images/stimuli/spore_stims/simple_02_A_d.gif","images/stimuli/spore_stims/simple_02_B_d.gif","","","","","16","simple_similar","images/stimuli/spore_stims/simple_02_B_d.gif","middle","","","","",""
"","null","html-keyboard-response","298","544300","0.0-56.0-0.1","SS1613178783628","","","null","","","","","<p><img src= images/blank.png width =""200"" height = ""200"" style = ""float:right""></p><p><img src=images/blank.png width =""800"" height = ""200""></p>","","","","","","","","","","","",""
"","457.26499997545034","sequential-stimulus-presentation","299","545578","0.0-56.0-1.1","SS1613178783628","trial","","40","800","1257.2649999754503","images/stimuli/spore_stims/simple_02_A_d.gif","images/stimuli/spore_stims/simple_02_B_d.gif","","","","","16","simple_similar","images/stimuli/spore_stims/simple_02_B_d.gif","middle","","","","",""
"","null","html-keyboard-response","300","546533","0.0-56.0-0.2","SS1613178783628","","","null","","","","","<p><img src= images/blank.png width =""200"" height = ""200"" style = ""float:right""></p><p><img src=images/blank.png width =""800"" height = ""200""></p>","","","","","","","","","","","",""
"","404.77999998256564","sequential-stimulus-presentation","301","547755","0.0-56.0-1.2","SS1613178783628","trial","","40","800","1204.7799999825656","images/stimuli/spore_stims/simple_02_A_d.gif","images/stimuli/spore_stims/simple_02_B_d.gif","","","","","16","simple_similar","images/stimuli/spore_stims/simple_02_B_d.gif","middle","","","","",""
"","null","html-keyboard-response","302","548707","0.0-56.0-0.3","SS1613178783628","","","null","","","","","<p><img src= images/blank.png width =""200"" height = ""200"" style = ""float:right""></p><p><img src=images/blank.png width =""800"" height = ""200""></p>","","","","","","","","","","","",""
"","541.4200000232086","sequential-stimulus-presentation","303","550068","0.0-56.0-1.3","SS1613178783628","trial","","40","800","1341.4200000232086","images/stimuli/spore_stims/simple_02_A_d.gif","images/stimuli/spore_stims/simple_02_B_d.gif","","","","","16","simple_similar","images/stimuli/spore_stims/simple_02_A_d.gif","left","","","","",""
"","null","html-keyboard-response","304","551040","0.0-56.0-0.4","SS1613178783628","","","null","","","","","<p><img src= images/blank.png width =""200"" height = ""200"" style = ""float:right""></p><p><img src=images/blank.png width =""800"" height = ""200""></p>","","","","","","","","","","","",""
"","484.01999997440726","sequential-stimulus-presentation","305","552342","0.0-56.0-1.4","SS1613178783628","trial","","40","800","1284.0199999744073","images/stimuli/spore_stims/simple_02_A_d.gif","images/stimuli/spore_stims/simple_02_B_d.gif","","","","","16","simple_similar","images/stimuli/spore_stims/simple_02_B_d.gif","middle","","","","",""
"","null","html-keyboard-response","306","553449","0.0-56.0-0.5","SS1613178783628","","","null","","","","","<p><img src= images/blank.png width =""200"" height = ""200"" style = ""float:right""></p><p><img src=images/blank.png width =""800"" height = ""200""></p>","","","","","","","","","","","",""
"","389.5899999188259","sequential-stimulus-presentation","307","554677","0.0-56.0-1.5","SS1613178783628","trial","","40","800","1189.589999918826","images/stimuli/spore_stims/simple_02_A_d.gif","images/stimuli/spore_stims/simple_02_B_d.gif","","","","","16","simple_similar","images/stimuli/spore_stims/simple_02_B_d.gif","middle","","","","",""
"","null","html-keyboard-response","308","555654","0.0-56.0-0.6","SS1613178783628","","","null","","","","","<p><img src= images/blank.png width =""200"" height = ""200"" style = ""float:right""></p><p><img src=images/blank.png width =""800"" height = ""200""></p>","","","","","","","","","","","",""
"","459.0300000272691","sequential-stimulus-presentation","309","556930","0.0-56.0-1.6","SS1613178783628","trial","","40","800","1259.0300000272691","images/stimuli/spore_stims/simple_02_A_d.gif","images/stimuli/spore_stims/simple_02_B_d.gif","","","","","16","simple_similar","images/stimuli/spore_stims/simple_02_B_d.gif","middle","","","","",""
"","null","html-keyboard-response","310","558135","0.0-56.0-0.7","SS1613178783628","","","null","","","","","<p><img src= images/blank.png width =""200"" height = ""200"" style = ""float:right""></p><p><img src=images/blank.png width =""800"" height = ""200""></p>","","","","","","","","","","","",""
"","408.629999961704","sequential-stimulus-presentation","311","559362","0.0-56.0-1.7","SS1613178783628","trial","","40","800","1208.629999961704","images/stimuli/spore_stims/simple_02_A_d.gif","images/stimuli/spore_stims/simple_02_B_d.gif","","","","","16","simple_similar","images/stimuli/spore_stims/simple_02_B_d.gif","middle","","","","",""
