"view_history","rt","trial_type","trial_index","time_elapsed","internal_node_id","subject","stimulus_type","trial_stimulus","key_press","minimum_viewing_duration","trial_looking_time","block_deviant","block_background","stimulus","wall_pref","location","location_percent","block_number","block_type","stimulus_displayed","position_displayed","stim_type_selected","responses","question_order","stimulus_left","stimulus_right"
"[{""page_index"":0,""viewing_time"":4272.064999968279}]","4274.574999988545","instructions","0","4277","0.0-0.0","SS1613138525449","","","","","","","","","","","","","","","","","","","",""
"[{""page_index"":0,""viewing_time"":2095.6400000141},{""page_index"":1,""viewing_time"":16520.375000021886}]","18616.52999999933","instructions","1","24897","0.0-1.0","SS1613138525449","instructions","","","","","","","","","","","","","","","","","","",""
"","4803.220000001602","sequential-stimulus-presentation","2","30509","0.0-2.0","SS1613138525449","","","40","800","5603.220000001602","null","null","","","","","","","","","","","","",""
"","2910.9499999904074","sequential-stimulus-presentation","3","34227","0.0-3.0","SS1613138525449","","","40","800","3710.9499999904074","null","null","","","","","","","","","","","","",""
"[{""page_index"":0,""viewing_time"":4479.344999999739}]","4479.790000012144","instructions","4","38715","0.0-4.0","SS1613138525449","instructions","","","","","","","","","","","","","","","","","","",""
"","13271.30500000203","html-keyboard-response","5","51991","0.0-5.0","SS1613138525449","instructions","","50","","","","","<video width ='960' height = '540' autoplay muted><source src='images/stimuli/wall_pref.mp4' type='video/mp4'></video>","2","middle","45%","","","","","","","","",""
"","2098.9450000342913","sequential-stimulus-presentation","6","54897","0.0-6.0","SS1613138525449","pref_reveal","","40","800","2898.9450000342913","null","null","","","","","","","","","","","","",""
"[{""page_index"":0,""viewing_time"":2319.169999973383},{""page_index"":1,""viewing_time"":1271.5800000005402},{""page_index"":2,""viewing_time"":1888.280000013765},{""page_index"":3,""viewing_time"":1463.6850000242703}]","6943.124999990687","instructions","7","61842","0.0-7.0","SS1613138525449","instructions","","","","","","","","","","","","","","","","","","",""
"","null","html-keyboard-response","8","63084","0.0-8.0-0.0","SS1613138525449","","","null","","","","","<p><img src= images/blank.png width =""200"" height = ""200"" style = ""float:right""></p><p><img src=images/blank.png width =""800"" height = ""200""></p>","","","","","","","","","","","",""
"","1054.839999997057","sequential-stimulus-presentation","9","64954","0.0-8.0-1.0","SS1613138525449","trial","","40","800","1854.839999997057","images/stimuli/spore_stims/complex_06_B_d.gif","images/stimuli/spore_stims/complex_02_A_a.gif","","","","","0","complex_dissimilar","images/stimuli/spore_stims/complex_02_A_a.gif","middle","","","","",""
"","null","html-keyboard-response","10","66131","0.0-8.0-0.1","SS1613138525449","","","null","","","","","<p><img src= images/blank.png width =""200"" height = ""200"" style = ""float:right""></p><p><img src=images/blank.png width =""800"" height = ""200""></p>","","","","","","","","","","","",""
"","129.18499996885657","sequential-stimulus-presentation","11","67068","0.0-8.0-1.1","SS1613138525449","trial","","40","800","929.1849999688566","images/stimuli/spore_stims/complex_06_B_d.gif","images/stimuli/spore_stims/complex_02_A_a.gif","","","","","0","complex_dissimilar","images/stimuli/spore_stims/complex_02_A_a.gif","middle","","","","",""
"","null","html-keyboard-response","12","67959","0.0-8.0-0.2","SS1613138525449","","","null","","","","","<p><img src= images/blank.png width =""200"" height = ""200"" style = ""float:right""></p><p><img src=images/blank.png width =""800"" height = ""200""></p>","","","","","","","","","","","",""
"","244.66999998549","sequential-stimulus-presentation","13","69010","0.0-8.0-1.2","SS1613138525449","trial","","40","800","1044.66999998549","images/stimuli/spore_stims/complex_06_B_d.gif","images/stimuli/spore_stims/complex_02_A_a.gif","","","","","0","complex_dissimilar","images/stimuli/spore_stims/complex_02_A_a.gif","middle","","","","",""
"","null","html-keyboard-response","14","69828","0.0-8.0-0.3","SS1613138525449","","","null","","","","","<p><img src= images/blank.png width =""200"" height = ""200"" style = ""float:right""></p><p><img src=images/blank.png width =""800"" height = ""200""></p>","","","","","","","","","","","",""
"","2431.6150000086054","sequential-stimulus-presentation","15","73068","0.0-8.0-1.3","SS1613138525449","trial","","40","800","3231.6150000086054","images/stimuli/spore_stims/complex_06_B_d.gif","images/stimuli/spore_stims/complex_02_A_a.gif","","","","","0","complex_dissimilar","images/stimuli/spore_stims/complex_02_A_a.gif","middle","","","","",""
"","null","html-keyboard-response","16","74097","0.0-8.0-0.4","SS1613138525449","","","null","","","","","<p><img src= images/blank.png width =""200"" height = ""200"" style = ""float:right""></p><p><img src=images/blank.png width =""800"" height = ""200""></p>","","","","","","","","","","","",""
"","1939.699999988079","sequential-stimulus-presentation","17","76843","0.0-8.0-1.4","SS1613138525449","trial","","40","800","2739.699999988079","images/stimuli/spore_stims/complex_06_B_d.gif","images/stimuli/spore_stims/complex_02_A_a.gif","","","","","0","complex_dissimilar","images/stimuli/spore_stims/complex_02_A_a.gif","middle","","","","",""
"","null","html-keyboard-response","18","78137","0.0-8.0-0.5","SS1613138525449","","","null","","","","","<p><img src= images/blank.png width =""200"" height = ""200"" style = ""float:right""></p><p><img src=images/blank.png width =""800"" height = ""200""></p>","","","","","","","","","","","",""
"","827.7900000102818","sequential-stimulus-presentation","19","79772","0.0-8.0-1.5","SS1613138525449","trial","","40","800","1627.7900000102818","images/stimuli/spore_stims/complex_06_B_d.gif","images/stimuli/spore_stims/complex_02_A_a.gif","","","","","0","complex_dissimilar","images/stimuli/spore_stims/complex_02_A_a.gif","middle","","","","",""
"","null","html-keyboard-response","20","80792","0.0-8.0-0.6","SS1613138525449","","","null","","","","","<p><img src= images/blank.png width =""200"" height = ""200"" style = ""float:right""></p><p><img src=images/blank.png width =""800"" height = ""200""></p>","","","","","","","","","","","",""
"","925.3000000026077","sequential-stimulus-presentation","21","82558","0.0-8.0-1.6","SS1613138525449","trial","","40","800","1725.3000000026077","images/stimuli/spore_stims/complex_06_B_d.gif","images/stimuli/spore_stims/complex_02_A_a.gif","","","","","0","complex_dissimilar","images/stimuli/spore_stims/complex_02_A_a.gif","middle","","","","",""
"","null","html-keyboard-response","22","83827","0.0-8.0-0.7","SS1613138525449","","","null","","","","","<p><img src= images/blank.png width =""200"" height = ""200"" style = ""float:right""></p><p><img src=images/blank.png width =""800"" height = ""200""></p>","","","","","","","","","","","",""
"","105.19499995280057","sequential-stimulus-presentation","23","84746","0.0-8.0-1.7","SS1613138525449","trial","","40","800","905.1949999528006","images/stimuli/spore_stims/complex_06_B_d.gif","images/stimuli/spore_stims/complex_02_A_a.gif","","","","","0","complex_dissimilar","images/stimuli/spore_stims/complex_06_B_d.gif","left","","","","",""
"","2422.8800000273623","html-keyboard-response","24","87173","0.0-9.0","SS1613138525449","pref_question","","50","","","","","<video width ='960' height = '540' style='padding-top:8%' autoplay muted><source src='images/stimuli/wall_pref.mp4' type='video/mp4'></video>","2","middle","45%","0","","","","","","","",""
"","864.3499999889173","sequential-stimulus-presentation","25","88845","0.0-10.0","SS1613138525449","pref_reveal","","40","800","1664.3499999889173","null","null","","","","","0","","","","background","","","",""
"","null","html-keyboard-response","26","89946","0.0-11.0-0.0","SS1613138525449","","","null","","","","","<p><img src= images/blank.png width =""200"" height = ""200"" style = ""float:right""></p><p><img src=images/blank.png width =""800"" height = ""200""></p>","","","","","","","","","","","",""
"","128.1749999616295","sequential-stimulus-presentation","27","90907","0.0-11.0-1.0","SS1613138525449","trial","","40","800","928.1749999616295","images/stimuli/spore_stims/complex_20_B_c.gif","images/stimuli/spore_stims/complex_12_B_d.gif","","","","","1","complex_dissimilar","images/stimuli/spore_stims/complex_12_B_d.gif","left","","","","",""
"","null","html-keyboard-response","28","92065","0.0-11.0-0.1","SS1613138525449","","","null","","","","","<p><img src= images/blank.png width =""200"" height = ""200"" style = ""float:right""></p><p><img src=images/blank.png width =""800"" height = ""200""></p>","","","","","","","","","","","",""
"","1443.0150000262074","sequential-stimulus-presentation","29","94316","0.0-11.0-1.1","SS1613138525449","trial","","40","800","2243.0150000262074","images/stimuli/spore_stims/complex_20_B_c.gif","images/stimuli/spore_stims/complex_12_B_d.gif","","","","","1","complex_dissimilar","images/stimuli/spore_stims/complex_12_B_d.gif","left","","","","",""
"","null","html-keyboard-response","30","95479","0.0-11.0-0.2","SS1613138525449","","","null","","","","","<p><img src= images/blank.png width =""200"" height = ""200"" style = ""float:right""></p><p><img src=images/blank.png width =""800"" height = ""200""></p>","","","","","","","","","","","",""
"","669.2599999951199","sequential-stimulus-presentation","31","96960","0.0-11.0-1.2","SS1613138525449","trial","","40","800","1469.2599999951199","images/stimuli/spore_stims/complex_20_B_c.gif","images/stimuli/spore_stims/complex_12_B_d.gif","","","","","1","complex_dissimilar","images/stimuli/spore_stims/complex_12_B_d.gif","left","","","","",""
"","null","html-keyboard-response","32","97859","0.0-11.0-0.3","SS1613138525449","","","null","","","","","<p><img src= images/blank.png width =""200"" height = ""200"" style = ""float:right""></p><p><img src=images/blank.png width =""800"" height = ""200""></p>","","","","","","","","","","","",""
"","225.2050000242889","sequential-stimulus-presentation","33","98890","0.0-11.0-1.3","SS1613138525449","trial","","40","800","1025.205000024289","images/stimuli/spore_stims/complex_20_B_c.gif","images/stimuli/spore_stims/complex_12_B_d.gif","","","","","1","complex_dissimilar","images/stimuli/spore_stims/complex_12_B_d.gif","left","","","","",""
"","null","html-keyboard-response","34","99932","0.0-11.0-0.4","SS1613138525449","","","null","","","","","<p><img src= images/blank.png width =""200"" height = ""200"" style = ""float:right""></p><p><img src=images/blank.png width =""800"" height = ""200""></p>","","","","","","","","","","","",""
"","1633.4299999871291","sequential-stimulus-presentation","35","102376","0.0-11.0-1.4","SS1613138525449","trial","","40","800","2433.429999987129","images/stimuli/spore_stims/complex_20_B_c.gif","images/stimuli/spore_stims/complex_12_B_d.gif","","","","","1","complex_dissimilar","images/stimuli/spore_stims/complex_12_B_d.gif","left","","","","",""
"","null","html-keyboard-response","36","103557","0.0-11.0-0.5","SS1613138525449","","","null","","","","","<p><img src= images/blank.png width =""200"" height = ""200"" style = ""float:right""></p><p><img src=images/blank.png width =""800"" height = ""200""></p>","","","","","","","","","","","",""
"","25.88500001002103","sequential-stimulus-presentation","37","104390","0.0-11.0-1.5","SS1613138525449","trial","","40","800","825.885000010021","images/stimuli/spore_stims/complex_20_B_c.gif","images/stimuli/spore_stims/complex_12_B_d.gif","","","","","1","complex_dissimilar","images/stimuli/spore_stims/complex_12_B_d.gif","left","","","","",""
"","null","html-keyboard-response","38","105475","0.0-11.0-0.6","SS1613138525449","","","null","","","","","<p><img src= images/blank.png width =""200"" height = ""200"" style = ""float:right""></p><p><img src=images/blank.png width =""800"" height = ""200""></p>","","","","","","","","","","","",""
"","1063.620000029914","sequential-stimulus-presentation","39","107345","0.0-11.0-1.6","SS1613138525449","trial","","40","800","1863.620000029914","images/stimuli/spore_stims/complex_20_B_c.gif","images/stimuli/spore_stims/complex_12_B_d.gif","","","","","1","complex_dissimilar","images/stimuli/spore_stims/complex_20_B_c.gif","middle","","","","",""
"","null","html-keyboard-response","40","108303","0.0-11.0-0.7","SS1613138525449","","","null","","","","","<p><img src= images/blank.png width =""200"" height = ""200"" style = ""float:right""></p><p><img src=images/blank.png width =""800"" height = ""200""></p>","","","","","","","","","","","",""
"","980.6150000076741","sequential-stimulus-presentation","41","110123","0.0-11.0-1.7","SS1613138525449","trial","","40","800","1780.615000007674","images/stimuli/spore_stims/complex_20_B_c.gif","images/stimuli/spore_stims/complex_12_B_d.gif","","","","","1","complex_dissimilar","images/stimuli/spore_stims/complex_12_B_d.gif","left","","","","",""
"","1830.19999996759","html-keyboard-response","42","111959","0.0-12.0","SS1613138525449","pref_question","","51","","","","","<video width ='960' height = '540' style='padding-top:8%' autoplay muted><source src='images/stimuli/wall_pref.mp4' type='video/mp4'></video>","3","right","66%","1","","","","","","","",""
"","108.37500001071021","sequential-stimulus-presentation","43","112874","0.0-13.0","SS1613138525449","pref_reveal","","40","800","908.3750000107102","null","null","","","","","1","","","","novel","","","",""
"","null","html-keyboard-response","44","113698","0.0-14.0-0.0","SS1613138525449","","","null","","","","","<p><img src= images/blank.png width =""200"" height = ""200"" style = ""float:right""></p><p><img src=images/blank.png width =""800"" height = ""200""></p>","","","","","","","","","","","",""
"","91.16999997058883","sequential-stimulus-presentation","45","114596","0.0-14.0-1.0","SS1613138525449","trial","","40","800","891.1699999705888","images/stimuli/spore_stims/simple_20_A_c.gif","images/stimuli/spore_stims/simple_20_B_c.gif","","","","","2","simple_similar","images/stimuli/spore_stims/simple_20_B_c.gif","right","","","","",""
"","null","html-keyboard-response","46","115649","0.0-14.0-0.1","SS1613138525449","","","null","","","","","<p><img src= images/blank.png width =""200"" height = ""200"" style = ""float:right""></p><p><img src=images/blank.png width =""800"" height = ""200""></p>","","","","","","","","","","","",""
"","1383.4400000050664","sequential-stimulus-presentation","47","117841","0.0-14.0-1.1","SS1613138525449","trial","","40","800","2183.4400000050664","images/stimuli/spore_stims/simple_20_A_c.gif","images/stimuli/spore_stims/simple_20_B_c.gif","","","","","2","simple_similar","images/stimuli/spore_stims/simple_20_B_c.gif","right","","","","",""
"","null","html-keyboard-response","48","118987","0.0-14.0-0.2","SS1613138525449","","","null","","","","","<p><img src= images/blank.png width =""200"" height = ""200"" style = ""float:right""></p><p><img src=images/blank.png width =""800"" height = ""200""></p>","","","","","","","","","","","",""
"","90.29500000178814","sequential-stimulus-presentation","49","119884","0.0-14.0-1.2","SS1613138525449","trial","","40","800","890.2950000017881","images/stimuli/spore_stims/simple_20_A_c.gif","images/stimuli/spore_stims/simple_20_B_c.gif","","","","","2","simple_similar","images/stimuli/spore_stims/simple_20_B_c.gif","right","","","","",""
"","null","html-keyboard-response","50","120879","0.0-14.0-0.3","SS1613138525449","","","null","","","","","<p><img src= images/blank.png width =""200"" height = ""200"" style = ""float:right""></p><p><img src=images/blank.png width =""800"" height = ""200""></p>","","","","","","","","","","","",""
"","1062.984999967739","sequential-stimulus-presentation","51","122749","0.0-14.0-1.3","SS1613138525449","trial","","40","800","1862.984999967739","images/stimuli/spore_stims/simple_20_A_c.gif","images/stimuli/spore_stims/simple_20_B_c.gif","","","","","2","simple_similar","images/stimuli/spore_stims/simple_20_A_c.gif","left","","","","",""
"","null","html-keyboard-response","52","123885","0.0-14.0-0.4","SS1613138525449","","","null","","","","","<p><img src= images/blank.png width =""200"" height = ""200"" style = ""float:right""></p><p><img src=images/blank.png width =""800"" height = ""200""></p>","","","","","","","","","","","",""
"","3.594999958295375","sequential-stimulus-presentation","53","124697","0.0-14.0-1.4","SS1613138525449","trial","","40","800","803.5949999582954","images/stimuli/spore_stims/simple_20_A_c.gif","images/stimuli/spore_stims/simple_20_B_c.gif","","","","","2","simple_similar","images/stimuli/spore_stims/simple_20_B_c.gif","right","","","","",""
"","null","html-keyboard-response","54","125532","0.0-14.0-0.5","SS1613138525449","","","null","","","","","<p><img src= images/blank.png width =""200"" height = ""200"" style = ""float:right""></p><p><img src=images/blank.png width =""800"" height = ""200""></p>","","","","","","","","","","","",""
"","109.27499999525025","sequential-stimulus-presentation","55","126448","0.0-14.0-1.5","SS1613138525449","trial","","40","800","909.2749999952503","images/stimuli/spore_stims/simple_20_A_c.gif","images/stimuli/spore_stims/simple_20_B_c.gif","","","","","2","simple_similar","images/stimuli/spore_stims/simple_20_B_c.gif","right","","","","",""
"","null","html-keyboard-response","56","127381","0.0-14.0-0.6","SS1613138525449","","","null","","","","","<p><img src= images/blank.png width =""200"" height = ""200"" style = ""float:right""></p><p><img src=images/blank.png width =""800"" height = ""200""></p>","","","","","","","","","","","",""
"","160.69000004790723","sequential-stimulus-presentation","57","128353","0.0-14.0-1.6","SS1613138525449","trial","","40","800","960.6900000479072","images/stimuli/spore_stims/simple_20_A_c.gif","images/stimuli/spore_stims/simple_20_B_c.gif","","","","","2","simple_similar","images/stimuli/spore_stims/simple_20_B_c.gif","right","","","","",""
"","null","html-keyboard-response","58","129632","0.0-14.0-0.7","SS1613138525449","","","null","","","","","<p><img src= images/blank.png width =""200"" height = ""200"" style = ""float:right""></p><p><img src=images/blank.png width =""800"" height = ""200""></p>","","","","","","","","","","","",""
"","1443.7100000213832","sequential-stimulus-presentation","59","131904","0.0-14.0-1.7","SS1613138525449","trial","","40","800","2243.710000021383","images/stimuli/spore_stims/simple_20_A_c.gif","images/stimuli/spore_stims/simple_20_B_c.gif","","","","","2","simple_similar","images/stimuli/spore_stims/simple_20_B_c.gif","right","","","","",""
"","4404.295000014827","html-keyboard-response","60","136314","0.0-15.0","SS1613138525449","pref_question","","51","","","","","<video width ='960' height = '540' style='padding-top:8%' autoplay muted><source src='images/stimuli/wall_pref.mp4' type='video/mp4'></video>","3","right","66%","2","","","","","","","",""
"","1596.0499999928288","sequential-stimulus-presentation","61","138719","0.0-16.0","SS1613138525449","pref_reveal","","40","800","2396.049999992829","null","null","","","","","2","","","","background","","","",""
"","null","html-keyboard-response","62","139750","0.0-17.0-0.0","SS1613138525449","","","null","","","","","<p><img src= images/blank.png width =""200"" height = ""200"" style = ""float:right""></p><p><img src=images/blank.png width =""800"" height = ""200""></p>","","","","","","","","","","","",""
"","930.1100000157021","sequential-stimulus-presentation","63","141489","0.0-17.0-1.0","SS1613138525449","trial","","40","800","1730.110000015702","images/stimuli/spore_stims/simple_07_A_c.gif","images/stimuli/spore_stims/simple_14_A_d.gif","","","","","3","simple_dissimilar","images/stimuli/spore_stims/simple_14_A_d.gif","middle","","","","",""
"","null","html-keyboard-response","64","142343","0.0-17.0-0.1","SS1613138525449","","","null","","","","","<p><img src= images/blank.png width =""200"" height = ""200"" style = ""float:right""></p><p><img src=images/blank.png width =""800"" height = ""200""></p>","","","","","","","","","","","",""
"","1108.3250000374392","sequential-stimulus-presentation","65","144259","0.0-17.0-1.1","SS1613138525449","trial","","40","800","1908.3250000374392","images/stimuli/spore_stims/simple_07_A_c.gif","images/stimuli/spore_stims/simple_14_A_d.gif","","","","","3","simple_dissimilar","images/stimuli/spore_stims/simple_14_A_d.gif","middle","","","","",""
"","null","html-keyboard-response","66","145197","0.0-17.0-0.2","SS1613138525449","","","null","","","","","<p><img src= images/blank.png width =""200"" height = ""200"" style = ""float:right""></p><p><img src=images/blank.png width =""800"" height = ""200""></p>","","","","","","","","","","","",""
"","461.98999998159707","sequential-stimulus-presentation","67","146467","0.0-17.0-1.2","SS1613138525449","trial","","40","800","1261.989999981597","images/stimuli/spore_stims/simple_07_A_c.gif","images/stimuli/spore_stims/simple_14_A_d.gif","","","","","3","simple_dissimilar","images/stimuli/spore_stims/simple_14_A_d.gif","middle","","","","",""
"","null","html-keyboard-response","68","147703","0.0-17.0-0.3","SS1613138525449","","","null","","","","","<p><img src= images/blank.png width =""200"" height = ""200"" style = ""float:right""></p><p><img src=images/blank.png width =""800"" height = ""200""></p>","","","","","","","","","","","",""
"","687.9400000325404","sequential-stimulus-presentation","69","149199","0.0-17.0-1.3","SS1613138525449","trial","","40","800","1487.9400000325404","images/stimuli/spore_stims/simple_07_A_c.gif","images/stimuli/spore_stims/simple_14_A_d.gif","","","","","3","simple_dissimilar","images/stimuli/spore_stims/simple_14_A_d.gif","middle","","","","",""
"","null","html-keyboard-response","70","150267","0.0-17.0-0.4","SS1613138525449","","","null","","","","","<p><img src= images/blank.png width =""200"" height = ""200"" style = ""float:right""></p><p><img src=images/blank.png width =""800"" height = ""200""></p>","","","","","","","","","","","",""
"","1923.4249999863096","sequential-stimulus-presentation","71","152997","0.0-17.0-1.4","SS1613138525449","trial","","40","800","2723.4249999863096","images/stimuli/spore_stims/simple_07_A_c.gif","images/stimuli/spore_stims/simple_14_A_d.gif","","","","","3","simple_dissimilar","images/stimuli/spore_stims/simple_14_A_d.gif","middle","","","","",""
"","null","html-keyboard-response","72","154133","0.0-17.0-0.5","SS1613138525449","","","null","","","","","<p><img src= images/blank.png width =""200"" height = ""200"" style = ""float:right""></p><p><img src=images/blank.png width =""800"" height = ""200""></p>","","","","","","","","","","","",""
"","1148.6849999637343","sequential-stimulus-presentation","73","156093","0.0-17.0-1.5","SS1613138525449","trial","","40","800","1948.6849999637343","images/stimuli/spore_stims/simple_07_A_c.gif","images/stimuli/spore_stims/simple_14_A_d.gif","","","","","3","simple_dissimilar","images/stimuli/spore_stims/simple_07_A_c.gif","right","","","","",""
"","null","html-keyboard-response","74","156993","0.0-17.0-0.6","SS1613138525449","","","null","","","","","<p><img src= images/blank.png width =""200"" height = ""200"" style = ""float:right""></p><p><img src=images/blank.png width =""800"" height = ""200""></p>","","","","","","","","","","","",""
"","3144.4999999948777","sequential-stimulus-presentation","75","160946","0.0-17.0-1.6","SS1613138525449","trial","","40","800","3944.4999999948777","images/stimuli/spore_stims/simple_07_A_c.gif","images/stimuli/spore_stims/simple_14_A_d.gif","","","","","3","simple_dissimilar","images/stimuli/spore_stims/simple_14_A_d.gif","middle","","","","",""
"","null","html-keyboard-response","76","161813","0.0-17.0-0.7","SS1613138525449","","","null","","","","","<p><img src= images/blank.png width =""200"" height = ""200"" style = ""float:right""></p><p><img src=images/blank.png width =""800"" height = ""200""></p>","","","","","","","","","","","",""
"","157.73999999510124","sequential-stimulus-presentation","77","162779","0.0-17.0-1.7","SS1613138525449","trial","","40","800","957.7399999951012","images/stimuli/spore_stims/simple_07_A_c.gif","images/stimuli/spore_stims/simple_14_A_d.gif","","","","","3","simple_dissimilar","images/stimuli/spore_stims/simple_14_A_d.gif","middle","","","","",""
"","1776.929999992717","html-keyboard-response","78","164561","0.0-18.0","SS1613138525449","pref_question","","51","","","","","<video width ='960' height = '540' style='padding-top:8%' autoplay muted><source src='images/stimuli/wall_pref.mp4' type='video/mp4'></video>","3","right","66%","3","","","","","","","",""
"","55.210000020451844","sequential-stimulus-presentation","79","165434","0.0-19.0","SS1613138525449","pref_reveal","","40","800","855.2100000204518","null","null","","","","","3","","","","deviant","","","",""
"","null","html-keyboard-response","80","166635","0.0-20.0-0.0","SS1613138525449","","","null","","","","","<p><img src= images/blank.png width =""200"" height = ""200"" style = ""float:right""></p><p><img src=images/blank.png width =""800"" height = ""200""></p>","","","","","","","","","","","",""
"","2180.5899999453686","sequential-stimulus-presentation","81","169625","0.0-20.0-1.0","SS1613138525449","trial","","40","800","2980.5899999453686","images/stimuli/spore_stims/simple_18_A_a.gif","images/stimuli/spore_stims/simple_18_B_c.gif","","","","","4","simple_dissimilar","images/stimuli/spore_stims/simple_18_B_c.gif","middle","","","","",""
"","null","html-keyboard-response","82","170772","0.0-20.0-0.1","SS1613138525449","","","null","","","","","<p><img src= images/blank.png width =""200"" height = ""200"" style = ""float:right""></p><p><img src=images/blank.png width =""800"" height = ""200""></p>","","","","","","","","","","","",""
"","332.7350000035949","sequential-stimulus-presentation","83","171940","0.0-20.0-1.1","SS1613138525449","trial","","40","800","1132.735000003595","images/stimuli/spore_stims/simple_18_A_a.gif","images/stimuli/spore_stims/simple_18_B_c.gif","","","","","4","simple_dissimilar","images/stimuli/spore_stims/simple_18_B_c.gif","middle","","","","",""
"","null","html-keyboard-response","84","172754","0.0-20.0-0.2","SS1613138525449","","","null","","","","","<p><img src= images/blank.png width =""200"" height = ""200"" style = ""float:right""></p><p><img src=images/blank.png width =""800"" height = ""200""></p>","","","","","","","","","","","",""
"","1286.835000035353","sequential-stimulus-presentation","85","174855","0.0-20.0-1.2","SS1613138525449","trial","","40","800","2086.835000035353","images/stimuli/spore_stims/simple_18_A_a.gif","images/stimuli/spore_stims/simple_18_B_c.gif","","","","","4","simple_dissimilar","images/stimuli/spore_stims/simple_18_A_a.gif","left","","","","",""
"","null","html-keyboard-response","86","175753","0.0-20.0-0.3","SS1613138525449","","","null","","","","","<p><img src= images/blank.png width =""200"" height = ""200"" style = ""float:right""></p><p><img src=images/blank.png width =""800"" height = ""200""></p>","","","","","","","","","","","",""
"","260.75500005390495","sequential-stimulus-presentation","87","176822","0.0-20.0-1.3","SS1613138525449","trial","","40","800","1060.755000053905","images/stimuli/spore_stims/simple_18_A_a.gif","images/stimuli/spore_stims/simple_18_B_c.gif","","","","","4","simple_dissimilar","images/stimuli/spore_stims/simple_18_B_c.gif","middle","","","","",""
"","null","html-keyboard-response","88","177744","0.0-20.0-0.4","SS1613138525449","","","null","","","","","<p><img src= images/blank.png width =""200"" height = ""200"" style = ""float:right""></p><p><img src=images/blank.png width =""800"" height = ""200""></p>","","","","","","","","","","","",""
"","1485.8550000353716","sequential-stimulus-presentation","89","180038","0.0-20.0-1.4","SS1613138525449","trial","","40","800","2285.8550000353716","images/stimuli/spore_stims/simple_18_A_a.gif","images/stimuli/spore_stims/simple_18_B_c.gif","","","","","4","simple_dissimilar","images/stimuli/spore_stims/simple_18_B_c.gif","middle","","","","",""
"","null","html-keyboard-response","90","181037","0.0-20.0-0.5","SS1613138525449","","","null","","","","","<p><img src= images/blank.png width =""200"" height = ""200"" style = ""float:right""></p><p><img src=images/blank.png width =""800"" height = ""200""></p>","","","","","","","","","","","",""
"","1203.2999999937601","sequential-stimulus-presentation","91","183083","0.0-20.0-1.5","SS1613138525449","trial","","40","800","2003.2999999937601","images/stimuli/spore_stims/simple_18_A_a.gif","images/stimuli/spore_stims/simple_18_B_c.gif","","","","","4","simple_dissimilar","images/stimuli/spore_stims/simple_18_B_c.gif","middle","","","","",""
"","null","html-keyboard-response","92","184001","0.0-20.0-0.6","SS1613138525449","","","null","","","","","<p><img src= images/blank.png width =""200"" height = ""200"" style = ""float:right""></p><p><img src=images/blank.png width =""800"" height = ""200""></p>","","","","","","","","","","","",""
"","396.8900000327267","sequential-stimulus-presentation","93","185206","0.0-20.0-1.6","SS1613138525449","trial","","40","800","1196.8900000327267","images/stimuli/spore_stims/simple_18_A_a.gif","images/stimuli/spore_stims/simple_18_B_c.gif","","","","","4","simple_dissimilar","images/stimuli/spore_stims/simple_18_B_c.gif","middle","","","","",""
"","null","html-keyboard-response","94","186140","0.0-20.0-0.7","SS1613138525449","","","null","","","","","<p><img src= images/blank.png width =""200"" height = ""200"" style = ""float:right""></p><p><img src=images/blank.png width =""800"" height = ""200""></p>","","","","","","","","","","","",""
"","2.41499999538064","sequential-stimulus-presentation","95","186951","0.0-20.0-1.7","SS1613138525449","trial","","40","800","802.4149999953806","images/stimuli/spore_stims/simple_18_A_a.gif","images/stimuli/spore_stims/simple_18_B_c.gif","","","","","4","simple_dissimilar","images/stimuli/spore_stims/simple_18_B_c.gif","middle","","","","",""
"","5453.634999983478","html-keyboard-response","96","192411","0.0-21.0","SS1613138525449","pref_question","","49","","","","","<video width ='960' height = '540' style='padding-top:8%' autoplay muted><source src='images/stimuli/wall_pref.mp4' type='video/mp4'></video>","1","left","25%","4","","","","","","","",""
"","835.7499999692664","sequential-stimulus-presentation","97","194055","0.0-22.0","SS1613138525449","pref_reveal","","40","800","1635.7499999692664","null","null","","","","","4","","","","deviant","","","",""
"","null","html-keyboard-response","98","195267","0.0-23.0-0.0","SS1613138525449","","","null","","","","","<p><img src= images/blank.png width =""200"" height = ""200"" style = ""float:right""></p><p><img src=images/blank.png width =""800"" height = ""200""></p>","","","","","","","","","","","",""
"","22.915000037755817","sequential-stimulus-presentation","99","196098","0.0-23.0-1.0","SS1613138525449","trial","","40","800","822.9150000377558","images/stimuli/spore_stims/simple_04_B_d.gif","images/stimuli/spore_stims/simple_03_B_c.gif","","","","","5","simple_dissimilar","images/stimuli/spore_stims/simple_03_B_c.gif","right","","","","",""
"","null","html-keyboard-response","100","197232","0.0-23.0-0.1","SS1613138525449","","","null","","","","","<p><img src= images/blank.png width =""200"" height = ""200"" style = ""float:right""></p><p><img src=images/blank.png width =""800"" height = ""200""></p>","","","","","","","","","","","",""
"","1269.0500000026077","sequential-stimulus-presentation","101","199309","0.0-23.0-1.1","SS1613138525449","trial","","40","800","2069.0500000026077","images/stimuli/spore_stims/simple_04_B_d.gif","images/stimuli/spore_stims/simple_03_B_c.gif","","","","","5","simple_dissimilar","images/stimuli/spore_stims/simple_03_B_c.gif","right","","","","",""
"","null","html-keyboard-response","102","200465","0.0-23.0-0.2","SS1613138525449","","","null","","","","","<p><img src= images/blank.png width =""200"" height = ""200"" style = ""float:right""></p><p><img src=images/blank.png width =""800"" height = ""200""></p>","","","","","","","","","","","",""
"","1264.6199999726377","sequential-stimulus-presentation","103","202539","0.0-23.0-1.2","SS1613138525449","trial","","40","800","2064.6199999726377","images/stimuli/spore_stims/simple_04_B_d.gif","images/stimuli/spore_stims/simple_03_B_c.gif","","","","","5","simple_dissimilar","images/stimuli/spore_stims/simple_03_B_c.gif","right","","","","",""
"","null","html-keyboard-response","104","203614","0.0-23.0-0.3","SS1613138525449","","","null","","","","","<p><img src= images/blank.png width =""200"" height = ""200"" style = ""float:right""></p><p><img src=images/blank.png width =""800"" height = ""200""></p>","","","","","","","","","","","",""
"","15.284999972209334","sequential-stimulus-presentation","105","204442","0.0-23.0-1.3","SS1613138525449","trial","","40","800","815.2849999722093","images/stimuli/spore_stims/simple_04_B_d.gif","images/stimuli/spore_stims/simple_03_B_c.gif","","","","","5","simple_dissimilar","images/stimuli/spore_stims/simple_04_B_d.gif","middle","","","","",""
"","null","html-keyboard-response","106","205650","0.0-23.0-0.4","SS1613138525449","","","null","","","","","<p><img src= images/blank.png width =""200"" height = ""200"" style = ""float:right""></p><p><img src=images/blank.png width =""800"" height = ""200""></p>","","","","","","","","","","","",""
"","922.7100000134669","sequential-stimulus-presentation","107","207382","0.0-23.0-1.4","SS1613138525449","trial","","40","800","1722.710000013467","images/stimuli/spore_stims/simple_04_B_d.gif","images/stimuli/spore_stims/simple_03_B_c.gif","","","","","5","simple_dissimilar","images/stimuli/spore_stims/simple_03_B_c.gif","right","","","","",""
"","null","html-keyboard-response","108","208305","0.0-23.0-0.5","SS1613138525449","","","null","","","","","<p><img src= images/blank.png width =""200"" height = ""200"" style = ""float:right""></p><p><img src=images/blank.png width =""800"" height = ""200""></p>","","","","","","","","","","","",""
"","41.105000011157244","sequential-stimulus-presentation","109","209160","0.0-23.0-1.5","SS1613138525449","trial","","40","800","841.1050000111572","images/stimuli/spore_stims/simple_04_B_d.gif","images/stimuli/spore_stims/simple_03_B_c.gif","","","","","5","simple_dissimilar","images/stimuli/spore_stims/simple_03_B_c.gif","right","","","","",""
"","null","html-keyboard-response","110","210088","0.0-23.0-0.6","SS1613138525449","","","null","","","","","<p><img src= images/blank.png width =""200"" height = ""200"" style = ""float:right""></p><p><img src=images/blank.png width =""800"" height = ""200""></p>","","","","","","","","","","","",""
"","983.6950000026263","sequential-stimulus-presentation","111","211909","0.0-23.0-1.6","SS1613138525449","trial","","40","800","1783.6950000026263","images/stimuli/spore_stims/simple_04_B_d.gif","images/stimuli/spore_stims/simple_03_B_c.gif","","","","","5","simple_dissimilar","images/stimuli/spore_stims/simple_03_B_c.gif","right","","","","",""
"","null","html-keyboard-response","112","212861","0.0-23.0-0.7","SS1613138525449","","","null","","","","","<p><img src= images/blank.png width =""200"" height = ""200"" style = ""float:right""></p><p><img src=images/blank.png width =""800"" height = ""200""></p>","","","","","","","","","","","",""
"","922.3349999519996","sequential-stimulus-presentation","113","214594","0.0-23.0-1.7","SS1613138525449","trial","","40","800","1722.3349999519996","images/stimuli/spore_stims/simple_04_B_d.gif","images/stimuli/spore_stims/simple_03_B_c.gif","","","","","5","simple_dissimilar","images/stimuli/spore_stims/simple_03_B_c.gif","right","","","","",""
"","2845.7650000345893","html-keyboard-response","114","217448","0.0-24.0","SS1613138525449","pref_question","","50","","","","","<video width ='960' height = '540' style='padding-top:8%' autoplay muted><source src='images/stimuli/wall_pref.mp4' type='video/mp4'></video>","2","middle","45%","5","","","","","","","",""
"","603.7699999869801","sequential-stimulus-presentation","115","218867","0.0-25.0","SS1613138525449","pref_reveal","","40","800","1403.76999998698","null","null","","","","","5","","","","deviant","","","",""
"","null","html-keyboard-response","116","219773","0.0-26.0-0.0","SS1613138525449","","","null","","","","","<p><img src= images/blank.png width =""200"" height = ""200"" style = ""float:right""></p><p><img src=images/blank.png width =""800"" height = ""200""></p>","","","","","","","","","","","",""
"","1125.0350000336766","sequential-stimulus-presentation","117","221707","0.0-26.0-1.0","SS1613138525449","trial","","40","800","1925.0350000336766","images/stimuli/spore_stims/complex_05_A_a.gif","images/stimuli/spore_stims/complex_14_A_a.gif","","","","","6","complex_dissimilar","images/stimuli/spore_stims/complex_14_A_a.gif","middle","","","","",""
"","null","html-keyboard-response","118","222696","0.0-26.0-0.1","SS1613138525449","","","null","","","","","<p><img src= images/blank.png width =""200"" height = ""200"" style = ""float:right""></p><p><img src=images/blank.png width =""800"" height = ""200""></p>","","","","","","","","","","","",""
"","16.069999954197556","sequential-stimulus-presentation","119","223520","0.0-26.0-1.1","SS1613138525449","trial","","40","800","816.0699999541976","images/stimuli/spore_stims/complex_05_A_a.gif","images/stimuli/spore_stims/complex_14_A_a.gif","","","","","6","complex_dissimilar","images/stimuli/spore_stims/complex_14_A_a.gif","middle","","","","",""
"","null","html-keyboard-response","120","224664","0.0-26.0-0.2","SS1613138525449","","","null","","","","","<p><img src= images/blank.png width =""200"" height = ""200"" style = ""float:right""></p><p><img src=images/blank.png width =""800"" height = ""200""></p>","","","","","","","","","","","",""
"","491.9149999623187","sequential-stimulus-presentation","121","225989","0.0-26.0-1.2","SS1613138525449","trial","","40","800","1291.9149999623187","images/stimuli/spore_stims/complex_05_A_a.gif","images/stimuli/spore_stims/complex_14_A_a.gif","","","","","6","complex_dissimilar","images/stimuli/spore_stims/complex_05_A_a.gif","left","","","","",""
"","null","html-keyboard-response","122","226840","0.0-26.0-0.3","SS1613138525449","","","null","","","","","<p><img src= images/blank.png width =""200"" height = ""200"" style = ""float:right""></p><p><img src=images/blank.png width =""800"" height = ""200""></p>","","","","","","","","","","","",""
"","1743.1600000127219","sequential-stimulus-presentation","123","229392","0.0-26.0-1.3","SS1613138525449","trial","","40","800","2543.160000012722","images/stimuli/spore_stims/complex_05_A_a.gif","images/stimuli/spore_stims/complex_14_A_a.gif","","","","","6","complex_dissimilar","images/stimuli/spore_stims/complex_14_A_a.gif","middle","","","","",""
"","null","html-keyboard-response","124","230327","0.0-26.0-0.4","SS1613138525449","","","null","","","","","<p><img src= images/blank.png width =""200"" height = ""200"" style = ""float:right""></p><p><img src=images/blank.png width =""800"" height = ""200""></p>","","","","","","","","","","","",""
"","769.3299999809824","sequential-stimulus-presentation","125","231905","0.0-26.0-1.4","SS1613138525449","trial","","40","800","1569.3299999809824","images/stimuli/spore_stims/complex_05_A_a.gif","images/stimuli/spore_stims/complex_14_A_a.gif","","","","","6","complex_dissimilar","images/stimuli/spore_stims/complex_14_A_a.gif","middle","","","","",""
"","null","html-keyboard-response","126","232953","0.0-26.0-0.5","SS1613138525449","","","null","","","","","<p><img src= images/blank.png width =""200"" height = ""200"" style = ""float:right""></p><p><img src=images/blank.png width =""800"" height = ""200""></p>","","","","","","","","","","","",""
"","431.9600000162609","sequential-stimulus-presentation","127","234202","0.0-26.0-1.5","SS1613138525449","trial","","40","800","1231.960000016261","images/stimuli/spore_stims/complex_05_A_a.gif","images/stimuli/spore_stims/complex_14_A_a.gif","","","","","6","complex_dissimilar","images/stimuli/spore_stims/complex_14_A_a.gif","middle","","","","",""
"","null","html-keyboard-response","128","235418","0.0-26.0-0.6","SS1613138525449","","","null","","","","","<p><img src= images/blank.png width =""200"" height = ""200"" style = ""float:right""></p><p><img src=images/blank.png width =""800"" height = ""200""></p>","","","","","","","","","","","",""
"","91.88999998150393","sequential-stimulus-presentation","129","236348","0.0-26.0-1.6","SS1613138525449","trial","","40","800","891.8899999815039","images/stimuli/spore_stims/complex_05_A_a.gif","images/stimuli/spore_stims/complex_14_A_a.gif","","","","","6","complex_dissimilar","images/stimuli/spore_stims/complex_14_A_a.gif","middle","","","","",""
"","null","html-keyboard-response","130","237612","0.0-26.0-0.7","SS1613138525449","","","null","","","","","<p><img src= images/blank.png width =""200"" height = ""200"" style = ""float:right""></p><p><img src=images/blank.png width =""800"" height = ""200""></p>","","","","","","","","","","","",""
"","600.2649999572895","sequential-stimulus-presentation","131","239023","0.0-26.0-1.7","SS1613138525449","trial","","40","800","1400.2649999572895","images/stimuli/spore_stims/complex_05_A_a.gif","images/stimuli/spore_stims/complex_14_A_a.gif","","","","","6","complex_dissimilar","images/stimuli/spore_stims/complex_14_A_a.gif","middle","","","","",""
"","2413.8599999714643","html-keyboard-response","132","241442","0.0-27.0","SS1613138525449","pref_question","","51","","","","","<video width ='960' height = '540' style='padding-top:8%' autoplay muted><source src='images/stimuli/wall_pref.mp4' type='video/mp4'></video>","3","right","66%","6","","","","","","","",""
"","1125.9449999779463","sequential-stimulus-presentation","133","243377","0.0-28.0","SS1613138525449","pref_reveal","","40","800","1925.9449999779463","null","null","","","","","6","","","","novel","","","",""
"","null","html-keyboard-response","134","244559","0.0-29.0-0.0","SS1613138525449","","","null","","","","","<p><img src= images/blank.png width =""200"" height = ""200"" style = ""float:right""></p><p><img src=images/blank.png width =""800"" height = ""200""></p>","","","","","","","","","","","",""
"","2057.9649999854155","sequential-stimulus-presentation","135","247427","0.0-29.0-1.0","SS1613138525449","trial","","40","800","2857.9649999854155","images/stimuli/spore_stims/simple_17_B_c.gif","images/stimuli/spore_stims/simple_17_A_c.gif","","","","","7","simple_similar","images/stimuli/spore_stims/simple_17_A_c.gif","middle","","","","",""
"","null","html-keyboard-response","136","248369","0.0-29.0-0.1","SS1613138525449","","","null","","","","","<p><img src= images/blank.png width =""200"" height = ""200"" style = ""float:right""></p><p><img src=images/blank.png width =""800"" height = ""200""></p>","","","","","","","","","","","",""
"","3039.5649999845773","sequential-stimulus-presentation","137","252252","0.0-29.0-1.1","SS1613138525449","trial","","40","800","3839.5649999845773","images/stimuli/spore_stims/simple_17_B_c.gif","images/stimuli/spore_stims/simple_17_A_c.gif","","","","","7","simple_similar","images/stimuli/spore_stims/simple_17_A_c.gif","middle","","","","",""
"","null","html-keyboard-response","138","253272","0.0-29.0-0.2","SS1613138525449","","","null","","","","","<p><img src= images/blank.png width =""200"" height = ""200"" style = ""float:right""></p><p><img src=images/blank.png width =""800"" height = ""200""></p>","","","","","","","","","","","",""
"","1210.3750000242144","sequential-stimulus-presentation","139","255292","0.0-29.0-1.2","SS1613138525449","trial","","40","800","2010.3750000242144","images/stimuli/spore_stims/simple_17_B_c.gif","images/stimuli/spore_stims/simple_17_A_c.gif","","","","","7","simple_similar","images/stimuli/spore_stims/simple_17_A_c.gif","middle","","","","",""
"","null","html-keyboard-response","140","256574","0.0-29.0-0.3","SS1613138525449","","","null","","","","","<p><img src= images/blank.png width =""200"" height = ""200"" style = ""float:right""></p><p><img src=images/blank.png width =""800"" height = ""200""></p>","","","","","","","","","","","",""
"","734.4300000113435","sequential-stimulus-presentation","141","258117","0.0-29.0-1.3","SS1613138525449","trial","","40","800","1534.4300000113435","images/stimuli/spore_stims/simple_17_B_c.gif","images/stimuli/spore_stims/simple_17_A_c.gif","","","","","7","simple_similar","images/stimuli/spore_stims/simple_17_A_c.gif","middle","","","","",""
"","null","html-keyboard-response","142","259382","0.0-29.0-0.4","SS1613138525449","","","null","","","","","<p><img src= images/blank.png width =""200"" height = ""200"" style = ""float:right""></p><p><img src=images/blank.png width =""800"" height = ""200""></p>","","","","","","","","","","","",""
"","3460.7949999626726","sequential-stimulus-presentation","143","263650","0.0-29.0-1.4","SS1613138525449","trial","","40","800","4260.794999962673","images/stimuli/spore_stims/simple_17_B_c.gif","images/stimuli/spore_stims/simple_17_A_c.gif","","","","","7","simple_similar","images/stimuli/spore_stims/simple_17_A_c.gif","middle","","","","",""
"","null","html-keyboard-response","144","264543","0.0-29.0-0.5","SS1613138525449","","","null","","","","","<p><img src= images/blank.png width =""200"" height = ""200"" style = ""float:right""></p><p><img src=images/blank.png width =""800"" height = ""200""></p>","","","","","","","","","","","",""
"","326.37500000419095","sequential-stimulus-presentation","145","265679","0.0-29.0-1.5","SS1613138525449","trial","","40","800","1126.375000004191","images/stimuli/spore_stims/simple_17_B_c.gif","images/stimuli/spore_stims/simple_17_A_c.gif","","","","","7","simple_similar","images/stimuli/spore_stims/simple_17_A_c.gif","middle","","","","",""
"","null","html-keyboard-response","146","266593","0.0-29.0-0.6","SS1613138525449","","","null","","","","","<p><img src= images/blank.png width =""200"" height = ""200"" style = ""float:right""></p><p><img src=images/blank.png width =""800"" height = ""200""></p>","","","","","","","","","","","",""
"","2257.6349999872036","sequential-stimulus-presentation","147","269659","0.0-29.0-1.6","SS1613138525449","trial","","40","800","3057.6349999872036","images/stimuli/spore_stims/simple_17_B_c.gif","images/stimuli/spore_stims/simple_17_A_c.gif","","","","","7","simple_similar","images/stimuli/spore_stims/simple_17_A_c.gif","middle","","","","",""
"","null","html-keyboard-response","148","270761","0.0-29.0-0.7","SS1613138525449","","","null","","","","","<p><img src= images/blank.png width =""200"" height = ""200"" style = ""float:right""></p><p><img src=images/blank.png width =""800"" height = ""200""></p>","","","","","","","","","","","",""
"","219.9449999607168","sequential-stimulus-presentation","149","271798","0.0-29.0-1.7","SS1613138525449","trial","","40","800","1019.9449999607168","images/stimuli/spore_stims/simple_17_B_c.gif","images/stimuli/spore_stims/simple_17_A_c.gif","","","","","7","simple_similar","images/stimuli/spore_stims/simple_17_B_c.gif","right","","","","",""
"","2020.699999993667","html-keyboard-response","150","273825","0.0-30.0","SS1613138525449","pref_question","","51","","","","","<video width ='960' height = '540' style='padding-top:8%' autoplay muted><source src='images/stimuli/wall_pref.mp4' type='video/mp4'></video>","3","right","66%","7","","","","","","","",""
"","3352.469999983441","sequential-stimulus-presentation","151","278011","0.0-31.0","SS1613138525449","pref_reveal","","40","800","4152.469999983441","null","null","","","","","7","","","","deviant","","","",""
"","null","html-keyboard-response","152","279000","0.0-32.0-0.0","SS1613138525449","","","null","","","","","<p><img src= images/blank.png width =""200"" height = ""200"" style = ""float:right""></p><p><img src=images/blank.png width =""800"" height = ""200""></p>","","","","","","","","","","","",""
"","1638.6850000126287","sequential-stimulus-presentation","153","281455","0.0-32.0-1.0","SS1613138525449","trial","","40","800","2438.6850000126287","images/stimuli/spore_stims/simple_12_B_a.gif","images/stimuli/spore_stims/simple_12_A_a.gif","","","","","8","simple_similar","images/stimuli/spore_stims/simple_12_A_a.gif","left","","","","",""
"","null","html-keyboard-response","154","282335","0.0-32.0-0.1","SS1613138525449","","","null","","","","","<p><img src= images/blank.png width =""200"" height = ""200"" style = ""float:right""></p><p><img src=images/blank.png width =""800"" height = ""200""></p>","","","","","","","","","","","",""
"","411.9700000155717","sequential-stimulus-presentation","155","283558","0.0-32.0-1.1","SS1613138525449","trial","","40","800","1211.9700000155717","images/stimuli/spore_stims/simple_12_B_a.gif","images/stimuli/spore_stims/simple_12_A_a.gif","","","","","8","simple_similar","images/stimuli/spore_stims/simple_12_A_a.gif","left","","","","",""
"","null","html-keyboard-response","156","284489","0.0-32.0-0.2","SS1613138525449","","","null","","","","","<p><img src= images/blank.png width =""200"" height = ""200"" style = ""float:right""></p><p><img src=images/blank.png width =""800"" height = ""200""></p>","","","","","","","","","","","",""
"","625.510000041686","sequential-stimulus-presentation","157","285923","0.0-32.0-1.2","SS1613138525449","trial","","40","800","1425.510000041686","images/stimuli/spore_stims/simple_12_B_a.gif","images/stimuli/spore_stims/simple_12_A_a.gif","","","","","8","simple_similar","images/stimuli/spore_stims/simple_12_A_a.gif","left","","","","",""
"","null","html-keyboard-response","158","286790","0.0-32.0-0.3","SS1613138525449","","","null","","","","","<p><img src= images/blank.png width =""200"" height = ""200"" style = ""float:right""></p><p><img src=images/blank.png width =""800"" height = ""200""></p>","","","","","","","","","","","",""
"","679.5949999941513","sequential-stimulus-presentation","159","288278","0.0-32.0-1.3","SS1613138525449","trial","","40","800","1479.5949999941513","images/stimuli/spore_stims/simple_12_B_a.gif","images/stimuli/spore_stims/simple_12_A_a.gif","","","","","8","simple_similar","images/stimuli/spore_stims/simple_12_A_a.gif","left","","","","",""
"","null","html-keyboard-response","160","289175","0.0-32.0-0.4","SS1613138525449","","","null","","","","","<p><img src= images/blank.png width =""200"" height = ""200"" style = ""float:right""></p><p><img src=images/blank.png width =""800"" height = ""200""></p>","","","","","","","","","","","",""
"","642.3199999844655","sequential-stimulus-presentation","161","290626","0.0-32.0-1.4","SS1613138525449","trial","","40","800","1442.3199999844655","images/stimuli/spore_stims/simple_12_B_a.gif","images/stimuli/spore_stims/simple_12_A_a.gif","","","","","8","simple_similar","images/stimuli/spore_stims/simple_12_A_a.gif","left","","","","",""
"","null","html-keyboard-response","162","291786","0.0-32.0-0.5","SS1613138525449","","","null","","","","","<p><img src= images/blank.png width =""200"" height = ""200"" style = ""float:right""></p><p><img src=images/blank.png width =""800"" height = ""200""></p>","","","","","","","","","","","",""
"","451.25499996356666","sequential-stimulus-presentation","163","293046","0.0-32.0-1.5","SS1613138525449","trial","","40","800","1251.2549999635667","images/stimuli/spore_stims/simple_12_B_a.gif","images/stimuli/spore_stims/simple_12_A_a.gif","","","","","8","simple_similar","images/stimuli/spore_stims/simple_12_B_a.gif","middle","","","","",""
"","null","html-keyboard-response","164","294302","0.0-32.0-0.6","SS1613138525449","","","null","","","","","<p><img src= images/blank.png width =""200"" height = ""200"" style = ""float:right""></p><p><img src=images/blank.png width =""800"" height = ""200""></p>","","","","","","","","","","","",""
"","2014.4450000370853","sequential-stimulus-presentation","165","297131","0.0-32.0-1.6","SS1613138525449","trial","","40","800","2814.4450000370853","images/stimuli/spore_stims/simple_12_B_a.gif","images/stimuli/spore_stims/simple_12_A_a.gif","","","","","8","simple_similar","images/stimuli/spore_stims/simple_12_A_a.gif","left","","","","",""
"","null","html-keyboard-response","166","298261","0.0-32.0-0.7","SS1613138525449","","","null","","","","","<p><img src= images/blank.png width =""200"" height = ""200"" style = ""float:right""></p><p><img src=images/blank.png width =""800"" height = ""200""></p>","","","","","","","","","","","",""
"","244.3349999957718","sequential-stimulus-presentation","167","299320","0.0-32.0-1.7","SS1613138525449","trial","","40","800","1044.3349999957718","images/stimuli/spore_stims/simple_12_B_a.gif","images/stimuli/spore_stims/simple_12_A_a.gif","","","","","8","simple_similar","images/stimuli/spore_stims/simple_12_A_a.gif","left","","","","",""
"","1930.2949999691918","html-keyboard-response","168","301261","0.0-33.0","SS1613138525449","pref_question","","50","","","","","<video width ='960' height = '540' style='padding-top:8%' autoplay muted><source src='images/stimuli/wall_pref.mp4' type='video/mp4'></video>","2","middle","45%","8","","","","","","","",""
"","4359.739999985322","sequential-stimulus-presentation","169","306430","0.0-34.0","SS1613138525449","pref_reveal","","40","800","5159.739999985322","null","null","","","","","8","","","","deviant","","","",""
"","null","html-keyboard-response","170","307725","0.0-35.0-0.0","SS1613138525449","","","null","","","","","<p><img src= images/blank.png width =""200"" height = ""200"" style = ""float:right""></p><p><img src=images/blank.png width =""800"" height = ""200""></p>","","","","","","","","","","","",""
"","457.70000002812594","sequential-stimulus-presentation","171","308991","0.0-35.0-1.0","SS1613138525449","trial","","40","800","1257.700000028126","images/stimuli/spore_stims/simple_13_B_d.gif","images/stimuli/spore_stims/simple_06_A_d.gif","","","","","9","simple_dissimilar","images/stimuli/spore_stims/simple_06_A_d.gif","left","","","","",""
"","null","html-keyboard-response","172","310072","0.0-35.0-0.1","SS1613138525449","","","null","","","","","<p><img src= images/blank.png width =""200"" height = ""200"" style = ""float:right""></p><p><img src=images/blank.png width =""800"" height = ""200""></p>","","","","","","","","","","","",""
"","907.8850000514649","sequential-stimulus-presentation","173","311791","0.0-35.0-1.1","SS1613138525449","trial","","40","800","1707.8850000514649","images/stimuli/spore_stims/simple_13_B_d.gif","images/stimuli/spore_stims/simple_06_A_d.gif","","","","","9","simple_dissimilar","images/stimuli/spore_stims/simple_06_A_d.gif","left","","","","",""
"","null","html-keyboard-response","174","313030","0.0-35.0-0.2","SS1613138525449","","","null","","","","","<p><img src= images/blank.png width =""200"" height = ""200"" style = ""float:right""></p><p><img src=images/blank.png width =""800"" height = ""200""></p>","","","","","","","","","","","",""
"","439.4849999807775","sequential-stimulus-presentation","175","314280","0.0-35.0-1.2","SS1613138525449","trial","","40","800","1239.4849999807775","images/stimuli/spore_stims/simple_13_B_d.gif","images/stimuli/spore_stims/simple_06_A_d.gif","","","","","9","simple_dissimilar","images/stimuli/spore_stims/simple_06_A_d.gif","left","","","","",""
"","null","html-keyboard-response","176","315112","0.0-35.0-0.3","SS1613138525449","","","null","","","","","<p><img src= images/blank.png width =""200"" height = ""200"" style = ""float:right""></p><p><img src=images/blank.png width =""800"" height = ""200""></p>","","","","","","","","","","","",""
"","881.8900000187568","sequential-stimulus-presentation","177","316804","0.0-35.0-1.3","SS1613138525449","trial","","40","800","1681.8900000187568","images/stimuli/spore_stims/simple_13_B_d.gif","images/stimuli/spore_stims/simple_06_A_d.gif","","","","","9","simple_dissimilar","images/stimuli/spore_stims/simple_06_A_d.gif","left","","","","",""
"","null","html-keyboard-response","178","317712","0.0-35.0-0.4","SS1613138525449","","","null","","","","","<p><img src= images/blank.png width =""200"" height = ""200"" style = ""float:right""></p><p><img src=images/blank.png width =""800"" height = ""200""></p>","","","","","","","","","","","",""
"","2260.7500000158325","sequential-stimulus-presentation","179","320782","0.0-35.0-1.4","SS1613138525449","trial","","40","800","3060.7500000158325","images/stimuli/spore_stims/simple_13_B_d.gif","images/stimuli/spore_stims/simple_06_A_d.gif","","","","","9","simple_dissimilar","images/stimuli/spore_stims/simple_06_A_d.gif","left","","","","",""
"","null","html-keyboard-response","180","321875","0.0-35.0-0.5","SS1613138525449","","","null","","","","","<p><img src= images/blank.png width =""200"" height = ""200"" style = ""float:right""></p><p><img src=images/blank.png width =""800"" height = ""200""></p>","","","","","","","","","","","",""
"","1138.7349999858998","sequential-stimulus-presentation","181","323825","0.0-35.0-1.5","SS1613138525449","trial","","40","800","1938.7349999858998","images/stimuli/spore_stims/simple_13_B_d.gif","images/stimuli/spore_stims/simple_06_A_d.gif","","","","","9","simple_dissimilar","images/stimuli/spore_stims/simple_06_A_d.gif","left","","","","",""
"","null","html-keyboard-response","182","324685","0.0-35.0-0.6","SS1613138525449","","","null","","","","","<p><img src= images/blank.png width =""200"" height = ""200"" style = ""float:right""></p><p><img src=images/blank.png width =""800"" height = ""200""></p>","","","","","","","","","","","",""
"","979.0950000169687","sequential-stimulus-presentation","183","326483","0.0-35.0-1.6","SS1613138525449","trial","","40","800","1779.0950000169687","images/stimuli/spore_stims/simple_13_B_d.gif","images/stimuli/spore_stims/simple_06_A_d.gif","","","","","9","simple_dissimilar","images/stimuli/spore_stims/simple_13_B_d.gif","middle","","","","",""
"","null","html-keyboard-response","184","327509","0.0-35.0-0.7","SS1613138525449","","","null","","","","","<p><img src= images/blank.png width =""200"" height = ""200"" style = ""float:right""></p><p><img src=images/blank.png width =""800"" height = ""200""></p>","","","","","","","","","","","",""
"","1291.9649999821559","sequential-stimulus-presentation","185","329610","0.0-35.0-1.7","SS1613138525449","trial","","40","800","2091.964999982156","images/stimuli/spore_stims/simple_13_B_d.gif","images/stimuli/spore_stims/simple_06_A_d.gif","","","","","9","simple_dissimilar","images/stimuli/spore_stims/simple_06_A_d.gif","left","","","","",""
"","8353.624999988824","html-keyboard-response","186","337973","0.0-36.0","SS1613138525449","pref_question","","50","","","","","<video width ='960' height = '540' style='padding-top:8%' autoplay muted><source src='images/stimuli/wall_pref.mp4' type='video/mp4'></video>","2","middle","45%","9","","","","","","","",""
"","854.1749999858439","sequential-stimulus-presentation","187","339637","0.0-37.0","SS1613138525449","pref_reveal","","40","800","1654.174999985844","null","null","","","","","9","","","","deviant","","","",""
"","null","html-keyboard-response","188","340646","0.0-38.0-0.0","SS1613138525449","","","null","","","","","<p><img src= images/blank.png width =""200"" height = ""200"" style = ""float:right""></p><p><img src=images/blank.png width =""800"" height = ""200""></p>","","","","","","","","","","","",""
"","33.30500004813075","sequential-stimulus-presentation","189","341490","0.0-38.0-1.0","SS1613138525449","trial","","40","800","833.3050000481308","images/stimuli/spore_stims/complex_17_A_d.gif","images/stimuli/spore_stims/complex_17_B_d.gif","","","","","10","complex_similar","images/stimuli/spore_stims/complex_17_B_d.gif","right","","","","",""
"","null","html-keyboard-response","190","342706","0.0-38.0-0.1","SS1613138525449","","","null","","","","","<p><img src= images/blank.png width =""200"" height = ""200"" style = ""float:right""></p><p><img src=images/blank.png width =""800"" height = ""200""></p>","","","","","","","","","","","",""
"","218.05999998468906","sequential-stimulus-presentation","191","343743","0.0-38.0-1.1","SS1613138525449","trial","","40","800","1018.0599999846891","images/stimuli/spore_stims/complex_17_A_d.gif","images/stimuli/spore_stims/complex_17_B_d.gif","","","","","10","complex_similar","images/stimuli/spore_stims/complex_17_B_d.gif","right","","","","",""
"","null","html-keyboard-response","192","344931","0.0-38.0-0.2","SS1613138525449","","","null","","","","","<p><img src= images/blank.png width =""200"" height = ""200"" style = ""float:right""></p><p><img src=images/blank.png width =""800"" height = ""200""></p>","","","","","","","","","","","",""
"","466.8999999994412","sequential-stimulus-presentation","193","346208","0.0-38.0-1.2","SS1613138525449","trial","","40","800","1266.8999999994412","images/stimuli/spore_stims/complex_17_A_d.gif","images/stimuli/spore_stims/complex_17_B_d.gif","","","","","10","complex_similar","images/stimuli/spore_stims/complex_17_B_d.gif","right","","","","",""
"","null","html-keyboard-response","194","347058","0.0-38.0-0.3","SS1613138525449","","","null","","","","","<p><img src= images/blank.png width =""200"" height = ""200"" style = ""float:right""></p><p><img src=images/blank.png width =""800"" height = ""200""></p>","","","","","","","","","","","",""
"","43.26000000583008","sequential-stimulus-presentation","195","347911","0.0-38.0-1.3","SS1613138525449","trial","","40","800","843.2600000058301","images/stimuli/spore_stims/complex_17_A_d.gif","images/stimuli/spore_stims/complex_17_B_d.gif","","","","","10","complex_similar","images/stimuli/spore_stims/complex_17_B_d.gif","right","","","","",""
"","null","html-keyboard-response","196","348738","0.0-38.0-0.4","SS1613138525449","","","null","","","","","<p><img src= images/blank.png width =""200"" height = ""200"" style = ""float:right""></p><p><img src=images/blank.png width =""800"" height = ""200""></p>","","","","","","","","","","","",""
"","2991.3400000077672","sequential-stimulus-presentation","197","352539","0.0-38.0-1.4","SS1613138525449","trial","","40","800","3791.3400000077672","images/stimuli/spore_stims/complex_17_A_d.gif","images/stimuli/spore_stims/complex_17_B_d.gif","","","","","10","complex_similar","images/stimuli/spore_stims/complex_17_B_d.gif","right","","","","",""
"","null","html-keyboard-response","198","353473","0.0-38.0-0.5","SS1613138525449","","","null","","","","","<p><img src= images/blank.png width =""200"" height = ""200"" style = ""float:right""></p><p><img src=images/blank.png width =""800"" height = ""200""></p>","","","","","","","","","","","",""
"","208.49500002805144","sequential-stimulus-presentation","199","354493","0.0-38.0-1.5","SS1613138525449","trial","","40","800","1008.4950000280514","images/stimuli/spore_stims/complex_17_A_d.gif","images/stimuli/spore_stims/complex_17_B_d.gif","","","","","10","complex_similar","images/stimuli/spore_stims/complex_17_A_d.gif","left","","","","",""
"","null","html-keyboard-response","200","355466","0.0-38.0-0.6","SS1613138525449","","","null","","","","","<p><img src= images/blank.png width =""200"" height = ""200"" style = ""float:right""></p><p><img src=images/blank.png width =""800"" height = ""200""></p>","","","","","","","","","","","",""
"","62.99500004388392","sequential-stimulus-presentation","201","356365","0.0-38.0-1.6","SS1613138525449","trial","","40","800","862.9950000438839","images/stimuli/spore_stims/complex_17_A_d.gif","images/stimuli/spore_stims/complex_17_B_d.gif","","","","","10","complex_similar","images/stimuli/spore_stims/complex_17_B_d.gif","right","","","","",""
"","null","html-keyboard-response","202","357257","0.0-38.0-0.7","SS1613138525449","","","null","","","","","<p><img src= images/blank.png width =""200"" height = ""200"" style = ""float:right""></p><p><img src=images/blank.png width =""800"" height = ""200""></p>","","","","","","","","","","","",""
"","822.115000046324","sequential-stimulus-presentation","203","358898","0.0-38.0-1.7","SS1613138525449","trial","","40","800","1622.115000046324","images/stimuli/spore_stims/complex_17_A_d.gif","images/stimuli/spore_stims/complex_17_B_d.gif","","","","","10","complex_similar","images/stimuli/spore_stims/complex_17_B_d.gif","right","","","","",""
"","6855.674999998882","html-keyboard-response","204","365762","0.0-39.0","SS1613138525449","pref_question","","51","","","","","<video width ='960' height = '540' style='padding-top:8%' autoplay muted><source src='images/stimuli/wall_pref.mp4' type='video/mp4'></video>","3","right","66%","10","","","","","","","",""
"","848.4649999882095","sequential-stimulus-presentation","205","367421","0.0-40.0","SS1613138525449","pref_reveal","","40","800","1648.4649999882095","null","null","","","","","10","","","","background","","","",""
"","null","html-keyboard-response","206","368448","0.0-41.0-0.0","SS1613138525449","","","null","","","","","<p><img src= images/blank.png width =""200"" height = ""200"" style = ""float:right""></p><p><img src=images/blank.png width =""800"" height = ""200""></p>","","","","","","","","","","","",""
"","1565.0299999979325","sequential-stimulus-presentation","207","370833","0.0-41.0-1.0","SS1613138525449","trial","","40","800","2365.0299999979325","images/stimuli/spore_stims/complex_13_A_b.gif","images/stimuli/spore_stims/complex_10_A_d.gif","","","","","11","complex_dissimilar","images/stimuli/spore_stims/complex_10_A_d.gif","right","","","","",""
"","null","html-keyboard-response","208","371868","0.0-41.0-0.1","SS1613138525449","","","null","","","","","<p><img src= images/blank.png width =""200"" height = ""200"" style = ""float:right""></p><p><img src=images/blank.png width =""800"" height = ""200""></p>","","","","","","","","","","","",""
"","1148.5049999901094","sequential-stimulus-presentation","209","373827","0.0-41.0-1.1","SS1613138525449","trial","","40","800","1948.5049999901094","images/stimuli/spore_stims/complex_13_A_b.gif","images/stimuli/spore_stims/complex_10_A_d.gif","","","","","11","complex_dissimilar","images/stimuli/spore_stims/complex_10_A_d.gif","right","","","","",""
"","null","html-keyboard-response","210","374824","0.0-41.0-0.2","SS1613138525449","","","null","","","","","<p><img src= images/blank.png width =""200"" height = ""200"" style = ""float:right""></p><p><img src=images/blank.png width =""800"" height = ""200""></p>","","","","","","","","","","","",""
"","730.6249999674037","sequential-stimulus-presentation","211","376366","0.0-41.0-1.2","SS1613138525449","trial","","40","800","1530.6249999674037","images/stimuli/spore_stims/complex_13_A_b.gif","images/stimuli/spore_stims/complex_10_A_d.gif","","","","","11","complex_dissimilar","images/stimuli/spore_stims/complex_10_A_d.gif","right","","","","",""
"","null","html-keyboard-response","212","377577","0.0-41.0-0.3","SS1613138525449","","","null","","","","","<p><img src= images/blank.png width =""200"" height = ""200"" style = ""float:right""></p><p><img src=images/blank.png width =""800"" height = ""200""></p>","","","","","","","","","","","",""
"","374.76999999489635","sequential-stimulus-presentation","213","378770","0.0-41.0-1.3","SS1613138525449","trial","","40","800","1174.7699999948964","images/stimuli/spore_stims/complex_13_A_b.gif","images/stimuli/spore_stims/complex_10_A_d.gif","","","","","11","complex_dissimilar","images/stimuli/spore_stims/complex_10_A_d.gif","right","","","","",""
"","null","html-keyboard-response","214","380035","0.0-41.0-0.4","SS1613138525449","","","null","","","","","<p><img src= images/blank.png width =""200"" height = ""200"" style = ""float:right""></p><p><img src=images/blank.png width =""800"" height = ""200""></p>","","","","","","","","","","","",""
"","985.1699999999255","sequential-stimulus-presentation","215","381830","0.0-41.0-1.4","SS1613138525449","trial","","40","800","1785.1699999999255","images/stimuli/spore_stims/complex_13_A_b.gif","images/stimuli/spore_stims/complex_10_A_d.gif","","","","","11","complex_dissimilar","images/stimuli/spore_stims/complex_10_A_d.gif","right","","","","",""
"","null","html-keyboard-response","216","382755","0.0-41.0-0.5","SS1613138525449","","","null","","","","","<p><img src= images/blank.png width =""200"" height = ""200"" style = ""float:right""></p><p><img src=images/blank.png width =""800"" height = ""200""></p>","","","","","","","","","","","",""
"","3277.9149999842048","sequential-stimulus-presentation","217","386843","0.0-41.0-1.5","SS1613138525449","trial","","40","800","4077.9149999842048","images/stimuli/spore_stims/complex_13_A_b.gif","images/stimuli/spore_stims/complex_10_A_d.gif","","","","","11","complex_dissimilar","images/stimuli/spore_stims/complex_10_A_d.gif","right","","","","",""
"","null","html-keyboard-response","218","387837","0.0-41.0-0.6","SS1613138525449","","","null","","","","","<p><img src= images/blank.png width =""200"" height = ""200"" style = ""float:right""></p><p><img src=images/blank.png width =""800"" height = ""200""></p>","","","","","","","","","","","",""
"","2928.060000005644","sequential-stimulus-presentation","219","391576","0.0-41.0-1.6","SS1613138525449","trial","","40","800","3728.060000005644","images/stimuli/spore_stims/complex_13_A_b.gif","images/stimuli/spore_stims/complex_10_A_d.gif","","","","","11","complex_dissimilar","images/stimuli/spore_stims/complex_13_A_b.gif","left","","","","",""
"","null","html-keyboard-response","220","392474","0.0-41.0-0.7","SS1613138525449","","","null","","","","","<p><img src= images/blank.png width =""200"" height = ""200"" style = ""float:right""></p><p><img src=images/blank.png width =""800"" height = ""200""></p>","","","","","","","","","","","",""
"","2369.3900000071153","sequential-stimulus-presentation","221","395654","0.0-41.0-1.7","SS1613138525449","trial","","40","800","3169.3900000071153","images/stimuli/spore_stims/complex_13_A_b.gif","images/stimuli/spore_stims/complex_10_A_d.gif","","","","","11","complex_dissimilar","images/stimuli/spore_stims/complex_10_A_d.gif","right","","","","",""
"","1770.1349999988452","html-keyboard-response","222","397434","0.0-42.0","SS1613138525449","pref_question","","51","","","","","<video width ='960' height = '540' style='padding-top:8%' autoplay muted><source src='images/stimuli/wall_pref.mp4' type='video/mp4'></video>","3","right","66%","11","","","","","","","",""
"","57.94999998761341","sequential-stimulus-presentation","223","398303","0.0-43.0","SS1613138525449","pref_reveal","","40","800","857.9499999876134","null","null","","","","","11","","","","background","","","",""
"","null","html-keyboard-response","224","399419","0.0-44.0-0.0","SS1613138525449","","","null","","","","","<p><img src= images/blank.png width =""200"" height = ""200"" style = ""float:right""></p><p><img src=images/blank.png width =""800"" height = ""200""></p>","","","","","","","","","","","",""
"","269.7799999732524","sequential-stimulus-presentation","225","400507","0.0-44.0-1.0","SS1613138525449","trial","","40","800","1069.7799999732524","images/stimuli/spore_stims/complex_19_B_a.gif","images/stimuli/spore_stims/complex_19_A_a.gif","","","","","12","complex_similar","images/stimuli/spore_stims/complex_19_A_a.gif","left","","","","",""
"","null","html-keyboard-response","226","401343","0.0-44.0-0.1","SS1613138525449","","","null","","","","","<p><img src= images/blank.png width =""200"" height = ""200"" style = ""float:right""></p><p><img src=images/blank.png width =""800"" height = ""200""></p>","","","","","","","","","","","",""
"","1603.9999999920838","sequential-stimulus-presentation","227","403757","0.0-44.0-1.1","SS1613138525449","trial","","40","800","2403.9999999920838","images/stimuli/spore_stims/complex_19_B_a.gif","images/stimuli/spore_stims/complex_19_A_a.gif","","","","","12","complex_similar","images/stimuli/spore_stims/complex_19_A_a.gif","left","","","","",""
"","null","html-keyboard-response","228","404732","0.0-44.0-0.2","SS1613138525449","","","null","","","","","<p><img src= images/blank.png width =""200"" height = ""200"" style = ""float:right""></p><p><img src=images/blank.png width =""800"" height = ""200""></p>","","","","","","","","","","","",""
"","574.2149999714456","sequential-stimulus-presentation","229","406116","0.0-44.0-1.2","SS1613138525449","trial","","40","800","1374.2149999714456","images/stimuli/spore_stims/complex_19_B_a.gif","images/stimuli/spore_stims/complex_19_A_a.gif","","","","","12","complex_similar","images/stimuli/spore_stims/complex_19_A_a.gif","left","","","","",""
"","null","html-keyboard-response","230","407033","0.0-44.0-0.3","SS1613138525449","","","null","","","","","<p><img src= images/blank.png width =""200"" height = ""200"" style = ""float:right""></p><p><img src=images/blank.png width =""800"" height = ""200""></p>","","","","","","","","","","","",""
"","3932.634999975562","sequential-stimulus-presentation","231","411775","0.0-44.0-1.3","SS1613138525449","trial","","40","800","4732.634999975562","images/stimuli/spore_stims/complex_19_B_a.gif","images/stimuli/spore_stims/complex_19_A_a.gif","","","","","12","complex_similar","images/stimuli/spore_stims/complex_19_A_a.gif","left","","","","",""
"","null","html-keyboard-response","232","412793","0.0-44.0-0.4","SS1613138525449","","","null","","","","","<p><img src= images/blank.png width =""200"" height = ""200"" style = ""float:right""></p><p><img src=images/blank.png width =""800"" height = ""200""></p>","","","","","","","","","","","",""
"","1202.8750000172295","sequential-stimulus-presentation","233","414807","0.0-44.0-1.4","SS1613138525449","trial","","40","800","2002.8750000172295","images/stimuli/spore_stims/complex_19_B_a.gif","images/stimuli/spore_stims/complex_19_A_a.gif","","","","","12","complex_similar","images/stimuli/spore_stims/complex_19_A_a.gif","left","","","","",""
"","null","html-keyboard-response","234","415809","0.0-44.0-0.5","SS1613138525449","","","null","","","","","<p><img src= images/blank.png width =""200"" height = ""200"" style = ""float:right""></p><p><img src=images/blank.png width =""800"" height = ""200""></p>","","","","","","","","","","","",""
"","224.11999996984378","sequential-stimulus-presentation","235","416849","0.0-44.0-1.5","SS1613138525449","trial","","40","800","1024.1199999698438","images/stimuli/spore_stims/complex_19_B_a.gif","images/stimuli/spore_stims/complex_19_A_a.gif","","","","","12","complex_similar","images/stimuli/spore_stims/complex_19_B_a.gif","middle","","","","",""
"","null","html-keyboard-response","236","418018","0.0-44.0-0.6","SS1613138525449","","","null","","","","","<p><img src= images/blank.png width =""200"" height = ""200"" style = ""float:right""></p><p><img src=images/blank.png width =""800"" height = ""200""></p>","","","","","","","","","","","",""
"","1513.1300000357442","sequential-stimulus-presentation","237","420341","0.0-44.0-1.6","SS1613138525449","trial","","40","800","2313.130000035744","images/stimuli/spore_stims/complex_19_B_a.gif","images/stimuli/spore_stims/complex_19_A_a.gif","","","","","12","complex_similar","images/stimuli/spore_stims/complex_19_A_a.gif","left","","","","",""
"","null","html-keyboard-response","238","421597","0.0-44.0-0.7","SS1613138525449","","","null","","","","","<p><img src= images/blank.png width =""200"" height = ""200"" style = ""float:right""></p><p><img src=images/blank.png width =""800"" height = ""200""></p>","","","","","","","","","","","",""
"","651.7149999854155","sequential-stimulus-presentation","239","423059","0.0-44.0-1.7","SS1613138525449","trial","","40","800","1451.7149999854155","images/stimuli/spore_stims/complex_19_B_a.gif","images/stimuli/spore_stims/complex_19_A_a.gif","","","","","12","complex_similar","images/stimuli/spore_stims/complex_19_A_a.gif","left","","","","",""
"","6635.594999999739","html-keyboard-response","240","429713","0.0-45.0","SS1613138525449","pref_question","","51","","","","","<video width ='960' height = '540' style='padding-top:8%' autoplay muted><source src='images/stimuli/wall_pref.mp4' type='video/mp4'></video>","3","right","66%","12","","","","","","","",""
"","1510.504999954719","sequential-stimulus-presentation","241","432038","0.0-46.0","SS1613138525449","pref_reveal","","40","800","2310.504999954719","null","null","","","","","12","","","","novel","","","",""
"","null","html-keyboard-response","242","433331","0.0-47.0-0.0","SS1613138525449","","","null","","","","","<p><img src= images/blank.png width =""200"" height = ""200"" style = ""float:right""></p><p><img src=images/blank.png width =""800"" height = ""200""></p>","","","","","","","","","","","",""
"","3948.145000031218","sequential-stimulus-presentation","243","438094","0.0-47.0-1.0","SS1613138525449","trial","","40","800","4748.145000031218","images/stimuli/spore_stims/complex_02_A_d.gif","images/stimuli/spore_stims/complex_02_B_d.gif","","","","","13","complex_similar","images/stimuli/spore_stims/complex_02_B_d.gif","left","","","","",""
"","null","html-keyboard-response","244","439386","0.0-47.0-0.1","SS1613138525449","","","null","","","","","<p><img src= images/blank.png width =""200"" height = ""200"" style = ""float:right""></p><p><img src=images/blank.png width =""800"" height = ""200""></p>","","","","","","","","","","","",""
"","505.7950000045821","sequential-stimulus-presentation","245","440702","0.0-47.0-1.1","SS1613138525449","trial","","40","800","1305.795000004582","images/stimuli/spore_stims/complex_02_A_d.gif","images/stimuli/spore_stims/complex_02_B_d.gif","","","","","13","complex_similar","images/stimuli/spore_stims/complex_02_B_d.gif","left","","","","",""
"","null","html-keyboard-response","246","441927","0.0-47.0-0.2","SS1613138525449","","","null","","","","","<p><img src= images/blank.png width =""200"" height = ""200"" style = ""float:right""></p><p><img src=images/blank.png width =""800"" height = ""200""></p>","","","","","","","","","","","",""
"","1261.11000002129","sequential-stimulus-presentation","247","443998","0.0-47.0-1.2","SS1613138525449","trial","","40","800","2061.11000002129","images/stimuli/spore_stims/complex_02_A_d.gif","images/stimuli/spore_stims/complex_02_B_d.gif","","","","","13","complex_similar","images/stimuli/spore_stims/complex_02_B_d.gif","left","","","","",""
"","null","html-keyboard-response","248","444979","0.0-47.0-0.3","SS1613138525449","","","null","","","","","<p><img src= images/blank.png width =""200"" height = ""200"" style = ""float:right""></p><p><img src=images/blank.png width =""800"" height = ""200""></p>","","","","","","","","","","","",""
"","92.88999997079372","sequential-stimulus-presentation","249","445883","0.0-47.0-1.3","SS1613138525449","trial","","40","800","892.8899999707937","images/stimuli/spore_stims/complex_02_A_d.gif","images/stimuli/spore_stims/complex_02_B_d.gif","","","","","13","complex_similar","images/stimuli/spore_stims/complex_02_B_d.gif","left","","","","",""
"","null","html-keyboard-response","250","447098","0.0-47.0-0.4","SS1613138525449","","","null","","","","","<p><img src= images/blank.png width =""200"" height = ""200"" style = ""float:right""></p><p><img src=images/blank.png width =""800"" height = ""200""></p>","","","","","","","","","","","",""
"","377.00999999651685","sequential-stimulus-presentation","251","448285","0.0-47.0-1.4","SS1613138525449","trial","","40","800","1177.0099999965169","images/stimuli/spore_stims/complex_02_A_d.gif","images/stimuli/spore_stims/complex_02_B_d.gif","","","","","13","complex_similar","images/stimuli/spore_stims/complex_02_B_d.gif","left","","","","",""
"","null","html-keyboard-response","252","449341","0.0-47.0-0.5","SS1613138525449","","","null","","","","","<p><img src= images/blank.png width =""200"" height = ""200"" style = ""float:right""></p><p><img src=images/blank.png width =""800"" height = ""200""></p>","","","","","","","","","","","",""
"","103.91500004334375","sequential-stimulus-presentation","253","450257","0.0-47.0-1.5","SS1613138525449","trial","","40","800","903.9150000433438","images/stimuli/spore_stims/complex_02_A_d.gif","images/stimuli/spore_stims/complex_02_B_d.gif","","","","","13","complex_similar","images/stimuli/spore_stims/complex_02_A_d.gif","middle","","","","",""
"","null","html-keyboard-response","254","451296","0.0-47.0-0.6","SS1613138525449","","","null","","","","","<p><img src= images/blank.png width =""200"" height = ""200"" style = ""float:right""></p><p><img src=images/blank.png width =""800"" height = ""200""></p>","","","","","","","","","","","",""
"","370.60500000370666","sequential-stimulus-presentation","255","452476","0.0-47.0-1.6","SS1613138525449","trial","","40","800","1170.6050000037067","images/stimuli/spore_stims/complex_02_A_d.gif","images/stimuli/spore_stims/complex_02_B_d.gif","","","","","13","complex_similar","images/stimuli/spore_stims/complex_02_B_d.gif","left","","","","",""
"","null","html-keyboard-response","256","453519","0.0-47.0-0.7","SS1613138525449","","","null","","","","","<p><img src= images/blank.png width =""200"" height = ""200"" style = ""float:right""></p><p><img src=images/blank.png width =""800"" height = ""200""></p>","","","","","","","","","","","",""
"","2806.0050000203773","sequential-stimulus-presentation","257","457144","0.0-47.0-1.7","SS1613138525449","trial","","40","800","3606.0050000203773","images/stimuli/spore_stims/complex_02_A_d.gif","images/stimuli/spore_stims/complex_02_B_d.gif","","","","","13","complex_similar","images/stimuli/spore_stims/complex_02_B_d.gif","left","","","","",""
"","2178.350000001956","html-keyboard-response","258","459332","0.0-48.0","SS1613138525449","pref_question","","51","","","","","<video width ='960' height = '540' style='padding-top:8%' autoplay muted><source src='images/stimuli/wall_pref.mp4' type='video/mp4'></video>","3","right","66%","13","","","","","","","",""
"","648.4549999586307","sequential-stimulus-presentation","259","460801","0.0-49.0","SS1613138525449","pref_reveal","","40","800","1448.4549999586307","null","null","","","","","13","","","","novel","","","",""
"","null","html-keyboard-response","260","462015","0.0-50.0-0.0","SS1613138525449","","","null","","","","","<p><img src= images/blank.png width =""200"" height = ""200"" style = ""float:right""></p><p><img src=images/blank.png width =""800"" height = ""200""></p>","","","","","","","","","","","",""
"","1751.7900000093505","sequential-stimulus-presentation","261","464588","0.0-50.0-1.0","SS1613138525449","trial","","40","800","2551.7900000093505","images/stimuli/spore_stims/simple_05_B_a.gif","images/stimuli/spore_stims/simple_05_A_a.gif","","","","","14","simple_similar","images/stimuli/spore_stims/simple_05_A_a.gif","left","","","","",""
"","null","html-keyboard-response","262","465693","0.0-50.0-0.1","SS1613138525449","","","null","","","","","<p><img src= images/blank.png width =""200"" height = ""200"" style = ""float:right""></p><p><img src=images/blank.png width =""800"" height = ""200""></p>","","","","","","","","","","","",""
"","899.4200000306591","sequential-stimulus-presentation","263","467407","0.0-50.0-1.1","SS1613138525449","trial","","40","800","1699.4200000306591","images/stimuli/spore_stims/simple_05_B_a.gif","images/stimuli/spore_stims/simple_05_A_a.gif","","","","","14","simple_similar","images/stimuli/spore_stims/simple_05_A_a.gif","left","","","","",""
"","null","html-keyboard-response","264","468639","0.0-50.0-0.2","SS1613138525449","","","null","","","","","<p><img src= images/blank.png width =""200"" height = ""200"" style = ""float:right""></p><p><img src=images/blank.png width =""800"" height = ""200""></p>","","","","","","","","","","","",""
"","180.20000000251457","sequential-stimulus-presentation","265","469631","0.0-50.0-1.2","SS1613138525449","trial","","40","800","980.2000000025146","images/stimuli/spore_stims/simple_05_B_a.gif","images/stimuli/spore_stims/simple_05_A_a.gif","","","","","14","simple_similar","images/stimuli/spore_stims/simple_05_A_a.gif","left","","","","",""
"","null","html-keyboard-response","266","470858","0.0-50.0-0.3","SS1613138525449","","","null","","","","","<p><img src= images/blank.png width =""200"" height = ""200"" style = ""float:right""></p><p><img src=images/blank.png width =""800"" height = ""200""></p>","","","","","","","","","","","",""
"","1183.2000000285916","sequential-stimulus-presentation","267","472855","0.0-50.0-1.3","SS1613138525449","trial","","40","800","1983.2000000285916","images/stimuli/spore_stims/simple_05_B_a.gif","images/stimuli/spore_stims/simple_05_A_a.gif","","","","","14","simple_similar","images/stimuli/spore_stims/simple_05_A_a.gif","left","","","","",""
"","null","html-keyboard-response","268","473974","0.0-50.0-0.4","SS1613138525449","","","null","","","","","<p><img src= images/blank.png width =""200"" height = ""200"" style = ""float:right""></p><p><img src=images/blank.png width =""800"" height = ""200""></p>","","","","","","","","","","","",""
"","690.6050000106916","sequential-stimulus-presentation","269","475475","0.0-50.0-1.4","SS1613138525449","trial","","40","800","1490.6050000106916","images/stimuli/spore_stims/simple_05_B_a.gif","images/stimuli/spore_stims/simple_05_A_a.gif","","","","","14","simple_similar","images/stimuli/spore_stims/simple_05_A_a.gif","left","","","","",""
"","null","html-keyboard-response","270","476375","0.0-50.0-0.5","SS1613138525449","","","null","","","","","<p><img src= images/blank.png width =""200"" height = ""200"" style = ""float:right""></p><p><img src=images/blank.png width =""800"" height = ""200""></p>","","","","","","","","","","","",""
"","257.08000001031905","sequential-stimulus-presentation","271","477448","0.0-50.0-1.5","SS1613138525449","trial","","40","800","1057.080000010319","images/stimuli/spore_stims/simple_05_B_a.gif","images/stimuli/spore_stims/simple_05_A_a.gif","","","","","14","simple_similar","images/stimuli/spore_stims/simple_05_A_a.gif","left","","","","",""
"","null","html-keyboard-response","272","478703","0.0-50.0-0.6","SS1613138525449","","","null","","","","","<p><img src= images/blank.png width =""200"" height = ""200"" style = ""float:right""></p><p><img src=images/blank.png width =""800"" height = ""200""></p>","","","","","","","","","","","",""
"","215.5100000090897","sequential-stimulus-presentation","273","479732","0.0-50.0-1.6","SS1613138525449","trial","","40","800","1015.5100000090897","images/stimuli/spore_stims/simple_05_B_a.gif","images/stimuli/spore_stims/simple_05_A_a.gif","","","","","14","simple_similar","images/stimuli/spore_stims/simple_05_A_a.gif","left","","","","",""
"","null","html-keyboard-response","274","481047","0.0-50.0-0.7","SS1613138525449","","","null","","","","","<p><img src= images/blank.png width =""200"" height = ""200"" style = ""float:right""></p><p><img src=images/blank.png width =""800"" height = ""200""></p>","","","","","","","","","","","",""
"","56.61500000860542","sequential-stimulus-presentation","275","481916","0.0-50.0-1.7","SS1613138525449","trial","","40","800","856.6150000086054","images/stimuli/spore_stims/simple_05_B_a.gif","images/stimuli/spore_stims/simple_05_A_a.gif","","","","","14","simple_similar","images/stimuli/spore_stims/simple_05_B_a.gif","right","","","","",""
"","2193.7549999565817","html-keyboard-response","276","484122","0.0-51.0","SS1613138525449","pref_question","","50","","","","","<video width ='960' height = '540' style='padding-top:8%' autoplay muted><source src='images/stimuli/wall_pref.mp4' type='video/mp4'></video>","2","middle","45%","14","","","","","","","",""
"","865.4700000188313","sequential-stimulus-presentation","277","485799","0.0-52.0","SS1613138525449","pref_reveal","","40","800","1665.4700000188313","null","null","","","","","14","","","","novel","","","",""
"","null","html-keyboard-response","278","486667","0.0-53.0-0.0","SS1613138525449","","","null","","","","","<p><img src= images/blank.png width =""200"" height = ""200"" style = ""float:right""></p><p><img src=images/blank.png width =""800"" height = ""200""></p>","","","","","","","","","","","",""
"","353.1749999965541","sequential-stimulus-presentation","279","487853","0.0-53.0-1.0","SS1613138525449","trial","","40","800","1153.174999996554","images/stimuli/spore_stims/complex_04_A_d.gif","images/stimuli/spore_stims/complex_07_B_a.gif","","","","","15","complex_dissimilar","images/stimuli/spore_stims/complex_07_B_a.gif","middle","","","","",""
"","null","html-keyboard-response","280","488951","0.0-53.0-0.1","SS1613138525449","","","null","","","","","<p><img src= images/blank.png width =""200"" height = ""200"" style = ""float:right""></p><p><img src=images/blank.png width =""800"" height = ""200""></p>","","","","","","","","","","","",""
"","232.44499997235835","sequential-stimulus-presentation","281","489998","0.0-53.0-1.1","SS1613138525449","trial","","40","800","1032.4449999723583","images/stimuli/spore_stims/complex_04_A_d.gif","images/stimuli/spore_stims/complex_07_B_a.gif","","","","","15","complex_dissimilar","images/stimuli/spore_stims/complex_07_B_a.gif","middle","","","","",""
"","null","html-keyboard-response","282","490839","0.0-53.0-0.2","SS1613138525449","","","null","","","","","<p><img src= images/blank.png width =""200"" height = ""200"" style = ""float:right""></p><p><img src=images/blank.png width =""800"" height = ""200""></p>","","","","","","","","","","","",""
"","1239.1700000152923","sequential-stimulus-presentation","283","492889","0.0-53.0-1.2","SS1613138525449","trial","","40","800","2039.1700000152923","images/stimuli/spore_stims/complex_04_A_d.gif","images/stimuli/spore_stims/complex_07_B_a.gif","","","","","15","complex_dissimilar","images/stimuli/spore_stims/complex_07_B_a.gif","middle","","","","",""
"","null","html-keyboard-response","284","493990","0.0-53.0-0.3","SS1613138525449","","","null","","","","","<p><img src= images/blank.png width =""200"" height = ""200"" style = ""float:right""></p><p><img src=images/blank.png width =""800"" height = ""200""></p>","","","","","","","","","","","",""
"","659.395000024233","sequential-stimulus-presentation","285","495461","0.0-53.0-1.3","SS1613138525449","trial","","40","800","1459.395000024233","images/stimuli/spore_stims/complex_04_A_d.gif","images/stimuli/spore_stims/complex_07_B_a.gif","","","","","15","complex_dissimilar","images/stimuli/spore_stims/complex_07_B_a.gif","middle","","","","",""
"","null","html-keyboard-response","286","496439","0.0-53.0-0.4","SS1613138525449","","","null","","","","","<p><img src= images/blank.png width =""200"" height = ""200"" style = ""float:right""></p><p><img src=images/blank.png width =""800"" height = ""200""></p>","","","","","","","","","","","",""
"","938.6750000412576","sequential-stimulus-presentation","287","498197","0.0-53.0-1.4","SS1613138525449","trial","","40","800","1738.6750000412576","images/stimuli/spore_stims/complex_04_A_d.gif","images/stimuli/spore_stims/complex_07_B_a.gif","","","","","15","complex_dissimilar","images/stimuli/spore_stims/complex_07_B_a.gif","middle","","","","",""
"","null","html-keyboard-response","288","499089","0.0-53.0-0.5","SS1613138525449","","","null","","","","","<p><img src= images/blank.png width =""200"" height = ""200"" style = ""float:right""></p><p><img src=images/blank.png width =""800"" height = ""200""></p>","","","","","","","","","","","",""
"","1153.9849999826401","sequential-stimulus-presentation","289","501056","0.0-53.0-1.5","SS1613138525449","trial","","40","800","1953.9849999826401","images/stimuli/spore_stims/complex_04_A_d.gif","images/stimuli/spore_stims/complex_07_B_a.gif","","","","","15","complex_dissimilar","images/stimuli/spore_stims/complex_07_B_a.gif","middle","","","","",""
"","null","html-keyboard-response","290","502364","0.0-53.0-0.6","SS1613138525449","","","null","","","","","<p><img src= images/blank.png width =""200"" height = ""200"" style = ""float:right""></p><p><img src=images/blank.png width =""800"" height = ""200""></p>","","","","","","","","","","","",""
"","3223.5249999794178","sequential-stimulus-presentation","291","506398","0.0-53.0-1.6","SS1613138525449","trial","","40","800","4023.5249999794178","images/stimuli/spore_stims/complex_04_A_d.gif","images/stimuli/spore_stims/complex_07_B_a.gif","","","","","15","complex_dissimilar","images/stimuli/spore_stims/complex_04_A_d.gif","right","","","","",""
"","null","html-keyboard-response","292","507633","0.0-53.0-0.7","SS1613138525449","","","null","","","","","<p><img src= images/blank.png width =""200"" height = ""200"" style = ""float:right""></p><p><img src=images/blank.png width =""800"" height = ""200""></p>","","","","","","","","","","","",""
"","1043.8949999515899","sequential-stimulus-presentation","293","509489","0.0-53.0-1.7","SS1613138525449","trial","","40","800","1843.8949999515899","images/stimuli/spore_stims/complex_04_A_d.gif","images/stimuli/spore_stims/complex_07_B_a.gif","","","","","15","complex_dissimilar","images/stimuli/spore_stims/complex_07_B_a.gif","middle","","","","",""
"","3421.3099999469705","html-keyboard-response","294","512953","0.0-54.0","SS1613138525449","pref_question","","51","","","","","<video width ='960' height = '540' style='padding-top:8%' autoplay muted><source src='images/stimuli/wall_pref.mp4' type='video/mp4'></video>","3","right","66%","15","","","","","","","",""
"","42.42000001249835","sequential-stimulus-presentation","295","513810","0.0-55.0","SS1613138525449","pref_reveal","","40","800","842.4200000124983","null","null","","","","","15","","","","deviant","","","",""
"","null","html-keyboard-response","296","515067","0.0-56.0-0.0","SS1613138525449","","","null","","","","","<p><img src= images/blank.png width =""200"" height = ""200"" style = ""float:right""></p><p><img src=images/blank.png width =""800"" height = ""200""></p>","","","","","","","","","","","",""
"","191.74500001827255","sequential-stimulus-presentation","297","516070","0.0-56.0-1.0","SS1613138525449","trial","","40","800","991.7450000182725","images/stimuli/spore_stims/complex_15_A_d.gif","images/stimuli/spore_stims/complex_15_B_d.gif","","","","","16","complex_similar","images/stimuli/spore_stims/complex_15_B_d.gif","left","","","","",""
"","null","html-keyboard-response","298","517268","0.0-56.0-0.1","SS1613138525449","","","null","","","","","<p><img src= images/blank.png width =""200"" height = ""200"" style = ""float:right""></p><p><img src=images/blank.png width =""800"" height = ""200""></p>","","","","","","","","","","","",""
"","1723.35500002373","sequential-stimulus-presentation","299","519813","0.0-56.0-1.1","SS1613138525449","trial","","40","800","2523.35500002373","images/stimuli/spore_stims/complex_15_A_d.gif","images/stimuli/spore_stims/complex_15_B_d.gif","","","","","16","complex_similar","images/stimuli/spore_stims/complex_15_B_d.gif","left","","","","",""
"","null","html-keyboard-response","300","520722","0.0-56.0-0.2","SS1613138525449","","","null","","","","","<p><img src= images/blank.png width =""200"" height = ""200"" style = ""float:right""></p><p><img src=images/blank.png width =""800"" height = ""200""></p>","","","","","","","","","","","",""
"","377.5050000404008","sequential-stimulus-presentation","301","521910","0.0-56.0-1.2","SS1613138525449","trial","","40","800","1177.5050000404008","images/stimuli/spore_stims/complex_15_A_d.gif","images/stimuli/spore_stims/complex_15_B_d.gif","","","","","16","complex_similar","images/stimuli/spore_stims/complex_15_A_d.gif","middle","","","","",""
"","null","html-keyboard-response","302","522981","0.0-56.0-0.3","SS1613138525449","","","null","","","","","<p><img src= images/blank.png width =""200"" height = ""200"" style = ""float:right""></p><p><img src=images/blank.png width =""800"" height = ""200""></p>","","","","","","","","","","","",""
"","986.3450000411831","sequential-stimulus-presentation","303","524781","0.0-56.0-1.3","SS1613138525449","trial","","40","800","1786.345000041183","images/stimuli/spore_stims/complex_15_A_d.gif","images/stimuli/spore_stims/complex_15_B_d.gif","","","","","16","complex_similar","images/stimuli/spore_stims/complex_15_B_d.gif","left","","","","",""
"","null","html-keyboard-response","304","525644","0.0-56.0-0.4","SS1613138525449","","","null","","","","","<p><img src= images/blank.png width =""200"" height = ""200"" style = ""float:right""></p><p><img src=images/blank.png width =""800"" height = ""200""></p>","","","","","","","","","","","",""
"","104.07499998109415","sequential-stimulus-presentation","305","526559","0.0-56.0-1.4","SS1613138525449","trial","","40","800","904.0749999810942","images/stimuli/spore_stims/complex_15_A_d.gif","images/stimuli/spore_stims/complex_15_B_d.gif","","","","","16","complex_similar","images/stimuli/spore_stims/complex_15_B_d.gif","left","","","","",""
"","null","html-keyboard-response","306","527489","0.0-56.0-0.5","SS1613138525449","","","null","","","","","<p><img src= images/blank.png width =""200"" height = ""200"" style = ""float:right""></p><p><img src=images/blank.png width =""800"" height = ""200""></p>","","","","","","","","","","","",""
"","217.94999996200204","sequential-stimulus-presentation","307","528521","0.0-56.0-1.5","SS1613138525449","trial","","40","800","1017.949999962002","images/stimuli/spore_stims/complex_15_A_d.gif","images/stimuli/spore_stims/complex_15_B_d.gif","","","","","16","complex_similar","images/stimuli/spore_stims/complex_15_B_d.gif","left","","","","",""
"","null","html-keyboard-response","308","529752","0.0-56.0-0.6","SS1613138525449","","","null","","","","","<p><img src= images/blank.png width =""200"" height = ""200"" style = ""float:right""></p><p><img src=images/blank.png width =""800"" height = ""200""></p>","","","","","","","","","","","",""
"","74.91999998455867","sequential-stimulus-presentation","309","530639","0.0-56.0-1.6","SS1613138525449","trial","","40","800","874.9199999845587","images/stimuli/spore_stims/complex_15_A_d.gif","images/stimuli/spore_stims/complex_15_B_d.gif","","","","","16","complex_similar","images/stimuli/spore_stims/complex_15_B_d.gif","left","","","","",""
"","null","html-keyboard-response","310","531503","0.0-56.0-0.7","SS1613138525449","","","null","","","","","<p><img src= images/blank.png width =""200"" height = ""200"" style = ""float:right""></p><p><img src=images/blank.png width =""800"" height = ""200""></p>","","","","","","","","","","","",""
"","90.10500001022592","sequential-stimulus-presentation","311","532408","0.0-56.0-1.7","SS1613138525449","trial","","40","800","890.1050000102259","images/stimuli/spore_stims/complex_15_A_d.gif","images/stimuli/spore_stims/complex_15_B_d.gif","","","","","16","complex_similar","images/stimuli/spore_stims/complex_15_B_d.gif","left","","","","",""
"","3777.974999975413","html-keyboard-response","312","536198","0.0-57.0","SS1613138525449","pref_question","","50","","","","","<video width ='960' height = '540' style='padding-top:8%' autoplay muted><source src='images/stimuli/wall_pref.mp4' type='video/mp4'></video>","2","middle","45%","16","","","","","","","",""
