"view_history","rt","trial_type","trial_index","time_elapsed","internal_node_id","subject","stimulus_type","trial_stimulus","key_press","minimum_viewing_duration","trial_looking_time","block_deviant","block_background","stimulus","wall_pref","location","location_percent","block_number","block_type","stimulus_displayed","position_displayed","stim_type_selected","responses","question_order","stimulus_left","stimulus_right"
"[{""page_index"":0,""viewing_time"":224247.62999999803}]","224250.15000000712","instructions","0","224269","0.0-0.0","SS1613174895657","","","","","","","","","","","","","","","","","","","",""
"[{""page_index"":0,""viewing_time"":1548.2950000005076},{""page_index"":1,""viewing_time"":4374.079999994137}]","5922.939999989467","instructions","1","232198","0.0-1.0","SS1613174895657","instructions","","","","","","","","","","","","","","","","","","",""
"","8626.279999996768","sequential-stimulus-presentation","2","241635","0.0-2.0","SS1613174895657","","","40","800","9426.279999996768","null","null","","","","","","","","","","","","",""
"","1371.2349999987055","sequential-stimulus-presentation","3","243816","0.0-3.0","SS1613174895657","","","40","800","2171.2349999987055","null","null","","","","","","","","","","","","",""
"[{""page_index"":0,""viewing_time"":2881.410000001779}]","2882.1750000061","instructions","4","246701","0.0-4.0","SS1613174895657","instructions","","","","","","","","","","","","","","","","","","",""
"","8027.220000003581","html-keyboard-response","5","254737","0.0-5.0","SS1613174895657","instructions","","98","","","","","<video width ='960' height = '540' autoplay muted><source src='images/stimuli/wall_pref.mp4' type='video/mp4'></video>","2","middle","45%","","","","","","","","",""
"","3671.6400000004796","sequential-stimulus-presentation","6","259222","0.0-6.0","SS1613174895657","pref_reveal","","40","800","4471.64000000048","null","null","","","","","","","","","","","","",""
"[{""page_index"":0,""viewing_time"":1783.4299999958603},{""page_index"":1,""viewing_time"":1351.1150000122143},{""page_index"":2,""viewing_time"":1120.1449999934994},{""page_index"":3,""viewing_time"":1064.16999999783}]","5319.57500000135","instructions","7","264545","0.0-7.0","SS1613174895657","instructions","","","","","","","","","","","","","","","","","","",""
"","null","html-keyboard-response","8","265651","0.0-8.0-0.0","SS1613174895657","","","null","","","","","<p><img src= images/blank.png width =""200"" height = ""200"" style = ""float:right""></p><p><img src=images/blank.png width =""800"" height = ""200""></p>","","","","","","","","","","","",""
"","2353.740000005928","sequential-stimulus-presentation","9","268812","0.0-8.0-1.0","SS1613174895657","trial","","40","800","3153.740000005928","images/stimuli/spore_stims/simple_12_A_b.gif","images/stimuli/spore_stims/simple_12_B_b.gif","","","","","0","simple_similar","images/stimuli/spore_stims/simple_12_B_b.gif","left","","","","",""
"","null","html-keyboard-response","10","269653","0.0-8.0-0.1","SS1613174895657","","","null","","","","","<p><img src= images/blank.png width =""200"" height = ""200"" style = ""float:right""></p><p><img src=images/blank.png width =""800"" height = ""200""></p>","","","","","","","","","","","",""
"","747.1549999900162","sequential-stimulus-presentation","11","271211","0.0-8.0-1.1","SS1613174895657","trial","","40","800","1547.1549999900162","images/stimuli/spore_stims/simple_12_A_b.gif","images/stimuli/spore_stims/simple_12_B_b.gif","","","","","0","simple_similar","images/stimuli/spore_stims/simple_12_B_b.gif","left","","","","",""
"","null","html-keyboard-response","12","272372","0.0-8.0-0.2","SS1613174895657","","","null","","","","","<p><img src= images/blank.png width =""200"" height = ""200"" style = ""float:right""></p><p><img src=images/blank.png width =""800"" height = ""200""></p>","","","","","","","","","","","",""
"","123.95000000833534","sequential-stimulus-presentation","13","273308","0.0-8.0-1.2","SS1613174895657","trial","","40","800","923.9500000083353","images/stimuli/spore_stims/simple_12_A_b.gif","images/stimuli/spore_stims/simple_12_B_b.gif","","","","","0","simple_similar","images/stimuli/spore_stims/simple_12_B_b.gif","left","","","","",""
"","null","html-keyboard-response","14","274541","0.0-8.0-0.3","SS1613174895657","","","null","","","","","<p><img src= images/blank.png width =""200"" height = ""200"" style = ""float:right""></p><p><img src=images/blank.png width =""800"" height = ""200""></p>","","","","","","","","","","","",""
"","67.19499999599066","sequential-stimulus-presentation","15","275418","0.0-8.0-1.3","SS1613174895657","trial","","40","800","867.1949999959907","images/stimuli/spore_stims/simple_12_A_b.gif","images/stimuli/spore_stims/simple_12_B_b.gif","","","","","0","simple_similar","images/stimuli/spore_stims/simple_12_B_b.gif","left","","","","",""
"","null","html-keyboard-response","16","276435","0.0-8.0-0.4","SS1613174895657","","","null","","","","","<p><img src= images/blank.png width =""200"" height = ""200"" style = ""float:right""></p><p><img src=images/blank.png width =""800"" height = ""200""></p>","","","","","","","","","","","",""
"","976.345000002766","sequential-stimulus-presentation","17","278218","0.0-8.0-1.4","SS1613174895657","trial","","40","800","1776.345000002766","images/stimuli/spore_stims/simple_12_A_b.gif","images/stimuli/spore_stims/simple_12_B_b.gif","","","","","0","simple_similar","images/stimuli/spore_stims/simple_12_B_b.gif","left","","","","",""
"","null","html-keyboard-response","18","279301","0.0-8.0-0.5","SS1613174895657","","","null","","","","","<p><img src= images/blank.png width =""200"" height = ""200"" style = ""float:right""></p><p><img src=images/blank.png width =""800"" height = ""200""></p>","","","","","","","","","","","",""
"","457.81500000157394","sequential-stimulus-presentation","19","280571","0.0-8.0-1.5","SS1613174895657","trial","","40","800","1257.815000001574","images/stimuli/spore_stims/simple_12_A_b.gif","images/stimuli/spore_stims/simple_12_B_b.gif","","","","","0","simple_similar","images/stimuli/spore_stims/simple_12_B_b.gif","left","","","","",""
"","null","html-keyboard-response","20","281653","0.0-8.0-0.6","SS1613174895657","","","null","","","","","<p><img src= images/blank.png width =""200"" height = ""200"" style = ""float:right""></p><p><img src=images/blank.png width =""800"" height = ""200""></p>","","","","","","","","","","","",""
"","48.490000001038425","sequential-stimulus-presentation","21","282546","0.0-8.0-1.6","SS1613174895657","trial","","40","800","848.4900000010384","images/stimuli/spore_stims/simple_12_A_b.gif","images/stimuli/spore_stims/simple_12_B_b.gif","","","","","0","simple_similar","images/stimuli/spore_stims/simple_12_B_b.gif","left","","","","",""
"","null","html-keyboard-response","22","283773","0.0-8.0-0.7","SS1613174895657","","","null","","","","","<p><img src= images/blank.png width =""200"" height = ""200"" style = ""float:right""></p><p><img src=images/blank.png width =""800"" height = ""200""></p>","","","","","","","","","","","",""
"","2619.799999985844","sequential-stimulus-presentation","23","287205","0.0-8.0-1.7","SS1613174895657","trial","","40","800","3419.799999985844","images/stimuli/spore_stims/simple_12_A_b.gif","images/stimuli/spore_stims/simple_12_B_b.gif","","","","","0","simple_similar","images/stimuli/spore_stims/simple_12_A_b.gif","right","","","","",""
"","1285.7349999976577","html-keyboard-response","24","288499","0.0-9.0","SS1613174895657","pref_question","","99","","","","","<video width ='960' height = '540' style='padding-top:8%' autoplay muted><source src='images/stimuli/wall_pref.mp4' type='video/mp4'></video>","3","right","66%","0","","","","","","","",""
"","1032.485000003362","sequential-stimulus-presentation","25","290340","0.0-10.0","SS1613174895657","pref_reveal","","40","800","1832.485000003362","null","null","","","","","0","","","","deviant","","","",""
"","null","html-keyboard-response","26","291228","0.0-11.0-0.0","SS1613174895657","","","null","","","","","<p><img src= images/blank.png width =""200"" height = ""200"" style = ""float:right""></p><p><img src=images/blank.png width =""800"" height = ""200""></p>","","","","","","","","","","","",""
"","1847.2949999995762","sequential-stimulus-presentation","27","293883","0.0-11.0-1.0","SS1613174895657","trial","","40","800","2647.2949999995762","images/stimuli/spore_stims/complex_04_B_b.gif","images/stimuli/spore_stims/complex_04_A_b.gif","","","","","1","complex_similar","images/stimuli/spore_stims/complex_04_A_b.gif","middle","","","","",""
"","null","html-keyboard-response","28","294800","0.0-11.0-0.1","SS1613174895657","","","null","","","","","<p><img src= images/blank.png width =""200"" height = ""200"" style = ""float:right""></p><p><img src=images/blank.png width =""800"" height = ""200""></p>","","","","","","","","","","","",""
"","1026.8250000081025","sequential-stimulus-presentation","29","296633","0.0-11.0-1.1","SS1613174895657","trial","","40","800","1826.8250000081025","images/stimuli/spore_stims/complex_04_B_b.gif","images/stimuli/spore_stims/complex_04_A_b.gif","","","","","1","complex_similar","images/stimuli/spore_stims/complex_04_A_b.gif","middle","","","","",""
"","null","html-keyboard-response","30","297611","0.0-11.0-0.2","SS1613174895657","","","null","","","","","<p><img src= images/blank.png width =""200"" height = ""200"" style = ""float:right""></p><p><img src=images/blank.png width =""800"" height = ""200""></p>","","","","","","","","","","","",""
"","748.5250000027008","sequential-stimulus-presentation","31","299171","0.0-11.0-1.2","SS1613174895657","trial","","40","800","1548.5250000027008","images/stimuli/spore_stims/complex_04_B_b.gif","images/stimuli/spore_stims/complex_04_A_b.gif","","","","","1","complex_similar","images/stimuli/spore_stims/complex_04_A_b.gif","middle","","","","",""
"","null","html-keyboard-response","32","300323","0.0-11.0-0.3","SS1613174895657","","","null","","","","","<p><img src= images/blank.png width =""200"" height = ""200"" style = ""float:right""></p><p><img src=images/blank.png width =""800"" height = ""200""></p>","","","","","","","","","","","",""
"","531.2299999932293","sequential-stimulus-presentation","33","301665","0.0-11.0-1.3","SS1613174895657","trial","","40","800","1331.2299999932293","images/stimuli/spore_stims/complex_04_B_b.gif","images/stimuli/spore_stims/complex_04_A_b.gif","","","","","1","complex_similar","images/stimuli/spore_stims/complex_04_A_b.gif","middle","","","","",""
"","null","html-keyboard-response","34","302568","0.0-11.0-0.4","SS1613174895657","","","null","","","","","<p><img src= images/blank.png width =""200"" height = ""200"" style = ""float:right""></p><p><img src=images/blank.png width =""800"" height = ""200""></p>","","","","","","","","","","","",""
"","461.48499999253545","sequential-stimulus-presentation","35","303842","0.0-11.0-1.4","SS1613174895657","trial","","40","800","1261.4849999925354","images/stimuli/spore_stims/complex_04_B_b.gif","images/stimuli/spore_stims/complex_04_A_b.gif","","","","","1","complex_similar","images/stimuli/spore_stims/complex_04_A_b.gif","middle","","","","",""
"","null","html-keyboard-response","36","305145","0.0-11.0-0.5","SS1613174895657","","","null","","","","","<p><img src= images/blank.png width =""200"" height = ""200"" style = ""float:right""></p><p><img src=images/blank.png width =""800"" height = ""200""></p>","","","","","","","","","","","",""
"","178.50500000349712","sequential-stimulus-presentation","37","306136","0.0-11.0-1.5","SS1613174895657","trial","","40","800","978.5050000034971","images/stimuli/spore_stims/complex_04_B_b.gif","images/stimuli/spore_stims/complex_04_A_b.gif","","","","","1","complex_similar","images/stimuli/spore_stims/complex_04_A_b.gif","middle","","","","",""
"","null","html-keyboard-response","38","307319","0.0-11.0-0.6","SS1613174895657","","","null","","","","","<p><img src= images/blank.png width =""200"" height = ""200"" style = ""float:right""></p><p><img src=images/blank.png width =""800"" height = ""200""></p>","","","","","","","","","","","",""
"","69.0900000045076","sequential-stimulus-presentation","39","308200","0.0-11.0-1.6","SS1613174895657","trial","","40","800","869.0900000045076","images/stimuli/spore_stims/complex_04_B_b.gif","images/stimuli/spore_stims/complex_04_A_b.gif","","","","","1","complex_similar","images/stimuli/spore_stims/complex_04_B_b.gif","left","","","","",""
"","null","html-keyboard-response","40","309117","0.0-11.0-0.7","SS1613174895657","","","null","","","","","<p><img src= images/blank.png width =""200"" height = ""200"" style = ""float:right""></p><p><img src=images/blank.png width =""800"" height = ""200""></p>","","","","","","","","","","","",""
"","247.98999998893123","sequential-stimulus-presentation","41","310204","0.0-11.0-1.7","SS1613174895657","trial","","40","800","1047.9899999889312","images/stimuli/spore_stims/complex_04_B_b.gif","images/stimuli/spore_stims/complex_04_A_b.gif","","","","","1","complex_similar","images/stimuli/spore_stims/complex_04_A_b.gif","middle","","","","",""
"","1971.9849999964936","html-keyboard-response","42","312184","0.0-12.0","SS1613174895657","pref_question","","98","","","","","<video width ='960' height = '540' style='padding-top:8%' autoplay muted><source src='images/stimuli/wall_pref.mp4' type='video/mp4'></video>","2","middle","45%","1","","","","","","","",""
"","1650.034999998752","sequential-stimulus-presentation","43","314647","0.0-13.0","SS1613174895657","pref_reveal","","40","800","2450.034999998752","null","null","","","","","1","","","","background","","","",""
"","null","html-keyboard-response","44","315586","0.0-14.0-0.0","SS1613174895657","","","null","","","","","<p><img src= images/blank.png width =""200"" height = ""200"" style = ""float:right""></p><p><img src=images/blank.png width =""800"" height = ""200""></p>","","","","","","","","","","","",""
"","1157.9499999934342","sequential-stimulus-presentation","45","317558","0.0-14.0-1.0","SS1613174895657","trial","","40","800","1957.9499999934342","images/stimuli/spore_stims/complex_18_A_d.gif","images/stimuli/spore_stims/complex_18_B_d.gif","","","","","2","complex_similar","images/stimuli/spore_stims/complex_18_B_d.gif","middle","","","","",""
"","null","html-keyboard-response","46","318602","0.0-14.0-0.1","SS1613174895657","","","null","","","","","<p><img src= images/blank.png width =""200"" height = ""200"" style = ""float:right""></p><p><img src=images/blank.png width =""800"" height = ""200""></p>","","","","","","","","","","","",""
"","286.7149999947287","sequential-stimulus-presentation","47","319701","0.0-14.0-1.1","SS1613174895657","trial","","40","800","1086.7149999947287","images/stimuli/spore_stims/complex_18_A_d.gif","images/stimuli/spore_stims/complex_18_B_d.gif","","","","","2","complex_similar","images/stimuli/spore_stims/complex_18_B_d.gif","middle","","","","",""
"","null","html-keyboard-response","48","320829","0.0-14.0-0.2","SS1613174895657","","","null","","","","","<p><img src= images/blank.png width =""200"" height = ""200"" style = ""float:right""></p><p><img src=images/blank.png width =""800"" height = ""200""></p>","","","","","","","","","","","",""
"","792.0949999970617","sequential-stimulus-presentation","49","322430","0.0-14.0-1.2","SS1613174895657","trial","","40","800","1592.0949999970617","images/stimuli/spore_stims/complex_18_A_d.gif","images/stimuli/spore_stims/complex_18_B_d.gif","","","","","2","complex_similar","images/stimuli/spore_stims/complex_18_B_d.gif","middle","","","","",""
"","null","html-keyboard-response","50","323337","0.0-14.0-0.3","SS1613174895657","","","null","","","","","<p><img src= images/blank.png width =""200"" height = ""200"" style = ""float:right""></p><p><img src=images/blank.png width =""800"" height = ""200""></p>","","","","","","","","","","","",""
"","655.7099999918137","sequential-stimulus-presentation","51","324805","0.0-14.0-1.3","SS1613174895657","trial","","40","800","1455.7099999918137","images/stimuli/spore_stims/complex_18_A_d.gif","images/stimuli/spore_stims/complex_18_B_d.gif","","","","","2","complex_similar","images/stimuli/spore_stims/complex_18_B_d.gif","middle","","","","",""
"","null","html-keyboard-response","52","326038","0.0-14.0-0.4","SS1613174895657","","","null","","","","","<p><img src= images/blank.png width =""200"" height = ""200"" style = ""float:right""></p><p><img src=images/blank.png width =""800"" height = ""200""></p>","","","","","","","","","","","",""
"","89.510000005248","sequential-stimulus-presentation","53","326940","0.0-14.0-1.4","SS1613174895657","trial","","40","800","889.510000005248","images/stimuli/spore_stims/complex_18_A_d.gif","images/stimuli/spore_stims/complex_18_B_d.gif","","","","","2","complex_similar","images/stimuli/spore_stims/complex_18_B_d.gif","middle","","","","",""
"","null","html-keyboard-response","54","327980","0.0-14.0-0.5","SS1613174895657","","","null","","","","","<p><img src= images/blank.png width =""200"" height = ""200"" style = ""float:right""></p><p><img src=images/blank.png width =""800"" height = ""200""></p>","","","","","","","","","","","",""
"","1201.7099999939092","sequential-stimulus-presentation","55","330027","0.0-14.0-1.5","SS1613174895657","trial","","40","800","2001.7099999939092","images/stimuli/spore_stims/complex_18_A_d.gif","images/stimuli/spore_stims/complex_18_B_d.gif","","","","","2","complex_similar","images/stimuli/spore_stims/complex_18_B_d.gif","middle","","","","",""
"","null","html-keyboard-response","56","330936","0.0-14.0-0.6","SS1613174895657","","","null","","","","","<p><img src= images/blank.png width =""200"" height = ""200"" style = ""float:right""></p><p><img src=images/blank.png width =""800"" height = ""200""></p>","","","","","","","","","","","",""
"","296.40500000095926","sequential-stimulus-presentation","57","332043","0.0-14.0-1.6","SS1613174895657","trial","","40","800","1096.4050000009593","images/stimuli/spore_stims/complex_18_A_d.gif","images/stimuli/spore_stims/complex_18_B_d.gif","","","","","2","complex_similar","images/stimuli/spore_stims/complex_18_A_d.gif","right","","","","",""
"","null","html-keyboard-response","58","333102","0.0-14.0-0.7","SS1613174895657","","","null","","","","","<p><img src= images/blank.png width =""200"" height = ""200"" style = ""float:right""></p><p><img src=images/blank.png width =""800"" height = ""200""></p>","","","","","","","","","","","",""
"","2292.874999999185","sequential-stimulus-presentation","59","336204","0.0-14.0-1.7","SS1613174895657","trial","","40","800","3092.874999999185","images/stimuli/spore_stims/complex_18_A_d.gif","images/stimuli/spore_stims/complex_18_B_d.gif","","","","","2","complex_similar","images/stimuli/spore_stims/complex_18_B_d.gif","middle","","","","",""
"","3990.139999994426","html-keyboard-response","60","340202","0.0-15.0","SS1613174895657","pref_question","","97","","","","","<video width ='960' height = '540' style='padding-top:8%' autoplay muted><source src='images/stimuli/wall_pref.mp4' type='video/mp4'></video>","1","left","25%","2","","","","","","","",""
"","1031.8149999948218","sequential-stimulus-presentation","61","342042","0.0-16.0","SS1613174895657","pref_reveal","","40","800","1831.8149999948218","null","null","","","","","2","","","","novel","","","",""
"","null","html-keyboard-response","62","343066","0.0-17.0-0.0","SS1613174895657","","","null","","","","","<p><img src= images/blank.png width =""200"" height = ""200"" style = ""float:right""></p><p><img src=images/blank.png width =""800"" height = ""200""></p>","","","","","","","","","","","",""
"","285.2899999998044","sequential-stimulus-presentation","63","344165","0.0-17.0-1.0","SS1613174895657","trial","","40","800","1085.2899999998044","images/stimuli/spore_stims/simple_06_A_c.gif","images/stimuli/spore_stims/simple_10_A_a.gif","","","","","3","simple_dissimilar","images/stimuli/spore_stims/simple_10_A_a.gif","middle","","","","",""
"","null","html-keyboard-response","64","345170","0.0-17.0-0.1","SS1613174895657","","","null","","","","","<p><img src= images/blank.png width =""200"" height = ""200"" style = ""float:right""></p><p><img src=images/blank.png width =""800"" height = ""200""></p>","","","","","","","","","","","",""
"","836.8950000003679","sequential-stimulus-presentation","65","346851","0.0-17.0-1.1","SS1613174895657","trial","","40","800","1636.8950000003679","images/stimuli/spore_stims/simple_06_A_c.gif","images/stimuli/spore_stims/simple_10_A_a.gif","","","","","3","simple_dissimilar","images/stimuli/spore_stims/simple_10_A_a.gif","middle","","","","",""
"","null","html-keyboard-response","66","347677","0.0-17.0-0.2","SS1613174895657","","","null","","","","","<p><img src= images/blank.png width =""200"" height = ""200"" style = ""float:right""></p><p><img src=images/blank.png width =""800"" height = ""200""></p>","","","","","","","","","","","",""
"","72.44999999238644","sequential-stimulus-presentation","67","348556","0.0-17.0-1.2","SS1613174895657","trial","","40","800","872.4499999923864","images/stimuli/spore_stims/simple_06_A_c.gif","images/stimuli/spore_stims/simple_10_A_a.gif","","","","","3","simple_dissimilar","images/stimuli/spore_stims/simple_10_A_a.gif","middle","","","","",""
"","null","html-keyboard-response","68","349405","0.0-17.0-0.3","SS1613174895657","","","null","","","","","<p><img src= images/blank.png width =""200"" height = ""200"" style = ""float:right""></p><p><img src=images/blank.png width =""800"" height = ""200""></p>","","","","","","","","","","","",""
"","1323.11500000651","sequential-stimulus-presentation","69","351539","0.0-17.0-1.3","SS1613174895657","trial","","40","800","2123.11500000651","images/stimuli/spore_stims/simple_06_A_c.gif","images/stimuli/spore_stims/simple_10_A_a.gif","","","","","3","simple_dissimilar","images/stimuli/spore_stims/simple_10_A_a.gif","middle","","","","",""
"","null","html-keyboard-response","70","352526","0.0-17.0-0.4","SS1613174895657","","","null","","","","","<p><img src= images/blank.png width =""200"" height = ""200"" style = ""float:right""></p><p><img src=images/blank.png width =""800"" height = ""200""></p>","","","","","","","","","","","",""
"","7094.654999993509","sequential-stimulus-presentation","71","360433","0.0-17.0-1.4","SS1613174895657","trial","","40","800","7894.654999993509","images/stimuli/spore_stims/simple_06_A_c.gif","images/stimuli/spore_stims/simple_10_A_a.gif","","","","","3","simple_dissimilar","images/stimuli/spore_stims/simple_06_A_c.gif","left","","","","",""
"","null","html-keyboard-response","72","361548","0.0-17.0-0.5","SS1613174895657","","","null","","","","","<p><img src= images/blank.png width =""200"" height = ""200"" style = ""float:right""></p><p><img src=images/blank.png width =""800"" height = ""200""></p>","","","","","","","","","","","",""
"","1163.9500000019325","sequential-stimulus-presentation","73","363521","0.0-17.0-1.5","SS1613174895657","trial","","40","800","1963.9500000019325","images/stimuli/spore_stims/simple_06_A_c.gif","images/stimuli/spore_stims/simple_10_A_a.gif","","","","","3","simple_dissimilar","images/stimuli/spore_stims/simple_10_A_a.gif","middle","","","","",""
"","null","html-keyboard-response","74","364355","0.0-17.0-0.6","SS1613174895657","","","null","","","","","<p><img src= images/blank.png width =""200"" height = ""200"" style = ""float:right""></p><p><img src=images/blank.png width =""800"" height = ""200""></p>","","","","","","","","","","","",""
"","1503.290000007837","sequential-stimulus-presentation","75","366672","0.0-17.0-1.6","SS1613174895657","trial","","40","800","2303.290000007837","images/stimuli/spore_stims/simple_06_A_c.gif","images/stimuli/spore_stims/simple_10_A_a.gif","","","","","3","simple_dissimilar","images/stimuli/spore_stims/simple_10_A_a.gif","middle","","","","",""
"","null","html-keyboard-response","76","367798","0.0-17.0-0.7","SS1613174895657","","","null","","","","","<p><img src= images/blank.png width =""200"" height = ""200"" style = ""float:right""></p><p><img src=images/blank.png width =""800"" height = ""200""></p>","","","","","","","","","","","",""
"","226.8000000040047","sequential-stimulus-presentation","77","368839","0.0-17.0-1.7","SS1613174895657","trial","","40","800","1026.8000000040047","images/stimuli/spore_stims/simple_06_A_c.gif","images/stimuli/spore_stims/simple_10_A_a.gif","","","","","3","simple_dissimilar","images/stimuli/spore_stims/simple_10_A_a.gif","middle","","","","",""
"","1801.4549999934388","html-keyboard-response","78","370664","0.0-18.0","SS1613174895657","pref_question","","98","","","","","<video width ='960' height = '540' style='padding-top:8%' autoplay muted><source src='images/stimuli/wall_pref.mp4' type='video/mp4'></video>","2","middle","45%","3","","","","","","","",""
"","2927.9249999963213","sequential-stimulus-presentation","79","374407","0.0-19.0","SS1613174895657","pref_reveal","","40","800","3727.9249999963213","null","null","","","","","3","","","","background","","","",""
"","null","html-keyboard-response","80","375338","0.0-20.0-0.0","SS1613174895657","","","null","","","","","<p><img src= images/blank.png width =""200"" height = ""200"" style = ""float:right""></p><p><img src=images/blank.png width =""800"" height = ""200""></p>","","","","","","","","","","","",""
"","5024.36999999918","sequential-stimulus-presentation","81","381174","0.0-20.0-1.0","SS1613174895657","trial","","40","800","5824.36999999918","images/stimuli/spore_stims/simple_07_A_b.gif","images/stimuli/spore_stims/simple_07_B_b.gif","","","","","4","simple_similar","images/stimuli/spore_stims/simple_07_B_b.gif","left","","","","",""
"","null","html-keyboard-response","82","382278","0.0-20.0-0.1","SS1613174895657","","","null","","","","","<p><img src= images/blank.png width =""200"" height = ""200"" style = ""float:right""></p><p><img src=images/blank.png width =""800"" height = ""200""></p>","","","","","","","","","","","",""
"","961.0000000102445","sequential-stimulus-presentation","83","384053","0.0-20.0-1.1","SS1613174895657","trial","","40","800","1761.0000000102445","images/stimuli/spore_stims/simple_07_A_b.gif","images/stimuli/spore_stims/simple_07_B_b.gif","","","","","4","simple_similar","images/stimuli/spore_stims/simple_07_B_b.gif","left","","","","",""
"","null","html-keyboard-response","84","385167","0.0-20.0-0.2","SS1613174895657","","","null","","","","","<p><img src= images/blank.png width =""200"" height = ""200"" style = ""float:right""></p><p><img src=images/blank.png width =""800"" height = ""200""></p>","","","","","","","","","","","",""
"","2011.8250000086846","sequential-stimulus-presentation","85","387988","0.0-20.0-1.2","SS1613174895657","trial","","40","800","2811.8250000086846","images/stimuli/spore_stims/simple_07_A_b.gif","images/stimuli/spore_stims/simple_07_B_b.gif","","","","","4","simple_similar","images/stimuli/spore_stims/simple_07_B_b.gif","left","","","","",""
"","null","html-keyboard-response","86","389003","0.0-20.0-0.3","SS1613174895657","","","null","","","","","<p><img src= images/blank.png width =""200"" height = ""200"" style = ""float:right""></p><p><img src=images/blank.png width =""800"" height = ""200""></p>","","","","","","","","","","","",""
"","783.8149999879533","sequential-stimulus-presentation","87","390604","0.0-20.0-1.3","SS1613174895657","trial","","40","800","1583.8149999879533","images/stimuli/spore_stims/simple_07_A_b.gif","images/stimuli/spore_stims/simple_07_B_b.gif","","","","","4","simple_similar","images/stimuli/spore_stims/simple_07_A_b.gif","right","","","","",""
"","null","html-keyboard-response","88","391512","0.0-20.0-0.4","SS1613174895657","","","null","","","","","<p><img src= images/blank.png width =""200"" height = ""200"" style = ""float:right""></p><p><img src=images/blank.png width =""800"" height = ""200""></p>","","","","","","","","","","","",""
"","781.0949999984587","sequential-stimulus-presentation","89","393108","0.0-20.0-1.4","SS1613174895657","trial","","40","800","1581.0949999984587","images/stimuli/spore_stims/simple_07_A_b.gif","images/stimuli/spore_stims/simple_07_B_b.gif","","","","","4","simple_similar","images/stimuli/spore_stims/simple_07_B_b.gif","left","","","","",""
"","null","html-keyboard-response","90","394145","0.0-20.0-0.5","SS1613174895657","","","null","","","","","<p><img src= images/blank.png width =""200"" height = ""200"" style = ""float:right""></p><p><img src=images/blank.png width =""800"" height = ""200""></p>","","","","","","","","","","","",""
"","463.9400000014575","sequential-stimulus-presentation","91","395419","0.0-20.0-1.5","SS1613174895657","trial","","40","800","1263.9400000014575","images/stimuli/spore_stims/simple_07_A_b.gif","images/stimuli/spore_stims/simple_07_B_b.gif","","","","","4","simple_similar","images/stimuli/spore_stims/simple_07_B_b.gif","left","","","","",""
"","null","html-keyboard-response","92","396580","0.0-20.0-0.6","SS1613174895657","","","null","","","","","<p><img src= images/blank.png width =""200"" height = ""200"" style = ""float:right""></p><p><img src=images/blank.png width =""800"" height = ""200""></p>","","","","","","","","","","","",""
"","639.2000000050757","sequential-stimulus-presentation","93","398034","0.0-20.0-1.6","SS1613174895657","trial","","40","800","1439.2000000050757","images/stimuli/spore_stims/simple_07_A_b.gif","images/stimuli/spore_stims/simple_07_B_b.gif","","","","","4","simple_similar","images/stimuli/spore_stims/simple_07_B_b.gif","left","","","","",""
"","null","html-keyboard-response","94","398959","0.0-20.0-0.7","SS1613174895657","","","null","","","","","<p><img src= images/blank.png width =""200"" height = ""200"" style = ""float:right""></p><p><img src=images/blank.png width =""800"" height = ""200""></p>","","","","","","","","","","","",""
"","879.7099999937927","sequential-stimulus-presentation","95","400650","0.0-20.0-1.7","SS1613174895657","trial","","40","800","1679.7099999937927","images/stimuli/spore_stims/simple_07_A_b.gif","images/stimuli/spore_stims/simple_07_B_b.gif","","","","","4","simple_similar","images/stimuli/spore_stims/simple_07_B_b.gif","left","","","","",""
"","1882.4949999980163","html-keyboard-response","96","402545","0.0-21.0","SS1613174895657","pref_question","","98","","","","","<video width ='960' height = '540' style='padding-top:8%' autoplay muted><source src='images/stimuli/wall_pref.mp4' type='video/mp4'></video>","2","middle","45%","4","","","","","","","",""
"","1487.2199999954319","sequential-stimulus-presentation","97","404844","0.0-22.0","SS1613174895657","pref_reveal","","40","800","2287.219999995432","null","null","","","","","4","","","","novel","","","",""
"","null","html-keyboard-response","98","405861","0.0-23.0-0.0","SS1613174895657","","","null","","","","","<p><img src= images/blank.png width =""200"" height = ""200"" style = ""float:right""></p><p><img src=images/blank.png width =""800"" height = ""200""></p>","","","","","","","","","","","",""
"","243.10999999579508","sequential-stimulus-presentation","99","406923","0.0-23.0-1.0","SS1613174895657","trial","","40","800","1043.109999995795","images/stimuli/spore_stims/complex_07_B_b.gif","images/stimuli/spore_stims/complex_01_A_d.gif","","","","","5","complex_dissimilar","images/stimuli/spore_stims/complex_01_A_d.gif","middle","","","","",""
"","null","html-keyboard-response","100","407778","0.0-23.0-0.1","SS1613174895657","","","null","","","","","<p><img src= images/blank.png width =""200"" height = ""200"" style = ""float:right""></p><p><img src=images/blank.png width =""800"" height = ""200""></p>","","","","","","","","","","","",""
"","5906.325000003562","sequential-stimulus-presentation","101","414499","0.0-23.0-1.1","SS1613174895657","trial","","40","800","6706.325000003562","images/stimuli/spore_stims/complex_07_B_b.gif","images/stimuli/spore_stims/complex_01_A_d.gif","","","","","5","complex_dissimilar","images/stimuli/spore_stims/complex_01_A_d.gif","middle","","","","",""
"","null","html-keyboard-response","102","415617","0.0-23.0-0.2","SS1613174895657","","","null","","","","","<p><img src= images/blank.png width =""200"" height = ""200"" style = ""float:right""></p><p><img src=images/blank.png width =""800"" height = ""200""></p>","","","","","","","","","","","",""
"","20.044999997480772","sequential-stimulus-presentation","103","416454","0.0-23.0-1.2","SS1613174895657","trial","","40","800","820.0449999974808","images/stimuli/spore_stims/complex_07_B_b.gif","images/stimuli/spore_stims/complex_01_A_d.gif","","","","","5","complex_dissimilar","images/stimuli/spore_stims/complex_01_A_d.gif","middle","","","","",""
"","null","html-keyboard-response","104","417298","0.0-23.0-0.3","SS1613174895657","","","null","","","","","<p><img src= images/blank.png width =""200"" height = ""200"" style = ""float:right""></p><p><img src=images/blank.png width =""800"" height = ""200""></p>","","","","","","","","","","","",""
"","2430.9050000010757","sequential-stimulus-presentation","105","420538","0.0-23.0-1.3","SS1613174895657","trial","","40","800","3230.9050000010757","images/stimuli/spore_stims/complex_07_B_b.gif","images/stimuli/spore_stims/complex_01_A_d.gif","","","","","5","complex_dissimilar","images/stimuli/spore_stims/complex_07_B_b.gif","left","","","","",""
"","null","html-keyboard-response","106","421505","0.0-23.0-0.4","SS1613174895657","","","null","","","","","<p><img src= images/blank.png width =""200"" height = ""200"" style = ""float:right""></p><p><img src=images/blank.png width =""800"" height = ""200""></p>","","","","","","","","","","","",""
"","1358.9700000011362","sequential-stimulus-presentation","107","423681","0.0-23.0-1.4","SS1613174895657","trial","","40","800","2158.970000001136","images/stimuli/spore_stims/complex_07_B_b.gif","images/stimuli/spore_stims/complex_01_A_d.gif","","","","","5","complex_dissimilar","images/stimuli/spore_stims/complex_01_A_d.gif","middle","","","","",""
"","null","html-keyboard-response","108","424678","0.0-23.0-0.5","SS1613174895657","","","null","","","","","<p><img src= images/blank.png width =""200"" height = ""200"" style = ""float:right""></p><p><img src=images/blank.png width =""800"" height = ""200""></p>","","","","","","","","","","","",""
"","885.4500000015832","sequential-stimulus-presentation","109","426383","0.0-23.0-1.5","SS1613174895657","trial","","40","800","1685.4500000015832","images/stimuli/spore_stims/complex_07_B_b.gif","images/stimuli/spore_stims/complex_01_A_d.gif","","","","","5","complex_dissimilar","images/stimuli/spore_stims/complex_01_A_d.gif","middle","","","","",""
"","null","html-keyboard-response","110","427502","0.0-23.0-0.6","SS1613174895657","","","null","","","","","<p><img src= images/blank.png width =""200"" height = ""200"" style = ""float:right""></p><p><img src=images/blank.png width =""800"" height = ""200""></p>","","","","","","","","","","","",""
"","745.5650000047171","sequential-stimulus-presentation","111","429064","0.0-23.0-1.6","SS1613174895657","trial","","40","800","1545.5650000047171","images/stimuli/spore_stims/complex_07_B_b.gif","images/stimuli/spore_stims/complex_01_A_d.gif","","","","","5","complex_dissimilar","images/stimuli/spore_stims/complex_01_A_d.gif","middle","","","","",""
"","null","html-keyboard-response","112","430159","0.0-23.0-0.7","SS1613174895657","","","null","","","","","<p><img src= images/blank.png width =""200"" height = ""200"" style = ""float:right""></p><p><img src=images/blank.png width =""800"" height = ""200""></p>","","","","","","","","","","","",""
"","2236.700000008568","sequential-stimulus-presentation","113","433207","0.0-23.0-1.7","SS1613174895657","trial","","40","800","3036.700000008568","images/stimuli/spore_stims/complex_07_B_b.gif","images/stimuli/spore_stims/complex_01_A_d.gif","","","","","5","complex_dissimilar","images/stimuli/spore_stims/complex_01_A_d.gif","middle","","","","",""
"","9321.70000000042","html-keyboard-response","114","442565","0.0-24.0","SS1613174895657","pref_question","","97","","","","","<video width ='960' height = '540' style='padding-top:8%' autoplay muted><source src='images/stimuli/wall_pref.mp4' type='video/mp4'></video>","1","left","25%","5","","","","","","","",""
"","948.4950000041863","sequential-stimulus-presentation","115","444333","0.0-25.0","SS1613174895657","pref_reveal","","40","800","1748.4950000041863","null","null","","","","","5","","","","deviant","","","",""
"","null","html-keyboard-response","116","445591","0.0-26.0-0.0","SS1613174895657","","","null","","","","","<p><img src= images/blank.png width =""200"" height = ""200"" style = ""float:right""></p><p><img src=images/blank.png width =""800"" height = ""200""></p>","","","","","","","","","","","",""
"","1161.6599999979371","sequential-stimulus-presentation","117","447572","0.0-26.0-1.0","SS1613174895657","trial","","40","800","1961.6599999979371","images/stimuli/spore_stims/complex_06_A_b.gif","images/stimuli/spore_stims/complex_06_B_b.gif","","","","","6","complex_similar","images/stimuli/spore_stims/complex_06_B_b.gif","middle","","","","",""
"","null","html-keyboard-response","118","448733","0.0-26.0-0.1","SS1613174895657","","","null","","","","","<p><img src= images/blank.png width =""200"" height = ""200"" style = ""float:right""></p><p><img src=images/blank.png width =""800"" height = ""200""></p>","","","","","","","","","","","",""
"","398.0100000044331","sequential-stimulus-presentation","119","449947","0.0-26.0-1.1","SS1613174895657","trial","","40","800","1198.010000004433","images/stimuli/spore_stims/complex_06_A_b.gif","images/stimuli/spore_stims/complex_06_B_b.gif","","","","","6","complex_similar","images/stimuli/spore_stims/complex_06_B_b.gif","middle","","","","",""
"","null","html-keyboard-response","120","451228","0.0-26.0-0.2","SS1613174895657","","","null","","","","","<p><img src= images/blank.png width =""200"" height = ""200"" style = ""float:right""></p><p><img src=images/blank.png width =""800"" height = ""200""></p>","","","","","","","","","","","",""
"","2649.9449999973876","sequential-stimulus-presentation","121","454690","0.0-26.0-1.2","SS1613174895657","trial","","40","800","3449.9449999973876","images/stimuli/spore_stims/complex_06_A_b.gif","images/stimuli/spore_stims/complex_06_B_b.gif","","","","","6","complex_similar","images/stimuli/spore_stims/complex_06_B_b.gif","middle","","","","",""
"","null","html-keyboard-response","122","455856","0.0-26.0-0.3","SS1613174895657","","","null","","","","","<p><img src= images/blank.png width =""200"" height = ""200"" style = ""float:right""></p><p><img src=images/blank.png width =""800"" height = ""200""></p>","","","","","","","","","","","",""
"","48.13500000454951","sequential-stimulus-presentation","123","456723","0.0-26.0-1.3","SS1613174895657","trial","","40","800","848.1350000045495","images/stimuli/spore_stims/complex_06_A_b.gif","images/stimuli/spore_stims/complex_06_B_b.gif","","","","","6","complex_similar","images/stimuli/spore_stims/complex_06_B_b.gif","middle","","","","",""
"","null","html-keyboard-response","124","457972","0.0-26.0-0.4","SS1613174895657","","","null","","","","","<p><img src= images/blank.png width =""200"" height = ""200"" style = ""float:right""></p><p><img src=images/blank.png width =""800"" height = ""200""></p>","","","","","","","","","","","",""
"","13.65000000805594","sequential-stimulus-presentation","125","458807","0.0-26.0-1.4","SS1613174895657","trial","","40","800","813.6500000080559","images/stimuli/spore_stims/complex_06_A_b.gif","images/stimuli/spore_stims/complex_06_B_b.gif","","","","","6","complex_similar","images/stimuli/spore_stims/complex_06_B_b.gif","middle","","","","",""
"","null","html-keyboard-response","126","460069","0.0-26.0-0.5","SS1613174895657","","","null","","","","","<p><img src= images/blank.png width =""200"" height = ""200"" style = ""float:right""></p><p><img src=images/blank.png width =""800"" height = ""200""></p>","","","","","","","","","","","",""
"","2106.4599999954225","sequential-stimulus-presentation","127","462996","0.0-26.0-1.5","SS1613174895657","trial","","40","800","2906.4599999954225","images/stimuli/spore_stims/complex_06_A_b.gif","images/stimuli/spore_stims/complex_06_B_b.gif","","","","","6","complex_similar","images/stimuli/spore_stims/complex_06_B_b.gif","middle","","","","",""
"","null","html-keyboard-response","128","463998","0.0-26.0-0.6","SS1613174895657","","","null","","","","","<p><img src= images/blank.png width =""200"" height = ""200"" style = ""float:right""></p><p><img src=images/blank.png width =""800"" height = ""200""></p>","","","","","","","","","","","",""
"","787.4849999934668","sequential-stimulus-presentation","129","465604","0.0-26.0-1.6","SS1613174895657","trial","","40","800","1587.4849999934668","images/stimuli/spore_stims/complex_06_A_b.gif","images/stimuli/spore_stims/complex_06_B_b.gif","","","","","6","complex_similar","images/stimuli/spore_stims/complex_06_A_b.gif","left","","","","",""
"","null","html-keyboard-response","130","466464","0.0-26.0-0.7","SS1613174895657","","","null","","","","","<p><img src= images/blank.png width =""200"" height = ""200"" style = ""float:right""></p><p><img src=images/blank.png width =""800"" height = ""200""></p>","","","","","","","","","","","",""
"","761.6849999903934","sequential-stimulus-presentation","131","468043","0.0-26.0-1.7","SS1613174895657","trial","","40","800","1561.6849999903934","images/stimuli/spore_stims/complex_06_A_b.gif","images/stimuli/spore_stims/complex_06_B_b.gif","","","","","6","complex_similar","images/stimuli/spore_stims/complex_06_B_b.gif","middle","","","","",""
"","1006.3700000027893","html-keyboard-response","132","469058","0.0-27.0","SS1613174895657","pref_question","","99","","","","","<video width ='960' height = '540' style='padding-top:8%' autoplay muted><source src='images/stimuli/wall_pref.mp4' type='video/mp4'></video>","3","right","66%","6","","","","","","","",""
"","4068.585000000894","sequential-stimulus-presentation","133","473939","0.0-28.0","SS1613174895657","pref_reveal","","40","800","4868.585000000894","null","null","","","","","6","","","","novel","","","",""
"","null","html-keyboard-response","134","474793","0.0-29.0-0.0","SS1613174895657","","","null","","","","","<p><img src= images/blank.png width =""200"" height = ""200"" style = ""float:right""></p><p><img src=images/blank.png width =""800"" height = ""200""></p>","","","","","","","","","","","",""
"","970.1750000094762","sequential-stimulus-presentation","135","476618","0.0-29.0-1.0","SS1613174895657","trial","","40","800","1770.1750000094762","images/stimuli/spore_stims/simple_01_A_c.gif","images/stimuli/spore_stims/simple_19_B_b.gif","","","","","7","simple_dissimilar","images/stimuli/spore_stims/simple_19_B_b.gif","middle","","","","",""
"","null","html-keyboard-response","136","477856","0.0-29.0-0.1","SS1613174895657","","","null","","","","","<p><img src= images/blank.png width =""200"" height = ""200"" style = ""float:right""></p><p><img src=images/blank.png width =""800"" height = ""200""></p>","","","","","","","","","","","",""
"","76.92999999562744","sequential-stimulus-presentation","137","478753","0.0-29.0-1.1","SS1613174895657","trial","","40","800","876.9299999956274","images/stimuli/spore_stims/simple_01_A_c.gif","images/stimuli/spore_stims/simple_19_B_b.gif","","","","","7","simple_dissimilar","images/stimuli/spore_stims/simple_19_B_b.gif","middle","","","","",""
"","null","html-keyboard-response","138","480004","0.0-29.0-0.2","SS1613174895657","","","null","","","","","<p><img src= images/blank.png width =""200"" height = ""200"" style = ""float:right""></p><p><img src=images/blank.png width =""800"" height = ""200""></p>","","","","","","","","","","","",""
"","531.6599999932805","sequential-stimulus-presentation","139","481345","0.0-29.0-1.2","SS1613174895657","trial","","40","800","1331.6599999932805","images/stimuli/spore_stims/simple_01_A_c.gif","images/stimuli/spore_stims/simple_19_B_b.gif","","","","","7","simple_dissimilar","images/stimuli/spore_stims/simple_19_B_b.gif","middle","","","","",""
"","null","html-keyboard-response","140","482579","0.0-29.0-0.3","SS1613174895657","","","null","","","","","<p><img src= images/blank.png width =""200"" height = ""200"" style = ""float:right""></p><p><img src=images/blank.png width =""800"" height = ""200""></p>","","","","","","","","","","","",""
"","797.7549999923212","sequential-stimulus-presentation","141","484185","0.0-29.0-1.3","SS1613174895657","trial","","40","800","1597.7549999923212","images/stimuli/spore_stims/simple_01_A_c.gif","images/stimuli/spore_stims/simple_19_B_b.gif","","","","","7","simple_dissimilar","images/stimuli/spore_stims/simple_01_A_c.gif","right","","","","",""
"","null","html-keyboard-response","142","485196","0.0-29.0-0.4","SS1613174895657","","","null","","","","","<p><img src= images/blank.png width =""200"" height = ""200"" style = ""float:right""></p><p><img src=images/blank.png width =""800"" height = ""200""></p>","","","","","","","","","","","",""
"","688.1550000107381","sequential-stimulus-presentation","143","486705","0.0-29.0-1.4","SS1613174895657","trial","","40","800","1488.1550000107381","images/stimuli/spore_stims/simple_01_A_c.gif","images/stimuli/spore_stims/simple_19_B_b.gif","","","","","7","simple_dissimilar","images/stimuli/spore_stims/simple_19_B_b.gif","middle","","","","",""
"","null","html-keyboard-response","144","487774","0.0-29.0-0.5","SS1613174895657","","","null","","","","","<p><img src= images/blank.png width =""200"" height = ""200"" style = ""float:right""></p><p><img src=images/blank.png width =""800"" height = ""200""></p>","","","","","","","","","","","",""
"","96.95500000088941","sequential-stimulus-presentation","145","488681","0.0-29.0-1.5","SS1613174895657","trial","","40","800","896.9550000008894","images/stimuli/spore_stims/simple_01_A_c.gif","images/stimuli/spore_stims/simple_19_B_b.gif","","","","","7","simple_dissimilar","images/stimuli/spore_stims/simple_19_B_b.gif","middle","","","","",""
"","null","html-keyboard-response","146","489555","0.0-29.0-0.6","SS1613174895657","","","null","","","","","<p><img src= images/blank.png width =""200"" height = ""200"" style = ""float:right""></p><p><img src=images/blank.png width =""800"" height = ""200""></p>","","","","","","","","","","","",""
"","1306.0849999892525","sequential-stimulus-presentation","147","491678","0.0-29.0-1.6","SS1613174895657","trial","","40","800","2106.0849999892525","images/stimuli/spore_stims/simple_01_A_c.gif","images/stimuli/spore_stims/simple_19_B_b.gif","","","","","7","simple_dissimilar","images/stimuli/spore_stims/simple_19_B_b.gif","middle","","","","",""
"","null","html-keyboard-response","148","492716","0.0-29.0-0.7","SS1613174895657","","","null","","","","","<p><img src= images/blank.png width =""200"" height = ""200"" style = ""float:right""></p><p><img src=images/blank.png width =""800"" height = ""200""></p>","","","","","","","","","","","",""
"","287.38999999768566","sequential-stimulus-presentation","149","493823","0.0-29.0-1.7","SS1613174895657","trial","","40","800","1087.3899999976857","images/stimuli/spore_stims/simple_01_A_c.gif","images/stimuli/spore_stims/simple_19_B_b.gif","","","","","7","simple_dissimilar","images/stimuli/spore_stims/simple_19_B_b.gif","middle","","","","",""
"","1012.0299999980489","html-keyboard-response","150","494846","0.0-30.0","SS1613174895657","pref_question","","98","","","","","<video width ='960' height = '540' style='padding-top:8%' autoplay muted><source src='images/stimuli/wall_pref.mp4' type='video/mp4'></video>","2","middle","45%","7","","","","","","","",""
"","1555.484999989858","sequential-stimulus-presentation","151","497214","0.0-31.0","SS1613174895657","pref_reveal","","40","800","2355.484999989858","null","null","","","","","7","","","","background","","","",""
"","null","html-keyboard-response","152","498474","0.0-32.0-0.0","SS1613174895657","","","null","","","","","<p><img src= images/blank.png width =""200"" height = ""200"" style = ""float:right""></p><p><img src=images/blank.png width =""800"" height = ""200""></p>","","","","","","","","","","","",""
"","1343.30000000773","sequential-stimulus-presentation","153","500653","0.0-32.0-1.0","SS1613174895657","trial","","40","800","2143.30000000773","images/stimuli/spore_stims/complex_04_B_b.gif","images/stimuli/spore_stims/complex_02_A_d.gif","","","","","8","complex_dissimilar","images/stimuli/spore_stims/complex_02_A_d.gif","left","","","","",""
"","null","html-keyboard-response","154","501870","0.0-32.0-0.1","SS1613174895657","","","null","","","","","<p><img src= images/blank.png width =""200"" height = ""200"" style = ""float:right""></p><p><img src=images/blank.png width =""800"" height = ""200""></p>","","","","","","","","","","","",""
"","1048.0850000021746","sequential-stimulus-presentation","155","503741","0.0-32.0-1.1","SS1613174895657","trial","","40","800","1848.0850000021746","images/stimuli/spore_stims/complex_04_B_b.gif","images/stimuli/spore_stims/complex_02_A_d.gif","","","","","8","complex_dissimilar","images/stimuli/spore_stims/complex_02_A_d.gif","left","","","","",""
"","null","html-keyboard-response","156","504991","0.0-32.0-0.2","SS1613174895657","","","null","","","","","<p><img src= images/blank.png width =""200"" height = ""200"" style = ""float:right""></p><p><img src=images/blank.png width =""800"" height = ""200""></p>","","","","","","","","","","","",""
"","471.27999999793246","sequential-stimulus-presentation","157","506276","0.0-32.0-1.2","SS1613174895657","trial","","40","800","1271.2799999979325","images/stimuli/spore_stims/complex_04_B_b.gif","images/stimuli/spore_stims/complex_02_A_d.gif","","","","","8","complex_dissimilar","images/stimuli/spore_stims/complex_02_A_d.gif","left","","","","",""
"","null","html-keyboard-response","158","507527","0.0-32.0-0.3","SS1613174895657","","","null","","","","","<p><img src= images/blank.png width =""200"" height = ""200"" style = ""float:right""></p><p><img src=images/blank.png width =""800"" height = ""200""></p>","","","","","","","","","","","",""
"","528.6699999996927","sequential-stimulus-presentation","159","508875","0.0-32.0-1.3","SS1613174895657","trial","","40","800","1328.6699999996927","images/stimuli/spore_stims/complex_04_B_b.gif","images/stimuli/spore_stims/complex_02_A_d.gif","","","","","8","complex_dissimilar","images/stimuli/spore_stims/complex_02_A_d.gif","left","","","","",""
"","null","html-keyboard-response","160","509895","0.0-32.0-0.4","SS1613174895657","","","null","","","","","<p><img src= images/blank.png width =""200"" height = ""200"" style = ""float:right""></p><p><img src=images/blank.png width =""800"" height = ""200""></p>","","","","","","","","","","","",""
"","382.4800000002142","sequential-stimulus-presentation","161","511091","0.0-32.0-1.4","SS1613174895657","trial","","40","800","1182.4800000002142","images/stimuli/spore_stims/complex_04_B_b.gif","images/stimuli/spore_stims/complex_02_A_d.gif","","","","","8","complex_dissimilar","images/stimuli/spore_stims/complex_02_A_d.gif","left","","","","",""
"","null","html-keyboard-response","162","512253","0.0-32.0-0.5","SS1613174895657","","","null","","","","","<p><img src= images/blank.png width =""200"" height = ""200"" style = ""float:right""></p><p><img src=images/blank.png width =""800"" height = ""200""></p>","","","","","","","","","","","",""
"","660.2050000074087","sequential-stimulus-presentation","163","513725","0.0-32.0-1.5","SS1613174895657","trial","","40","800","1460.2050000074087","images/stimuli/spore_stims/complex_04_B_b.gif","images/stimuli/spore_stims/complex_02_A_d.gif","","","","","8","complex_dissimilar","images/stimuli/spore_stims/complex_04_B_b.gif","middle","","","","",""
"","null","html-keyboard-response","164","514755","0.0-32.0-0.6","SS1613174895657","","","null","","","","","<p><img src= images/blank.png width =""200"" height = ""200"" style = ""float:right""></p><p><img src=images/blank.png width =""800"" height = ""200""></p>","","","","","","","","","","","",""
"","641.7049999872688","sequential-stimulus-presentation","165","516210","0.0-32.0-1.6","SS1613174895657","trial","","40","800","1441.7049999872688","images/stimuli/spore_stims/complex_04_B_b.gif","images/stimuli/spore_stims/complex_02_A_d.gif","","","","","8","complex_dissimilar","images/stimuli/spore_stims/complex_02_A_d.gif","left","","","","",""
"","null","html-keyboard-response","166","517200","0.0-32.0-0.7","SS1613174895657","","","null","","","","","<p><img src= images/blank.png width =""200"" height = ""200"" style = ""float:right""></p><p><img src=images/blank.png width =""800"" height = ""200""></p>","","","","","","","","","","","",""
"","414.9299999990035","sequential-stimulus-presentation","167","518425","0.0-32.0-1.7","SS1613174895657","trial","","40","800","1214.9299999990035","images/stimuli/spore_stims/complex_04_B_b.gif","images/stimuli/spore_stims/complex_02_A_d.gif","","","","","8","complex_dissimilar","images/stimuli/spore_stims/complex_02_A_d.gif","left","","","","",""
"","908.08000000834","html-keyboard-response","168","519345","0.0-33.0","SS1613174895657","pref_question","","97","","","","","<video width ='960' height = '540' style='padding-top:8%' autoplay muted><source src='images/stimuli/wall_pref.mp4' type='video/mp4'></video>","1","left","25%","8","","","","","","","",""
"","532.75999998732","sequential-stimulus-presentation","169","520690","0.0-34.0","SS1613174895657","pref_reveal","","40","800","1332.75999998732","null","null","","","","","8","","","","background","","","",""
"","null","html-keyboard-response","170","521596","0.0-35.0-0.0","SS1613174895657","","","null","","","","","<p><img src= images/blank.png width =""200"" height = ""200"" style = ""float:right""></p><p><img src=images/blank.png width =""800"" height = ""200""></p>","","","","","","","","","","","",""
"","339.50000000186265","sequential-stimulus-presentation","171","522753","0.0-35.0-1.0","SS1613174895657","trial","","40","800","1139.5000000018626","images/stimuli/spore_stims/complex_03_B_b.gif","images/stimuli/spore_stims/complex_03_A_b.gif","","","","","9","complex_similar","images/stimuli/spore_stims/complex_03_A_b.gif","middle","","","","",""
"","null","html-keyboard-response","172","523897","0.0-35.0-0.1","SS1613174895657","","","null","","","","","<p><img src= images/blank.png width =""200"" height = ""200"" style = ""float:right""></p><p><img src=images/blank.png width =""800"" height = ""200""></p>","","","","","","","","","","","",""
"","427.5550000020303","sequential-stimulus-presentation","173","525166","0.0-35.0-1.1","SS1613174895657","trial","","40","800","1227.5550000020303","images/stimuli/spore_stims/complex_03_B_b.gif","images/stimuli/spore_stims/complex_03_A_b.gif","","","","","9","complex_similar","images/stimuli/spore_stims/complex_03_A_b.gif","middle","","","","",""
"","null","html-keyboard-response","174","526476","0.0-35.0-0.2","SS1613174895657","","","null","","","","","<p><img src= images/blank.png width =""200"" height = ""200"" style = ""float:right""></p><p><img src=images/blank.png width =""800"" height = ""200""></p>","","","","","","","","","","","",""
"","140.3450000070734","sequential-stimulus-presentation","175","527427","0.0-35.0-1.2","SS1613174895657","trial","","40","800","940.3450000070734","images/stimuli/spore_stims/complex_03_B_b.gif","images/stimuli/spore_stims/complex_03_A_b.gif","","","","","9","complex_similar","images/stimuli/spore_stims/complex_03_A_b.gif","middle","","","","",""
"","null","html-keyboard-response","176","528456","0.0-35.0-0.3","SS1613174895657","","","null","","","","","<p><img src= images/blank.png width =""200"" height = ""200"" style = ""float:right""></p><p><img src=images/blank.png width =""800"" height = ""200""></p>","","","","","","","","","","","",""
"","687.2149999981048","sequential-stimulus-presentation","177","529963","0.0-35.0-1.3","SS1613174895657","trial","","40","800","1487.2149999981048","images/stimuli/spore_stims/complex_03_B_b.gif","images/stimuli/spore_stims/complex_03_A_b.gif","","","","","9","complex_similar","images/stimuli/spore_stims/complex_03_A_b.gif","middle","","","","",""
"","null","html-keyboard-response","178","531214","0.0-35.0-0.4","SS1613174895657","","","null","","","","","<p><img src= images/blank.png width =""200"" height = ""200"" style = ""float:right""></p><p><img src=images/blank.png width =""800"" height = ""200""></p>","","","","","","","","","","","",""
"","678.1649999902584","sequential-stimulus-presentation","179","532722","0.0-35.0-1.4","SS1613174895657","trial","","40","800","1478.1649999902584","images/stimuli/spore_stims/complex_03_B_b.gif","images/stimuli/spore_stims/complex_03_A_b.gif","","","","","9","complex_similar","images/stimuli/spore_stims/complex_03_A_b.gif","middle","","","","",""
"","null","html-keyboard-response","180","533801","0.0-35.0-0.5","SS1613174895657","","","null","","","","","<p><img src= images/blank.png width =""200"" height = ""200"" style = ""float:right""></p><p><img src=images/blank.png width =""800"" height = ""200""></p>","","","","","","","","","","","",""
"","834.6549999987474","sequential-stimulus-presentation","181","535457","0.0-35.0-1.5","SS1613174895657","trial","","40","800","1634.6549999987474","images/stimuli/spore_stims/complex_03_B_b.gif","images/stimuli/spore_stims/complex_03_A_b.gif","","","","","9","complex_similar","images/stimuli/spore_stims/complex_03_B_b.gif","left","","","","",""
"","null","html-keyboard-response","182","536607","0.0-35.0-0.6","SS1613174895657","","","null","","","","","<p><img src= images/blank.png width =""200"" height = ""200"" style = ""float:right""></p><p><img src=images/blank.png width =""800"" height = ""200""></p>","","","","","","","","","","","",""
"","403.3099999942351","sequential-stimulus-presentation","183","537833","0.0-35.0-1.6","SS1613174895657","trial","","40","800","1203.309999994235","images/stimuli/spore_stims/complex_03_B_b.gif","images/stimuli/spore_stims/complex_03_A_b.gif","","","","","9","complex_similar","images/stimuli/spore_stims/complex_03_A_b.gif","middle","","","","",""
"","null","html-keyboard-response","184","538998","0.0-35.0-0.7","SS1613174895657","","","null","","","","","<p><img src= images/blank.png width =""200"" height = ""200"" style = ""float:right""></p><p><img src=images/blank.png width =""800"" height = ""200""></p>","","","","","","","","","","","",""
"","38.29500000574626","sequential-stimulus-presentation","185","539849","0.0-35.0-1.7","SS1613174895657","trial","","40","800","838.2950000057463","images/stimuli/spore_stims/complex_03_B_b.gif","images/stimuli/spore_stims/complex_03_A_b.gif","","","","","9","complex_similar","images/stimuli/spore_stims/complex_03_A_b.gif","middle","","","","",""
"","1939.1449999966426","html-keyboard-response","186","541825","0.0-36.0","SS1613174895657","pref_question","","98","","","","","<video width ='960' height = '540' style='padding-top:8%' autoplay muted><source src='images/stimuli/wall_pref.mp4' type='video/mp4'></video>","2","middle","45%","9","","","","","","","",""
"","49791.79000000295","sequential-stimulus-presentation","187","592443","0.0-37.0","SS1613174895657","pref_reveal","","40","800","50591.79000000295","null","null","","","","","9","","","","background","","","",""
"","null","html-keyboard-response","188","593703","0.0-38.0-0.0","SS1613174895657","","","null","","","","","<p><img src= images/blank.png width =""200"" height = ""200"" style = ""float:right""></p><p><img src=images/blank.png width =""800"" height = ""200""></p>","","","","","","","","","","","",""
"","733.6799999902723","sequential-stimulus-presentation","189","595258","0.0-38.0-1.0","SS1613174895657","trial","","40","800","1533.6799999902723","images/stimuli/spore_stims/simple_03_A_b.gif","images/stimuli/spore_stims/simple_03_B_b.gif","","","","","10","simple_similar","images/stimuli/spore_stims/simple_03_B_b.gif","left","","","","",""
"","null","html-keyboard-response","190","596328","0.0-38.0-0.1","SS1613174895657","","","null","","","","","<p><img src= images/blank.png width =""200"" height = ""200"" style = ""float:right""></p><p><img src=images/blank.png width =""800"" height = ""200""></p>","","","","","","","","","","","",""
"","100.95500000170432","sequential-stimulus-presentation","191","597249","0.0-38.0-1.1","SS1613174895657","trial","","40","800","900.9550000017043","images/stimuli/spore_stims/simple_03_A_b.gif","images/stimuli/spore_stims/simple_03_B_b.gif","","","","","10","simple_similar","images/stimuli/spore_stims/simple_03_B_b.gif","left","","","","",""
"","null","html-keyboard-response","192","598467","0.0-38.0-0.2","SS1613174895657","","","null","","","","","<p><img src= images/blank.png width =""200"" height = ""200"" style = ""float:right""></p><p><img src=images/blank.png width =""800"" height = ""200""></p>","","","","","","","","","","","",""
"","192.04999999783468","sequential-stimulus-presentation","193","599481","0.0-38.0-1.2","SS1613174895657","trial","","40","800","992.0499999978347","images/stimuli/spore_stims/simple_03_A_b.gif","images/stimuli/spore_stims/simple_03_B_b.gif","","","","","10","simple_similar","images/stimuli/spore_stims/simple_03_A_b.gif","middle","","","","",""
"","null","html-keyboard-response","194","600317","0.0-38.0-0.3","SS1613174895657","","","null","","","","","<p><img src= images/blank.png width =""200"" height = ""200"" style = ""float:right""></p><p><img src=images/blank.png width =""800"" height = ""200""></p>","","","","","","","","","","","",""
"","2190.409999995609","sequential-stimulus-presentation","195","603321","0.0-38.0-1.3","SS1613174895657","trial","","40","800","2990.409999995609","images/stimuli/spore_stims/simple_03_A_b.gif","images/stimuli/spore_stims/simple_03_B_b.gif","","","","","10","simple_similar","images/stimuli/spore_stims/simple_03_B_b.gif","left","","","","",""
"","null","html-keyboard-response","196","604444","0.0-38.0-0.4","SS1613174895657","","","null","","","","","<p><img src= images/blank.png width =""200"" height = ""200"" style = ""float:right""></p><p><img src=images/blank.png width =""800"" height = ""200""></p>","","","","","","","","","","","",""
"","538.845000002766","sequential-stimulus-presentation","197","605807","0.0-38.0-1.4","SS1613174895657","trial","","40","800","1338.845000002766","images/stimuli/spore_stims/simple_03_A_b.gif","images/stimuli/spore_stims/simple_03_B_b.gif","","","","","10","simple_similar","images/stimuli/spore_stims/simple_03_B_b.gif","left","","","","",""
"","null","html-keyboard-response","198","607052","0.0-38.0-0.5","SS1613174895657","","","null","","","","","<p><img src= images/blank.png width =""200"" height = ""200"" style = ""float:right""></p><p><img src=images/blank.png width =""800"" height = ""200""></p>","","","","","","","","","","","",""
"","1213.7050000019372","sequential-stimulus-presentation","199","609079","0.0-38.0-1.5","SS1613174895657","trial","","40","800","2013.7050000019372","images/stimuli/spore_stims/simple_03_A_b.gif","images/stimuli/spore_stims/simple_03_B_b.gif","","","","","10","simple_similar","images/stimuli/spore_stims/simple_03_B_b.gif","left","","","","",""
"","null","html-keyboard-response","200","610174","0.0-38.0-0.6","SS1613174895657","","","null","","","","","<p><img src= images/blank.png width =""200"" height = ""200"" style = ""float:right""></p><p><img src=images/blank.png width =""800"" height = ""200""></p>","","","","","","","","","","","",""
"","801.4499999990221","sequential-stimulus-presentation","201","611799","0.0-38.0-1.6","SS1613174895657","trial","","40","800","1601.449999999022","images/stimuli/spore_stims/simple_03_A_b.gif","images/stimuli/spore_stims/simple_03_B_b.gif","","","","","10","simple_similar","images/stimuli/spore_stims/simple_03_B_b.gif","left","","","","",""
"","null","html-keyboard-response","202","612645","0.0-38.0-0.7","SS1613174895657","","","null","","","","","<p><img src= images/blank.png width =""200"" height = ""200"" style = ""float:right""></p><p><img src=images/blank.png width =""800"" height = ""200""></p>","","","","","","","","","","","",""
"","897.9949999920791","sequential-stimulus-presentation","203","614368","0.0-38.0-1.7","SS1613174895657","trial","","40","800","1697.994999992079","images/stimuli/spore_stims/simple_03_A_b.gif","images/stimuli/spore_stims/simple_03_B_b.gif","","","","","10","simple_similar","images/stimuli/spore_stims/simple_03_B_b.gif","left","","","","",""
"","1520.5349999887403","html-keyboard-response","204","615909","0.0-39.0","SS1613174895657","pref_question","","97","","","","","<video width ='960' height = '540' style='padding-top:8%' autoplay muted><source src='images/stimuli/wall_pref.mp4' type='video/mp4'></video>","1","left","25%","10","","","","","","","",""
"","1812.3300000006566","sequential-stimulus-presentation","205","618534","0.0-40.0","SS1613174895657","pref_reveal","","40","800","2612.3300000006566","null","null","","","","","10","","","","background","","","",""
"","null","html-keyboard-response","206","619725","0.0-41.0-0.0","SS1613174895657","","","null","","","","","<p><img src= images/blank.png width =""200"" height = ""200"" style = ""float:right""></p><p><img src=images/blank.png width =""800"" height = ""200""></p>","","","","","","","","","","","",""
"","3219.3549999938114","sequential-stimulus-presentation","207","623757","0.0-41.0-1.0","SS1613174895657","trial","","40","800","4019.3549999938114","images/stimuli/spore_stims/complex_20_B_c.gif","images/stimuli/spore_stims/complex_14_A_d.gif","","","","","11","complex_dissimilar","images/stimuli/spore_stims/complex_14_A_d.gif","left","","","","",""
"","null","html-keyboard-response","208","624887","0.0-41.0-0.1","SS1613174895657","","","null","","","","","<p><img src= images/blank.png width =""200"" height = ""200"" style = ""float:right""></p><p><img src=images/blank.png width =""800"" height = ""200""></p>","","","","","","","","","","","",""
"","984.6050000051036","sequential-stimulus-presentation","209","626685","0.0-41.0-1.1","SS1613174895657","trial","","40","800","1784.6050000051036","images/stimuli/spore_stims/complex_20_B_c.gif","images/stimuli/spore_stims/complex_14_A_d.gif","","","","","11","complex_dissimilar","images/stimuli/spore_stims/complex_14_A_d.gif","left","","","","",""
"","null","html-keyboard-response","210","627990","0.0-41.0-0.2","SS1613174895657","","","null","","","","","<p><img src= images/blank.png width =""200"" height = ""200"" style = ""float:right""></p><p><img src=images/blank.png width =""800"" height = ""200""></p>","","","","","","","","","","","",""
"","997.8949999931501","sequential-stimulus-presentation","211","629811","0.0-41.0-1.2","SS1613174895657","trial","","40","800","1797.8949999931501","images/stimuli/spore_stims/complex_20_B_c.gif","images/stimuli/spore_stims/complex_14_A_d.gif","","","","","11","complex_dissimilar","images/stimuli/spore_stims/complex_20_B_c.gif","right","","","","",""
"","null","html-keyboard-response","212","631105","0.0-41.0-0.3","SS1613174895657","","","null","","","","","<p><img src= images/blank.png width =""200"" height = ""200"" style = ""float:right""></p><p><img src=images/blank.png width =""800"" height = ""200""></p>","","","","","","","","","","","",""
"","608.089999994263","sequential-stimulus-presentation","213","632539","0.0-41.0-1.3","SS1613174895657","trial","","40","800","1408.089999994263","images/stimuli/spore_stims/complex_20_B_c.gif","images/stimuli/spore_stims/complex_14_A_d.gif","","","","","11","complex_dissimilar","images/stimuli/spore_stims/complex_14_A_d.gif","left","","","","",""
"","null","html-keyboard-response","214","633425","0.0-41.0-0.4","SS1613174895657","","","null","","","","","<p><img src= images/blank.png width =""200"" height = ""200"" style = ""float:right""></p><p><img src=images/blank.png width =""800"" height = ""200""></p>","","","","","","","","","","","",""
"","4750.1199999969685","sequential-stimulus-presentation","215","638995","0.0-41.0-1.4","SS1613174895657","trial","","40","800","5550.1199999969685","images/stimuli/spore_stims/complex_20_B_c.gif","images/stimuli/spore_stims/complex_14_A_d.gif","","","","","11","complex_dissimilar","images/stimuli/spore_stims/complex_14_A_d.gif","left","","","","",""
"","null","html-keyboard-response","216","639899","0.0-41.0-0.5","SS1613174895657","","","null","","","","","<p><img src= images/blank.png width =""200"" height = ""200"" style = ""float:right""></p><p><img src=images/blank.png width =""800"" height = ""200""></p>","","","","","","","","","","","",""
"","1949.415000010049","sequential-stimulus-presentation","217","642665","0.0-41.0-1.5","SS1613174895657","trial","","40","800","2749.415000010049","images/stimuli/spore_stims/complex_20_B_c.gif","images/stimuli/spore_stims/complex_14_A_d.gif","","","","","11","complex_dissimilar","images/stimuli/spore_stims/complex_14_A_d.gif","left","","","","",""
"","null","html-keyboard-response","218","643787","0.0-41.0-0.6","SS1613174895657","","","null","","","","","<p><img src= images/blank.png width =""200"" height = ""200"" style = ""float:right""></p><p><img src=images/blank.png width =""800"" height = ""200""></p>","","","","","","","","","","","",""
"","405.4500000056578","sequential-stimulus-presentation","219","645020","0.0-41.0-1.6","SS1613174895657","trial","","40","800","1205.4500000056578","images/stimuli/spore_stims/complex_20_B_c.gif","images/stimuli/spore_stims/complex_14_A_d.gif","","","","","11","complex_dissimilar","images/stimuli/spore_stims/complex_14_A_d.gif","left","","","","",""
"","null","html-keyboard-response","220","646049","0.0-41.0-0.7","SS1613174895657","","","null","","","","","<p><img src= images/blank.png width =""200"" height = ""200"" style = ""float:right""></p><p><img src=images/blank.png width =""800"" height = ""200""></p>","","","","","","","","","","","",""
"","561.3500000035856","sequential-stimulus-presentation","221","647434","0.0-41.0-1.7","SS1613174895657","trial","","40","800","1361.3500000035856","images/stimuli/spore_stims/complex_20_B_c.gif","images/stimuli/spore_stims/complex_14_A_d.gif","","","","","11","complex_dissimilar","images/stimuli/spore_stims/complex_14_A_d.gif","left","","","","",""
"","1900.8499999908963","html-keyboard-response","222","649347","0.0-42.0","SS1613174895657","pref_question","","97","","","","","<video width ='960' height = '540' style='padding-top:8%' autoplay muted><source src='images/stimuli/wall_pref.mp4' type='video/mp4'></video>","1","left","25%","11","","","","","","","",""
"","5305.565000002389","sequential-stimulus-presentation","223","655466","0.0-43.0","SS1613174895657","pref_reveal","","40","800","6105.565000002389","null","null","","","","","11","","","","background","","","",""
"","null","html-keyboard-response","224","656627","0.0-44.0-0.0","SS1613174895657","","","null","","","","","<p><img src= images/blank.png width =""200"" height = ""200"" style = ""float:right""></p><p><img src=images/blank.png width =""800"" height = ""200""></p>","","","","","","","","","","","",""
"","320.4750000004424","sequential-stimulus-presentation","225","657761","0.0-44.0-1.0","SS1613174895657","trial","","40","800","1120.4750000004424","images/stimuli/spore_stims/simple_13_A_c.gif","images/stimuli/spore_stims/simple_13_B_c.gif","","","","","12","simple_similar","images/stimuli/spore_stims/simple_13_B_c.gif","right","","","","",""
"","null","html-keyboard-response","226","658631","0.0-44.0-0.1","SS1613174895657","","","null","","","","","<p><img src= images/blank.png width =""200"" height = ""200"" style = ""float:right""></p><p><img src=images/blank.png width =""800"" height = ""200""></p>","","","","","","","","","","","",""
"","1101.9850000011502","sequential-stimulus-presentation","227","660554","0.0-44.0-1.1","SS1613174895657","trial","","40","800","1901.9850000011502","images/stimuli/spore_stims/simple_13_A_c.gif","images/stimuli/spore_stims/simple_13_B_c.gif","","","","","12","simple_similar","images/stimuli/spore_stims/simple_13_B_c.gif","right","","","","",""
"","null","html-keyboard-response","228","661600","0.0-44.0-0.2","SS1613174895657","","","null","","","","","<p><img src= images/blank.png width =""200"" height = ""200"" style = ""float:right""></p><p><img src=images/blank.png width =""800"" height = ""200""></p>","","","","","","","","","","","",""
"","587.7000000036787","sequential-stimulus-presentation","229","663009","0.0-44.0-1.2","SS1613174895657","trial","","40","800","1387.7000000036787","images/stimuli/spore_stims/simple_13_A_c.gif","images/stimuli/spore_stims/simple_13_B_c.gif","","","","","12","simple_similar","images/stimuli/spore_stims/simple_13_B_c.gif","right","","","","",""
"","null","html-keyboard-response","230","664312","0.0-44.0-0.3","SS1613174895657","","","null","","","","","<p><img src= images/blank.png width =""200"" height = ""200"" style = ""float:right""></p><p><img src=images/blank.png width =""800"" height = ""200""></p>","","","","","","","","","","","",""
"","759.7699999896577","sequential-stimulus-presentation","231","665889","0.0-44.0-1.3","SS1613174895657","trial","","40","800","1559.7699999896577","images/stimuli/spore_stims/simple_13_A_c.gif","images/stimuli/spore_stims/simple_13_B_c.gif","","","","","12","simple_similar","images/stimuli/spore_stims/simple_13_B_c.gif","right","","","","",""
"","null","html-keyboard-response","232","666922","0.0-44.0-0.4","SS1613174895657","","","null","","","","","<p><img src= images/blank.png width =""200"" height = ""200"" style = ""float:right""></p><p><img src=images/blank.png width =""800"" height = ""200""></p>","","","","","","","","","","","",""
"","455.549999998766","sequential-stimulus-presentation","233","668191","0.0-44.0-1.4","SS1613174895657","trial","","40","800","1255.549999998766","images/stimuli/spore_stims/simple_13_A_c.gif","images/stimuli/spore_stims/simple_13_B_c.gif","","","","","12","simple_similar","images/stimuli/spore_stims/simple_13_B_c.gif","right","","","","",""
"","null","html-keyboard-response","234","669468","0.0-44.0-0.5","SS1613174895657","","","null","","","","","<p><img src= images/blank.png width =""200"" height = ""200"" style = ""float:right""></p><p><img src=images/blank.png width =""800"" height = ""200""></p>","","","","","","","","","","","",""
"","118.09500001254492","sequential-stimulus-presentation","235","670407","0.0-44.0-1.5","SS1613174895657","trial","","40","800","918.0950000125449","images/stimuli/spore_stims/simple_13_A_c.gif","images/stimuli/spore_stims/simple_13_B_c.gif","","","","","12","simple_similar","images/stimuli/spore_stims/simple_13_B_c.gif","right","","","","",""
"","null","html-keyboard-response","236","671612","0.0-44.0-0.6","SS1613174895657","","","null","","","","","<p><img src= images/blank.png width =""200"" height = ""200"" style = ""float:right""></p><p><img src=images/blank.png width =""800"" height = ""200""></p>","","","","","","","","","","","",""
"","6582.0199999870965","sequential-stimulus-presentation","237","679020","0.0-44.0-1.6","SS1613174895657","trial","","40","800","7382.0199999870965","images/stimuli/spore_stims/simple_13_A_c.gif","images/stimuli/spore_stims/simple_13_B_c.gif","","","","","12","simple_similar","images/stimuli/spore_stims/simple_13_A_c.gif","left","","","","",""
"","null","html-keyboard-response","238","679980","0.0-44.0-0.7","SS1613174895657","","","null","","","","","<p><img src= images/blank.png width =""200"" height = ""200"" style = ""float:right""></p><p><img src=images/blank.png width =""800"" height = ""200""></p>","","","","","","","","","","","",""
"","1575.1900000032037","sequential-stimulus-presentation","239","682381","0.0-44.0-1.7","SS1613174895657","trial","","40","800","2375.1900000032037","images/stimuli/spore_stims/simple_13_A_c.gif","images/stimuli/spore_stims/simple_13_B_c.gif","","","","","12","simple_similar","images/stimuli/spore_stims/simple_13_B_c.gif","right","","","","",""
"","952.6999999943655","html-keyboard-response","240","683348","0.0-45.0","SS1613174895657","pref_question","","99","","","","","<video width ='960' height = '540' style='padding-top:8%' autoplay muted><source src='images/stimuli/wall_pref.mp4' type='video/mp4'></video>","3","right","66%","12","","","","","","","",""
"","663.7599999958184","sequential-stimulus-presentation","241","684828","0.0-46.0","SS1613174895657","pref_reveal","","40","800","1463.7599999958184","null","null","","","","","12","","","","background","","","",""
"","null","html-keyboard-response","242","686069","0.0-47.0-0.0","SS1613174895657","","","null","","","","","<p><img src= images/blank.png width =""200"" height = ""200"" style = ""float:right""></p><p><img src=images/blank.png width =""800"" height = ""200""></p>","","","","","","","","","","","",""
"","978.6600000079488","sequential-stimulus-presentation","243","687899","0.0-47.0-1.0","SS1613174895657","trial","","40","800","1778.6600000079488","images/stimuli/spore_stims/simple_02_B_d.gif","images/stimuli/spore_stims/simple_16_A_c.gif","","","","","13","simple_dissimilar","images/stimuli/spore_stims/simple_16_A_c.gif","middle","","","","",""
"","null","html-keyboard-response","244","689052","0.0-47.0-0.1","SS1613174895657","","","null","","","","","<p><img src= images/blank.png width =""200"" height = ""200"" style = ""float:right""></p><p><img src=images/blank.png width =""800"" height = ""200""></p>","","","","","","","","","","","",""
"","73.21499999670777","sequential-stimulus-presentation","245","689939","0.0-47.0-1.1","SS1613174895657","trial","","40","800","873.2149999967078","images/stimuli/spore_stims/simple_02_B_d.gif","images/stimuli/spore_stims/simple_16_A_c.gif","","","","","13","simple_dissimilar","images/stimuli/spore_stims/simple_16_A_c.gif","middle","","","","",""
"","null","html-keyboard-response","246","691202","0.0-47.0-0.2","SS1613174895657","","","null","","","","","<p><img src= images/blank.png width =""200"" height = ""200"" style = ""float:right""></p><p><img src=images/blank.png width =""800"" height = ""200""></p>","","","","","","","","","","","",""
"","1008.6949999968056","sequential-stimulus-presentation","247","693035","0.0-47.0-1.2","SS1613174895657","trial","","40","800","1808.6949999968056","images/stimuli/spore_stims/simple_02_B_d.gif","images/stimuli/spore_stims/simple_16_A_c.gif","","","","","13","simple_dissimilar","images/stimuli/spore_stims/simple_16_A_c.gif","middle","","","","",""
"","null","html-keyboard-response","248","694097","0.0-47.0-0.3","SS1613174895657","","","null","","","","","<p><img src= images/blank.png width =""200"" height = ""200"" style = ""float:right""></p><p><img src=images/blank.png width =""800"" height = ""200""></p>","","","","","","","","","","","",""
"","1440.230000007432","sequential-stimulus-presentation","249","696351","0.0-47.0-1.3","SS1613174895657","trial","","40","800","2240.230000007432","images/stimuli/spore_stims/simple_02_B_d.gif","images/stimuli/spore_stims/simple_16_A_c.gif","","","","","13","simple_dissimilar","images/stimuli/spore_stims/simple_16_A_c.gif","middle","","","","",""
"","null","html-keyboard-response","250","697403","0.0-47.0-0.4","SS1613174895657","","","null","","","","","<p><img src= images/blank.png width =""200"" height = ""200"" style = ""float:right""></p><p><img src=images/blank.png width =""800"" height = ""200""></p>","","","","","","","","","","","",""
"","160.5449999915436","sequential-stimulus-presentation","251","698393","0.0-47.0-1.4","SS1613174895657","trial","","40","800","960.5449999915436","images/stimuli/spore_stims/simple_02_B_d.gif","images/stimuli/spore_stims/simple_16_A_c.gif","","","","","13","simple_dissimilar","images/stimuli/spore_stims/simple_16_A_c.gif","middle","","","","",""
"","null","html-keyboard-response","252","699392","0.0-47.0-0.5","SS1613174895657","","","null","","","","","<p><img src= images/blank.png width =""200"" height = ""200"" style = ""float:right""></p><p><img src=images/blank.png width =""800"" height = ""200""></p>","","","","","","","","","","","",""
"","2561.1600000120234","sequential-stimulus-presentation","253","702769","0.0-47.0-1.5","SS1613174895657","trial","","40","800","3361.1600000120234","images/stimuli/spore_stims/simple_02_B_d.gif","images/stimuli/spore_stims/simple_16_A_c.gif","","","","","13","simple_dissimilar","images/stimuli/spore_stims/simple_02_B_d.gif","right","","","","",""
"","null","html-keyboard-response","254","703845","0.0-47.0-0.6","SS1613174895657","","","null","","","","","<p><img src= images/blank.png width =""200"" height = ""200"" style = ""float:right""></p><p><img src=images/blank.png width =""800"" height = ""200""></p>","","","","","","","","","","","",""
"","302.2049999999581","sequential-stimulus-presentation","255","704964","0.0-47.0-1.6","SS1613174895657","trial","","40","800","1102.204999999958","images/stimuli/spore_stims/simple_02_B_d.gif","images/stimuli/spore_stims/simple_16_A_c.gif","","","","","13","simple_dissimilar","images/stimuli/spore_stims/simple_16_A_c.gif","middle","","","","",""
"","null","html-keyboard-response","256","706193","0.0-47.0-0.7","SS1613174895657","","","null","","","","","<p><img src= images/blank.png width =""200"" height = ""200"" style = ""float:right""></p><p><img src=images/blank.png width =""800"" height = ""200""></p>","","","","","","","","","","","",""
"","979.5549999980722","sequential-stimulus-presentation","257","708004","0.0-47.0-1.7","SS1613174895657","trial","","40","800","1779.5549999980722","images/stimuli/spore_stims/simple_02_B_d.gif","images/stimuli/spore_stims/simple_16_A_c.gif","","","","","13","simple_dissimilar","images/stimuli/spore_stims/simple_16_A_c.gif","middle","","","","",""
"","1596.5799999976298","html-keyboard-response","258","709619","0.0-48.0","SS1613174895657","pref_question","","98","","","","","<video width ='960' height = '540' style='padding-top:8%' autoplay muted><source src='images/stimuli/wall_pref.mp4' type='video/mp4'></video>","2","middle","45%","13","","","","","","","",""
"","315.0349999923492","sequential-stimulus-presentation","259","710770","0.0-49.0","SS1613174895657","pref_reveal","","40","800","1115.0349999923492","null","null","","","","","13","","","","background","","","",""
"","null","html-keyboard-response","260","711644","0.0-50.0-0.0","SS1613174895657","","","null","","","","","<p><img src= images/blank.png width =""200"" height = ""200"" style = ""float:right""></p><p><img src=images/blank.png width =""800"" height = ""200""></p>","","","","","","","","","","","",""
"","7224.560000002384","sequential-stimulus-presentation","261","719690","0.0-50.0-1.0","SS1613174895657","trial","","40","800","8024.560000002384","images/stimuli/spore_stims/simple_09_A_a.gif","images/stimuli/spore_stims/simple_16_B_c.gif","","","","","14","simple_dissimilar","images/stimuli/spore_stims/simple_16_B_c.gif","middle","","","","",""
"","null","html-keyboard-response","262","720555","0.0-50.0-0.1","SS1613174895657","","","null","","","","","<p><img src= images/blank.png width =""200"" height = ""200"" style = ""float:right""></p><p><img src=images/blank.png width =""800"" height = ""200""></p>","","","","","","","","","","","",""
"","586.2049999996088","sequential-stimulus-presentation","263","721968","0.0-50.0-1.1","SS1613174895657","trial","","40","800","1386.2049999996088","images/stimuli/spore_stims/simple_09_A_a.gif","images/stimuli/spore_stims/simple_16_B_c.gif","","","","","14","simple_dissimilar","images/stimuli/spore_stims/simple_16_B_c.gif","middle","","","","",""
"","null","html-keyboard-response","264","723016","0.0-50.0-0.2","SS1613174895657","","","null","","","","","<p><img src= images/blank.png width =""200"" height = ""200"" style = ""float:right""></p><p><img src=images/blank.png width =""800"" height = ""200""></p>","","","","","","","","","","","",""
"","210.01999999862164","sequential-stimulus-presentation","265","724049","0.0-50.0-1.2","SS1613174895657","trial","","40","800","1010.0199999986216","images/stimuli/spore_stims/simple_09_A_a.gif","images/stimuli/spore_stims/simple_16_B_c.gif","","","","","14","simple_dissimilar","images/stimuli/spore_stims/simple_16_B_c.gif","middle","","","","",""
"","null","html-keyboard-response","266","724889","0.0-50.0-0.3","SS1613174895657","","","null","","","","","<p><img src= images/blank.png width =""200"" height = ""200"" style = ""float:right""></p><p><img src=images/blank.png width =""800"" height = ""200""></p>","","","","","","","","","","","",""
"","238.44499999540858","sequential-stimulus-presentation","267","725967","0.0-50.0-1.3","SS1613174895657","trial","","40","800","1038.4449999954086","images/stimuli/spore_stims/simple_09_A_a.gif","images/stimuli/spore_stims/simple_16_B_c.gif","","","","","14","simple_dissimilar","images/stimuli/spore_stims/simple_16_B_c.gif","middle","","","","",""
"","null","html-keyboard-response","268","726980","0.0-50.0-0.4","SS1613174895657","","","null","","","","","<p><img src= images/blank.png width =""200"" height = ""200"" style = ""float:right""></p><p><img src=images/blank.png width =""800"" height = ""200""></p>","","","","","","","","","","","",""
"","2966.5400000085356","sequential-stimulus-presentation","269","730760","0.0-50.0-1.4","SS1613174895657","trial","","40","800","3766.5400000085356","images/stimuli/spore_stims/simple_09_A_a.gif","images/stimuli/spore_stims/simple_16_B_c.gif","","","","","14","simple_dissimilar","images/stimuli/spore_stims/simple_16_B_c.gif","middle","","","","",""
"","null","html-keyboard-response","270","732052","0.0-50.0-0.5","SS1613174895657","","","null","","","","","<p><img src= images/blank.png width =""200"" height = ""200"" style = ""float:right""></p><p><img src=images/blank.png width =""800"" height = ""200""></p>","","","","","","","","","","","",""
"","608.8350000063656","sequential-stimulus-presentation","271","733495","0.0-50.0-1.5","SS1613174895657","trial","","40","800","1408.8350000063656","images/stimuli/spore_stims/simple_09_A_a.gif","images/stimuli/spore_stims/simple_16_B_c.gif","","","","","14","simple_dissimilar","images/stimuli/spore_stims/simple_16_B_c.gif","middle","","","","",""
"","null","html-keyboard-response","272","734690","0.0-50.0-0.6","SS1613174895657","","","null","","","","","<p><img src= images/blank.png width =""200"" height = ""200"" style = ""float:right""></p><p><img src=images/blank.png width =""800"" height = ""200""></p>","","","","","","","","","","","",""
"","628.0799999949522","sequential-stimulus-presentation","273","736133","0.0-50.0-1.6","SS1613174895657","trial","","40","800","1428.0799999949522","images/stimuli/spore_stims/simple_09_A_a.gif","images/stimuli/spore_stims/simple_16_B_c.gif","","","","","14","simple_dissimilar","images/stimuli/spore_stims/simple_09_A_a.gif","right","","","","",""
"","null","html-keyboard-response","274","737053","0.0-50.0-0.7","SS1613174895657","","","null","","","","","<p><img src= images/blank.png width =""200"" height = ""200"" style = ""float:right""></p><p><img src=images/blank.png width =""800"" height = ""200""></p>","","","","","","","","","","","",""
"","125.64499999280088","sequential-stimulus-presentation","275","738007","0.0-50.0-1.7","SS1613174895657","trial","","40","800","925.6449999928009","images/stimuli/spore_stims/simple_09_A_a.gif","images/stimuli/spore_stims/simple_16_B_c.gif","","","","","14","simple_dissimilar","images/stimuli/spore_stims/simple_16_B_c.gif","middle","","","","",""
"","1366.1299999948824","html-keyboard-response","276","739389","0.0-51.0","SS1613174895657","pref_question","","98","","","","","<video width ='960' height = '540' style='padding-top:8%' autoplay muted><source src='images/stimuli/wall_pref.mp4' type='video/mp4'></video>","2","middle","45%","14","","","","","","","",""
"","16943.16000000981","sequential-stimulus-presentation","277","757146","0.0-52.0","SS1613174895657","pref_reveal","","40","800","17743.16000000981","null","null","","","","","14","","","","background","","","",""
"","null","html-keyboard-response","278","758100","0.0-53.0-0.0","SS1613174895657","","","null","","","","","<p><img src= images/blank.png width =""200"" height = ""200"" style = ""float:right""></p><p><img src=images/blank.png width =""800"" height = ""200""></p>","","","","","","","","","","","",""
"","5410.619999995106","sequential-stimulus-presentation","279","764332","0.0-53.0-1.0","SS1613174895657","trial","","40","800","6210.619999995106","images/stimuli/spore_stims/complex_12_B_b.gif","images/stimuli/spore_stims/complex_12_A_b.gif","","","","","15","complex_similar","images/stimuli/spore_stims/complex_12_A_b.gif","left","","","","",""
"","null","html-keyboard-response","280","765582","0.0-53.0-0.1","SS1613174895657","","","null","","","","","<p><img src= images/blank.png width =""200"" height = ""200"" style = ""float:right""></p><p><img src=images/blank.png width =""800"" height = ""200""></p>","","","","","","","","","","","",""
"","241.08500000147615","sequential-stimulus-presentation","281","766643","0.0-53.0-1.1","SS1613174895657","trial","","40","800","1041.0850000014761","images/stimuli/spore_stims/complex_12_B_b.gif","images/stimuli/spore_stims/complex_12_A_b.gif","","","","","15","complex_similar","images/stimuli/spore_stims/complex_12_A_b.gif","left","","","","",""
"","null","html-keyboard-response","282","767874","0.0-53.0-0.2","SS1613174895657","","","null","","","","","<p><img src= images/blank.png width =""200"" height = ""200"" style = ""float:right""></p><p><img src=images/blank.png width =""800"" height = ""200""></p>","","","","","","","","","","","",""
"","136.625000013737","sequential-stimulus-presentation","283","768835","0.0-53.0-1.2","SS1613174895657","trial","","40","800","936.625000013737","images/stimuli/spore_stims/complex_12_B_b.gif","images/stimuli/spore_stims/complex_12_A_b.gif","","","","","15","complex_similar","images/stimuli/spore_stims/complex_12_A_b.gif","left","","","","",""
"","null","html-keyboard-response","284","769996","0.0-53.0-0.3","SS1613174895657","","","null","","","","","<p><img src= images/blank.png width =""200"" height = ""200"" style = ""float:right""></p><p><img src=images/blank.png width =""800"" height = ""200""></p>","","","","","","","","","","","",""
"","1386.0949999943841","sequential-stimulus-presentation","285","772211","0.0-53.0-1.3","SS1613174895657","trial","","40","800","2186.094999994384","images/stimuli/spore_stims/complex_12_B_b.gif","images/stimuli/spore_stims/complex_12_A_b.gif","","","","","15","complex_similar","images/stimuli/spore_stims/complex_12_B_b.gif","middle","","","","",""
"","null","html-keyboard-response","286","773110","0.0-53.0-0.4","SS1613174895657","","","null","","","","","<p><img src= images/blank.png width =""200"" height = ""200"" style = ""float:right""></p><p><img src=images/blank.png width =""800"" height = ""200""></p>","","","","","","","","","","","",""
"","1796.779999989667","sequential-stimulus-presentation","287","775729","0.0-53.0-1.4","SS1613174895657","trial","","40","800","2596.779999989667","images/stimuli/spore_stims/complex_12_B_b.gif","images/stimuli/spore_stims/complex_12_A_b.gif","","","","","15","complex_similar","images/stimuli/spore_stims/complex_12_A_b.gif","left","","","","",""
"","null","html-keyboard-response","288","777033","0.0-53.0-0.5","SS1613174895657","","","null","","","","","<p><img src= images/blank.png width =""200"" height = ""200"" style = ""float:right""></p><p><img src=images/blank.png width =""800"" height = ""200""></p>","","","","","","","","","","","",""
"","3869.0050000004703","sequential-stimulus-presentation","289","781722","0.0-53.0-1.5","SS1613174895657","trial","","40","800","4669.00500000047","images/stimuli/spore_stims/complex_12_B_b.gif","images/stimuli/spore_stims/complex_12_A_b.gif","","","","","15","complex_similar","images/stimuli/spore_stims/complex_12_A_b.gif","left","","","","",""
"","null","html-keyboard-response","290","782948","0.0-53.0-0.6","SS1613174895657","","","null","","","","","<p><img src= images/blank.png width =""200"" height = ""200"" style = ""float:right""></p><p><img src=images/blank.png width =""800"" height = ""200""></p>","","","","","","","","","","","",""
"","977.5050000025658","sequential-stimulus-presentation","291","784745","0.0-53.0-1.6","SS1613174895657","trial","","40","800","1777.5050000025658","images/stimuli/spore_stims/complex_12_B_b.gif","images/stimuli/spore_stims/complex_12_A_b.gif","","","","","15","complex_similar","images/stimuli/spore_stims/complex_12_A_b.gif","left","","","","",""
"","null","html-keyboard-response","292","785641","0.0-53.0-0.7","SS1613174895657","","","null","","","","","<p><img src= images/blank.png width =""200"" height = ""200"" style = ""float:right""></p><p><img src=images/blank.png width =""800"" height = ""200""></p>","","","","","","","","","","","",""
"","2848.005000007106","sequential-stimulus-presentation","293","789320","0.0-53.0-1.7","SS1613174895657","trial","","40","800","3648.005000007106","images/stimuli/spore_stims/complex_12_B_b.gif","images/stimuli/spore_stims/complex_12_A_b.gif","","","","","15","complex_similar","images/stimuli/spore_stims/complex_12_A_b.gif","left","","","","",""
"","4792.854999992414","html-keyboard-response","294","794136","0.0-54.0","SS1613174895657","pref_question","","97","","","","","<video width ='960' height = '540' style='padding-top:8%' autoplay muted><source src='images/stimuli/wall_pref.mp4' type='video/mp4'></video>","1","left","25%","15","","","","","","","",""
"","678.539999993518","sequential-stimulus-presentation","295","795638","0.0-55.0","SS1613174895657","pref_reveal","","40","800","1478.539999993518","null","null","","","","","15","","","","background","","","",""
"","null","html-keyboard-response","296","796757","0.0-56.0-0.0","SS1613174895657","","","null","","","","","<p><img src= images/blank.png width =""200"" height = ""200"" style = ""float:right""></p><p><img src=images/blank.png width =""800"" height = ""200""></p>","","","","","","","","","","","",""
"","1104.4200000033015","sequential-stimulus-presentation","297","798678","0.0-56.0-1.0","SS1613174895657","trial","","40","800","1904.4200000033015","images/stimuli/spore_stims/complex_15_A_c.gif","images/stimuli/spore_stims/complex_13_A_a.gif","","","","","16","complex_dissimilar","images/stimuli/spore_stims/complex_13_A_a.gif","left","","","","",""
"","null","html-keyboard-response","298","799908","0.0-56.0-0.1","SS1613174895657","","","null","","","","","<p><img src= images/blank.png width =""200"" height = ""200"" style = ""float:right""></p><p><img src=images/blank.png width =""800"" height = ""200""></p>","","","","","","","","","","","",""
"","91.30000000004657","sequential-stimulus-presentation","299","800829","0.0-56.0-1.1","SS1613174895657","trial","","40","800","891.3000000000466","images/stimuli/spore_stims/complex_15_A_c.gif","images/stimuli/spore_stims/complex_13_A_a.gif","","","","","16","complex_dissimilar","images/stimuli/spore_stims/complex_13_A_a.gif","left","","","","",""
"","null","html-keyboard-response","300","801921","0.0-56.0-0.2","SS1613174895657","","","null","","","","","<p><img src= images/blank.png width =""200"" height = ""200"" style = ""float:right""></p><p><img src=images/blank.png width =""800"" height = ""200""></p>","","","","","","","","","","","",""
"","575.2000000065891","sequential-stimulus-presentation","301","803325","0.0-56.0-1.2","SS1613174895657","trial","","40","800","1375.200000006589","images/stimuli/spore_stims/complex_15_A_c.gif","images/stimuli/spore_stims/complex_13_A_a.gif","","","","","16","complex_dissimilar","images/stimuli/spore_stims/complex_13_A_a.gif","left","","","","",""
"","null","html-keyboard-response","302","804535","0.0-56.0-0.3","SS1613174895657","","","null","","","","","<p><img src= images/blank.png width =""200"" height = ""200"" style = ""float:right""></p><p><img src=images/blank.png width =""800"" height = ""200""></p>","","","","","","","","","","","",""
"","1549.4850000104634","sequential-stimulus-presentation","303","806901","0.0-56.0-1.3","SS1613174895657","trial","","40","800","2349.4850000104634","images/stimuli/spore_stims/complex_15_A_c.gif","images/stimuli/spore_stims/complex_13_A_a.gif","","","","","16","complex_dissimilar","images/stimuli/spore_stims/complex_13_A_a.gif","left","","","","",""
"","null","html-keyboard-response","304","808095","0.0-56.0-0.4","SS1613174895657","","","null","","","","","<p><img src= images/blank.png width =""200"" height = ""200"" style = ""float:right""></p><p><img src=images/blank.png width =""800"" height = ""200""></p>","","","","","","","","","","","",""
"","1360.7749999937369","sequential-stimulus-presentation","305","810300","0.0-56.0-1.4","SS1613174895657","trial","","40","800","2160.774999993737","images/stimuli/spore_stims/complex_15_A_c.gif","images/stimuli/spore_stims/complex_13_A_a.gif","","","","","16","complex_dissimilar","images/stimuli/spore_stims/complex_13_A_a.gif","left","","","","",""
"","null","html-keyboard-response","306","811481","0.0-56.0-0.5","SS1613174895657","","","null","","","","","<p><img src= images/blank.png width =""200"" height = ""200"" style = ""float:right""></p><p><img src=images/blank.png width =""800"" height = ""200""></p>","","","","","","","","","","","",""
"","1055.1699999923585","sequential-stimulus-presentation","307","813387","0.0-56.0-1.5","SS1613174895657","trial","","40","800","1855.1699999923585","images/stimuli/spore_stims/complex_15_A_c.gif","images/stimuli/spore_stims/complex_13_A_a.gif","","","","","16","complex_dissimilar","images/stimuli/spore_stims/complex_13_A_a.gif","left","","","","",""
"","null","html-keyboard-response","308","814350","0.0-56.0-0.6","SS1613174895657","","","null","","","","","<p><img src= images/blank.png width =""200"" height = ""200"" style = ""float:right""></p><p><img src=images/blank.png width =""800"" height = ""200""></p>","","","","","","","","","","","",""
"","549.8950000037439","sequential-stimulus-presentation","309","815723","0.0-56.0-1.6","SS1613174895657","trial","","40","800","1349.895000003744","images/stimuli/spore_stims/complex_15_A_c.gif","images/stimuli/spore_stims/complex_13_A_a.gif","","","","","16","complex_dissimilar","images/stimuli/spore_stims/complex_13_A_a.gif","left","","","","",""
"","null","html-keyboard-response","310","816717","0.0-56.0-0.7","SS1613174895657","","","null","","","","","<p><img src= images/blank.png width =""200"" height = ""200"" style = ""float:right""></p><p><img src=images/blank.png width =""800"" height = ""200""></p>","","","","","","","","","","","",""
"","2680.3649999928894","sequential-stimulus-presentation","311","820225","0.0-56.0-1.7","SS1613174895657","trial","","40","800","3480.3649999928894","images/stimuli/spore_stims/complex_15_A_c.gif","images/stimuli/spore_stims/complex_13_A_a.gif","","","","","16","complex_dissimilar","images/stimuli/spore_stims/complex_15_A_c.gif","right","","","","",""
