"view_history","rt","trial_type","trial_index","time_elapsed","internal_node_id","subject","stimulus_type","trial_stimulus","key_press","minimum_viewing_duration","trial_looking_time","block_deviant","block_background","stimulus","wall_pref","location","location_percent","block_number","block_type","stimulus_displayed","position_displayed","stim_type_selected","responses","question_order","stimulus_left","stimulus_right"
"[{""page_index"":0,""viewing_time"":2321.349999998347}]","2322.150000007241","instructions","0","2326","0.0-0.0","SS1613102370946","","","","","","","","","","","","","","","","","","","",""
"[{""page_index"":0,""viewing_time"":1313.9850000006845},{""page_index"":1,""viewing_time"":2136.0399999975925}]","3450.475000005099","instructions","1","7781","0.0-1.0","SS1613102370946","instructions","","","","","","","","","","","","","","","","","","",""
"","4314.335000002757","sequential-stimulus-presentation","2","12909","0.0-2.0","SS1613102370946","","","40","800","5114.335000002757","null","null","","","","","","","","","","","","",""
"","101.34999999718275","sequential-stimulus-presentation","3","13817","0.0-3.0","SS1613102370946","","","40","800","901.3499999971827","null","null","","","","","","","","","","","","",""
"[{""page_index"":0,""viewing_time"":3930.1049999921815}]","3930.5400000012014","instructions","4","17749","0.0-4.0","SS1613102370946","instructions","","","","","","","","","","","","","","","","","","",""
"","3125.2799999929266","html-keyboard-response","5","20881","0.0-5.0","SS1613102370946","instructions","","98","","","","","<video width ='960' height = '540' autoplay muted><source src='images/stimuli/wall_pref.mp4' type='video/mp4'></video>","2","middle","45%","","","","","","","","",""
"","2172.1750000142492","sequential-stimulus-presentation","6","23865","0.0-6.0","SS1613102370946","pref_reveal","","40","800","2972.1750000142492","null","null","","","","","","","","","","","","",""
"[{""page_index"":0,""viewing_time"":2545.7949999981793},{""page_index"":1,""viewing_time"":528.0400000046939},{""page_index"":2,""viewing_time"":952.3150000022724},{""page_index"":3,""viewing_time"":855.6899999966845}]","4882.299999997485","instructions","7","28750","0.0-7.0","SS1613102370946","instructions","","","","","","","","","","","","","","","","","","",""
"","null","html-keyboard-response","8","29639","0.0-8.0-0.0","SS1613102370946","","","null","","","","","<p><img src= images/blank.png width =""200"" height = ""200"" style = ""float:right""></p><p><img src=images/blank.png width =""800"" height = ""200""></p>","","","","","","","","","","","",""
"","2248.2549999986077","sequential-stimulus-presentation","9","32697","0.0-8.0-1.0","SS1613102370946","trial","","40","800","3048.2549999986077","images/stimuli/spore_stims/complex_03_A_b.gif","images/stimuli/spore_stims/complex_05_A_c.gif","","","","","0","complex_dissimilar","images/stimuli/spore_stims/complex_05_A_c.gif","right","","","","",""
"","null","html-keyboard-response","10","33999","0.0-8.0-0.1","SS1613102370946","","","null","","","","","<p><img src= images/blank.png width =""200"" height = ""200"" style = ""float:right""></p><p><img src=images/blank.png width =""800"" height = ""200""></p>","","","","","","","","","","","",""
"","1343.8650000025518","sequential-stimulus-presentation","11","36152","0.0-8.0-1.1","SS1613102370946","trial","","40","800","2143.865000002552","images/stimuli/spore_stims/complex_03_A_b.gif","images/stimuli/spore_stims/complex_05_A_c.gif","","","","","0","complex_dissimilar","images/stimuli/spore_stims/complex_05_A_c.gif","right","","","","",""
"","null","html-keyboard-response","12","37312","0.0-8.0-0.2","SS1613102370946","","","null","","","","","<p><img src= images/blank.png width =""200"" height = ""200"" style = ""float:right""></p><p><img src=images/blank.png width =""800"" height = ""200""></p>","","","","","","","","","","","",""
"","660.440000006929","sequential-stimulus-presentation","13","38785","0.0-8.0-1.2","SS1613102370946","trial","","40","800","1460.440000006929","images/stimuli/spore_stims/complex_03_A_b.gif","images/stimuli/spore_stims/complex_05_A_c.gif","","","","","0","complex_dissimilar","images/stimuli/spore_stims/complex_05_A_c.gif","right","","","","",""
"","null","html-keyboard-response","14","39883","0.0-8.0-0.3","SS1613102370946","","","null","","","","","<p><img src= images/blank.png width =""200"" height = ""200"" style = ""float:right""></p><p><img src=images/blank.png width =""800"" height = ""200""></p>","","","","","","","","","","","",""
"","171.95999999239575","sequential-stimulus-presentation","15","40864","0.0-8.0-1.3","SS1613102370946","trial","","40","800","971.9599999923958","images/stimuli/spore_stims/complex_03_A_b.gif","images/stimuli/spore_stims/complex_05_A_c.gif","","","","","0","complex_dissimilar","images/stimuli/spore_stims/complex_03_A_b.gif","left","","","","",""
"","null","html-keyboard-response","16","42066","0.0-8.0-0.4","SS1613102370946","","","null","","","","","<p><img src= images/blank.png width =""200"" height = ""200"" style = ""float:right""></p><p><img src=images/blank.png width =""800"" height = ""200""></p>","","","","","","","","","","","",""
"","437.37999998847954","sequential-stimulus-presentation","17","43312","0.0-8.0-1.4","SS1613102370946","trial","","40","800","1237.3799999884795","images/stimuli/spore_stims/complex_03_A_b.gif","images/stimuli/spore_stims/complex_05_A_c.gif","","","","","0","complex_dissimilar","images/stimuli/spore_stims/complex_05_A_c.gif","right","","","","",""
"","null","html-keyboard-response","18","44250","0.0-8.0-0.5","SS1613102370946","","","null","","","","","<p><img src= images/blank.png width =""200"" height = ""200"" style = ""float:right""></p><p><img src=images/blank.png width =""800"" height = ""200""></p>","","","","","","","","","","","",""
"","655.3299999941373","sequential-stimulus-presentation","19","45713","0.0-8.0-1.5","SS1613102370946","trial","","40","800","1455.3299999941373","images/stimuli/spore_stims/complex_03_A_b.gif","images/stimuli/spore_stims/complex_05_A_c.gif","","","","","0","complex_dissimilar","images/stimuli/spore_stims/complex_05_A_c.gif","right","","","","",""
"","null","html-keyboard-response","20","46941","0.0-8.0-0.6","SS1613102370946","","","null","","","","","<p><img src= images/blank.png width =""200"" height = ""200"" style = ""float:right""></p><p><img src=images/blank.png width =""800"" height = ""200""></p>","","","","","","","","","","","",""
"","520.9549999999581","sequential-stimulus-presentation","21","48272","0.0-8.0-1.6","SS1613102370946","trial","","40","800","1320.954999999958","images/stimuli/spore_stims/complex_03_A_b.gif","images/stimuli/spore_stims/complex_05_A_c.gif","","","","","0","complex_dissimilar","images/stimuli/spore_stims/complex_05_A_c.gif","right","","","","",""
"","null","html-keyboard-response","22","49539","0.0-8.0-0.7","SS1613102370946","","","null","","","","","<p><img src= images/blank.png width =""200"" height = ""200"" style = ""float:right""></p><p><img src=images/blank.png width =""800"" height = ""200""></p>","","","","","","","","","","","",""
"","1174.1750000073807","sequential-stimulus-presentation","23","51520","0.0-8.0-1.7","SS1613102370946","trial","","40","800","1974.1750000073807","images/stimuli/spore_stims/complex_03_A_b.gif","images/stimuli/spore_stims/complex_05_A_c.gif","","","","","0","complex_dissimilar","images/stimuli/spore_stims/complex_05_A_c.gif","right","","","","",""
"","3113.905000005616","html-keyboard-response","24","54641","0.0-9.0","SS1613102370946","pref_question","","99","","","","","<video width ='960' height = '540' style='padding-top:8%' autoplay muted><source src='images/stimuli/wall_pref.mp4' type='video/mp4'></video>","3","right","66%","0","","","","","","","",""
"","6.52500000433065","sequential-stimulus-presentation","25","55456","0.0-10.0","SS1613102370946","pref_reveal","","40","800","806.5250000043306","null","null","","","","","0","","","","background","","","",""
"","null","html-keyboard-response","26","56299","0.0-11.0-0.0","SS1613102370946","","","null","","","","","<p><img src= images/blank.png width =""200"" height = ""200"" style = ""float:right""></p><p><img src=images/blank.png width =""800"" height = ""200""></p>","","","","","","","","","","","",""
"","572.3049999942305","sequential-stimulus-presentation","27","57680","0.0-11.0-1.0","SS1613102370946","trial","","40","800","1372.3049999942305","images/stimuli/spore_stims/complex_15_B_c.gif","images/stimuli/spore_stims/complex_09_B_c.gif","","","","","1","complex_dissimilar","images/stimuli/spore_stims/complex_09_B_c.gif","right","","","","",""
"","null","html-keyboard-response","28","58935","0.0-11.0-0.1","SS1613102370946","","","null","","","","","<p><img src= images/blank.png width =""200"" height = ""200"" style = ""float:right""></p><p><img src=images/blank.png width =""800"" height = ""200""></p>","","","","","","","","","","","",""
"","1023.9000000001397","sequential-stimulus-presentation","29","60776","0.0-11.0-1.1","SS1613102370946","trial","","40","800","1823.9000000001397","images/stimuli/spore_stims/complex_15_B_c.gif","images/stimuli/spore_stims/complex_09_B_c.gif","","","","","1","complex_dissimilar","images/stimuli/spore_stims/complex_09_B_c.gif","right","","","","",""
"","null","html-keyboard-response","30","61689","0.0-11.0-0.2","SS1613102370946","","","null","","","","","<p><img src= images/blank.png width =""200"" height = ""200"" style = ""float:right""></p><p><img src=images/blank.png width =""800"" height = ""200""></p>","","","","","","","","","","","",""
"","566.3999999960652","sequential-stimulus-presentation","31","63063","0.0-11.0-1.2","SS1613102370946","trial","","40","800","1366.3999999960652","images/stimuli/spore_stims/complex_15_B_c.gif","images/stimuli/spore_stims/complex_09_B_c.gif","","","","","1","complex_dissimilar","images/stimuli/spore_stims/complex_09_B_c.gif","right","","","","",""
"","null","html-keyboard-response","32","63896","0.0-11.0-0.3","SS1613102370946","","","null","","","","","<p><img src= images/blank.png width =""200"" height = ""200"" style = ""float:right""></p><p><img src=images/blank.png width =""800"" height = ""200""></p>","","","","","","","","","","","",""
"","544.0949999901932","sequential-stimulus-presentation","33","65248","0.0-11.0-1.3","SS1613102370946","trial","","40","800","1344.0949999901932","images/stimuli/spore_stims/complex_15_B_c.gif","images/stimuli/spore_stims/complex_09_B_c.gif","","","","","1","complex_dissimilar","images/stimuli/spore_stims/complex_09_B_c.gif","right","","","","",""
"","null","html-keyboard-response","34","66487","0.0-11.0-0.4","SS1613102370946","","","null","","","","","<p><img src= images/blank.png width =""200"" height = ""200"" style = ""float:right""></p><p><img src=images/blank.png width =""800"" height = ""200""></p>","","","","","","","","","","","",""
"","345.12999998696614","sequential-stimulus-presentation","35","67639","0.0-11.0-1.4","SS1613102370946","trial","","40","800","1145.1299999869661","images/stimuli/spore_stims/complex_15_B_c.gif","images/stimuli/spore_stims/complex_09_B_c.gif","","","","","1","complex_dissimilar","images/stimuli/spore_stims/complex_09_B_c.gif","right","","","","",""
"","null","html-keyboard-response","36","68549","0.0-11.0-0.5","SS1613102370946","","","null","","","","","<p><img src= images/blank.png width =""200"" height = ""200"" style = ""float:right""></p><p><img src=images/blank.png width =""800"" height = ""200""></p>","","","","","","","","","","","",""
"","377.34500000078697","sequential-stimulus-presentation","37","69744","0.0-11.0-1.5","SS1613102370946","trial","","40","800","1177.345000000787","images/stimuli/spore_stims/complex_15_B_c.gif","images/stimuli/spore_stims/complex_09_B_c.gif","","","","","1","complex_dissimilar","images/stimuli/spore_stims/complex_09_B_c.gif","right","","","","",""
"","null","html-keyboard-response","38","70622","0.0-11.0-0.6","SS1613102370946","","","null","","","","","<p><img src= images/blank.png width =""200"" height = ""200"" style = ""float:right""></p><p><img src=images/blank.png width =""800"" height = ""200""></p>","","","","","","","","","","","",""
"","494.78500000259373","sequential-stimulus-presentation","39","71927","0.0-11.0-1.6","SS1613102370946","trial","","40","800","1294.7850000025937","images/stimuli/spore_stims/complex_15_B_c.gif","images/stimuli/spore_stims/complex_09_B_c.gif","","","","","1","complex_dissimilar","images/stimuli/spore_stims/complex_09_B_c.gif","right","","","","",""
"","null","html-keyboard-response","40","73084","0.0-11.0-0.7","SS1613102370946","","","null","","","","","<p><img src= images/blank.png width =""200"" height = ""200"" style = ""float:right""></p><p><img src=images/blank.png width =""800"" height = ""200""></p>","","","","","","","","","","","",""
"","763.9100000087637","sequential-stimulus-presentation","41","74658","0.0-11.0-1.7","SS1613102370946","trial","","40","800","1563.9100000087637","images/stimuli/spore_stims/complex_15_B_c.gif","images/stimuli/spore_stims/complex_09_B_c.gif","","","","","1","complex_dissimilar","images/stimuli/spore_stims/complex_15_B_c.gif","middle","","","","",""
"","1528.730000005453","html-keyboard-response","42","76193","0.0-12.0","SS1613102370946","pref_question","","98","","","","","<video width ='960' height = '540' style='padding-top:8%' autoplay muted><source src='images/stimuli/wall_pref.mp4' type='video/mp4'></video>","2","middle","45%","1","","","","","","","",""
"","143.3099999994738","sequential-stimulus-presentation","43","77145","0.0-13.0","SS1613102370946","pref_reveal","","40","800","943.3099999994738","null","null","","","","","1","","","","deviant","","","",""
"","null","html-keyboard-response","44","78088","0.0-14.0-0.0","SS1613102370946","","","null","","","","","<p><img src= images/blank.png width =""200"" height = ""200"" style = ""float:right""></p><p><img src=images/blank.png width =""800"" height = ""200""></p>","","","","","","","","","","","",""
"","547.9199999972479","sequential-stimulus-presentation","45","79448","0.0-14.0-1.0","SS1613102370946","trial","","40","800","1347.919999997248","images/stimuli/spore_stims/complex_17_A_b.gif","images/stimuli/spore_stims/complex_07_B_a.gif","","","","","2","complex_dissimilar","images/stimuli/spore_stims/complex_07_B_a.gif","left","","","","",""
"","null","html-keyboard-response","46","80358","0.0-14.0-0.1","SS1613102370946","","","null","","","","","<p><img src= images/blank.png width =""200"" height = ""200"" style = ""float:right""></p><p><img src=images/blank.png width =""800"" height = ""200""></p>","","","","","","","","","","","",""
"","506.58000000112224","sequential-stimulus-presentation","47","81673","0.0-14.0-1.1","SS1613102370946","trial","","40","800","1306.5800000011222","images/stimuli/spore_stims/complex_17_A_b.gif","images/stimuli/spore_stims/complex_07_B_a.gif","","","","","2","complex_dissimilar","images/stimuli/spore_stims/complex_07_B_a.gif","left","","","","",""
"","null","html-keyboard-response","48","82866","0.0-14.0-0.2","SS1613102370946","","","null","","","","","<p><img src= images/blank.png width =""200"" height = ""200"" style = ""float:right""></p><p><img src=images/blank.png width =""800"" height = ""200""></p>","","","","","","","","","","","",""
"","588.1400000071153","sequential-stimulus-presentation","49","84264","0.0-14.0-1.2","SS1613102370946","trial","","40","800","1388.1400000071153","images/stimuli/spore_stims/complex_17_A_b.gif","images/stimuli/spore_stims/complex_07_B_a.gif","","","","","2","complex_dissimilar","images/stimuli/spore_stims/complex_17_A_b.gif","right","","","","",""
"","null","html-keyboard-response","50","85522","0.0-14.0-0.3","SS1613102370946","","","null","","","","","<p><img src= images/blank.png width =""200"" height = ""200"" style = ""float:right""></p><p><img src=images/blank.png width =""800"" height = ""200""></p>","","","","","","","","","","","",""
"","783.2049999997253","sequential-stimulus-presentation","51","87156","0.0-14.0-1.3","SS1613102370946","trial","","40","800","1583.2049999997253","images/stimuli/spore_stims/complex_17_A_b.gif","images/stimuli/spore_stims/complex_07_B_a.gif","","","","","2","complex_dissimilar","images/stimuli/spore_stims/complex_07_B_a.gif","left","","","","",""
"","null","html-keyboard-response","52","88264","0.0-14.0-0.4","SS1613102370946","","","null","","","","","<p><img src= images/blank.png width =""200"" height = ""200"" style = ""float:right""></p><p><img src=images/blank.png width =""800"" height = ""200""></p>","","","","","","","","","","","",""
"","632.9050000058487","sequential-stimulus-presentation","53","89705","0.0-14.0-1.4","SS1613102370946","trial","","40","800","1432.9050000058487","images/stimuli/spore_stims/complex_17_A_b.gif","images/stimuli/spore_stims/complex_07_B_a.gif","","","","","2","complex_dissimilar","images/stimuli/spore_stims/complex_07_B_a.gif","left","","","","",""
"","null","html-keyboard-response","54","90747","0.0-14.0-0.5","SS1613102370946","","","null","","","","","<p><img src= images/blank.png width =""200"" height = ""200"" style = ""float:right""></p><p><img src=images/blank.png width =""800"" height = ""200""></p>","","","","","","","","","","","",""
"","393.8099999941187","sequential-stimulus-presentation","55","91952","0.0-14.0-1.5","SS1613102370946","trial","","40","800","1193.8099999941187","images/stimuli/spore_stims/complex_17_A_b.gif","images/stimuli/spore_stims/complex_07_B_a.gif","","","","","2","complex_dissimilar","images/stimuli/spore_stims/complex_07_B_a.gif","left","","","","",""
"","null","html-keyboard-response","56","93054","0.0-14.0-0.6","SS1613102370946","","","null","","","","","<p><img src= images/blank.png width =""200"" height = ""200"" style = ""float:right""></p><p><img src=images/blank.png width =""800"" height = ""200""></p>","","","","","","","","","","","",""
"","57.62000000686385","sequential-stimulus-presentation","57","93921","0.0-14.0-1.6","SS1613102370946","trial","","40","800","857.6200000068638","images/stimuli/spore_stims/complex_17_A_b.gif","images/stimuli/spore_stims/complex_07_B_a.gif","","","","","2","complex_dissimilar","images/stimuli/spore_stims/complex_07_B_a.gif","left","","","","",""
"","null","html-keyboard-response","58","94868","0.0-14.0-0.7","SS1613102370946","","","null","","","","","<p><img src= images/blank.png width =""200"" height = ""200"" style = ""float:right""></p><p><img src=images/blank.png width =""800"" height = ""200""></p>","","","","","","","","","","","",""
"","4.560000001220033","sequential-stimulus-presentation","59","95681","0.0-14.0-1.7","SS1613102370946","trial","","40","800","804.56000000122","images/stimuli/spore_stims/complex_17_A_b.gif","images/stimuli/spore_stims/complex_07_B_a.gif","","","","","2","complex_dissimilar","images/stimuli/spore_stims/complex_07_B_a.gif","left","","","","",""
"","1554.839999997057","html-keyboard-response","60","97251","0.0-15.0","SS1613102370946","pref_question","","97","","","","","<video width ='960' height = '540' style='padding-top:8%' autoplay muted><source src='images/stimuli/wall_pref.mp4' type='video/mp4'></video>","1","left","25%","2","","","","","","","",""
"","173.86999999871477","sequential-stimulus-presentation","61","98242","0.0-16.0","SS1613102370946","pref_reveal","","40","800","973.8699999987148","null","null","","","","","2","","","","background","","","",""
"","null","html-keyboard-response","62","99272","0.0-17.0-0.0","SS1613102370946","","","null","","","","","<p><img src= images/blank.png width =""200"" height = ""200"" style = ""float:right""></p><p><img src=images/blank.png width =""800"" height = ""200""></p>","","","","","","","","","","","",""
"","830.2100000000792","sequential-stimulus-presentation","63","100912","0.0-17.0-1.0","SS1613102370946","trial","","40","800","1630.2100000000792","images/stimuli/spore_stims/complex_11_B_d.gif","images/stimuli/spore_stims/complex_05_B_a.gif","","","","","3","complex_dissimilar","images/stimuli/spore_stims/complex_05_B_a.gif","left","","","","",""
"","null","html-keyboard-response","64","101937","0.0-17.0-0.1","SS1613102370946","","","null","","","","","<p><img src= images/blank.png width =""200"" height = ""200"" style = ""float:right""></p><p><img src=images/blank.png width =""800"" height = ""200""></p>","","","","","","","","","","","",""
"","1420.7200000091689","sequential-stimulus-presentation","65","104171","0.0-17.0-1.1","SS1613102370946","trial","","40","800","2220.720000009169","images/stimuli/spore_stims/complex_11_B_d.gif","images/stimuli/spore_stims/complex_05_B_a.gif","","","","","3","complex_dissimilar","images/stimuli/spore_stims/complex_05_B_a.gif","left","","","","",""
"","null","html-keyboard-response","66","105146","0.0-17.0-0.2","SS1613102370946","","","null","","","","","<p><img src= images/blank.png width =""200"" height = ""200"" style = ""float:right""></p><p><img src=images/blank.png width =""800"" height = ""200""></p>","","","","","","","","","","","",""
"","2971.990000005462","sequential-stimulus-presentation","67","108936","0.0-17.0-1.2","SS1613102370946","trial","","40","800","3771.990000005462","images/stimuli/spore_stims/complex_11_B_d.gif","images/stimuli/spore_stims/complex_05_B_a.gif","","","","","3","complex_dissimilar","images/stimuli/spore_stims/complex_05_B_a.gif","left","","","","",""
"","null","html-keyboard-response","68","110061","0.0-17.0-0.3","SS1613102370946","","","null","","","","","<p><img src= images/blank.png width =""200"" height = ""200"" style = ""float:right""></p><p><img src=images/blank.png width =""800"" height = ""200""></p>","","","","","","","","","","","",""
"","45.50999999628402","sequential-stimulus-presentation","69","110918","0.0-17.0-1.3","SS1613102370946","trial","","40","800","845.509999996284","images/stimuli/spore_stims/complex_11_B_d.gif","images/stimuli/spore_stims/complex_05_B_a.gif","","","","","3","complex_dissimilar","images/stimuli/spore_stims/complex_05_B_a.gif","left","","","","",""
"","null","html-keyboard-response","70","111985","0.0-17.0-0.4","SS1613102370946","","","null","","","","","<p><img src= images/blank.png width =""200"" height = ""200"" style = ""float:right""></p><p><img src=images/blank.png width =""800"" height = ""200""></p>","","","","","","","","","","","",""
"","1901.4750000060303","sequential-stimulus-presentation","71","114704","0.0-17.0-1.4","SS1613102370946","trial","","40","800","2701.4750000060303","images/stimuli/spore_stims/complex_11_B_d.gif","images/stimuli/spore_stims/complex_05_B_a.gif","","","","","3","complex_dissimilar","images/stimuli/spore_stims/complex_11_B_d.gif","middle","","","","",""
"","null","html-keyboard-response","72","115992","0.0-17.0-0.5","SS1613102370946","","","null","","","","","<p><img src= images/blank.png width =""200"" height = ""200"" style = ""float:right""></p><p><img src=images/blank.png width =""800"" height = ""200""></p>","","","","","","","","","","","",""
"","2789.1600000002654","sequential-stimulus-presentation","73","119593","0.0-17.0-1.5","SS1613102370946","trial","","40","800","3589.1600000002654","images/stimuli/spore_stims/complex_11_B_d.gif","images/stimuli/spore_stims/complex_05_B_a.gif","","","","","3","complex_dissimilar","images/stimuli/spore_stims/complex_05_B_a.gif","left","","","","",""
"","null","html-keyboard-response","74","120638","0.0-17.0-0.6","SS1613102370946","","","null","","","","","<p><img src= images/blank.png width =""200"" height = ""200"" style = ""float:right""></p><p><img src=images/blank.png width =""800"" height = ""200""></p>","","","","","","","","","","","",""
"","1294.9749999970663","sequential-stimulus-presentation","75","122744","0.0-17.0-1.6","SS1613102370946","trial","","40","800","2094.9749999970663","images/stimuli/spore_stims/complex_11_B_d.gif","images/stimuli/spore_stims/complex_05_B_a.gif","","","","","3","complex_dissimilar","images/stimuli/spore_stims/complex_05_B_a.gif","left","","","","",""
"","null","html-keyboard-response","76","123863","0.0-17.0-0.7","SS1613102370946","","","null","","","","","<p><img src= images/blank.png width =""200"" height = ""200"" style = ""float:right""></p><p><img src=images/blank.png width =""800"" height = ""200""></p>","","","","","","","","","","","",""
"","1862.6799999910872","sequential-stimulus-presentation","77","126535","0.0-17.0-1.7","SS1613102370946","trial","","40","800","2662.6799999910872","images/stimuli/spore_stims/complex_11_B_d.gif","images/stimuli/spore_stims/complex_05_B_a.gif","","","","","3","complex_dissimilar","images/stimuli/spore_stims/complex_05_B_a.gif","left","","","","",""
"","1776.1500000051456","html-keyboard-response","78","128320","0.0-18.0","SS1613102370946","pref_question","","97","","","","","<video width ='960' height = '540' style='padding-top:8%' autoplay muted><source src='images/stimuli/wall_pref.mp4' type='video/mp4'></video>","1","left","25%","3","","","","","","","",""
"","1310.1650000025984","sequential-stimulus-presentation","79","130441","0.0-19.0","SS1613102370946","pref_reveal","","40","800","2110.1650000025984","null","null","","","","","3","","","","background","","","",""
"","null","html-keyboard-response","80","131620","0.0-20.0-0.0","SS1613102370946","","","null","","","","","<p><img src= images/blank.png width =""200"" height = ""200"" style = ""float:right""></p><p><img src=images/blank.png width =""800"" height = ""200""></p>","","","","","","","","","","","",""
"","387.140000006184","sequential-stimulus-presentation","81","132824","0.0-20.0-1.0","SS1613102370946","trial","","40","800","1187.140000006184","images/stimuli/spore_stims/complex_02_A_d.gif","images/stimuli/spore_stims/complex_02_B_d.gif","","","","","4","complex_similar","images/stimuli/spore_stims/complex_02_B_d.gif","right","","","","",""
"","null","html-keyboard-response","82","133923","0.0-20.0-0.1","SS1613102370946","","","null","","","","","<p><img src= images/blank.png width =""200"" height = ""200"" style = ""float:right""></p><p><img src=images/blank.png width =""800"" height = ""200""></p>","","","","","","","","","","","",""
"","2144.4500000070548","sequential-stimulus-presentation","83","136880","0.0-20.0-1.1","SS1613102370946","trial","","40","800","2944.4500000070548","images/stimuli/spore_stims/complex_02_A_d.gif","images/stimuli/spore_stims/complex_02_B_d.gif","","","","","4","complex_similar","images/stimuli/spore_stims/complex_02_B_d.gif","right","","","","",""
"","null","html-keyboard-response","84","138144","0.0-20.0-0.2","SS1613102370946","","","null","","","","","<p><img src= images/blank.png width =""200"" height = ""200"" style = ""float:right""></p><p><img src=images/blank.png width =""800"" height = ""200""></p>","","","","","","","","","","","",""
"","1367.1199999953387","sequential-stimulus-presentation","85","140328","0.0-20.0-1.2","SS1613102370946","trial","","40","800","2167.1199999953387","images/stimuli/spore_stims/complex_02_A_d.gif","images/stimuli/spore_stims/complex_02_B_d.gif","","","","","4","complex_similar","images/stimuli/spore_stims/complex_02_B_d.gif","right","","","","",""
"","null","html-keyboard-response","86","141178","0.0-20.0-0.3","SS1613102370946","","","null","","","","","<p><img src= images/blank.png width =""200"" height = ""200"" style = ""float:right""></p><p><img src=images/blank.png width =""800"" height = ""200""></p>","","","","","","","","","","","",""
"","115.88499999197666","sequential-stimulus-presentation","87","142106","0.0-20.0-1.3","SS1613102370946","trial","","40","800","915.8849999919767","images/stimuli/spore_stims/complex_02_A_d.gif","images/stimuli/spore_stims/complex_02_B_d.gif","","","","","4","complex_similar","images/stimuli/spore_stims/complex_02_B_d.gif","right","","","","",""
"","null","html-keyboard-response","88","143264","0.0-20.0-0.4","SS1613102370946","","","null","","","","","<p><img src= images/blank.png width =""200"" height = ""200"" style = ""float:right""></p><p><img src=images/blank.png width =""800"" height = ""200""></p>","","","","","","","","","","","",""
"","2231.3350000040373","sequential-stimulus-presentation","89","146313","0.0-20.0-1.4","SS1613102370946","trial","","40","800","3031.3350000040373","images/stimuli/spore_stims/complex_02_A_d.gif","images/stimuli/spore_stims/complex_02_B_d.gif","","","","","4","complex_similar","images/stimuli/spore_stims/complex_02_B_d.gif","right","","","","",""
"","null","html-keyboard-response","90","147267","0.0-20.0-0.5","SS1613102370946","","","null","","","","","<p><img src= images/blank.png width =""200"" height = ""200"" style = ""float:right""></p><p><img src=images/blank.png width =""800"" height = ""200""></p>","","","","","","","","","","","",""
"","416.44499999529216","sequential-stimulus-presentation","91","148496","0.0-20.0-1.5","SS1613102370946","trial","","40","800","1216.4449999952922","images/stimuli/spore_stims/complex_02_A_d.gif","images/stimuli/spore_stims/complex_02_B_d.gif","","","","","4","complex_similar","images/stimuli/spore_stims/complex_02_A_d.gif","middle","","","","",""
"","null","html-keyboard-response","92","149481","0.0-20.0-0.6","SS1613102370946","","","null","","","","","<p><img src= images/blank.png width =""200"" height = ""200"" style = ""float:right""></p><p><img src=images/blank.png width =""800"" height = ""200""></p>","","","","","","","","","","","",""
"","532.5699999957578","sequential-stimulus-presentation","93","150824","0.0-20.0-1.6","SS1613102370946","trial","","40","800","1332.5699999957578","images/stimuli/spore_stims/complex_02_A_d.gif","images/stimuli/spore_stims/complex_02_B_d.gif","","","","","4","complex_similar","images/stimuli/spore_stims/complex_02_B_d.gif","right","","","","",""
"","null","html-keyboard-response","94","152010","0.0-20.0-0.7","SS1613102370946","","","null","","","","","<p><img src= images/blank.png width =""200"" height = ""200"" style = ""float:right""></p><p><img src=images/blank.png width =""800"" height = ""200""></p>","","","","","","","","","","","",""
"","699.2699999973411","sequential-stimulus-presentation","95","153520","0.0-20.0-1.7","SS1613102370946","trial","","40","800","1499.269999997341","images/stimuli/spore_stims/complex_02_A_d.gif","images/stimuli/spore_stims/complex_02_B_d.gif","","","","","4","complex_similar","images/stimuli/spore_stims/complex_02_B_d.gif","right","","","","",""
"","1416.6200000036042","html-keyboard-response","96","154947","0.0-21.0","SS1613102370946","pref_question","","99","","","","","<video width ='960' height = '540' style='padding-top:8%' autoplay muted><source src='images/stimuli/wall_pref.mp4' type='video/mp4'></video>","3","right","66%","4","","","","","","","",""
"","80.91499999864027","sequential-stimulus-presentation","97","155841","0.0-22.0","SS1613102370946","pref_reveal","","40","800","880.9149999986403","null","null","","","","","4","","","","background","","","",""
"","null","html-keyboard-response","98","157145","0.0-23.0-0.0","SS1613102370946","","","null","","","","","<p><img src= images/blank.png width =""200"" height = ""200"" style = ""float:right""></p><p><img src=images/blank.png width =""800"" height = ""200""></p>","","","","","","","","","","","",""
"","0.3299999953014776","sequential-stimulus-presentation","99","157988","0.0-23.0-1.0","SS1613102370946","trial","","40","800","800.3299999953015","images/stimuli/spore_stims/complex_12_A_a.gif","images/stimuli/spore_stims/complex_08_A_d.gif","","","","","5","complex_dissimilar","images/stimuli/spore_stims/complex_08_A_d.gif","left","","","","",""
"","null","html-keyboard-response","100","159022","0.0-23.0-0.1","SS1613102370946","","","null","","","","","<p><img src= images/blank.png width =""200"" height = ""200"" style = ""float:right""></p><p><img src=images/blank.png width =""800"" height = ""200""></p>","","","","","","","","","","","",""
"","655.8650000079069","sequential-stimulus-presentation","101","160488","0.0-23.0-1.1","SS1613102370946","trial","","40","800","1455.865000007907","images/stimuli/spore_stims/complex_12_A_a.gif","images/stimuli/spore_stims/complex_08_A_d.gif","","","","","5","complex_dissimilar","images/stimuli/spore_stims/complex_08_A_d.gif","left","","","","",""
"","null","html-keyboard-response","102","161771","0.0-23.0-0.2","SS1613102370946","","","null","","","","","<p><img src= images/blank.png width =""200"" height = ""200"" style = ""float:right""></p><p><img src=images/blank.png width =""800"" height = ""200""></p>","","","","","","","","","","","",""
"","2203.7249999993946","sequential-stimulus-presentation","103","164784","0.0-23.0-1.2","SS1613102370946","trial","","40","800","3003.7249999993946","images/stimuli/spore_stims/complex_12_A_a.gif","images/stimuli/spore_stims/complex_08_A_d.gif","","","","","5","complex_dissimilar","images/stimuli/spore_stims/complex_08_A_d.gif","left","","","","",""
"","null","html-keyboard-response","104","165703","0.0-23.0-0.3","SS1613102370946","","","null","","","","","<p><img src= images/blank.png width =""200"" height = ""200"" style = ""float:right""></p><p><img src=images/blank.png width =""800"" height = ""200""></p>","","","","","","","","","","","",""
"","1260.4350000037812","sequential-stimulus-presentation","105","167776","0.0-23.0-1.3","SS1613102370946","trial","","40","800","2060.435000003781","images/stimuli/spore_stims/complex_12_A_a.gif","images/stimuli/spore_stims/complex_08_A_d.gif","","","","","5","complex_dissimilar","images/stimuli/spore_stims/complex_08_A_d.gif","left","","","","",""
"","null","html-keyboard-response","106","168773","0.0-23.0-0.4","SS1613102370946","","","null","","","","","<p><img src= images/blank.png width =""200"" height = ""200"" style = ""float:right""></p><p><img src=images/blank.png width =""800"" height = ""200""></p>","","","","","","","","","","","",""
"","1400.1600000046892","sequential-stimulus-presentation","107","170992","0.0-23.0-1.4","SS1613102370946","trial","","40","800","2200.160000004689","images/stimuli/spore_stims/complex_12_A_a.gif","images/stimuli/spore_stims/complex_08_A_d.gif","","","","","5","complex_dissimilar","images/stimuli/spore_stims/complex_08_A_d.gif","left","","","","",""
"","null","html-keyboard-response","108","172254","0.0-23.0-0.5","SS1613102370946","","","null","","","","","<p><img src= images/blank.png width =""200"" height = ""200"" style = ""float:right""></p><p><img src=images/blank.png width =""800"" height = ""200""></p>","","","","","","","","","","","",""
"","628.9749999996275","sequential-stimulus-presentation","109","173696","0.0-23.0-1.5","SS1613102370946","trial","","40","800","1428.9749999996275","images/stimuli/spore_stims/complex_12_A_a.gif","images/stimuli/spore_stims/complex_08_A_d.gif","","","","","5","complex_dissimilar","images/stimuli/spore_stims/complex_08_A_d.gif","left","","","","",""
"","null","html-keyboard-response","110","174595","0.0-23.0-0.6","SS1613102370946","","","null","","","","","<p><img src= images/blank.png width =""200"" height = ""200"" style = ""float:right""></p><p><img src=images/blank.png width =""800"" height = ""200""></p>","","","","","","","","","","","",""
"","935.4200000088895","sequential-stimulus-presentation","111","176344","0.0-23.0-1.6","SS1613102370946","trial","","40","800","1735.4200000088895","images/stimuli/spore_stims/complex_12_A_a.gif","images/stimuli/spore_stims/complex_08_A_d.gif","","","","","5","complex_dissimilar","images/stimuli/spore_stims/complex_12_A_a.gif","right","","","","",""
"","null","html-keyboard-response","112","177230","0.0-23.0-0.7","SS1613102370946","","","null","","","","","<p><img src= images/blank.png width =""200"" height = ""200"" style = ""float:right""></p><p><img src=images/blank.png width =""800"" height = ""200""></p>","","","","","","","","","","","",""
"","615.0199999974575","sequential-stimulus-presentation","113","178657","0.0-23.0-1.7","SS1613102370946","trial","","40","800","1415.0199999974575","images/stimuli/spore_stims/complex_12_A_a.gif","images/stimuli/spore_stims/complex_08_A_d.gif","","","","","5","complex_dissimilar","images/stimuli/spore_stims/complex_08_A_d.gif","left","","","","",""
"","2518.2700000004843","html-keyboard-response","114","181185","0.0-24.0","SS1613102370946","pref_question","","98","","","","","<video width ='960' height = '540' style='padding-top:8%' autoplay muted><source src='images/stimuli/wall_pref.mp4' type='video/mp4'></video>","2","middle","45%","5","","","","","","","",""
"","325.6799999944633","sequential-stimulus-presentation","115","182322","0.0-25.0","SS1613102370946","pref_reveal","","40","800","1125.6799999944633","null","null","","","","","5","","","","novel","","","",""
"","null","html-keyboard-response","116","183396","0.0-26.0-0.0","SS1613102370946","","","null","","","","","<p><img src= images/blank.png width =""200"" height = ""200"" style = ""float:right""></p><p><img src=images/blank.png width =""800"" height = ""200""></p>","","","","","","","","","","","",""
"","2159.6149999968475","sequential-stimulus-presentation","117","186368","0.0-26.0-1.0","SS1613102370946","trial","","40","800","2959.6149999968475","images/stimuli/spore_stims/complex_18_B_b.gif","images/stimuli/spore_stims/complex_18_A_b.gif","","","","","6","complex_similar","images/stimuli/spore_stims/complex_18_A_b.gif","left","","","","",""
"","null","html-keyboard-response","118","187444","0.0-26.0-0.1","SS1613102370946","","","null","","","","","<p><img src= images/blank.png width =""200"" height = ""200"" style = ""float:right""></p><p><img src=images/blank.png width =""800"" height = ""200""></p>","","","","","","","","","","","",""
"","642.970000000787","sequential-stimulus-presentation","119","188903","0.0-26.0-1.1","SS1613102370946","trial","","40","800","1442.970000000787","images/stimuli/spore_stims/complex_18_B_b.gif","images/stimuli/spore_stims/complex_18_A_b.gif","","","","","6","complex_similar","images/stimuli/spore_stims/complex_18_A_b.gif","left","","","","",""
"","null","html-keyboard-response","120","189796","0.0-26.0-0.2","SS1613102370946","","","null","","","","","<p><img src= images/blank.png width =""200"" height = ""200"" style = ""float:right""></p><p><img src=images/blank.png width =""800"" height = ""200""></p>","","","","","","","","","","","",""
"","969.3750000005821","sequential-stimulus-presentation","121","191583","0.0-26.0-1.2","SS1613102370946","trial","","40","800","1769.375000000582","images/stimuli/spore_stims/complex_18_B_b.gif","images/stimuli/spore_stims/complex_18_A_b.gif","","","","","6","complex_similar","images/stimuli/spore_stims/complex_18_A_b.gif","left","","","","",""
"","null","html-keyboard-response","122","192852","0.0-26.0-0.3","SS1613102370946","","","null","","","","","<p><img src= images/blank.png width =""200"" height = ""200"" style = ""float:right""></p><p><img src=images/blank.png width =""800"" height = ""200""></p>","","","","","","","","","","","",""
"","1079.9950000073295","sequential-stimulus-presentation","123","194745","0.0-26.0-1.3","SS1613102370946","trial","","40","800","1879.9950000073295","images/stimuli/spore_stims/complex_18_B_b.gif","images/stimuli/spore_stims/complex_18_A_b.gif","","","","","6","complex_similar","images/stimuli/spore_stims/complex_18_A_b.gif","left","","","","",""
"","null","html-keyboard-response","124","195886","0.0-26.0-0.4","SS1613102370946","","","null","","","","","<p><img src= images/blank.png width =""200"" height = ""200"" style = ""float:right""></p><p><img src=images/blank.png width =""800"" height = ""200""></p>","","","","","","","","","","","",""
"","542.8099999990081","sequential-stimulus-presentation","125","197240","0.0-26.0-1.4","SS1613102370946","trial","","40","800","1342.8099999990081","images/stimuli/spore_stims/complex_18_B_b.gif","images/stimuli/spore_stims/complex_18_A_b.gif","","","","","6","complex_similar","images/stimuli/spore_stims/complex_18_A_b.gif","left","","","","",""
"","null","html-keyboard-response","126","198417","0.0-26.0-0.5","SS1613102370946","","","null","","","","","<p><img src= images/blank.png width =""200"" height = ""200"" style = ""float:right""></p><p><img src=images/blank.png width =""800"" height = ""200""></p>","","","","","","","","","","","",""
"","431.4650000014808","sequential-stimulus-presentation","127","199659","0.0-26.0-1.5","SS1613102370946","trial","","40","800","1231.4650000014808","images/stimuli/spore_stims/complex_18_B_b.gif","images/stimuli/spore_stims/complex_18_A_b.gif","","","","","6","complex_similar","images/stimuli/spore_stims/complex_18_A_b.gif","left","","","","",""
"","null","html-keyboard-response","128","200662","0.0-26.0-0.6","SS1613102370946","","","null","","","","","<p><img src= images/blank.png width =""200"" height = ""200"" style = ""float:right""></p><p><img src=images/blank.png width =""800"" height = ""200""></p>","","","","","","","","","","","",""
"","1069.534999987809","sequential-stimulus-presentation","129","202545","0.0-26.0-1.6","SS1613102370946","trial","","40","800","1869.534999987809","images/stimuli/spore_stims/complex_18_B_b.gif","images/stimuli/spore_stims/complex_18_A_b.gif","","","","","6","complex_similar","images/stimuli/spore_stims/complex_18_A_b.gif","left","","","","",""
"","null","html-keyboard-response","130","203809","0.0-26.0-0.7","SS1613102370946","","","null","","","","","<p><img src= images/blank.png width =""200"" height = ""200"" style = ""float:right""></p><p><img src=images/blank.png width =""800"" height = ""200""></p>","","","","","","","","","","","",""
"","803.0650000000605","sequential-stimulus-presentation","131","205424","0.0-26.0-1.7","SS1613102370946","trial","","40","800","1603.0650000000605","images/stimuli/spore_stims/complex_18_B_b.gif","images/stimuli/spore_stims/complex_18_A_b.gif","","","","","6","complex_similar","images/stimuli/spore_stims/complex_18_B_b.gif","right","","","","",""
"","1309.3649999937043","html-keyboard-response","132","206745","0.0-27.0","SS1613102370946","pref_question","","97","","","","","<video width ='960' height = '540' style='padding-top:8%' autoplay muted><source src='images/stimuli/wall_pref.mp4' type='video/mp4'></video>","1","left","25%","6","","","","","","","",""
"","1660.0299999990966","sequential-stimulus-presentation","133","209216","0.0-28.0","SS1613102370946","pref_reveal","","40","800","2460.0299999990966","null","null","","","","","6","","","","background","","","",""
"","null","html-keyboard-response","134","210210","0.0-29.0-0.0","SS1613102370946","","","null","","","","","<p><img src= images/blank.png width =""200"" height = ""200"" style = ""float:right""></p><p><img src=images/blank.png width =""800"" height = ""200""></p>","","","","","","","","","","","",""
"","1234.9149999936344","sequential-stimulus-presentation","135","212256","0.0-29.0-1.0","SS1613102370946","trial","","40","800","2034.9149999936344","images/stimuli/spore_stims/simple_17_A_d.gif","images/stimuli/spore_stims/simple_17_B_d.gif","","","","","7","simple_similar","images/stimuli/spore_stims/simple_17_B_d.gif","left","","","","",""
"","null","html-keyboard-response","136","213543","0.0-29.0-0.1","SS1613102370946","","","null","","","","","<p><img src= images/blank.png width =""200"" height = ""200"" style = ""float:right""></p><p><img src=images/blank.png width =""800"" height = ""200""></p>","","","","","","","","","","","",""
"","481.2850000016624","sequential-stimulus-presentation","137","214841","0.0-29.0-1.1","SS1613102370946","trial","","40","800","1281.2850000016624","images/stimuli/spore_stims/simple_17_A_d.gif","images/stimuli/spore_stims/simple_17_B_d.gif","","","","","7","simple_similar","images/stimuli/spore_stims/simple_17_B_d.gif","left","","","","",""
"","null","html-keyboard-response","138","215926","0.0-29.0-0.2","SS1613102370946","","","null","","","","","<p><img src= images/blank.png width =""200"" height = ""200"" style = ""float:right""></p><p><img src=images/blank.png width =""800"" height = ""200""></p>","","","","","","","","","","","",""
"","1288.4699999995064","sequential-stimulus-presentation","139","218040","0.0-29.0-1.2","SS1613102370946","trial","","40","800","2088.4699999995064","images/stimuli/spore_stims/simple_17_A_d.gif","images/stimuli/spore_stims/simple_17_B_d.gif","","","","","7","simple_similar","images/stimuli/spore_stims/simple_17_B_d.gif","left","","","","",""
"","null","html-keyboard-response","140","219278","0.0-29.0-0.3","SS1613102370946","","","null","","","","","<p><img src= images/blank.png width =""200"" height = ""200"" style = ""float:right""></p><p><img src=images/blank.png width =""800"" height = ""200""></p>","","","","","","","","","","","",""
"","1232.5350000028266","sequential-stimulus-presentation","141","221328","0.0-29.0-1.3","SS1613102370946","trial","","40","800","2032.5350000028266","images/stimuli/spore_stims/simple_17_A_d.gif","images/stimuli/spore_stims/simple_17_B_d.gif","","","","","7","simple_similar","images/stimuli/spore_stims/simple_17_A_d.gif","middle","","","","",""
"","null","html-keyboard-response","142","222364","0.0-29.0-0.4","SS1613102370946","","","null","","","","","<p><img src= images/blank.png width =""200"" height = ""200"" style = ""float:right""></p><p><img src=images/blank.png width =""800"" height = ""200""></p>","","","","","","","","","","","",""
"","760.0349999993341","sequential-stimulus-presentation","143","223936","0.0-29.0-1.4","SS1613102370946","trial","","40","800","1560.034999999334","images/stimuli/spore_stims/simple_17_A_d.gif","images/stimuli/spore_stims/simple_17_B_d.gif","","","","","7","simple_similar","images/stimuli/spore_stims/simple_17_B_d.gif","left","","","","",""
"","null","html-keyboard-response","144","225034","0.0-29.0-0.5","SS1613102370946","","","null","","","","","<p><img src= images/blank.png width =""200"" height = ""200"" style = ""float:right""></p><p><img src=images/blank.png width =""800"" height = ""200""></p>","","","","","","","","","","","",""
"","57.60000000009313","sequential-stimulus-presentation","145","225905","0.0-29.0-1.5","SS1613102370946","trial","","40","800","857.6000000000931","images/stimuli/spore_stims/simple_17_A_d.gif","images/stimuli/spore_stims/simple_17_B_d.gif","","","","","7","simple_similar","images/stimuli/spore_stims/simple_17_B_d.gif","left","","","","",""
"","null","html-keyboard-response","146","227103","0.0-29.0-0.6","SS1613102370946","","","null","","","","","<p><img src= images/blank.png width =""200"" height = ""200"" style = ""float:right""></p><p><img src=images/blank.png width =""800"" height = ""200""></p>","","","","","","","","","","","",""
"","1297.420000002603","sequential-stimulus-presentation","147","229216","0.0-29.0-1.6","SS1613102370946","trial","","40","800","2097.420000002603","images/stimuli/spore_stims/simple_17_A_d.gif","images/stimuli/spore_stims/simple_17_B_d.gif","","","","","7","simple_similar","images/stimuli/spore_stims/simple_17_B_d.gif","left","","","","",""
"","null","html-keyboard-response","148","230203","0.0-29.0-0.7","SS1613102370946","","","null","","","","","<p><img src= images/blank.png width =""200"" height = ""200"" style = ""float:right""></p><p><img src=images/blank.png width =""800"" height = ""200""></p>","","","","","","","","","","","",""
"","1892.0999999972992","sequential-stimulus-presentation","149","232906","0.0-29.0-1.7","SS1613102370946","trial","","40","800","2692.099999997299","images/stimuli/spore_stims/simple_17_A_d.gif","images/stimuli/spore_stims/simple_17_B_d.gif","","","","","7","simple_similar","images/stimuli/spore_stims/simple_17_B_d.gif","left","","","","",""
"","1338.9549999992596","html-keyboard-response","150","234256","0.0-30.0","SS1613102370946","pref_question","","97","","","","","<video width ='960' height = '540' style='padding-top:8%' autoplay muted><source src='images/stimuli/wall_pref.mp4' type='video/mp4'></video>","1","left","25%","7","","","","","","","",""
"","81.9000000046799","sequential-stimulus-presentation","151","235152","0.0-31.0","SS1613102370946","pref_reveal","","40","800","881.9000000046799","null","null","","","","","7","","","","background","","","",""
"","null","html-keyboard-response","152","236331","0.0-32.0-0.0","SS1613102370946","","","null","","","","","<p><img src= images/blank.png width =""200"" height = ""200"" style = ""float:right""></p><p><img src=images/blank.png width =""800"" height = ""200""></p>","","","","","","","","","","","",""
"","2367.7199999947334","sequential-stimulus-presentation","153","239513","0.0-32.0-1.0","SS1613102370946","trial","","40","800","3167.7199999947334","images/stimuli/spore_stims/complex_04_A_c.gif","images/stimuli/spore_stims/complex_04_B_c.gif","","","","","8","complex_similar","images/stimuli/spore_stims/complex_04_B_c.gif","middle","","","","",""
"","null","html-keyboard-response","154","240633","0.0-32.0-0.1","SS1613102370946","","","null","","","","","<p><img src= images/blank.png width =""200"" height = ""200"" style = ""float:right""></p><p><img src=images/blank.png width =""800"" height = ""200""></p>","","","","","","","","","","","",""
"","1408.6949999909848","sequential-stimulus-presentation","155","242880","0.0-32.0-1.1","SS1613102370946","trial","","40","800","2208.694999990985","images/stimuli/spore_stims/complex_04_A_c.gif","images/stimuli/spore_stims/complex_04_B_c.gif","","","","","8","complex_similar","images/stimuli/spore_stims/complex_04_B_c.gif","middle","","","","",""
"","null","html-keyboard-response","156","243834","0.0-32.0-0.2","SS1613102370946","","","null","","","","","<p><img src= images/blank.png width =""200"" height = ""200"" style = ""float:right""></p><p><img src=images/blank.png width =""800"" height = ""200""></p>","","","","","","","","","","","",""
"","2202.4400000082096","sequential-stimulus-presentation","157","246856","0.0-32.0-1.2","SS1613102370946","trial","","40","800","3002.4400000082096","images/stimuli/spore_stims/complex_04_A_c.gif","images/stimuli/spore_stims/complex_04_B_c.gif","","","","","8","complex_similar","images/stimuli/spore_stims/complex_04_A_c.gif","right","","","","",""
"","null","html-keyboard-response","158","248031","0.0-32.0-0.3","SS1613102370946","","","null","","","","","<p><img src= images/blank.png width =""200"" height = ""200"" style = ""float:right""></p><p><img src=images/blank.png width =""800"" height = ""200""></p>","","","","","","","","","","","",""
"","1922.8900000016438","sequential-stimulus-presentation","159","250770","0.0-32.0-1.3","SS1613102370946","trial","","40","800","2722.890000001644","images/stimuli/spore_stims/complex_04_A_c.gif","images/stimuli/spore_stims/complex_04_B_c.gif","","","","","8","complex_similar","images/stimuli/spore_stims/complex_04_B_c.gif","middle","","","","",""
"","null","html-keyboard-response","160","252060","0.0-32.0-0.4","SS1613102370946","","","null","","","","","<p><img src= images/blank.png width =""200"" height = ""200"" style = ""float:right""></p><p><img src=images/blank.png width =""800"" height = ""200""></p>","","","","","","","","","","","",""
"","2149.909999992815","sequential-stimulus-presentation","161","255025","0.0-32.0-1.4","SS1613102370946","trial","","40","800","2949.909999992815","images/stimuli/spore_stims/complex_04_A_c.gif","images/stimuli/spore_stims/complex_04_B_c.gif","","","","","8","complex_similar","images/stimuli/spore_stims/complex_04_B_c.gif","middle","","","","",""
"","null","html-keyboard-response","162","255878","0.0-32.0-0.5","SS1613102370946","","","null","","","","","<p><img src= images/blank.png width =""200"" height = ""200"" style = ""float:right""></p><p><img src=images/blank.png width =""800"" height = ""200""></p>","","","","","","","","","","","",""
"","1887.9799999995157","sequential-stimulus-presentation","163","258582","0.0-32.0-1.5","SS1613102370946","trial","","40","800","2687.9799999995157","images/stimuli/spore_stims/complex_04_A_c.gif","images/stimuli/spore_stims/complex_04_B_c.gif","","","","","8","complex_similar","images/stimuli/spore_stims/complex_04_B_c.gif","middle","","","","",""
"","null","html-keyboard-response","164","259826","0.0-32.0-0.6","SS1613102370946","","","null","","","","","<p><img src= images/blank.png width =""200"" height = ""200"" style = ""float:right""></p><p><img src=images/blank.png width =""800"" height = ""200""></p>","","","","","","","","","","","",""
"","2064.509999996517","sequential-stimulus-presentation","165","262710","0.0-32.0-1.6","SS1613102370946","trial","","40","800","2864.509999996517","images/stimuli/spore_stims/complex_04_A_c.gif","images/stimuli/spore_stims/complex_04_B_c.gif","","","","","8","complex_similar","images/stimuli/spore_stims/complex_04_B_c.gif","middle","","","","",""
"","null","html-keyboard-response","166","263739","0.0-32.0-0.7","SS1613102370946","","","null","","","","","<p><img src= images/blank.png width =""200"" height = ""200"" style = ""float:right""></p><p><img src=images/blank.png width =""800"" height = ""200""></p>","","","","","","","","","","","",""
"","1305.9099999954924","sequential-stimulus-presentation","167","265864","0.0-32.0-1.7","SS1613102370946","trial","","40","800","2105.9099999954924","images/stimuli/spore_stims/complex_04_A_c.gif","images/stimuli/spore_stims/complex_04_B_c.gif","","","","","8","complex_similar","images/stimuli/spore_stims/complex_04_B_c.gif","middle","","","","",""
"","1343.2000000029802","html-keyboard-response","168","267224","0.0-33.0","SS1613102370946","pref_question","","98","","","","","<video width ='960' height = '540' style='padding-top:8%' autoplay muted><source src='images/stimuli/wall_pref.mp4' type='video/mp4'></video>","2","middle","45%","8","","","","","","","",""
"","71.7949999962002","sequential-stimulus-presentation","169","268112","0.0-34.0","SS1613102370946","pref_reveal","","40","800","871.7949999962002","null","null","","","","","8","","","","background","","","",""
"","null","html-keyboard-response","170","269174","0.0-35.0-0.0","SS1613102370946","","","null","","","","","<p><img src= images/blank.png width =""200"" height = ""200"" style = ""float:right""></p><p><img src=images/blank.png width =""800"" height = ""200""></p>","","","","","","","","","","","",""
"","1332.6299999898765","sequential-stimulus-presentation","171","271320","0.0-35.0-1.0","SS1613102370946","trial","","40","800","2132.6299999898765","images/stimuli/spore_stims/simple_08_B_b.gif","images/stimuli/spore_stims/simple_08_A_b.gif","","","","","9","simple_similar","images/stimuli/spore_stims/simple_08_A_b.gif","left","","","","",""
"","null","html-keyboard-response","172","272449","0.0-35.0-0.1","SS1613102370946","","","null","","","","","<p><img src= images/blank.png width =""200"" height = ""200"" style = ""float:right""></p><p><img src=images/blank.png width =""800"" height = ""200""></p>","","","","","","","","","","","",""
"","2242.420000009588","sequential-stimulus-presentation","173","275504","0.0-35.0-1.1","SS1613102370946","trial","","40","800","3042.420000009588","images/stimuli/spore_stims/simple_08_B_b.gif","images/stimuli/spore_stims/simple_08_A_b.gif","","","","","9","simple_similar","images/stimuli/spore_stims/simple_08_A_b.gif","left","","","","",""
"","null","html-keyboard-response","174","276743","0.0-35.0-0.2","SS1613102370946","","","null","","","","","<p><img src= images/blank.png width =""200"" height = ""200"" style = ""float:right""></p><p><img src=images/blank.png width =""800"" height = ""200""></p>","","","","","","","","","","","",""
"","1920.3700000070967","sequential-stimulus-presentation","175","279481","0.0-35.0-1.2","SS1613102370946","trial","","40","800","2720.3700000070967","images/stimuli/spore_stims/simple_08_B_b.gif","images/stimuli/spore_stims/simple_08_A_b.gif","","","","","9","simple_similar","images/stimuli/spore_stims/simple_08_A_b.gif","left","","","","",""
"","null","html-keyboard-response","176","280316","0.0-35.0-0.3","SS1613102370946","","","null","","","","","<p><img src= images/blank.png width =""200"" height = ""200"" style = ""float:right""></p><p><img src=images/blank.png width =""800"" height = ""200""></p>","","","","","","","","","","","",""
"","630.8350000035716","sequential-stimulus-presentation","177","281760","0.0-35.0-1.3","SS1613102370946","trial","","40","800","1430.8350000035716","images/stimuli/spore_stims/simple_08_B_b.gif","images/stimuli/spore_stims/simple_08_A_b.gif","","","","","9","simple_similar","images/stimuli/spore_stims/simple_08_B_b.gif","right","","","","",""
"","null","html-keyboard-response","178","282682","0.0-35.0-0.4","SS1613102370946","","","null","","","","","<p><img src= images/blank.png width =""200"" height = ""200"" style = ""float:right""></p><p><img src=images/blank.png width =""800"" height = ""200""></p>","","","","","","","","","","","",""
"","665.1100000017323","sequential-stimulus-presentation","179","284160","0.0-35.0-1.4","SS1613102370946","trial","","40","800","1465.1100000017323","images/stimuli/spore_stims/simple_08_B_b.gif","images/stimuli/spore_stims/simple_08_A_b.gif","","","","","9","simple_similar","images/stimuli/spore_stims/simple_08_A_b.gif","left","","","","",""
"","null","html-keyboard-response","180","285152","0.0-35.0-0.5","SS1613102370946","","","null","","","","","<p><img src= images/blank.png width =""200"" height = ""200"" style = ""float:right""></p><p><img src=images/blank.png width =""800"" height = ""200""></p>","","","","","","","","","","","",""
"","616.9450000015786","sequential-stimulus-presentation","181","286587","0.0-35.0-1.5","SS1613102370946","trial","","40","800","1416.9450000015786","images/stimuli/spore_stims/simple_08_B_b.gif","images/stimuli/spore_stims/simple_08_A_b.gif","","","","","9","simple_similar","images/stimuli/spore_stims/simple_08_A_b.gif","left","","","","",""
"","null","html-keyboard-response","182","287603","0.0-35.0-0.6","SS1613102370946","","","null","","","","","<p><img src= images/blank.png width =""200"" height = ""200"" style = ""float:right""></p><p><img src=images/blank.png width =""800"" height = ""200""></p>","","","","","","","","","","","",""
"","1052.6699999900302","sequential-stimulus-presentation","183","289472","0.0-35.0-1.6","SS1613102370946","trial","","40","800","1852.6699999900302","images/stimuli/spore_stims/simple_08_B_b.gif","images/stimuli/spore_stims/simple_08_A_b.gif","","","","","9","simple_similar","images/stimuli/spore_stims/simple_08_A_b.gif","left","","","","",""
"","null","html-keyboard-response","184","290552","0.0-35.0-0.7","SS1613102370946","","","null","","","","","<p><img src= images/blank.png width =""200"" height = ""200"" style = ""float:right""></p><p><img src=images/blank.png width =""800"" height = ""200""></p>","","","","","","","","","","","",""
"","1800.2350000024308","sequential-stimulus-presentation","185","293168","0.0-35.0-1.7","SS1613102370946","trial","","40","800","2600.2350000024308","images/stimuli/spore_stims/simple_08_B_b.gif","images/stimuli/spore_stims/simple_08_A_b.gif","","","","","9","simple_similar","images/stimuli/spore_stims/simple_08_A_b.gif","left","","","","",""
"","1467.4099999974715","html-keyboard-response","186","294648","0.0-36.0","SS1613102370946","pref_question","","97","","","","","<video width ='960' height = '540' style='padding-top:8%' autoplay muted><source src='images/stimuli/wall_pref.mp4' type='video/mp4'></video>","1","left","25%","9","","","","","","","",""
"","1084.934999991674","sequential-stimulus-presentation","187","296548","0.0-37.0","SS1613102370946","pref_reveal","","40","800","1884.934999991674","null","null","","","","","9","","","","background","","","",""
"","null","html-keyboard-response","188","297770","0.0-38.0-0.0","SS1613102370946","","","null","","","","","<p><img src= images/blank.png width =""200"" height = ""200"" style = ""float:right""></p><p><img src=images/blank.png width =""800"" height = ""200""></p>","","","","","","","","","","","",""
"","1689.3750000017462","sequential-stimulus-presentation","189","300280","0.0-38.0-1.0","SS1613102370946","trial","","40","800","2489.3750000017462","images/stimuli/spore_stims/simple_16_B_a.gif","images/stimuli/spore_stims/simple_16_A_a.gif","","","","","10","simple_similar","images/stimuli/spore_stims/simple_16_A_a.gif","left","","","","",""
"","null","html-keyboard-response","190","301526","0.0-38.0-0.1","SS1613102370946","","","null","","","","","<p><img src= images/blank.png width =""200"" height = ""200"" style = ""float:right""></p><p><img src=images/blank.png width =""800"" height = ""200""></p>","","","","","","","","","","","",""
"","1276.1650000029476","sequential-stimulus-presentation","191","303632","0.0-38.0-1.1","SS1613102370946","trial","","40","800","2076.1650000029476","images/stimuli/spore_stims/simple_16_B_a.gif","images/stimuli/spore_stims/simple_16_A_a.gif","","","","","10","simple_similar","images/stimuli/spore_stims/simple_16_A_a.gif","left","","","","",""
"","null","html-keyboard-response","192","304772","0.0-38.0-0.2","SS1613102370946","","","null","","","","","<p><img src= images/blank.png width =""200"" height = ""200"" style = ""float:right""></p><p><img src=images/blank.png width =""800"" height = ""200""></p>","","","","","","","","","","","",""
"","2658.2300000009127","sequential-stimulus-presentation","193","308248","0.0-38.0-1.2","SS1613102370946","trial","","40","800","3458.2300000009127","images/stimuli/spore_stims/simple_16_B_a.gif","images/stimuli/spore_stims/simple_16_A_a.gif","","","","","10","simple_similar","images/stimuli/spore_stims/simple_16_A_a.gif","left","","","","",""
"","null","html-keyboard-response","194","309328","0.0-38.0-0.3","SS1613102370946","","","null","","","","","<p><img src= images/blank.png width =""200"" height = ""200"" style = ""float:right""></p><p><img src=images/blank.png width =""800"" height = ""200""></p>","","","","","","","","","","","",""
"","1781.1400000064168","sequential-stimulus-presentation","195","311928","0.0-38.0-1.3","SS1613102370946","trial","","40","800","2581.140000006417","images/stimuli/spore_stims/simple_16_B_a.gif","images/stimuli/spore_stims/simple_16_A_a.gif","","","","","10","simple_similar","images/stimuli/spore_stims/simple_16_A_a.gif","left","","","","",""
"","null","html-keyboard-response","196","312740","0.0-38.0-0.4","SS1613102370946","","","null","","","","","<p><img src= images/blank.png width =""200"" height = ""200"" style = ""float:right""></p><p><img src=images/blank.png width =""800"" height = ""200""></p>","","","","","","","","","","","",""
"","5768.249999993714","sequential-stimulus-presentation","197","319329","0.0-38.0-1.4","SS1613102370946","trial","","40","800","6568.249999993714","images/stimuli/spore_stims/simple_16_B_a.gif","images/stimuli/spore_stims/simple_16_A_a.gif","","","","","10","simple_similar","images/stimuli/spore_stims/simple_16_A_a.gif","left","","","","",""
"","null","html-keyboard-response","198","320456","0.0-38.0-0.5","SS1613102370946","","","null","","","","","<p><img src= images/blank.png width =""200"" height = ""200"" style = ""float:right""></p><p><img src=images/blank.png width =""800"" height = ""200""></p>","","","","","","","","","","","",""
"","1432.5950000056764","sequential-stimulus-presentation","199","322704","0.0-38.0-1.5","SS1613102370946","trial","","40","800","2232.5950000056764","images/stimuli/spore_stims/simple_16_B_a.gif","images/stimuli/spore_stims/simple_16_A_a.gif","","","","","10","simple_similar","images/stimuli/spore_stims/simple_16_B_a.gif","right","","","","",""
"","null","html-keyboard-response","200","323673","0.0-38.0-0.6","SS1613102370946","","","null","","","","","<p><img src= images/blank.png width =""200"" height = ""200"" style = ""float:right""></p><p><img src=images/blank.png width =""800"" height = ""200""></p>","","","","","","","","","","","",""
"","1831.384999997681","sequential-stimulus-presentation","201","326320","0.0-38.0-1.6","SS1613102370946","trial","","40","800","2631.384999997681","images/stimuli/spore_stims/simple_16_B_a.gif","images/stimuli/spore_stims/simple_16_A_a.gif","","","","","10","simple_similar","images/stimuli/spore_stims/simple_16_A_a.gif","left","","","","",""
"","null","html-keyboard-response","202","327538","0.0-38.0-0.7","SS1613102370946","","","null","","","","","<p><img src= images/blank.png width =""200"" height = ""200"" style = ""float:right""></p><p><img src=images/blank.png width =""800"" height = ""200""></p>","","","","","","","","","","","",""
"","3016.0150000010617","sequential-stimulus-presentation","203","331376","0.0-38.0-1.7","SS1613102370946","trial","","40","800","3816.0150000010617","images/stimuli/spore_stims/simple_16_B_a.gif","images/stimuli/spore_stims/simple_16_A_a.gif","","","","","10","simple_similar","images/stimuli/spore_stims/simple_16_A_a.gif","left","","","","",""
"","1361.7299999896204","html-keyboard-response","204","332753","0.0-39.0","SS1613102370946","pref_question","","97","","","","","<video width ='960' height = '540' style='padding-top:8%' autoplay muted><source src='images/stimuli/wall_pref.mp4' type='video/mp4'></video>","1","left","25%","10","","","","","","","",""
"","672.7450000034878","sequential-stimulus-presentation","205","334240","0.0-40.0","SS1613102370946","pref_reveal","","40","800","1472.7450000034878","null","null","","","","","10","","","","background","","","",""
"","null","html-keyboard-response","206","335289","0.0-41.0-0.0","SS1613102370946","","","null","","","","","<p><img src= images/blank.png width =""200"" height = ""200"" style = ""float:right""></p><p><img src=images/blank.png width =""800"" height = ""200""></p>","","","","","","","","","","","",""
"","4351.800000004005","sequential-stimulus-presentation","207","340456","0.0-41.0-1.0","SS1613102370946","trial","","40","800","5151.800000004005","images/stimuli/spore_stims/simple_11_B_d.gif","images/stimuli/spore_stims/simple_11_A_d.gif","","","","","11","simple_similar","images/stimuli/spore_stims/simple_11_A_d.gif","middle","","","","",""
"","null","html-keyboard-response","208","341694","0.0-41.0-0.1","SS1613102370946","","","null","","","","","<p><img src= images/blank.png width =""200"" height = ""200"" style = ""float:right""></p><p><img src=images/blank.png width =""800"" height = ""200""></p>","","","","","","","","","","","",""
"","3659.990000000107","sequential-stimulus-presentation","209","346170","0.0-41.0-1.1","SS1613102370946","trial","","40","800","4459.990000000107","images/stimuli/spore_stims/simple_11_B_d.gif","images/stimuli/spore_stims/simple_11_A_d.gif","","","","","11","simple_similar","images/stimuli/spore_stims/simple_11_A_d.gif","middle","","","","",""
"","null","html-keyboard-response","210","347094","0.0-41.0-0.2","SS1613102370946","","","null","","","","","<p><img src= images/blank.png width =""200"" height = ""200"" style = ""float:right""></p><p><img src=images/blank.png width =""800"" height = ""200""></p>","","","","","","","","","","","",""
"","2729.844999994384","sequential-stimulus-presentation","211","350656","0.0-41.0-1.2","SS1613102370946","trial","","40","800","3529.844999994384","images/stimuli/spore_stims/simple_11_B_d.gif","images/stimuli/spore_stims/simple_11_A_d.gif","","","","","11","simple_similar","images/stimuli/spore_stims/simple_11_A_d.gif","middle","","","","",""
"","null","html-keyboard-response","212","351646","0.0-41.0-0.3","SS1613102370946","","","null","","","","","<p><img src= images/blank.png width =""200"" height = ""200"" style = ""float:right""></p><p><img src=images/blank.png width =""800"" height = ""200""></p>","","","","","","","","","","","",""
"","4075.6750000000466","sequential-stimulus-presentation","213","356545","0.0-41.0-1.3","SS1613102370946","trial","","40","800","4875.675000000047","images/stimuli/spore_stims/simple_11_B_d.gif","images/stimuli/spore_stims/simple_11_A_d.gif","","","","","11","simple_similar","images/stimuli/spore_stims/simple_11_A_d.gif","middle","","","","",""
"","null","html-keyboard-response","214","357844","0.0-41.0-0.4","SS1613102370946","","","null","","","","","<p><img src= images/blank.png width =""200"" height = ""200"" style = ""float:right""></p><p><img src=images/blank.png width =""800"" height = ""200""></p>","","","","","","","","","","","",""
"","2555.595000012545","sequential-stimulus-presentation","215","361216","0.0-41.0-1.4","SS1613102370946","trial","","40","800","3355.595000012545","images/stimuli/spore_stims/simple_11_B_d.gif","images/stimuli/spore_stims/simple_11_A_d.gif","","","","","11","simple_similar","images/stimuli/spore_stims/simple_11_B_d.gif","right","","","","",""
"","null","html-keyboard-response","216","362347","0.0-41.0-0.5","SS1613102370946","","","null","","","","","<p><img src= images/blank.png width =""200"" height = ""200"" style = ""float:right""></p><p><img src=images/blank.png width =""800"" height = ""200""></p>","","","","","","","","","","","",""
"","4061.8050000048243","sequential-stimulus-presentation","217","367225","0.0-41.0-1.5","SS1613102370946","trial","","40","800","4861.805000004824","images/stimuli/spore_stims/simple_11_B_d.gif","images/stimuli/spore_stims/simple_11_A_d.gif","","","","","11","simple_similar","images/stimuli/spore_stims/simple_11_A_d.gif","middle","","","","",""
"","null","html-keyboard-response","218","368197","0.0-41.0-0.6","SS1613102370946","","","null","","","","","<p><img src= images/blank.png width =""200"" height = ""200"" style = ""float:right""></p><p><img src=images/blank.png width =""800"" height = ""200""></p>","","","","","","","","","","","",""
"","8707.399999999325","sequential-stimulus-presentation","219","377721","0.0-41.0-1.6","SS1613102370946","trial","","40","800","9507.399999999325","images/stimuli/spore_stims/simple_11_B_d.gif","images/stimuli/spore_stims/simple_11_A_d.gif","","","","","11","simple_similar","images/stimuli/spore_stims/simple_11_A_d.gif","middle","","","","",""
"","null","html-keyboard-response","220","378968","0.0-41.0-0.7","SS1613102370946","","","null","","","","","<p><img src= images/blank.png width =""200"" height = ""200"" style = ""float:right""></p><p><img src=images/blank.png width =""800"" height = ""200""></p>","","","","","","","","","","","",""
"","913.6449999932665","sequential-stimulus-presentation","221","380697","0.0-41.0-1.7","SS1613102370946","trial","","40","800","1713.6449999932665","images/stimuli/spore_stims/simple_11_B_d.gif","images/stimuli/spore_stims/simple_11_A_d.gif","","","","","11","simple_similar","images/stimuli/spore_stims/simple_11_A_d.gif","middle","","","","",""
"","1201.9700000091689","html-keyboard-response","222","381921","0.0-42.0","SS1613102370946","pref_question","","98","","","","","<video width ='960' height = '540' style='padding-top:8%' autoplay muted><source src='images/stimuli/wall_pref.mp4' type='video/mp4'></video>","2","middle","45%","11","","","","","","","",""
"","230.64000000886153","sequential-stimulus-presentation","223","382969","0.0-43.0","SS1613102370946","pref_reveal","","40","800","1030.6400000088615","null","null","","","","","11","","","","background","","","",""
"","null","html-keyboard-response","224","384169","0.0-44.0-0.0","SS1613102370946","","","null","","","","","<p><img src= images/blank.png width =""200"" height = ""200"" style = ""float:right""></p><p><img src=images/blank.png width =""800"" height = ""200""></p>","","","","","","","","","","","",""
"","39.9500000057742","sequential-stimulus-presentation","225","385025","0.0-44.0-1.0","SS1613102370946","trial","","40","800","839.9500000057742","images/stimuli/spore_stims/simple_13_A_a.gif","images/stimuli/spore_stims/simple_13_B_a.gif","","","","","12","simple_similar","images/stimuli/spore_stims/simple_13_B_a.gif","middle","","","","",""
"","null","html-keyboard-response","226","385912","0.0-44.0-0.1","SS1613102370946","","","null","","","","","<p><img src= images/blank.png width =""200"" height = ""200"" style = ""float:right""></p><p><img src=images/blank.png width =""800"" height = ""200""></p>","","","","","","","","","","","",""
"","106.85999999986961","sequential-stimulus-presentation","227","386864","0.0-44.0-1.1","SS1613102370946","trial","","40","800","906.8599999998696","images/stimuli/spore_stims/simple_13_A_a.gif","images/stimuli/spore_stims/simple_13_B_a.gif","","","","","12","simple_similar","images/stimuli/spore_stims/simple_13_B_a.gif","middle","","","","",""
"","null","html-keyboard-response","228","388129","0.0-44.0-0.2","SS1613102370946","","","null","","","","","<p><img src= images/blank.png width =""200"" height = ""200"" style = ""float:right""></p><p><img src=images/blank.png width =""800"" height = ""200""></p>","","","","","","","","","","","",""
"","1724.7150000039255","sequential-stimulus-presentation","229","390668","0.0-44.0-1.2","SS1613102370946","trial","","40","800","2524.7150000039255","images/stimuli/spore_stims/simple_13_A_a.gif","images/stimuli/spore_stims/simple_13_B_a.gif","","","","","12","simple_similar","images/stimuli/spore_stims/simple_13_B_a.gif","middle","","","","",""
"","null","html-keyboard-response","230","391835","0.0-44.0-0.3","SS1613102370946","","","null","","","","","<p><img src= images/blank.png width =""200"" height = ""200"" style = ""float:right""></p><p><img src=images/blank.png width =""800"" height = ""200""></p>","","","","","","","","","","","",""
"","1571.7600000061793","sequential-stimulus-presentation","231","394225","0.0-44.0-1.3","SS1613102370946","trial","","40","800","2371.7600000061793","images/stimuli/spore_stims/simple_13_A_a.gif","images/stimuli/spore_stims/simple_13_B_a.gif","","","","","12","simple_similar","images/stimuli/spore_stims/simple_13_B_a.gif","middle","","","","",""
"","null","html-keyboard-response","232","395061","0.0-44.0-0.4","SS1613102370946","","","null","","","","","<p><img src= images/blank.png width =""200"" height = ""200"" style = ""float:right""></p><p><img src=images/blank.png width =""800"" height = ""200""></p>","","","","","","","","","","","",""
"","303.8149999920279","sequential-stimulus-presentation","233","396185","0.0-44.0-1.4","SS1613102370946","trial","","40","800","1103.8149999920279","images/stimuli/spore_stims/simple_13_A_a.gif","images/stimuli/spore_stims/simple_13_B_a.gif","","","","","12","simple_similar","images/stimuli/spore_stims/simple_13_A_a.gif","right","","","","",""
"","null","html-keyboard-response","234","397452","0.0-44.0-0.5","SS1613102370946","","","null","","","","","<p><img src= images/blank.png width =""200"" height = ""200"" style = ""float:right""></p><p><img src=images/blank.png width =""800"" height = ""200""></p>","","","","","","","","","","","",""
"","732.8850000048988","sequential-stimulus-presentation","235","399001","0.0-44.0-1.5","SS1613102370946","trial","","40","800","1532.8850000048988","images/stimuli/spore_stims/simple_13_A_a.gif","images/stimuli/spore_stims/simple_13_B_a.gif","","","","","12","simple_similar","images/stimuli/spore_stims/simple_13_B_a.gif","middle","","","","",""
"","null","html-keyboard-response","236","400146","0.0-44.0-0.6","SS1613102370946","","","null","","","","","<p><img src= images/blank.png width =""200"" height = ""200"" style = ""float:right""></p><p><img src=images/blank.png width =""800"" height = ""200""></p>","","","","","","","","","","","",""
"","142.12999999290332","sequential-stimulus-presentation","237","401105","0.0-44.0-1.6","SS1613102370946","trial","","40","800","942.1299999929033","images/stimuli/spore_stims/simple_13_A_a.gif","images/stimuli/spore_stims/simple_13_B_a.gif","","","","","12","simple_similar","images/stimuli/spore_stims/simple_13_B_a.gif","middle","","","","",""
"","null","html-keyboard-response","238","402281","0.0-44.0-0.7","SS1613102370946","","","null","","","","","<p><img src= images/blank.png width =""200"" height = ""200"" style = ""float:right""></p><p><img src=images/blank.png width =""800"" height = ""200""></p>","","","","","","","","","","","",""
"","893.8649999909103","sequential-stimulus-presentation","239","404000","0.0-44.0-1.7","SS1613102370946","trial","","40","800","1693.8649999909103","images/stimuli/spore_stims/simple_13_A_a.gif","images/stimuli/spore_stims/simple_13_B_a.gif","","","","","12","simple_similar","images/stimuli/spore_stims/simple_13_B_a.gif","middle","","","","",""
"","1257.194999998319","html-keyboard-response","240","405273","0.0-45.0","SS1613102370946","pref_question","","98","","","","","<video width ='960' height = '540' style='padding-top:8%' autoplay muted><source src='images/stimuli/wall_pref.mp4' type='video/mp4'></video>","2","middle","45%","12","","","","","","","",""
"","806.8900000071153","sequential-stimulus-presentation","241","406897","0.0-46.0","SS1613102370946","pref_reveal","","40","800","1606.8900000071153","null","null","","","","","12","","","","background","","","",""
"","null","html-keyboard-response","242","407898","0.0-47.0-0.0","SS1613102370946","","","null","","","","","<p><img src= images/blank.png width =""200"" height = ""200"" style = ""float:right""></p><p><img src=images/blank.png width =""800"" height = ""200""></p>","","","","","","","","","","","",""
"","1581.594999996014","sequential-stimulus-presentation","243","410296","0.0-47.0-1.0","SS1613102370946","trial","","40","800","2381.594999996014","images/stimuli/spore_stims/complex_14_B_d.gif","images/stimuli/spore_stims/complex_14_A_d.gif","","","","","13","complex_similar","images/stimuli/spore_stims/complex_14_A_d.gif","middle","","","","",""
"","null","html-keyboard-response","244","411148","0.0-47.0-0.1","SS1613102370946","","","null","","","","","<p><img src= images/blank.png width =""200"" height = ""200"" style = ""float:right""></p><p><img src=images/blank.png width =""800"" height = ""200""></p>","","","","","","","","","","","",""
"","1994.0999999962514","sequential-stimulus-presentation","245","413984","0.0-47.0-1.1","SS1613102370946","trial","","40","800","2794.0999999962514","images/stimuli/spore_stims/complex_14_B_d.gif","images/stimuli/spore_stims/complex_14_A_d.gif","","","","","13","complex_similar","images/stimuli/spore_stims/complex_14_A_d.gif","middle","","","","",""
"","null","html-keyboard-response","246","414924","0.0-47.0-0.2","SS1613102370946","","","null","","","","","<p><img src= images/blank.png width =""200"" height = ""200"" style = ""float:right""></p><p><img src=images/blank.png width =""800"" height = ""200""></p>","","","","","","","","","","","",""
"","42.79500000120606","sequential-stimulus-presentation","247","415785","0.0-47.0-1.2","SS1613102370946","trial","","40","800","842.7950000012061","images/stimuli/spore_stims/complex_14_B_d.gif","images/stimuli/spore_stims/complex_14_A_d.gif","","","","","13","complex_similar","images/stimuli/spore_stims/complex_14_A_d.gif","middle","","","","",""
"","null","html-keyboard-response","248","416998","0.0-47.0-0.3","SS1613102370946","","","null","","","","","<p><img src= images/blank.png width =""200"" height = ""200"" style = ""float:right""></p><p><img src=images/blank.png width =""800"" height = ""200""></p>","","","","","","","","","","","",""
"","1089.0250000084052","sequential-stimulus-presentation","249","418904","0.0-47.0-1.3","SS1613102370946","trial","","40","800","1889.0250000084052","images/stimuli/spore_stims/complex_14_B_d.gif","images/stimuli/spore_stims/complex_14_A_d.gif","","","","","13","complex_similar","images/stimuli/spore_stims/complex_14_B_d.gif","right","","","","",""
"","null","html-keyboard-response","250","419931","0.0-47.0-0.4","SS1613102370946","","","null","","","","","<p><img src= images/blank.png width =""200"" height = ""200"" style = ""float:right""></p><p><img src=images/blank.png width =""800"" height = ""200""></p>","","","","","","","","","","","",""
"","1724.340000000666","sequential-stimulus-presentation","251","422473","0.0-47.0-1.4","SS1613102370946","trial","","40","800","2524.340000000666","images/stimuli/spore_stims/complex_14_B_d.gif","images/stimuli/spore_stims/complex_14_A_d.gif","","","","","13","complex_similar","images/stimuli/spore_stims/complex_14_A_d.gif","middle","","","","",""
"","null","html-keyboard-response","252","423710","0.0-47.0-0.5","SS1613102370946","","","null","","","","","<p><img src= images/blank.png width =""200"" height = ""200"" style = ""float:right""></p><p><img src=images/blank.png width =""800"" height = ""200""></p>","","","","","","","","","","","",""
"","1790.2299999987008","sequential-stimulus-presentation","253","426345","0.0-47.0-1.5","SS1613102370946","trial","","40","800","2590.229999998701","images/stimuli/spore_stims/complex_14_B_d.gif","images/stimuli/spore_stims/complex_14_A_d.gif","","","","","13","complex_similar","images/stimuli/spore_stims/complex_14_A_d.gif","middle","","","","",""
"","null","html-keyboard-response","254","427524","0.0-47.0-0.6","SS1613102370946","","","null","","","","","<p><img src= images/blank.png width =""200"" height = ""200"" style = ""float:right""></p><p><img src=images/blank.png width =""800"" height = ""200""></p>","","","","","","","","","","","",""
"","66.94999999308493","sequential-stimulus-presentation","255","428408","0.0-47.0-1.6","SS1613102370946","trial","","40","800","866.9499999930849","images/stimuli/spore_stims/complex_14_B_d.gif","images/stimuli/spore_stims/complex_14_A_d.gif","","","","","13","complex_similar","images/stimuli/spore_stims/complex_14_A_d.gif","middle","","","","",""
"","null","html-keyboard-response","256","429242","0.0-47.0-0.7","SS1613102370946","","","null","","","","","<p><img src= images/blank.png width =""200"" height = ""200"" style = ""float:right""></p><p><img src=images/blank.png width =""800"" height = ""200""></p>","","","","","","","","","","","",""
"","1609.8050000000512","sequential-stimulus-presentation","257","431668","0.0-47.0-1.7","SS1613102370946","trial","","40","800","2409.805000000051","images/stimuli/spore_stims/complex_14_B_d.gif","images/stimuli/spore_stims/complex_14_A_d.gif","","","","","13","complex_similar","images/stimuli/spore_stims/complex_14_A_d.gif","middle","","","","",""
"","1302.7549999969779","html-keyboard-response","258","432986","0.0-48.0","SS1613102370946","pref_question","","98","","","","","<video width ='960' height = '540' style='padding-top:8%' autoplay muted><source src='images/stimuli/wall_pref.mp4' type='video/mp4'></video>","2","middle","45%","13","","","","","","","",""
"","322.30499999423046","sequential-stimulus-presentation","259","434130","0.0-49.0","SS1613102370946","pref_reveal","","40","800","1122.3049999942305","null","null","","","","","13","","","","background","","","",""
"","null","html-keyboard-response","260","435329","0.0-50.0-0.0","SS1613102370946","","","null","","","","","<p><img src= images/blank.png width =""200"" height = ""200"" style = ""float:right""></p><p><img src=images/blank.png width =""800"" height = ""200""></p>","","","","","","","","","","","",""
"","1373.5149999993155","sequential-stimulus-presentation","261","437520","0.0-50.0-1.0","SS1613102370946","trial","","40","800","2173.5149999993155","images/stimuli/spore_stims/simple_07_B_c.gif","images/stimuli/spore_stims/simple_18_B_c.gif","","","","","14","simple_dissimilar","images/stimuli/spore_stims/simple_18_B_c.gif","left","","","","",""
"","null","html-keyboard-response","262","438485","0.0-50.0-0.1","SS1613102370946","","","null","","","","","<p><img src= images/blank.png width =""200"" height = ""200"" style = ""float:right""></p><p><img src=images/blank.png width =""800"" height = ""200""></p>","","","","","","","","","","","",""
"","1041.0249999986263","sequential-stimulus-presentation","263","440344","0.0-50.0-1.1","SS1613102370946","trial","","40","800","1841.0249999986263","images/stimuli/spore_stims/simple_07_B_c.gif","images/stimuli/spore_stims/simple_18_B_c.gif","","","","","14","simple_dissimilar","images/stimuli/spore_stims/simple_18_B_c.gif","left","","","","",""
"","null","html-keyboard-response","264","441163","0.0-50.0-0.2","SS1613102370946","","","null","","","","","<p><img src= images/blank.png width =""200"" height = ""200"" style = ""float:right""></p><p><img src=images/blank.png width =""800"" height = ""200""></p>","","","","","","","","","","","",""
"","2142.4299999926006","sequential-stimulus-presentation","265","444121","0.0-50.0-1.2","SS1613102370946","trial","","40","800","2942.4299999926006","images/stimuli/spore_stims/simple_07_B_c.gif","images/stimuli/spore_stims/simple_18_B_c.gif","","","","","14","simple_dissimilar","images/stimuli/spore_stims/simple_18_B_c.gif","left","","","","",""
"","null","html-keyboard-response","266","445268","0.0-50.0-0.3","SS1613102370946","","","null","","","","","<p><img src= images/blank.png width =""200"" height = ""200"" style = ""float:right""></p><p><img src=images/blank.png width =""800"" height = ""200""></p>","","","","","","","","","","","",""
"","1635.034999999334","sequential-stimulus-presentation","267","447720","0.0-50.0-1.3","SS1613102370946","trial","","40","800","2435.034999999334","images/stimuli/spore_stims/simple_07_B_c.gif","images/stimuli/spore_stims/simple_18_B_c.gif","","","","","14","simple_dissimilar","images/stimuli/spore_stims/simple_18_B_c.gif","left","","","","",""
"","null","html-keyboard-response","268","448924","0.0-50.0-0.4","SS1613102370946","","","null","","","","","<p><img src= images/blank.png width =""200"" height = ""200"" style = ""float:right""></p><p><img src=images/blank.png width =""800"" height = ""200""></p>","","","","","","","","","","","",""
"","2588.724999994156","sequential-stimulus-presentation","269","452344","0.0-50.0-1.4","SS1613102370946","trial","","40","800","3388.724999994156","images/stimuli/spore_stims/simple_07_B_c.gif","images/stimuli/spore_stims/simple_18_B_c.gif","","","","","14","simple_dissimilar","images/stimuli/spore_stims/simple_07_B_c.gif","right","","","","",""
"","null","html-keyboard-response","270","453637","0.0-50.0-0.5","SS1613102370946","","","null","","","","","<p><img src= images/blank.png width =""200"" height = ""200"" style = ""float:right""></p><p><img src=images/blank.png width =""800"" height = ""200""></p>","","","","","","","","","","","",""
"","2774.970000013127","sequential-stimulus-presentation","271","457232","0.0-50.0-1.5","SS1613102370946","trial","","40","800","3574.970000013127","images/stimuli/spore_stims/simple_07_B_c.gif","images/stimuli/spore_stims/simple_18_B_c.gif","","","","","14","simple_dissimilar","images/stimuli/spore_stims/simple_18_B_c.gif","left","","","","",""
"","null","html-keyboard-response","272","458503","0.0-50.0-0.6","SS1613102370946","","","null","","","","","<p><img src= images/blank.png width =""200"" height = ""200"" style = ""float:right""></p><p><img src=images/blank.png width =""800"" height = ""200""></p>","","","","","","","","","","","",""
"","2254.655000011553","sequential-stimulus-presentation","273","461576","0.0-50.0-1.6","SS1613102370946","trial","","40","800","3054.655000011553","images/stimuli/spore_stims/simple_07_B_c.gif","images/stimuli/spore_stims/simple_18_B_c.gif","","","","","14","simple_dissimilar","images/stimuli/spore_stims/simple_18_B_c.gif","left","","","","",""
"","null","html-keyboard-response","274","462565","0.0-50.0-0.7","SS1613102370946","","","null","","","","","<p><img src= images/blank.png width =""200"" height = ""200"" style = ""float:right""></p><p><img src=images/blank.png width =""800"" height = ""200""></p>","","","","","","","","","","","",""
"","32.08999999333173","sequential-stimulus-presentation","275","463443","0.0-50.0-1.7","SS1613102370946","trial","","40","800","832.0899999933317","images/stimuli/spore_stims/simple_07_B_c.gif","images/stimuli/spore_stims/simple_18_B_c.gif","","","","","14","simple_dissimilar","images/stimuli/spore_stims/simple_18_B_c.gif","left","","","","",""
"","1592.1300000045449","html-keyboard-response","276","465052","0.0-51.0","SS1613102370946","pref_question","","97","","","","","<video width ='960' height = '540' style='padding-top:8%' autoplay muted><source src='images/stimuli/wall_pref.mp4' type='video/mp4'></video>","1","left","25%","14","","","","","","","",""
"","2698.275000002468","sequential-stimulus-presentation","277","468568","0.0-52.0","SS1613102370946","pref_reveal","","40","800","3498.275000002468","null","null","","","","","14","","","","background","","","",""
"","null","html-keyboard-response","278","469762","0.0-53.0-0.0","SS1613102370946","","","null","","","","","<p><img src= images/blank.png width =""200"" height = ""200"" style = ""float:right""></p><p><img src=images/blank.png width =""800"" height = ""200""></p>","","","","","","","","","","","",""
"","388.00999999511987","sequential-stimulus-presentation","279","470968","0.0-53.0-1.0","SS1613102370946","trial","","40","800","1188.0099999951199","images/stimuli/spore_stims/complex_19_A_b.gif","images/stimuli/spore_stims/complex_19_B_b.gif","","","","","15","complex_similar","images/stimuli/spore_stims/complex_19_B_b.gif","middle","","","","",""
"","null","html-keyboard-response","280","472155","0.0-53.0-0.1","SS1613102370946","","","null","","","","","<p><img src= images/blank.png width =""200"" height = ""200"" style = ""float:right""></p><p><img src=images/blank.png width =""800"" height = ""200""></p>","","","","","","","","","","","",""
"","1439.1349999932572","sequential-stimulus-presentation","281","474416","0.0-53.0-1.1","SS1613102370946","trial","","40","800","2239.134999993257","images/stimuli/spore_stims/complex_19_A_b.gif","images/stimuli/spore_stims/complex_19_B_b.gif","","","","","15","complex_similar","images/stimuli/spore_stims/complex_19_B_b.gif","middle","","","","",""
"","null","html-keyboard-response","282","475399","0.0-53.0-0.2","SS1613102370946","","","null","","","","","<p><img src= images/blank.png width =""200"" height = ""200"" style = ""float:right""></p><p><img src=images/blank.png width =""800"" height = ""200""></p>","","","","","","","","","","","",""
"","2126.429999989341","sequential-stimulus-presentation","283","478343","0.0-53.0-1.2","SS1613102370946","trial","","40","800","2926.429999989341","images/stimuli/spore_stims/complex_19_A_b.gif","images/stimuli/spore_stims/complex_19_B_b.gif","","","","","15","complex_similar","images/stimuli/spore_stims/complex_19_B_b.gif","middle","","","","",""
"","null","html-keyboard-response","284","479387","0.0-53.0-0.3","SS1613102370946","","","null","","","","","<p><img src= images/blank.png width =""200"" height = ""200"" style = ""float:right""></p><p><img src=images/blank.png width =""800"" height = ""200""></p>","","","","","","","","","","","",""
"","1443.6150000110501","sequential-stimulus-presentation","285","481668","0.0-53.0-1.3","SS1613102370946","trial","","40","800","2243.61500001105","images/stimuli/spore_stims/complex_19_A_b.gif","images/stimuli/spore_stims/complex_19_B_b.gif","","","","","15","complex_similar","images/stimuli/spore_stims/complex_19_B_b.gif","middle","","","","",""
"","null","html-keyboard-response","286","482806","0.0-53.0-0.4","SS1613102370946","","","null","","","","","<p><img src= images/blank.png width =""200"" height = ""200"" style = ""float:right""></p><p><img src=images/blank.png width =""800"" height = ""200""></p>","","","","","","","","","","","",""
"","1309.209999992163","sequential-stimulus-presentation","287","484936","0.0-53.0-1.4","SS1613102370946","trial","","40","800","2109.209999992163","images/stimuli/spore_stims/complex_19_A_b.gif","images/stimuli/spore_stims/complex_19_B_b.gif","","","","","15","complex_similar","images/stimuli/spore_stims/complex_19_B_b.gif","middle","","","","",""
"","null","html-keyboard-response","288","486022","0.0-53.0-0.5","SS1613102370946","","","null","","","","","<p><img src= images/blank.png width =""200"" height = ""200"" style = ""float:right""></p><p><img src=images/blank.png width =""800"" height = ""200""></p>","","","","","","","","","","","",""
"","1364.9849999928847","sequential-stimulus-presentation","289","488207","0.0-53.0-1.5","SS1613102370946","trial","","40","800","2164.9849999928847","images/stimuli/spore_stims/complex_19_A_b.gif","images/stimuli/spore_stims/complex_19_B_b.gif","","","","","15","complex_similar","images/stimuli/spore_stims/complex_19_A_b.gif","right","","","","",""
"","null","html-keyboard-response","290","489362","0.0-53.0-0.6","SS1613102370946","","","null","","","","","<p><img src= images/blank.png width =""200"" height = ""200"" style = ""float:right""></p><p><img src=images/blank.png width =""800"" height = ""200""></p>","","","","","","","","","","","",""
"","103.3599999936996","sequential-stimulus-presentation","291","490288","0.0-53.0-1.6","SS1613102370946","trial","","40","800","903.3599999936996","images/stimuli/spore_stims/complex_19_A_b.gif","images/stimuli/spore_stims/complex_19_B_b.gif","","","","","15","complex_similar","images/stimuli/spore_stims/complex_19_B_b.gif","middle","","","","",""
"","null","html-keyboard-response","292","491349","0.0-53.0-0.7","SS1613102370946","","","null","","","","","<p><img src= images/blank.png width =""200"" height = ""200"" style = ""float:right""></p><p><img src=images/blank.png width =""800"" height = ""200""></p>","","","","","","","","","","","",""
"","70.02499999362044","sequential-stimulus-presentation","293","492240","0.0-53.0-1.7","SS1613102370946","trial","","40","800","870.0249999936204","images/stimuli/spore_stims/complex_19_A_b.gif","images/stimuli/spore_stims/complex_19_B_b.gif","","","","","15","complex_similar","images/stimuli/spore_stims/complex_19_B_b.gif","middle","","","","",""
"","1624.0249999973457","html-keyboard-response","294","493889","0.0-54.0","SS1613102370946","pref_question","","98","","","","","<video width ='960' height = '540' style='padding-top:8%' autoplay muted><source src='images/stimuli/wall_pref.mp4' type='video/mp4'></video>","2","middle","45%","15","","","","","","","",""
"","1934.8400000017136","sequential-stimulus-presentation","295","496642","0.0-55.0","SS1613102370946","pref_reveal","","40","800","2734.8400000017136","null","null","","","","","15","","","","background","","","",""
"","null","html-keyboard-response","296","497902","0.0-56.0-0.0","SS1613102370946","","","null","","","","","<p><img src= images/blank.png width =""200"" height = ""200"" style = ""float:right""></p><p><img src=images/blank.png width =""800"" height = ""200""></p>","","","","","","","","","","","",""
"","1845.6200000073295","sequential-stimulus-presentation","297","500568","0.0-56.0-1.0","SS1613102370946","trial","","40","800","2645.6200000073295","images/stimuli/spore_stims/simple_04_B_a.gif","images/stimuli/spore_stims/simple_07_A_b.gif","","","","","16","simple_dissimilar","images/stimuli/spore_stims/simple_07_A_b.gif","middle","","","","",""
"","null","html-keyboard-response","298","501684","0.0-56.0-0.1","SS1613102370946","","","null","","","","","<p><img src= images/blank.png width =""200"" height = ""200"" style = ""float:right""></p><p><img src=images/blank.png width =""800"" height = ""200""></p>","","","","","","","","","","","",""
"","465.16500000143424","sequential-stimulus-presentation","299","502968","0.0-56.0-1.1","SS1613102370946","trial","","40","800","1265.1650000014342","images/stimuli/spore_stims/simple_04_B_a.gif","images/stimuli/spore_stims/simple_07_A_b.gif","","","","","16","simple_dissimilar","images/stimuli/spore_stims/simple_07_A_b.gif","middle","","","","",""
"","null","html-keyboard-response","300","504289","0.0-56.0-0.2","SS1613102370946","","","null","","","","","<p><img src= images/blank.png width =""200"" height = ""200"" style = ""float:right""></p><p><img src=images/blank.png width =""800"" height = ""200""></p>","","","","","","","","","","","",""
"","2613.115000000107","sequential-stimulus-presentation","301","507721","0.0-56.0-1.2","SS1613102370946","trial","","40","800","3413.115000000107","images/stimuli/spore_stims/simple_04_B_a.gif","images/stimuli/spore_stims/simple_07_A_b.gif","","","","","16","simple_dissimilar","images/stimuli/spore_stims/simple_07_A_b.gif","middle","","","","",""
"","null","html-keyboard-response","302","508844","0.0-56.0-0.3","SS1613102370946","","","null","","","","","<p><img src= images/blank.png width =""200"" height = ""200"" style = ""float:right""></p><p><img src=images/blank.png width =""800"" height = ""200""></p>","","","","","","","","","","","",""
"","2030.624999999418","sequential-stimulus-presentation","303","511696","0.0-56.0-1.3","SS1613102370946","trial","","40","800","2830.624999999418","images/stimuli/spore_stims/simple_04_B_a.gif","images/stimuli/spore_stims/simple_07_A_b.gif","","","","","16","simple_dissimilar","images/stimuli/spore_stims/simple_07_A_b.gif","middle","","","","",""
"","null","html-keyboard-response","304","512774","0.0-56.0-0.4","SS1613102370946","","","null","","","","","<p><img src= images/blank.png width =""200"" height = ""200"" style = ""float:right""></p><p><img src=images/blank.png width =""800"" height = ""200""></p>","","","","","","","","","","","",""
"","2710.529999996652","sequential-stimulus-presentation","305","516320","0.0-56.0-1.4","SS1613102370946","trial","","40","800","3510.529999996652","images/stimuli/spore_stims/simple_04_B_a.gif","images/stimuli/spore_stims/simple_07_A_b.gif","","","","","16","simple_dissimilar","images/stimuli/spore_stims/simple_07_A_b.gif","middle","","","","",""
"","null","html-keyboard-response","306","517409","0.0-56.0-0.5","SS1613102370946","","","null","","","","","<p><img src= images/blank.png width =""200"" height = ""200"" style = ""float:right""></p><p><img src=images/blank.png width =""800"" height = ""200""></p>","","","","","","","","","","","",""
"","114.99999999068677","sequential-stimulus-presentation","307","518345","0.0-56.0-1.5","SS1613102370946","trial","","40","800","914.9999999906868","images/stimuli/spore_stims/simple_04_B_a.gif","images/stimuli/spore_stims/simple_07_A_b.gif","","","","","16","simple_dissimilar","images/stimuli/spore_stims/simple_04_B_a.gif","left","","","","",""
"","null","html-keyboard-response","308","519302","0.0-56.0-0.6","SS1613102370946","","","null","","","","","<p><img src= images/blank.png width =""200"" height = ""200"" style = ""float:right""></p><p><img src=images/blank.png width =""800"" height = ""200""></p>","","","","","","","","","","","",""
"","2165.4799999960233","sequential-stimulus-presentation","309","522296","0.0-56.0-1.6","SS1613102370946","trial","","40","800","2965.4799999960233","images/stimuli/spore_stims/simple_04_B_a.gif","images/stimuli/spore_stims/simple_07_A_b.gif","","","","","16","simple_dissimilar","images/stimuli/spore_stims/simple_07_A_b.gif","middle","","","","",""
"","null","html-keyboard-response","310","523427","0.0-56.0-0.7","SS1613102370946","","","null","","","","","<p><img src= images/blank.png width =""200"" height = ""200"" style = ""float:right""></p><p><img src=images/blank.png width =""800"" height = ""200""></p>","","","","","","","","","","","",""
"","745.2600000106031","sequential-stimulus-presentation","311","525008","0.0-56.0-1.7","SS1613102370946","trial","","40","800","1545.260000010603","images/stimuli/spore_stims/simple_04_B_a.gif","images/stimuli/spore_stims/simple_07_A_b.gif","","","","","16","simple_dissimilar","images/stimuli/spore_stims/simple_07_A_b.gif","middle","","","","",""
"","1312.1500000124797","html-keyboard-response","312","526336","0.0-57.0","SS1613102370946","pref_question","","98","","","","","<video width ='960' height = '540' style='padding-top:8%' autoplay muted><source src='images/stimuli/wall_pref.mp4' type='video/mp4'></video>","2","middle","45%","16","","","","","","","",""
