"view_history","rt","trial_type","trial_index","time_elapsed","internal_node_id","subject","stimulus_type","trial_stimulus","key_press","minimum_viewing_duration","trial_looking_time","block_deviant","block_background","stimulus","wall_pref","location","location_percent","block_number","block_type","stimulus_displayed","position_displayed","stim_type_selected","responses","question_order","stimulus_left","stimulus_right"
"[{""page_index"":0,""viewing_time"":6545.5950000323355}]","6546.109999995679","instructions","0","6548","0.0-0.0","SS1613100833955","","","","","","","","","","","","","","","","","","","",""
"[{""page_index"":0,""viewing_time"":10527.595000108704},{""page_index"":1,""viewing_time"":12809.019999811426}]","23337.534999940544","instructions","1","31891","0.0-1.0","SS1613100833955","instructions","","","","","","","","","","","","","","","","","","",""
"","11467.855000169948","sequential-stimulus-presentation","2","44168","0.0-2.0","SS1613100833955","","","40","800","12267.855000169948","null","null","","","","","","","","","","","","",""
"","8271.160000003874","sequential-stimulus-presentation","3","53423","0.0-3.0","SS1613100833955","","","40","800","9071.160000003874","null","null","","","","","","","","","","","","",""
"[{""page_index"":0,""viewing_time"":5646.570000099018}]","5647.080000024289","instructions","4","59075","0.0-4.0","SS1613100833955","instructions","","","","","","","","","","","","","","","","","","",""
"","4936.285000061616","html-keyboard-response","5","64016","0.0-5.0","SS1613100833955","instructions","","50","","","","","<video width ='960' height = '540' autoplay muted><source src='images/stimuli/wall_pref.mp4' type='video/mp4'></video>","2","middle","45%","","","","","","","","",""
"","2873.0950001627207","sequential-stimulus-presentation","6","67839","0.0-6.0","SS1613100833955","pref_reveal","","40","800","3673.0950001627207","null","null","","","","","","","","","","","","",""
"[{""page_index"":0,""viewing_time"":11299.424999859184},{""page_index"":1,""viewing_time"":4029.229999985546},{""page_index"":2,""viewing_time"":3451.839999994263},{""page_index"":3,""viewing_time"":1580.4000000935048}]","20361.439999891445","instructions","7","88202","0.0-7.0","SS1613100833955","instructions","","","","","","","","","","","","","","","","","","",""
"","null","html-keyboard-response","8","89157","0.0-8.0-0.0","SS1613100833955","","","null","","","","","<p><img src= images/blank.png width =""200"" height = ""200"" style = ""float:right""></p><p><img src=images/blank.png width =""800"" height = ""200""></p>","","","","","","","","","","","",""
"","3748.314999975264","sequential-stimulus-presentation","9","93735","0.0-8.0-1.0","SS1613100833955","trial","","40","800","4548.314999975264","images/stimuli/spore_stims/simple_10_B_b.gif","images/stimuli/spore_stims/simple_10_A_b.gif","","","","","0","simple_similar","images/stimuli/spore_stims/simple_10_A_b.gif","right","","","","",""
"","null","html-keyboard-response","10","94924","0.0-8.0-0.1","SS1613100833955","","","null","","","","","<p><img src= images/blank.png width =""200"" height = ""200"" style = ""float:right""></p><p><img src=images/blank.png width =""800"" height = ""200""></p>","","","","","","","","","","","",""
"","2215.180000057444","sequential-stimulus-presentation","11","97951","0.0-8.0-1.1","SS1613100833955","trial","","40","800","3015.180000057444","images/stimuli/spore_stims/simple_10_B_b.gif","images/stimuli/spore_stims/simple_10_A_b.gif","","","","","0","simple_similar","images/stimuli/spore_stims/simple_10_A_b.gif","right","","","","",""
"","null","html-keyboard-response","12","98939","0.0-8.0-0.2","SS1613100833955","","","null","","","","","<p><img src= images/blank.png width =""200"" height = ""200"" style = ""float:right""></p><p><img src=images/blank.png width =""800"" height = ""200""></p>","","","","","","","","","","","",""
"","2739.640000043437","sequential-stimulus-presentation","13","102488","0.0-8.0-1.2","SS1613100833955","trial","","40","800","3539.640000043437","images/stimuli/spore_stims/simple_10_B_b.gif","images/stimuli/spore_stims/simple_10_A_b.gif","","","","","0","simple_similar","images/stimuli/spore_stims/simple_10_B_b.gif","middle","","","","",""
"","null","html-keyboard-response","14","103315","0.0-8.0-0.3","SS1613100833955","","","null","","","","","<p><img src= images/blank.png width =""200"" height = ""200"" style = ""float:right""></p><p><img src=images/blank.png width =""800"" height = ""200""></p>","","","","","","","","","","","",""
"","2294.7400000412017","sequential-stimulus-presentation","15","106433","0.0-8.0-1.3","SS1613100833955","trial","","40","800","3094.7400000412017","images/stimuli/spore_stims/simple_10_B_b.gif","images/stimuli/spore_stims/simple_10_A_b.gif","","","","","0","simple_similar","images/stimuli/spore_stims/simple_10_A_b.gif","right","","","","",""
"","null","html-keyboard-response","16","107652","0.0-8.0-0.4","SS1613100833955","","","null","","","","","<p><img src= images/blank.png width =""200"" height = ""200"" style = ""float:right""></p><p><img src=images/blank.png width =""800"" height = ""200""></p>","","","","","","","","","","","",""
"","1863.1800001021475","sequential-stimulus-presentation","17","110360","0.0-8.0-1.4","SS1613100833955","trial","","40","800","2663.1800001021475","images/stimuli/spore_stims/simple_10_B_b.gif","images/stimuli/spore_stims/simple_10_A_b.gif","","","","","0","simple_similar","images/stimuli/spore_stims/simple_10_A_b.gif","right","","","","",""
"","null","html-keyboard-response","18","111433","0.0-8.0-0.5","SS1613100833955","","","null","","","","","<p><img src= images/blank.png width =""200"" height = ""200"" style = ""float:right""></p><p><img src=images/blank.png width =""800"" height = ""200""></p>","","","","","","","","","","","",""
"","1251.0899999178946","sequential-stimulus-presentation","19","113495","0.0-8.0-1.5","SS1613100833955","trial","","40","800","2051.0899999178946","images/stimuli/spore_stims/simple_10_B_b.gif","images/stimuli/spore_stims/simple_10_A_b.gif","","","","","0","simple_similar","images/stimuli/spore_stims/simple_10_A_b.gif","right","","","","",""
"","null","html-keyboard-response","20","114443","0.0-8.0-0.6","SS1613100833955","","","null","","","","","<p><img src= images/blank.png width =""200"" height = ""200"" style = ""float:right""></p><p><img src=images/blank.png width =""800"" height = ""200""></p>","","","","","","","","","","","",""
"","2298.255000030622","sequential-stimulus-presentation","21","117567","0.0-8.0-1.6","SS1613100833955","trial","","40","800","3098.255000030622","images/stimuli/spore_stims/simple_10_B_b.gif","images/stimuli/spore_stims/simple_10_A_b.gif","","","","","0","simple_similar","images/stimuli/spore_stims/simple_10_A_b.gif","right","","","","",""
"","null","html-keyboard-response","22","118800","0.0-8.0-0.7","SS1613100833955","","","null","","","","","<p><img src= images/blank.png width =""200"" height = ""200"" style = ""float:right""></p><p><img src=images/blank.png width =""800"" height = ""200""></p>","","","","","","","","","","","",""
"","1391.2100000306964","sequential-stimulus-presentation","23","121015","0.0-8.0-1.7","SS1613100833955","trial","","40","800","2191.2100000306964","images/stimuli/spore_stims/simple_10_B_b.gif","images/stimuli/spore_stims/simple_10_A_b.gif","","","","","0","simple_similar","images/stimuli/spore_stims/simple_10_A_b.gif","right","","","","",""
"","2972.505000187084","html-keyboard-response","24","123992","0.0-9.0","SS1613100833955","pref_question","","49","","","","","<video width ='960' height = '540' style='padding-top:8%' autoplay muted><source src='images/stimuli/wall_pref.mp4' type='video/mp4'></video>","1","left","25%","0","","","","","","","",""
"","1859.4349999912083","sequential-stimulus-presentation","25","126759","0.0-10.0","SS1613100833955","pref_reveal","","40","800","2659.4349999912083","null","null","","","","","0","","","","novel","","","",""
"","null","html-keyboard-response","26","127829","0.0-11.0-0.0","SS1613100833955","","","null","","","","","<p><img src= images/blank.png width =""200"" height = ""200"" style = ""float:right""></p><p><img src=images/blank.png width =""800"" height = ""200""></p>","","","","","","","","","","","",""
"","221.614999929443","sequential-stimulus-presentation","27","128861","0.0-11.0-1.0","SS1613100833955","trial","","40","800","1021.614999929443","images/stimuli/spore_stims/simple_12_A_c.gif","images/stimuli/spore_stims/simple_12_B_c.gif","","","","","1","simple_similar","images/stimuli/spore_stims/simple_12_B_c.gif","right","","","","",""
"","null","html-keyboard-response","28","129724","0.0-11.0-0.1","SS1613100833955","","","null","","","","","<p><img src= images/blank.png width =""200"" height = ""200"" style = ""float:right""></p><p><img src=images/blank.png width =""800"" height = ""200""></p>","","","","","","","","","","","",""
"","1905.6049999780953","sequential-stimulus-presentation","29","132447","0.0-11.0-1.1","SS1613100833955","trial","","40","800","2705.6049999780953","images/stimuli/spore_stims/simple_12_A_c.gif","images/stimuli/spore_stims/simple_12_B_c.gif","","","","","1","simple_similar","images/stimuli/spore_stims/simple_12_B_c.gif","right","","","","",""
"","null","html-keyboard-response","30","133597","0.0-11.0-0.2","SS1613100833955","","","null","","","","","<p><img src= images/blank.png width =""200"" height = ""200"" style = ""float:right""></p><p><img src=images/blank.png width =""800"" height = ""200""></p>","","","","","","","","","","","",""
"","2273.9049999509007","sequential-stimulus-presentation","31","136706","0.0-11.0-1.2","SS1613100833955","trial","","40","800","3073.9049999509007","images/stimuli/spore_stims/simple_12_A_c.gif","images/stimuli/spore_stims/simple_12_B_c.gif","","","","","1","simple_similar","images/stimuli/spore_stims/simple_12_B_c.gif","right","","","","",""
"","null","html-keyboard-response","32","137889","0.0-11.0-0.3","SS1613100833955","","","null","","","","","<p><img src= images/blank.png width =""200"" height = ""200"" style = ""float:right""></p><p><img src=images/blank.png width =""800"" height = ""200""></p>","","","","","","","","","","","",""
"","2614.405000116676","sequential-stimulus-presentation","33","141334","0.0-11.0-1.3","SS1613100833955","trial","","40","800","3414.405000116676","images/stimuli/spore_stims/simple_12_A_c.gif","images/stimuli/spore_stims/simple_12_B_c.gif","","","","","1","simple_similar","images/stimuli/spore_stims/simple_12_A_c.gif","left","","","","",""
"","null","html-keyboard-response","34","142362","0.0-11.0-0.4","SS1613100833955","","","null","","","","","<p><img src= images/blank.png width =""200"" height = ""200"" style = ""float:right""></p><p><img src=images/blank.png width =""800"" height = ""200""></p>","","","","","","","","","","","",""
"","1707.545000128448","sequential-stimulus-presentation","35","144887","0.0-11.0-1.4","SS1613100833955","trial","","40","800","2507.545000128448","images/stimuli/spore_stims/simple_12_A_c.gif","images/stimuli/spore_stims/simple_12_B_c.gif","","","","","1","simple_similar","images/stimuli/spore_stims/simple_12_B_c.gif","right","","","","",""
"","null","html-keyboard-response","36","146080","0.0-11.0-0.5","SS1613100833955","","","null","","","","","<p><img src= images/blank.png width =""200"" height = ""200"" style = ""float:right""></p><p><img src=images/blank.png width =""800"" height = ""200""></p>","","","","","","","","","","","",""
"","1082.1749998722225","sequential-stimulus-presentation","37","147976","0.0-11.0-1.5","SS1613100833955","trial","","40","800","1882.1749998722225","images/stimuli/spore_stims/simple_12_A_c.gif","images/stimuli/spore_stims/simple_12_B_c.gif","","","","","1","simple_similar","images/stimuli/spore_stims/simple_12_B_c.gif","right","","","","",""
"","null","html-keyboard-response","38","148819","0.0-11.0-0.6","SS1613100833955","","","null","","","","","<p><img src= images/blank.png width =""200"" height = ""200"" style = ""float:right""></p><p><img src=images/blank.png width =""800"" height = ""200""></p>","","","","","","","","","","","",""
"","1321.0100000724196","sequential-stimulus-presentation","39","150971","0.0-11.0-1.6","SS1613100833955","trial","","40","800","2121.0100000724196","images/stimuli/spore_stims/simple_12_A_c.gif","images/stimuli/spore_stims/simple_12_B_c.gif","","","","","1","simple_similar","images/stimuli/spore_stims/simple_12_B_c.gif","right","","","","",""
"","null","html-keyboard-response","40","152057","0.0-11.0-0.7","SS1613100833955","","","null","","","","","<p><img src= images/blank.png width =""200"" height = ""200"" style = ""float:right""></p><p><img src=images/blank.png width =""800"" height = ""200""></p>","","","","","","","","","","","",""
"","1708.6099998559803","sequential-stimulus-presentation","41","154583","0.0-11.0-1.7","SS1613100833955","trial","","40","800","2508.6099998559803","images/stimuli/spore_stims/simple_12_A_c.gif","images/stimuli/spore_stims/simple_12_B_c.gif","","","","","1","simple_similar","images/stimuli/spore_stims/simple_12_B_c.gif","right","","","","",""
"","2509.5549998804927","html-keyboard-response","42","157096","0.0-12.0","SS1613100833955","pref_question","","50","","","","","<video width ='960' height = '540' style='padding-top:8%' autoplay muted><source src='images/stimuli/wall_pref.mp4' type='video/mp4'></video>","2","middle","45%","1","","","","","","","",""
"","3110.2449998725206","sequential-stimulus-presentation","43","161017","0.0-13.0","SS1613100833955","pref_reveal","","40","800","3910.2449998725206","null","null","","","","","1","","","","novel","","","",""
"","null","html-keyboard-response","44","162218","0.0-14.0-0.0","SS1613100833955","","","null","","","","","<p><img src= images/blank.png width =""200"" height = ""200"" style = ""float:right""></p><p><img src=images/blank.png width =""800"" height = ""200""></p>","","","","","","","","","","","",""
"","1330.0600000657141","sequential-stimulus-presentation","45","164513","0.0-14.0-1.0","SS1613100833955","trial","","40","800","2130.060000065714","images/stimuli/spore_stims/simple_18_A_b.gif","images/stimuli/spore_stims/simple_18_B_b.gif","","","","","2","simple_similar","images/stimuli/spore_stims/simple_18_B_b.gif","left","","","","",""
"","null","html-keyboard-response","46","165636","0.0-14.0-0.1","SS1613100833955","","","null","","","","","<p><img src= images/blank.png width =""200"" height = ""200"" style = ""float:right""></p><p><img src=images/blank.png width =""800"" height = ""200""></p>","","","","","","","","","","","",""
"","739.8600000888109","sequential-stimulus-presentation","47","167312","0.0-14.0-1.1","SS1613100833955","trial","","40","800","1539.860000088811","images/stimuli/spore_stims/simple_18_A_b.gif","images/stimuli/spore_stims/simple_18_B_b.gif","","","","","2","simple_similar","images/stimuli/spore_stims/simple_18_B_b.gif","left","","","","",""
"","null","html-keyboard-response","48","168187","0.0-14.0-0.2","SS1613100833955","","","null","","","","","<p><img src= images/blank.png width =""200"" height = ""200"" style = ""float:right""></p><p><img src=images/blank.png width =""800"" height = ""200""></p>","","","","","","","","","","","",""
"","811.0850001685321","sequential-stimulus-presentation","49","169816","0.0-14.0-1.2","SS1613100833955","trial","","40","800","1611.0850001685321","images/stimuli/spore_stims/simple_18_A_b.gif","images/stimuli/spore_stims/simple_18_B_b.gif","","","","","2","simple_similar","images/stimuli/spore_stims/simple_18_B_b.gif","left","","","","",""
"","null","html-keyboard-response","50","170717","0.0-14.0-0.3","SS1613100833955","","","null","","","","","<p><img src= images/blank.png width =""200"" height = ""200"" style = ""float:right""></p><p><img src=images/blank.png width =""800"" height = ""200""></p>","","","","","","","","","","","",""
"","153.8299999665469","sequential-stimulus-presentation","51","171698","0.0-14.0-1.3","SS1613100833955","trial","","40","800","953.8299999665469","images/stimuli/spore_stims/simple_18_A_b.gif","images/stimuli/spore_stims/simple_18_B_b.gif","","","","","2","simple_similar","images/stimuli/spore_stims/simple_18_A_b.gif","right","","","","",""
"","null","html-keyboard-response","52","173055","0.0-14.0-0.4","SS1613100833955","","","null","","","","","<p><img src= images/blank.png width =""200"" height = ""200"" style = ""float:right""></p><p><img src=images/blank.png width =""800"" height = ""200""></p>","","","","","","","","","","","",""
"","2980.3550001233816","sequential-stimulus-presentation","53","176846","0.0-14.0-1.4","SS1613100833955","trial","","40","800","3780.3550001233816","images/stimuli/spore_stims/simple_18_A_b.gif","images/stimuli/spore_stims/simple_18_B_b.gif","","","","","2","simple_similar","images/stimuli/spore_stims/simple_18_B_b.gif","left","","","","",""
"","null","html-keyboard-response","54","177954","0.0-14.0-0.5","SS1613100833955","","","null","","","","","<p><img src= images/blank.png width =""200"" height = ""200"" style = ""float:right""></p><p><img src=images/blank.png width =""800"" height = ""200""></p>","","","","","","","","","","","",""
"","655.229999916628","sequential-stimulus-presentation","55","179424","0.0-14.0-1.5","SS1613100833955","trial","","40","800","1455.229999916628","images/stimuli/spore_stims/simple_18_A_b.gif","images/stimuli/spore_stims/simple_18_B_b.gif","","","","","2","simple_similar","images/stimuli/spore_stims/simple_18_B_b.gif","left","","","","",""
"","null","html-keyboard-response","56","180385","0.0-14.0-0.6","SS1613100833955","","","null","","","","","<p><img src= images/blank.png width =""200"" height = ""200"" style = ""float:right""></p><p><img src=images/blank.png width =""800"" height = ""200""></p>","","","","","","","","","","","",""
"","564.174999948591","sequential-stimulus-presentation","57","181762","0.0-14.0-1.6","SS1613100833955","trial","","40","800","1364.174999948591","images/stimuli/spore_stims/simple_18_A_b.gif","images/stimuli/spore_stims/simple_18_B_b.gif","","","","","2","simple_similar","images/stimuli/spore_stims/simple_18_B_b.gif","left","","","","",""
"","null","html-keyboard-response","58","183052","0.0-14.0-0.7","SS1613100833955","","","null","","","","","<p><img src= images/blank.png width =""200"" height = ""200"" style = ""float:right""></p><p><img src=images/blank.png width =""800"" height = ""200""></p>","","","","","","","","","","","",""
"","537.2850000858307","sequential-stimulus-presentation","59","184408","0.0-14.0-1.7","SS1613100833955","trial","","40","800","1337.2850000858307","images/stimuli/spore_stims/simple_18_A_b.gif","images/stimuli/spore_stims/simple_18_B_b.gif","","","","","2","simple_similar","images/stimuli/spore_stims/simple_18_B_b.gif","left","","","","",""
"","2208.8100002147257","html-keyboard-response","60","186622","0.0-15.0","SS1613100833955","pref_question","","51","","","","","<video width ='960' height = '540' style='padding-top:8%' autoplay muted><source src='images/stimuli/wall_pref.mp4' type='video/mp4'></video>","3","right","66%","2","","","","","","","",""
"","1440.7800000626594","sequential-stimulus-presentation","61","188880","0.0-16.0","SS1613100833955","pref_reveal","","40","800","2240.7800000626594","null","null","","","","","2","","","","deviant","","","",""
"","null","html-keyboard-response","62","189944","0.0-17.0-0.0","SS1613100833955","","","null","","","","","<p><img src= images/blank.png width =""200"" height = ""200"" style = ""float:right""></p><p><img src=images/blank.png width =""800"" height = ""200""></p>","","","","","","","","","","","",""
"","1554.1100001428276","sequential-stimulus-presentation","63","192314","0.0-17.0-1.0","SS1613100833955","trial","","40","800","2354.1100001428276","images/stimuli/spore_stims/complex_19_A_c.gif","images/stimuli/spore_stims/complex_19_B_c.gif","","","","","3","complex_similar","images/stimuli/spore_stims/complex_19_B_c.gif","right","","","","",""
"","null","html-keyboard-response","64","193385","0.0-17.0-0.1","SS1613100833955","","","null","","","","","<p><img src= images/blank.png width =""200"" height = ""200"" style = ""float:right""></p><p><img src=images/blank.png width =""800"" height = ""200""></p>","","","","","","","","","","","",""
"","697.5950000341982","sequential-stimulus-presentation","65","194896","0.0-17.0-1.1","SS1613100833955","trial","","40","800","1497.5950000341982","images/stimuli/spore_stims/complex_19_A_c.gif","images/stimuli/spore_stims/complex_19_B_c.gif","","","","","3","complex_similar","images/stimuli/spore_stims/complex_19_B_c.gif","right","","","","",""
"","null","html-keyboard-response","66","195989","0.0-17.0-0.2","SS1613100833955","","","null","","","","","<p><img src= images/blank.png width =""200"" height = ""200"" style = ""float:right""></p><p><img src=images/blank.png width =""800"" height = ""200""></p>","","","","","","","","","","","",""
"","743.6550001148134","sequential-stimulus-presentation","67","197561","0.0-17.0-1.2","SS1613100833955","trial","","40","800","1543.6550001148134","images/stimuli/spore_stims/complex_19_A_c.gif","images/stimuli/spore_stims/complex_19_B_c.gif","","","","","3","complex_similar","images/stimuli/spore_stims/complex_19_B_c.gif","right","","","","",""
"","null","html-keyboard-response","68","198777","0.0-17.0-0.3","SS1613100833955","","","null","","","","","<p><img src= images/blank.png width =""200"" height = ""200"" style = ""float:right""></p><p><img src=images/blank.png width =""800"" height = ""200""></p>","","","","","","","","","","","",""
"","896.0249999072403","sequential-stimulus-presentation","69","200505","0.0-17.0-1.3","SS1613100833955","trial","","40","800","1696.0249999072403","images/stimuli/spore_stims/complex_19_A_c.gif","images/stimuli/spore_stims/complex_19_B_c.gif","","","","","3","complex_similar","images/stimuli/spore_stims/complex_19_A_c.gif","middle","","","","",""
"","null","html-keyboard-response","70","201515","0.0-17.0-0.4","SS1613100833955","","","null","","","","","<p><img src= images/blank.png width =""200"" height = ""200"" style = ""float:right""></p><p><img src=images/blank.png width =""800"" height = ""200""></p>","","","","","","","","","","","",""
"","784.0950000099838","sequential-stimulus-presentation","71","203121","0.0-17.0-1.4","SS1613100833955","trial","","40","800","1584.0950000099838","images/stimuli/spore_stims/complex_19_A_c.gif","images/stimuli/spore_stims/complex_19_B_c.gif","","","","","3","complex_similar","images/stimuli/spore_stims/complex_19_B_c.gif","right","","","","",""
"","null","html-keyboard-response","72","204422","0.0-17.0-0.5","SS1613100833955","","","null","","","","","<p><img src= images/blank.png width =""200"" height = ""200"" style = ""float:right""></p><p><img src=images/blank.png width =""800"" height = ""200""></p>","","","","","","","","","","","",""
"","649.3999999947846","sequential-stimulus-presentation","73","205884","0.0-17.0-1.5","SS1613100833955","trial","","40","800","1449.3999999947846","images/stimuli/spore_stims/complex_19_A_c.gif","images/stimuli/spore_stims/complex_19_B_c.gif","","","","","3","complex_similar","images/stimuli/spore_stims/complex_19_B_c.gif","right","","","","",""
"","null","html-keyboard-response","74","206868","0.0-17.0-0.6","SS1613100833955","","","null","","","","","<p><img src= images/blank.png width =""200"" height = ""200"" style = ""float:right""></p><p><img src=images/blank.png width =""800"" height = ""200""></p>","","","","","","","","","","","",""
"","997.8000000119209","sequential-stimulus-presentation","75","208680","0.0-17.0-1.6","SS1613100833955","trial","","40","800","1797.800000011921","images/stimuli/spore_stims/complex_19_A_c.gif","images/stimuli/spore_stims/complex_19_B_c.gif","","","","","3","complex_similar","images/stimuli/spore_stims/complex_19_B_c.gif","right","","","","",""
"","null","html-keyboard-response","76","209847","0.0-17.0-0.7","SS1613100833955","","","null","","","","","<p><img src= images/blank.png width =""200"" height = ""200"" style = ""float:right""></p><p><img src=images/blank.png width =""800"" height = ""200""></p>","","","","","","","","","","","",""
"","659.965000115335","sequential-stimulus-presentation","77","211322","0.0-17.0-1.7","SS1613100833955","trial","","40","800","1459.965000115335","images/stimuli/spore_stims/complex_19_A_c.gif","images/stimuli/spore_stims/complex_19_B_c.gif","","","","","3","complex_similar","images/stimuli/spore_stims/complex_19_B_c.gif","right","","","","",""
"","5345.784999895841","html-keyboard-response","78","216673","0.0-18.0","SS1613100833955","pref_question","","51","","","","","<video width ='960' height = '540' style='padding-top:8%' autoplay muted><source src='images/stimuli/wall_pref.mp4' type='video/mp4'></video>","3","right","66%","3","","","","","","","",""
"","878.62000009045","sequential-stimulus-presentation","79","218360","0.0-19.0","SS1613100833955","pref_reveal","","40","800","1678.62000009045","null","null","","","","","3","","","","background","","","",""
"","null","html-keyboard-response","80","219266","0.0-20.0-0.0","SS1613100833955","","","null","","","","","<p><img src= images/blank.png width =""200"" height = ""200"" style = ""float:right""></p><p><img src=images/blank.png width =""800"" height = ""200""></p>","","","","","","","","","","","",""
"","1330.11500001885","sequential-stimulus-presentation","81","221410","0.0-20.0-1.0","SS1613100833955","trial","","40","800","2130.11500001885","images/stimuli/spore_stims/complex_09_A_a.gif","images/stimuli/spore_stims/complex_09_B_a.gif","","","","","4","complex_similar","images/stimuli/spore_stims/complex_09_B_a.gif","left","","","","",""
"","null","html-keyboard-response","82","222628","0.0-20.0-0.1","SS1613100833955","","","null","","","","","<p><img src= images/blank.png width =""200"" height = ""200"" style = ""float:right""></p><p><img src=images/blank.png width =""800"" height = ""200""></p>","","","","","","","","","","","",""
"","672.4749999120831","sequential-stimulus-presentation","83","224137","0.0-20.0-1.1","SS1613100833955","trial","","40","800","1472.4749999120831","images/stimuli/spore_stims/complex_09_A_a.gif","images/stimuli/spore_stims/complex_09_B_a.gif","","","","","4","complex_similar","images/stimuli/spore_stims/complex_09_B_a.gif","left","","","","",""
"","null","html-keyboard-response","84","225260","0.0-20.0-0.2","SS1613100833955","","","null","","","","","<p><img src= images/blank.png width =""200"" height = ""200"" style = ""float:right""></p><p><img src=images/blank.png width =""800"" height = ""200""></p>","","","","","","","","","","","",""
"","765.1299999561161","sequential-stimulus-presentation","85","226850","0.0-20.0-1.2","SS1613100833955","trial","","40","800","1565.129999956116","images/stimuli/spore_stims/complex_09_A_a.gif","images/stimuli/spore_stims/complex_09_B_a.gif","","","","","4","complex_similar","images/stimuli/spore_stims/complex_09_B_a.gif","left","","","","",""
"","null","html-keyboard-response","86","227667","0.0-20.0-0.3","SS1613100833955","","","null","","","","","<p><img src= images/blank.png width =""200"" height = ""200"" style = ""float:right""></p><p><img src=images/blank.png width =""800"" height = ""200""></p>","","","","","","","","","","","",""
"","1046.864999923855","sequential-stimulus-presentation","87","229546","0.0-20.0-1.3","SS1613100833955","trial","","40","800","1846.864999923855","images/stimuli/spore_stims/complex_09_A_a.gif","images/stimuli/spore_stims/complex_09_B_a.gif","","","","","4","complex_similar","images/stimuli/spore_stims/complex_09_A_a.gif","middle","","","","",""
"","null","html-keyboard-response","88","230761","0.0-20.0-0.4","SS1613100833955","","","null","","","","","<p><img src= images/blank.png width =""200"" height = ""200"" style = ""float:right""></p><p><img src=images/blank.png width =""800"" height = ""200""></p>","","","","","","","","","","","",""
"","780.1700001582503","sequential-stimulus-presentation","89","232361","0.0-20.0-1.4","SS1613100833955","trial","","40","800","1580.1700001582503","images/stimuli/spore_stims/complex_09_A_a.gif","images/stimuli/spore_stims/complex_09_B_a.gif","","","","","4","complex_similar","images/stimuli/spore_stims/complex_09_B_a.gif","left","","","","",""
"","null","html-keyboard-response","90","233402","0.0-20.0-0.5","SS1613100833955","","","null","","","","","<p><img src= images/blank.png width =""200"" height = ""200"" style = ""float:right""></p><p><img src=images/blank.png width =""800"" height = ""200""></p>","","","","","","","","","","","",""
"","614.5899998955429","sequential-stimulus-presentation","91","234834","0.0-20.0-1.5","SS1613100833955","trial","","40","800","1414.5899998955429","images/stimuli/spore_stims/complex_09_A_a.gif","images/stimuli/spore_stims/complex_09_B_a.gif","","","","","4","complex_similar","images/stimuli/spore_stims/complex_09_B_a.gif","left","","","","",""
"","null","html-keyboard-response","92","235897","0.0-20.0-0.6","SS1613100833955","","","null","","","","","<p><img src= images/blank.png width =""200"" height = ""200"" style = ""float:right""></p><p><img src=images/blank.png width =""800"" height = ""200""></p>","","","","","","","","","","","",""
"","696.2849998380989","sequential-stimulus-presentation","93","237410","0.0-20.0-1.6","SS1613100833955","trial","","40","800","1496.2849998380989","images/stimuli/spore_stims/complex_09_A_a.gif","images/stimuli/spore_stims/complex_09_B_a.gif","","","","","4","complex_similar","images/stimuli/spore_stims/complex_09_B_a.gif","left","","","","",""
"","null","html-keyboard-response","94","238267","0.0-20.0-0.7","SS1613100833955","","","null","","","","","<p><img src= images/blank.png width =""200"" height = ""200"" style = ""float:right""></p><p><img src=images/blank.png width =""800"" height = ""200""></p>","","","","","","","","","","","",""
"","680.4599999450147","sequential-stimulus-presentation","95","239817","0.0-20.0-1.7","SS1613100833955","trial","","40","800","1480.4599999450147","images/stimuli/spore_stims/complex_09_A_a.gif","images/stimuli/spore_stims/complex_09_B_a.gif","","","","","4","complex_similar","images/stimuli/spore_stims/complex_09_B_a.gif","left","","","","",""
"","2270.814999938011","html-keyboard-response","96","242094","0.0-21.0","SS1613100833955","pref_question","","50","","","","","<video width ='960' height = '540' style='padding-top:8%' autoplay muted><source src='images/stimuli/wall_pref.mp4' type='video/mp4'></video>","2","middle","45%","4","","","","","","","",""
"","1075.0950002111495","sequential-stimulus-presentation","97","243978","0.0-22.0","SS1613100833955","pref_reveal","","40","800","1875.0950002111495","null","null","","","","","4","","","","deviant","","","",""
"","null","html-keyboard-response","98","244843","0.0-23.0-0.0","SS1613100833955","","","null","","","","","<p><img src= images/blank.png width =""200"" height = ""200"" style = ""float:right""></p><p><img src=images/blank.png width =""800"" height = ""200""></p>","","","","","","","","","","","",""
"","1066.3699998985976","sequential-stimulus-presentation","99","246769","0.0-23.0-1.0","SS1613100833955","trial","","40","800","1866.3699998985976","images/stimuli/spore_stims/complex_01_A_d.gif","images/stimuli/spore_stims/complex_06_B_c.gif","","","","","5","complex_dissimilar","images/stimuli/spore_stims/complex_06_B_c.gif","left","","","","",""
"","null","html-keyboard-response","100","247602","0.0-23.0-0.1","SS1613100833955","","","null","","","","","<p><img src= images/blank.png width =""200"" height = ""200"" style = ""float:right""></p><p><img src=images/blank.png width =""800"" height = ""200""></p>","","","","","","","","","","","",""
"","651.6450000926852","sequential-stimulus-presentation","101","249075","0.0-23.0-1.1","SS1613100833955","trial","","40","800","1451.6450000926852","images/stimuli/spore_stims/complex_01_A_d.gif","images/stimuli/spore_stims/complex_06_B_c.gif","","","","","5","complex_dissimilar","images/stimuli/spore_stims/complex_06_B_c.gif","left","","","","",""
"","null","html-keyboard-response","102","250295","0.0-23.0-0.2","SS1613100833955","","","null","","","","","<p><img src= images/blank.png width =""200"" height = ""200"" style = ""float:right""></p><p><img src=images/blank.png width =""800"" height = ""200""></p>","","","","","","","","","","","",""
"","863.3749999571592","sequential-stimulus-presentation","103","251974","0.0-23.0-1.2","SS1613100833955","trial","","40","800","1663.3749999571592","images/stimuli/spore_stims/complex_01_A_d.gif","images/stimuli/spore_stims/complex_06_B_c.gif","","","","","5","complex_dissimilar","images/stimuli/spore_stims/complex_06_B_c.gif","left","","","","",""
"","null","html-keyboard-response","104","253252","0.0-23.0-0.3","SS1613100833955","","","null","","","","","<p><img src= images/blank.png width =""200"" height = ""200"" style = ""float:right""></p><p><img src=images/blank.png width =""800"" height = ""200""></p>","","","","","","","","","","","",""
"","533.9399999938905","sequential-stimulus-presentation","105","254601","0.0-23.0-1.3","SS1613100833955","trial","","40","800","1333.9399999938905","images/stimuli/spore_stims/complex_01_A_d.gif","images/stimuli/spore_stims/complex_06_B_c.gif","","","","","5","complex_dissimilar","images/stimuli/spore_stims/complex_06_B_c.gif","left","","","","",""
"","null","html-keyboard-response","106","255867","0.0-23.0-0.4","SS1613100833955","","","null","","","","","<p><img src= images/blank.png width =""200"" height = ""200"" style = ""float:right""></p><p><img src=images/blank.png width =""800"" height = ""200""></p>","","","","","","","","","","","",""
"","633.1650000065565","sequential-stimulus-presentation","107","257314","0.0-23.0-1.4","SS1613100833955","trial","","40","800","1433.1650000065565","images/stimuli/spore_stims/complex_01_A_d.gif","images/stimuli/spore_stims/complex_06_B_c.gif","","","","","5","complex_dissimilar","images/stimuli/spore_stims/complex_06_B_c.gif","left","","","","",""
"","null","html-keyboard-response","108","258496","0.0-23.0-0.5","SS1613100833955","","","null","","","","","<p><img src= images/blank.png width =""200"" height = ""200"" style = ""float:right""></p><p><img src=images/blank.png width =""800"" height = ""200""></p>","","","","","","","","","","","",""
"","601.0750001296401","sequential-stimulus-presentation","109","259916","0.0-23.0-1.5","SS1613100833955","trial","","40","800","1401.07500012964","images/stimuli/spore_stims/complex_01_A_d.gif","images/stimuli/spore_stims/complex_06_B_c.gif","","","","","5","complex_dissimilar","images/stimuli/spore_stims/complex_06_B_c.gif","left","","","","",""
"","null","html-keyboard-response","110","260880","0.0-23.0-0.6","SS1613100833955","","","null","","","","","<p><img src= images/blank.png width =""200"" height = ""200"" style = ""float:right""></p><p><img src=images/blank.png width =""800"" height = ""200""></p>","","","","","","","","","","","",""
"","613.3749999571592","sequential-stimulus-presentation","111","262321","0.0-23.0-1.6","SS1613100833955","trial","","40","800","1413.3749999571592","images/stimuli/spore_stims/complex_01_A_d.gif","images/stimuli/spore_stims/complex_06_B_c.gif","","","","","5","complex_dissimilar","images/stimuli/spore_stims/complex_06_B_c.gif","left","","","","",""
"","null","html-keyboard-response","112","263468","0.0-23.0-0.7","SS1613100833955","","","null","","","","","<p><img src= images/blank.png width =""200"" height = ""200"" style = ""float:right""></p><p><img src=images/blank.png width =""800"" height = ""200""></p>","","","","","","","","","","","",""
"","595.9900000598282","sequential-stimulus-presentation","113","264921","0.0-23.0-1.7","SS1613100833955","trial","","40","800","1395.9900000598282","images/stimuli/spore_stims/complex_01_A_d.gif","images/stimuli/spore_stims/complex_06_B_c.gif","","","","","5","complex_dissimilar","images/stimuli/spore_stims/complex_01_A_d.gif","right","","","","",""
"","2051.4749998692423","html-keyboard-response","114","266978","0.0-24.0","SS1613100833955","pref_question","","51","","","","","<video width ='960' height = '540' style='padding-top:8%' autoplay muted><source src='images/stimuli/wall_pref.mp4' type='video/mp4'></video>","3","right","66%","5","","","","","","","",""
"","1228.4200000576675","sequential-stimulus-presentation","115","269213","0.0-25.0","SS1613100833955","pref_reveal","","40","800","2028.4200000576675","null","null","","","","","5","","","","deviant","","","",""
"","null","html-keyboard-response","116","270101","0.0-26.0-0.0","SS1613100833955","","","null","","","","","<p><img src= images/blank.png width =""200"" height = ""200"" style = ""float:right""></p><p><img src=images/blank.png width =""800"" height = ""200""></p>","","","","","","","","","","","",""
"","2039.5050002261996","sequential-stimulus-presentation","117","272954","0.0-26.0-1.0","SS1613100833955","trial","","40","800","2839.5050002261996","images/stimuli/spore_stims/simple_07_B_c.gif","images/stimuli/spore_stims/simple_07_A_c.gif","","","","","6","simple_similar","images/stimuli/spore_stims/simple_07_A_c.gif","left","","","","",""
"","null","html-keyboard-response","118","273773","0.0-26.0-0.1","SS1613100833955","","","null","","","","","<p><img src= images/blank.png width =""200"" height = ""200"" style = ""float:right""></p><p><img src=images/blank.png width =""800"" height = ""200""></p>","","","","","","","","","","","",""
"","117.63999983668327","sequential-stimulus-presentation","119","274721","0.0-26.0-1.1","SS1613100833955","trial","","40","800","917.6399998366833","images/stimuli/spore_stims/simple_07_B_c.gif","images/stimuli/spore_stims/simple_07_A_c.gif","","","","","6","simple_similar","images/stimuli/spore_stims/simple_07_A_c.gif","left","","","","",""
"","null","html-keyboard-response","120","275648","0.0-26.0-0.2","SS1613100833955","","","null","","","","","<p><img src= images/blank.png width =""200"" height = ""200"" style = ""float:right""></p><p><img src=images/blank.png width =""800"" height = ""200""></p>","","","","","","","","","","","",""
"","549.2000000085682","sequential-stimulus-presentation","121","277023","0.0-26.0-1.2","SS1613100833955","trial","","40","800","1349.2000000085682","images/stimuli/spore_stims/simple_07_B_c.gif","images/stimuli/spore_stims/simple_07_A_c.gif","","","","","6","simple_similar","images/stimuli/spore_stims/simple_07_A_c.gif","left","","","","",""
"","null","html-keyboard-response","122","278312","0.0-26.0-0.3","SS1613100833955","","","null","","","","","<p><img src= images/blank.png width =""200"" height = ""200"" style = ""float:right""></p><p><img src=images/blank.png width =""800"" height = ""200""></p>","","","","","","","","","","","",""
"","514.6099999547005","sequential-stimulus-presentation","123","279642","0.0-26.0-1.3","SS1613100833955","trial","","40","800","1314.6099999547005","images/stimuli/spore_stims/simple_07_B_c.gif","images/stimuli/spore_stims/simple_07_A_c.gif","","","","","6","simple_similar","images/stimuli/spore_stims/simple_07_A_c.gif","left","","","","",""
"","null","html-keyboard-response","124","280779","0.0-26.0-0.4","SS1613100833955","","","null","","","","","<p><img src= images/blank.png width =""200"" height = ""200"" style = ""float:right""></p><p><img src=images/blank.png width =""800"" height = ""200""></p>","","","","","","","","","","","",""
"","522.4100002087653","sequential-stimulus-presentation","125","282122","0.0-26.0-1.4","SS1613100833955","trial","","40","800","1322.4100002087653","images/stimuli/spore_stims/simple_07_B_c.gif","images/stimuli/spore_stims/simple_07_A_c.gif","","","","","6","simple_similar","images/stimuli/spore_stims/simple_07_A_c.gif","left","","","","",""
"","null","html-keyboard-response","126","283137","0.0-26.0-0.5","SS1613100833955","","","null","","","","","<p><img src= images/blank.png width =""200"" height = ""200"" style = ""float:right""></p><p><img src=images/blank.png width =""800"" height = ""200""></p>","","","","","","","","","","","",""
"","566.0599998664111","sequential-stimulus-presentation","127","284514","0.0-26.0-1.5","SS1613100833955","trial","","40","800","1366.059999866411","images/stimuli/spore_stims/simple_07_B_c.gif","images/stimuli/spore_stims/simple_07_A_c.gif","","","","","6","simple_similar","images/stimuli/spore_stims/simple_07_B_c.gif","middle","","","","",""
"","null","html-keyboard-response","128","285410","0.0-26.0-0.6","SS1613100833955","","","null","","","","","<p><img src= images/blank.png width =""200"" height = ""200"" style = ""float:right""></p><p><img src=images/blank.png width =""800"" height = ""200""></p>","","","","","","","","","","","",""
"","468.6900000087917","sequential-stimulus-presentation","129","286701","0.0-26.0-1.6","SS1613100833955","trial","","40","800","1268.6900000087917","images/stimuli/spore_stims/simple_07_B_c.gif","images/stimuli/spore_stims/simple_07_A_c.gif","","","","","6","simple_similar","images/stimuli/spore_stims/simple_07_A_c.gif","left","","","","",""
"","null","html-keyboard-response","130","287706","0.0-26.0-0.7","SS1613100833955","","","null","","","","","<p><img src= images/blank.png width =""200"" height = ""200"" style = ""float:right""></p><p><img src=images/blank.png width =""800"" height = ""200""></p>","","","","","","","","","","","",""
"","480.5550000164658","sequential-stimulus-presentation","131","289073","0.0-26.0-1.7","SS1613100833955","trial","","40","800","1280.5550000164658","images/stimuli/spore_stims/simple_07_B_c.gif","images/stimuli/spore_stims/simple_07_A_c.gif","","","","","6","simple_similar","images/stimuli/spore_stims/simple_07_A_c.gif","left","","","","",""
"","1721.9849999528378","html-keyboard-response","132","290801","0.0-27.0","SS1613100833955","pref_question","","50","","","","","<video width ='960' height = '540' style='padding-top:8%' autoplay muted><source src='images/stimuli/wall_pref.mp4' type='video/mp4'></video>","2","middle","45%","6","","","","","","","",""
"","822.7399999741465","sequential-stimulus-presentation","133","292433","0.0-28.0","SS1613100833955","pref_reveal","","40","800","1622.7399999741465","null","null","","","","","6","","","","deviant","","","",""
"","null","html-keyboard-response","134","293502","0.0-29.0-0.0","SS1613100833955","","","null","","","","","<p><img src= images/blank.png width =""200"" height = ""200"" style = ""float:right""></p><p><img src=images/blank.png width =""800"" height = ""200""></p>","","","","","","","","","","","",""
"","604.4000000692904","sequential-stimulus-presentation","135","294945","0.0-29.0-1.0","SS1613100833955","trial","","40","800","1404.4000000692904","images/stimuli/spore_stims/complex_08_A_c.gif","images/stimuli/spore_stims/complex_08_B_c.gif","","","","","7","complex_similar","images/stimuli/spore_stims/complex_08_B_c.gif","right","","","","",""
"","null","html-keyboard-response","136","295855","0.0-29.0-0.1","SS1613100833955","","","null","","","","","<p><img src= images/blank.png width =""200"" height = ""200"" style = ""float:right""></p><p><img src=images/blank.png width =""800"" height = ""200""></p>","","","","","","","","","","","",""
"","508.5750001017004","sequential-stimulus-presentation","137","297177","0.0-29.0-1.1","SS1613100833955","trial","","40","800","1308.5750001017004","images/stimuli/spore_stims/complex_08_A_c.gif","images/stimuli/spore_stims/complex_08_B_c.gif","","","","","7","complex_similar","images/stimuli/spore_stims/complex_08_B_c.gif","right","","","","",""
"","null","html-keyboard-response","138","297987","0.0-29.0-0.2","SS1613100833955","","","null","","","","","<p><img src= images/blank.png width =""200"" height = ""200"" style = ""float:right""></p><p><img src=images/blank.png width =""800"" height = ""200""></p>","","","","","","","","","","","",""
"","500.02000015228987","sequential-stimulus-presentation","139","299315","0.0-29.0-1.2","SS1613100833955","trial","","40","800","1300.0200001522899","images/stimuli/spore_stims/complex_08_A_c.gif","images/stimuli/spore_stims/complex_08_B_c.gif","","","","","7","complex_similar","images/stimuli/spore_stims/complex_08_B_c.gif","right","","","","",""
"","null","html-keyboard-response","140","300219","0.0-29.0-0.3","SS1613100833955","","","null","","","","","<p><img src= images/blank.png width =""200"" height = ""200"" style = ""float:right""></p><p><img src=images/blank.png width =""800"" height = ""200""></p>","","","","","","","","","","","",""
"","607.9949999693781","sequential-stimulus-presentation","141","301641","0.0-29.0-1.3","SS1613100833955","trial","","40","800","1407.9949999693781","images/stimuli/spore_stims/complex_08_A_c.gif","images/stimuli/spore_stims/complex_08_B_c.gif","","","","","7","complex_similar","images/stimuli/spore_stims/complex_08_B_c.gif","right","","","","",""
"","null","html-keyboard-response","142","302707","0.0-29.0-0.4","SS1613100833955","","","null","","","","","<p><img src= images/blank.png width =""200"" height = ""200"" style = ""float:right""></p><p><img src=images/blank.png width =""800"" height = ""200""></p>","","","","","","","","","","","",""
"","457.7249998692423","sequential-stimulus-presentation","143","303985","0.0-29.0-1.4","SS1613100833955","trial","","40","800","1257.7249998692423","images/stimuli/spore_stims/complex_08_A_c.gif","images/stimuli/spore_stims/complex_08_B_c.gif","","","","","7","complex_similar","images/stimuli/spore_stims/complex_08_B_c.gif","right","","","","",""
"","null","html-keyboard-response","144","305104","0.0-29.0-0.5","SS1613100833955","","","null","","","","","<p><img src= images/blank.png width =""200"" height = ""200"" style = ""float:right""></p><p><img src=images/blank.png width =""800"" height = ""200""></p>","","","","","","","","","","","",""
"","493.6949999537319","sequential-stimulus-presentation","145","306505","0.0-29.0-1.5","SS1613100833955","trial","","40","800","1293.694999953732","images/stimuli/spore_stims/complex_08_A_c.gif","images/stimuli/spore_stims/complex_08_B_c.gif","","","","","7","complex_similar","images/stimuli/spore_stims/complex_08_A_c.gif","left","","","","",""
"","null","html-keyboard-response","146","307736","0.0-29.0-0.6","SS1613100833955","","","null","","","","","<p><img src= images/blank.png width =""200"" height = ""200"" style = ""float:right""></p><p><img src=images/blank.png width =""800"" height = ""200""></p>","","","","","","","","","","","",""
"","93.06000010110438","sequential-stimulus-presentation","147","308653","0.0-29.0-1.6","SS1613100833955","trial","","40","800","893.0600001011044","images/stimuli/spore_stims/complex_08_A_c.gif","images/stimuli/spore_stims/complex_08_B_c.gif","","","","","7","complex_similar","images/stimuli/spore_stims/complex_08_B_c.gif","right","","","","",""
"","null","html-keyboard-response","148","309763","0.0-29.0-0.7","SS1613100833955","","","null","","","","","<p><img src= images/blank.png width =""200"" height = ""200"" style = ""float:right""></p><p><img src=images/blank.png width =""800"" height = ""200""></p>","","","","","","","","","","","",""
"","542.105000000447","sequential-stimulus-presentation","149","311258","0.0-29.0-1.7","SS1613100833955","trial","","40","800","1342.105000000447","images/stimuli/spore_stims/complex_08_A_c.gif","images/stimuli/spore_stims/complex_08_B_c.gif","","","","","7","complex_similar","images/stimuli/spore_stims/complex_08_B_c.gif","right","","","","",""
"","1081.0149998869747","html-keyboard-response","150","312346","0.0-30.0","SS1613100833955","pref_question","","50","","","","","<video width ='960' height = '540' style='padding-top:8%' autoplay muted><source src='images/stimuli/wall_pref.mp4' type='video/mp4'></video>","2","middle","45%","7","","","","","","","",""
"","872.4149998743087","sequential-stimulus-presentation","151","314033","0.0-31.0","SS1613100833955","pref_reveal","","40","800","1672.4149998743087","null","null","","","","","7","","","","novel","","","",""
"","null","html-keyboard-response","152","315009","0.0-32.0-0.0","SS1613100833955","","","null","","","","","<p><img src= images/blank.png width =""200"" height = ""200"" style = ""float:right""></p><p><img src=images/blank.png width =""800"" height = ""200""></p>","","","","","","","","","","","",""
"","1.4799998607486486","sequential-stimulus-presentation","153","315936","0.0-32.0-1.0","SS1613100833955","trial","","40","800","801.4799998607486","images/stimuli/spore_stims/simple_03_B_b.gif","images/stimuli/spore_stims/simple_13_B_b.gif","","","","","8","simple_dissimilar","images/stimuli/spore_stims/simple_13_B_b.gif","left","","","","",""
"","null","html-keyboard-response","154","316869","0.0-32.0-0.1","SS1613100833955","","","null","","","","","<p><img src= images/blank.png width =""200"" height = ""200"" style = ""float:right""></p><p><img src=images/blank.png width =""800"" height = ""200""></p>","","","","","","","","","","","",""
"","1471.6849999967963","sequential-stimulus-presentation","155","319153","0.0-32.0-1.1","SS1613100833955","trial","","40","800","2271.6849999967963","images/stimuli/spore_stims/simple_03_B_b.gif","images/stimuli/spore_stims/simple_13_B_b.gif","","","","","8","simple_dissimilar","images/stimuli/spore_stims/simple_13_B_b.gif","left","","","","",""
"","null","html-keyboard-response","156","320388","0.0-32.0-0.2","SS1613100833955","","","null","","","","","<p><img src= images/blank.png width =""200"" height = ""200"" style = ""float:right""></p><p><img src=images/blank.png width =""800"" height = ""200""></p>","","","","","","","","","","","",""
"","488.60000004060566","sequential-stimulus-presentation","157","321706","0.0-32.0-1.2","SS1613100833955","trial","","40","800","1288.6000000406057","images/stimuli/spore_stims/simple_03_B_b.gif","images/stimuli/spore_stims/simple_13_B_b.gif","","","","","8","simple_dissimilar","images/stimuli/spore_stims/simple_13_B_b.gif","left","","","","",""
"","null","html-keyboard-response","158","322814","0.0-32.0-0.3","SS1613100833955","","","null","","","","","<p><img src= images/blank.png width =""200"" height = ""200"" style = ""float:right""></p><p><img src=images/blank.png width =""800"" height = ""200""></p>","","","","","","","","","","","",""
"","496.32999999448657","sequential-stimulus-presentation","159","324138","0.0-32.0-1.3","SS1613100833955","trial","","40","800","1296.3299999944866","images/stimuli/spore_stims/simple_03_B_b.gif","images/stimuli/spore_stims/simple_13_B_b.gif","","","","","8","simple_dissimilar","images/stimuli/spore_stims/simple_13_B_b.gif","left","","","","",""
"","null","html-keyboard-response","160","325228","0.0-32.0-0.4","SS1613100833955","","","null","","","","","<p><img src= images/blank.png width =""200"" height = ""200"" style = ""float:right""></p><p><img src=images/blank.png width =""800"" height = ""200""></p>","","","","","","","","","","","",""
"","513.3549999445677","sequential-stimulus-presentation","161","326554","0.0-32.0-1.4","SS1613100833955","trial","","40","800","1313.3549999445677","images/stimuli/spore_stims/simple_03_B_b.gif","images/stimuli/spore_stims/simple_13_B_b.gif","","","","","8","simple_dissimilar","images/stimuli/spore_stims/simple_13_B_b.gif","left","","","","",""
"","null","html-keyboard-response","162","327489","0.0-32.0-0.5","SS1613100833955","","","null","","","","","<p><img src= images/blank.png width =""200"" height = ""200"" style = ""float:right""></p><p><img src=images/blank.png width =""800"" height = ""200""></p>","","","","","","","","","","","",""
"","501.1799999047071","sequential-stimulus-presentation","163","328818","0.0-32.0-1.5","SS1613100833955","trial","","40","800","1301.179999904707","images/stimuli/spore_stims/simple_03_B_b.gif","images/stimuli/spore_stims/simple_13_B_b.gif","","","","","8","simple_dissimilar","images/stimuli/spore_stims/simple_13_B_b.gif","left","","","","",""
"","null","html-keyboard-response","164","329806","0.0-32.0-0.6","SS1613100833955","","","null","","","","","<p><img src= images/blank.png width =""200"" height = ""200"" style = ""float:right""></p><p><img src=images/blank.png width =""800"" height = ""200""></p>","","","","","","","","","","","",""
"","495.3850000165403","sequential-stimulus-presentation","165","331170","0.0-32.0-1.6","SS1613100833955","trial","","40","800","1295.3850000165403","images/stimuli/spore_stims/simple_03_B_b.gif","images/stimuli/spore_stims/simple_13_B_b.gif","","","","","8","simple_dissimilar","images/stimuli/spore_stims/simple_13_B_b.gif","left","","","","",""
"","null","html-keyboard-response","166","332264","0.0-32.0-0.7","SS1613100833955","","","null","","","","","<p><img src= images/blank.png width =""200"" height = ""200"" style = ""float:right""></p><p><img src=images/blank.png width =""800"" height = ""200""></p>","","","","","","","","","","","",""
"","269.0900000743568","sequential-stimulus-presentation","167","333347","0.0-32.0-1.7","SS1613100833955","trial","","40","800","1069.0900000743568","images/stimuli/spore_stims/simple_03_B_b.gif","images/stimuli/spore_stims/simple_13_B_b.gif","","","","","8","simple_dissimilar","images/stimuli/spore_stims/simple_03_B_b.gif","right","","","","",""
"","1904.0949998889118","html-keyboard-response","168","335258","0.0-33.0","SS1613100833955","pref_question","","50","","","","","<video width ='960' height = '540' style='padding-top:8%' autoplay muted><source src='images/stimuli/wall_pref.mp4' type='video/mp4'></video>","2","middle","45%","8","","","","","","","",""
"","582.1199999190867","sequential-stimulus-presentation","169","336651","0.0-34.0","SS1613100833955","pref_reveal","","40","800","1382.1199999190867","null","null","","","","","8","","","","novel","","","",""
"","null","html-keyboard-response","170","337744","0.0-35.0-0.0","SS1613100833955","","","null","","","","","<p><img src= images/blank.png width =""200"" height = ""200"" style = ""float:right""></p><p><img src=images/blank.png width =""800"" height = ""200""></p>","","","","","","","","","","","",""
"","766.4749999530613","sequential-stimulus-presentation","171","339333","0.0-35.0-1.0","SS1613100833955","trial","","40","800","1566.4749999530613","images/stimuli/spore_stims/complex_11_B_a.gif","images/stimuli/spore_stims/complex_01_B_a.gif","","","","","9","complex_dissimilar","images/stimuli/spore_stims/complex_01_B_a.gif","middle","","","","",""
"","null","html-keyboard-response","172","340452","0.0-35.0-0.1","SS1613100833955","","","null","","","","","<p><img src= images/blank.png width =""200"" height = ""200"" style = ""float:right""></p><p><img src=images/blank.png width =""800"" height = ""200""></p>","","","","","","","","","","","",""
"","813.750000204891","sequential-stimulus-presentation","173","342187","0.0-35.0-1.1","SS1613100833955","trial","","40","800","1613.750000204891","images/stimuli/spore_stims/complex_11_B_a.gif","images/stimuli/spore_stims/complex_01_B_a.gif","","","","","9","complex_dissimilar","images/stimuli/spore_stims/complex_01_B_a.gif","middle","","","","",""
"","null","html-keyboard-response","174","343049","0.0-35.0-0.2","SS1613100833955","","","null","","","","","<p><img src= images/blank.png width =""200"" height = ""200"" style = ""float:right""></p><p><img src=images/blank.png width =""800"" height = ""200""></p>","","","","","","","","","","","",""
"","95.98000021651387","sequential-stimulus-presentation","175","343958","0.0-35.0-1.2","SS1613100833955","trial","","40","800","895.9800002165139","images/stimuli/spore_stims/complex_11_B_a.gif","images/stimuli/spore_stims/complex_01_B_a.gif","","","","","9","complex_dissimilar","images/stimuli/spore_stims/complex_11_B_a.gif","right","","","","",""
"","null","html-keyboard-response","176","345043","0.0-35.0-0.3","SS1613100833955","","","null","","","","","<p><img src= images/blank.png width =""200"" height = ""200"" style = ""float:right""></p><p><img src=images/blank.png width =""800"" height = ""200""></p>","","","","","","","","","","","",""
"","918.0199999827892","sequential-stimulus-presentation","177","346776","0.0-35.0-1.3","SS1613100833955","trial","","40","800","1718.0199999827892","images/stimuli/spore_stims/complex_11_B_a.gif","images/stimuli/spore_stims/complex_01_B_a.gif","","","","","9","complex_dissimilar","images/stimuli/spore_stims/complex_01_B_a.gif","middle","","","","",""
"","null","html-keyboard-response","178","347707","0.0-35.0-0.4","SS1613100833955","","","null","","","","","<p><img src= images/blank.png width =""200"" height = ""200"" style = ""float:right""></p><p><img src=images/blank.png width =""800"" height = ""200""></p>","","","","","","","","","","","",""
"","711.5700000431389","sequential-stimulus-presentation","179","349308","0.0-35.0-1.4","SS1613100833955","trial","","40","800","1511.5700000431389","images/stimuli/spore_stims/complex_11_B_a.gif","images/stimuli/spore_stims/complex_01_B_a.gif","","","","","9","complex_dissimilar","images/stimuli/spore_stims/complex_01_B_a.gif","middle","","","","",""
"","null","html-keyboard-response","180","350402","0.0-35.0-0.5","SS1613100833955","","","null","","","","","<p><img src= images/blank.png width =""200"" height = ""200"" style = ""float:right""></p><p><img src=images/blank.png width =""800"" height = ""200""></p>","","","","","","","","","","","",""
"","544.5850000251085","sequential-stimulus-presentation","181","351764","0.0-35.0-1.5","SS1613100833955","trial","","40","800","1344.5850000251085","images/stimuli/spore_stims/complex_11_B_a.gif","images/stimuli/spore_stims/complex_01_B_a.gif","","","","","9","complex_dissimilar","images/stimuli/spore_stims/complex_01_B_a.gif","middle","","","","",""
"","null","html-keyboard-response","182","352962","0.0-35.0-0.6","SS1613100833955","","","null","","","","","<p><img src= images/blank.png width =""200"" height = ""200"" style = ""float:right""></p><p><img src=images/blank.png width =""800"" height = ""200""></p>","","","","","","","","","","","",""
"","543.1049999315292","sequential-stimulus-presentation","183","354323","0.0-35.0-1.6","SS1613100833955","trial","","40","800","1343.1049999315292","images/stimuli/spore_stims/complex_11_B_a.gif","images/stimuli/spore_stims/complex_01_B_a.gif","","","","","9","complex_dissimilar","images/stimuli/spore_stims/complex_01_B_a.gif","middle","","","","",""
"","null","html-keyboard-response","184","355255","0.0-35.0-0.7","SS1613100833955","","","null","","","","","<p><img src= images/blank.png width =""200"" height = ""200"" style = ""float:right""></p><p><img src=images/blank.png width =""800"" height = ""200""></p>","","","","","","","","","","","",""
"","513.9300001319498","sequential-stimulus-presentation","185","356644","0.0-35.0-1.7","SS1613100833955","trial","","40","800","1313.9300001319498","images/stimuli/spore_stims/complex_11_B_a.gif","images/stimuli/spore_stims/complex_01_B_a.gif","","","","","9","complex_dissimilar","images/stimuli/spore_stims/complex_01_B_a.gif","middle","","","","",""
"","1167.4900001380593","html-keyboard-response","186","357818","0.0-36.0","SS1613100833955","pref_question","","49","","","","","<video width ='960' height = '540' style='padding-top:8%' autoplay muted><source src='images/stimuli/wall_pref.mp4' type='video/mp4'></video>","1","left","25%","9","","","","","","","",""
"","569.5299999788404","sequential-stimulus-presentation","187","359213","0.0-37.0","SS1613100833955","pref_reveal","","40","800","1369.5299999788404","null","null","","","","","9","","","","novel","","","",""
"","null","html-keyboard-response","188","360422","0.0-38.0-0.0","SS1613100833955","","","null","","","","","<p><img src= images/blank.png width =""200"" height = ""200"" style = ""float:right""></p><p><img src=images/blank.png width =""800"" height = ""200""></p>","","","","","","","","","","","",""
"","503.49500006996095","sequential-stimulus-presentation","189","361739","0.0-38.0-1.0","SS1613100833955","trial","","40","800","1303.495000069961","images/stimuli/spore_stims/simple_15_B_a.gif","images/stimuli/spore_stims/simple_16_B_a.gif","","","","","10","simple_dissimilar","images/stimuli/spore_stims/simple_16_B_a.gif","left","","","","",""
"","null","html-keyboard-response","190","362667","0.0-38.0-0.1","SS1613100833955","","","null","","","","","<p><img src= images/blank.png width =""200"" height = ""200"" style = ""float:right""></p><p><img src=images/blank.png width =""800"" height = ""200""></p>","","","","","","","","","","","",""
"","457.37000019289553","sequential-stimulus-presentation","191","363939","0.0-38.0-1.1","SS1613100833955","trial","","40","800","1257.3700001928955","images/stimuli/spore_stims/simple_15_B_a.gif","images/stimuli/spore_stims/simple_16_B_a.gif","","","","","10","simple_dissimilar","images/stimuli/spore_stims/simple_16_B_a.gif","left","","","","",""
"","null","html-keyboard-response","192","365058","0.0-38.0-0.2","SS1613100833955","","","null","","","","","<p><img src= images/blank.png width =""200"" height = ""200"" style = ""float:right""></p><p><img src=images/blank.png width =""800"" height = ""200""></p>","","","","","","","","","","","",""
"","215.48999985679984","sequential-stimulus-presentation","193","366103","0.0-38.0-1.2","SS1613100833955","trial","","40","800","1015.4899998567998","images/stimuli/spore_stims/simple_15_B_a.gif","images/stimuli/spore_stims/simple_16_B_a.gif","","","","","10","simple_dissimilar","images/stimuli/spore_stims/simple_15_B_a.gif","right","","","","",""
"","null","html-keyboard-response","194","367003","0.0-38.0-0.3","SS1613100833955","","","null","","","","","<p><img src= images/blank.png width =""200"" height = ""200"" style = ""float:right""></p><p><img src=images/blank.png width =""800"" height = ""200""></p>","","","","","","","","","","","",""
"","146.48499991744757","sequential-stimulus-presentation","195","367994","0.0-38.0-1.3","SS1613100833955","trial","","40","800","946.4849999174476","images/stimuli/spore_stims/simple_15_B_a.gif","images/stimuli/spore_stims/simple_16_B_a.gif","","","","","10","simple_dissimilar","images/stimuli/spore_stims/simple_16_B_a.gif","left","","","","",""
"","null","html-keyboard-response","196","368811","0.0-38.0-0.4","SS1613100833955","","","null","","","","","<p><img src= images/blank.png width =""200"" height = ""200"" style = ""float:right""></p><p><img src=images/blank.png width =""800"" height = ""200""></p>","","","","","","","","","","","",""
"","667.8500000853091","sequential-stimulus-presentation","197","370292","0.0-38.0-1.4","SS1613100833955","trial","","40","800","1467.8500000853091","images/stimuli/spore_stims/simple_15_B_a.gif","images/stimuli/spore_stims/simple_16_B_a.gif","","","","","10","simple_dissimilar","images/stimuli/spore_stims/simple_16_B_a.gif","left","","","","",""
"","null","html-keyboard-response","198","371594","0.0-38.0-0.5","SS1613100833955","","","null","","","","","<p><img src= images/blank.png width =""200"" height = ""200"" style = ""float:right""></p><p><img src=images/blank.png width =""800"" height = ""200""></p>","","","","","","","","","","","",""
"","523.5049999319017","sequential-stimulus-presentation","199","372933","0.0-38.0-1.5","SS1613100833955","trial","","40","800","1323.5049999319017","images/stimuli/spore_stims/simple_15_B_a.gif","images/stimuli/spore_stims/simple_16_B_a.gif","","","","","10","simple_dissimilar","images/stimuli/spore_stims/simple_16_B_a.gif","left","","","","",""
"","null","html-keyboard-response","200","374035","0.0-38.0-0.6","SS1613100833955","","","null","","","","","<p><img src= images/blank.png width =""200"" height = ""200"" style = ""float:right""></p><p><img src=images/blank.png width =""800"" height = ""200""></p>","","","","","","","","","","","",""
"","1451.3400001451373","sequential-stimulus-presentation","201","376306","0.0-38.0-1.6","SS1613100833955","trial","","40","800","2251.3400001451373","images/stimuli/spore_stims/simple_15_B_a.gif","images/stimuli/spore_stims/simple_16_B_a.gif","","","","","10","simple_dissimilar","images/stimuli/spore_stims/simple_16_B_a.gif","left","","","","",""
"","null","html-keyboard-response","202","377245","0.0-38.0-0.7","SS1613100833955","","","null","","","","","<p><img src= images/blank.png width =""200"" height = ""200"" style = ""float:right""></p><p><img src=images/blank.png width =""800"" height = ""200""></p>","","","","","","","","","","","",""
"","942.5949999131262","sequential-stimulus-presentation","203","379011","0.0-38.0-1.7","SS1613100833955","trial","","40","800","1742.5949999131262","images/stimuli/spore_stims/simple_15_B_a.gif","images/stimuli/spore_stims/simple_16_B_a.gif","","","","","10","simple_dissimilar","images/stimuli/spore_stims/simple_16_B_a.gif","left","","","","",""
"","1175.83499988541","html-keyboard-response","204","380195","0.0-39.0","SS1613100833955","pref_question","","49","","","","","<video width ='960' height = '540' style='padding-top:8%' autoplay muted><source src='images/stimuli/wall_pref.mp4' type='video/mp4'></video>","1","left","25%","10","","","","","","","",""
"","536.3499999511987","sequential-stimulus-presentation","205","381554","0.0-40.0","SS1613100833955","pref_reveal","","40","800","1336.3499999511987","null","null","","","","","10","","","","background","","","",""
"","null","html-keyboard-response","206","382710","0.0-41.0-0.0","SS1613100833955","","","null","","","","","<p><img src= images/blank.png width =""200"" height = ""200"" style = ""float:right""></p><p><img src=images/blank.png width =""800"" height = ""200""></p>","","","","","","","","","","","",""
"","911.7000000551343","sequential-stimulus-presentation","207","384683","0.0-41.0-1.0","SS1613100833955","trial","","40","800","1711.7000000551343","images/stimuli/spore_stims/complex_18_B_b.gif","images/stimuli/spore_stims/complex_18_A_b.gif","","","","","11","complex_similar","images/stimuli/spore_stims/complex_18_A_b.gif","right","","","","",""
"","null","html-keyboard-response","208","385644","0.0-41.0-0.1","SS1613100833955","","","null","","","","","<p><img src= images/blank.png width =""200"" height = ""200"" style = ""float:right""></p><p><img src=images/blank.png width =""800"" height = ""200""></p>","","","","","","","","","","","",""
"","978.3799999859184","sequential-stimulus-presentation","209","387435","0.0-41.0-1.1","SS1613100833955","trial","","40","800","1778.3799999859184","images/stimuli/spore_stims/complex_18_B_b.gif","images/stimuli/spore_stims/complex_18_A_b.gif","","","","","11","complex_similar","images/stimuli/spore_stims/complex_18_A_b.gif","right","","","","",""
"","null","html-keyboard-response","210","388613","0.0-41.0-0.2","SS1613100833955","","","null","","","","","<p><img src= images/blank.png width =""200"" height = ""200"" style = ""float:right""></p><p><img src=images/blank.png width =""800"" height = ""200""></p>","","","","","","","","","","","",""
"","809.0949999168515","sequential-stimulus-presentation","211","390234","0.0-41.0-1.2","SS1613100833955","trial","","40","800","1609.0949999168515","images/stimuli/spore_stims/complex_18_B_b.gif","images/stimuli/spore_stims/complex_18_A_b.gif","","","","","11","complex_similar","images/stimuli/spore_stims/complex_18_B_b.gif","left","","","","",""
"","null","html-keyboard-response","212","391247","0.0-41.0-0.3","SS1613100833955","","","null","","","","","<p><img src= images/blank.png width =""200"" height = ""200"" style = ""float:right""></p><p><img src=images/blank.png width =""800"" height = ""200""></p>","","","","","","","","","","","",""
"","676.7849999014288","sequential-stimulus-presentation","213","392739","0.0-41.0-1.3","SS1613100833955","trial","","40","800","1476.7849999014288","images/stimuli/spore_stims/complex_18_B_b.gif","images/stimuli/spore_stims/complex_18_A_b.gif","","","","","11","complex_similar","images/stimuli/spore_stims/complex_18_A_b.gif","right","","","","",""
"","null","html-keyboard-response","214","393869","0.0-41.0-0.4","SS1613100833955","","","null","","","","","<p><img src= images/blank.png width =""200"" height = ""200"" style = ""float:right""></p><p><img src=images/blank.png width =""800"" height = ""200""></p>","","","","","","","","","","","",""
"","655.7350000366569","sequential-stimulus-presentation","215","395338","0.0-41.0-1.4","SS1613100833955","trial","","40","800","1455.7350000366569","images/stimuli/spore_stims/complex_18_B_b.gif","images/stimuli/spore_stims/complex_18_A_b.gif","","","","","11","complex_similar","images/stimuli/spore_stims/complex_18_A_b.gif","right","","","","",""
"","null","html-keyboard-response","216","396270","0.0-41.0-0.5","SS1613100833955","","","null","","","","","<p><img src= images/blank.png width =""200"" height = ""200"" style = ""float:right""></p><p><img src=images/blank.png width =""800"" height = ""200""></p>","","","","","","","","","","","",""
"","285.93500005081296","sequential-stimulus-presentation","217","397386","0.0-41.0-1.5","SS1613100833955","trial","","40","800","1085.935000050813","images/stimuli/spore_stims/complex_18_B_b.gif","images/stimuli/spore_stims/complex_18_A_b.gif","","","","","11","complex_similar","images/stimuli/spore_stims/complex_18_A_b.gif","right","","","","",""
"","null","html-keyboard-response","218","398201","0.0-41.0-0.6","SS1613100833955","","","null","","","","","<p><img src= images/blank.png width =""200"" height = ""200"" style = ""float:right""></p><p><img src=images/blank.png width =""800"" height = ""200""></p>","","","","","","","","","","","",""
"","599.5150001253933","sequential-stimulus-presentation","219","399630","0.0-41.0-1.6","SS1613100833955","trial","","40","800","1399.5150001253933","images/stimuli/spore_stims/complex_18_B_b.gif","images/stimuli/spore_stims/complex_18_A_b.gif","","","","","11","complex_similar","images/stimuli/spore_stims/complex_18_A_b.gif","right","","","","",""
"","null","html-keyboard-response","220","400935","0.0-41.0-0.7","SS1613100833955","","","null","","","","","<p><img src= images/blank.png width =""200"" height = ""200"" style = ""float:right""></p><p><img src=images/blank.png width =""800"" height = ""200""></p>","","","","","","","","","","","",""
"","265.90500003658235","sequential-stimulus-presentation","221","402012","0.0-41.0-1.7","SS1613100833955","trial","","40","800","1065.9050000365824","images/stimuli/spore_stims/complex_18_B_b.gif","images/stimuli/spore_stims/complex_18_A_b.gif","","","","","11","complex_similar","images/stimuli/spore_stims/complex_18_A_b.gif","right","","","","",""
"","2079.249999951571","html-keyboard-response","222","404099","0.0-42.0","SS1613100833955","pref_question","","51","","","","","<video width ='960' height = '540' style='padding-top:8%' autoplay muted><source src='images/stimuli/wall_pref.mp4' type='video/mp4'></video>","3","right","66%","11","","","","","","","",""
"","97.99499996006489","sequential-stimulus-presentation","223","405011","0.0-43.0","SS1613100833955","pref_reveal","","40","800","897.9949999600649","null","null","","","","","11","","","","background","","","",""
"","null","html-keyboard-response","224","406240","0.0-44.0-0.0","SS1613100833955","","","null","","","","","<p><img src= images/blank.png width =""200"" height = ""200"" style = ""float:right""></p><p><img src=images/blank.png width =""800"" height = ""200""></p>","","","","","","","","","","","",""
"","104.41499995067716","sequential-stimulus-presentation","225","407161","0.0-44.0-1.0","SS1613100833955","trial","","40","800","904.4149999506772","images/stimuli/spore_stims/complex_04_B_b.gif","images/stimuli/spore_stims/complex_17_A_d.gif","","","","","12","complex_dissimilar","images/stimuli/spore_stims/complex_17_A_d.gif","left","","","","",""
"","null","html-keyboard-response","226","408413","0.0-44.0-0.1","SS1613100833955","","","null","","","","","<p><img src= images/blank.png width =""200"" height = ""200"" style = ""float:right""></p><p><img src=images/blank.png width =""800"" height = ""200""></p>","","","","","","","","","","","",""
"","511.1549999564886","sequential-stimulus-presentation","227","409740","0.0-44.0-1.1","SS1613100833955","trial","","40","800","1311.1549999564886","images/stimuli/spore_stims/complex_04_B_b.gif","images/stimuli/spore_stims/complex_17_A_d.gif","","","","","12","complex_dissimilar","images/stimuli/spore_stims/complex_17_A_d.gif","left","","","","",""
"","null","html-keyboard-response","228","411038","0.0-44.0-0.2","SS1613100833955","","","null","","","","","<p><img src= images/blank.png width =""200"" height = ""200"" style = ""float:right""></p><p><img src=images/blank.png width =""800"" height = ""200""></p>","","","","","","","","","","","",""
"","471.79499990306795","sequential-stimulus-presentation","229","412435","0.0-44.0-1.2","SS1613100833955","trial","","40","800","1271.794999903068","images/stimuli/spore_stims/complex_04_B_b.gif","images/stimuli/spore_stims/complex_17_A_d.gif","","","","","12","complex_dissimilar","images/stimuli/spore_stims/complex_17_A_d.gif","left","","","","",""
"","null","html-keyboard-response","230","413556","0.0-44.0-0.3","SS1613100833955","","","null","","","","","<p><img src= images/blank.png width =""200"" height = ""200"" style = ""float:right""></p><p><img src=images/blank.png width =""800"" height = ""200""></p>","","","","","","","","","","","",""
"","920.589999994263","sequential-stimulus-presentation","231","415292","0.0-44.0-1.3","SS1613100833955","trial","","40","800","1720.589999994263","images/stimuli/spore_stims/complex_04_B_b.gif","images/stimuli/spore_stims/complex_17_A_d.gif","","","","","12","complex_dissimilar","images/stimuli/spore_stims/complex_17_A_d.gif","left","","","","",""
"","null","html-keyboard-response","232","416207","0.0-44.0-0.4","SS1613100833955","","","null","","","","","<p><img src= images/blank.png width =""200"" height = ""200"" style = ""float:right""></p><p><img src=images/blank.png width =""800"" height = ""200""></p>","","","","","","","","","","","",""
"","122.66999995335937","sequential-stimulus-presentation","233","417146","0.0-44.0-1.4","SS1613100833955","trial","","40","800","922.6699999533594","images/stimuli/spore_stims/complex_04_B_b.gif","images/stimuli/spore_stims/complex_17_A_d.gif","","","","","12","complex_dissimilar","images/stimuli/spore_stims/complex_04_B_b.gif","middle","","","","",""
"","null","html-keyboard-response","234","418388","0.0-44.0-0.5","SS1613100833955","","","null","","","","","<p><img src= images/blank.png width =""200"" height = ""200"" style = ""float:right""></p><p><img src=images/blank.png width =""800"" height = ""200""></p>","","","","","","","","","","","",""
"","1049.6099998708814","sequential-stimulus-presentation","235","420420","0.0-44.0-1.5","SS1613100833955","trial","","40","800","1849.6099998708814","images/stimuli/spore_stims/complex_04_B_b.gif","images/stimuli/spore_stims/complex_17_A_d.gif","","","","","12","complex_dissimilar","images/stimuli/spore_stims/complex_17_A_d.gif","left","","","","",""
"","null","html-keyboard-response","236","421263","0.0-44.0-0.6","SS1613100833955","","","null","","","","","<p><img src= images/blank.png width =""200"" height = ""200"" style = ""float:right""></p><p><img src=images/blank.png width =""800"" height = ""200""></p>","","","","","","","","","","","",""
"","520.334999775514","sequential-stimulus-presentation","237","422604","0.0-44.0-1.6","SS1613100833955","trial","","40","800","1320.334999775514","images/stimuli/spore_stims/complex_04_B_b.gif","images/stimuli/spore_stims/complex_17_A_d.gif","","","","","12","complex_dissimilar","images/stimuli/spore_stims/complex_17_A_d.gif","left","","","","",""
"","null","html-keyboard-response","238","423480","0.0-44.0-0.7","SS1613100833955","","","null","","","","","<p><img src= images/blank.png width =""200"" height = ""200"" style = ""float:right""></p><p><img src=images/blank.png width =""800"" height = ""200""></p>","","","","","","","","","","","",""
"","584.4449999276549","sequential-stimulus-presentation","239","424883","0.0-44.0-1.7","SS1613100833955","trial","","40","800","1384.4449999276549","images/stimuli/spore_stims/complex_04_B_b.gif","images/stimuli/spore_stims/complex_17_A_d.gif","","","","","12","complex_dissimilar","images/stimuli/spore_stims/complex_17_A_d.gif","left","","","","",""
"","1136.3450000062585","html-keyboard-response","240","426027","0.0-45.0","SS1613100833955","pref_question","","51","","","","","<video width ='960' height = '540' style='padding-top:8%' autoplay muted><source src='images/stimuli/wall_pref.mp4' type='video/mp4'></video>","3","right","66%","12","","","","","","","",""
"","939.2150000203401","sequential-stimulus-presentation","241","427780","0.0-46.0","SS1613100833955","pref_reveal","","40","800","1739.21500002034","null","null","","","","","12","","","","novel","","","",""
"","null","html-keyboard-response","242","429003","0.0-47.0-0.0","SS1613100833955","","","null","","","","","<p><img src= images/blank.png width =""200"" height = ""200"" style = ""float:right""></p><p><img src=images/blank.png width =""800"" height = ""200""></p>","","","","","","","","","","","",""
"","1060.7449999079108","sequential-stimulus-presentation","243","430907","0.0-47.0-1.0","SS1613100833955","trial","","40","800","1860.7449999079108","images/stimuli/spore_stims/complex_13_B_b.gif","images/stimuli/spore_stims/complex_13_A_b.gif","","","","","13","complex_similar","images/stimuli/spore_stims/complex_13_A_b.gif","right","","","","",""
"","null","html-keyboard-response","244","432054","0.0-47.0-0.1","SS1613100833955","","","null","","","","","<p><img src= images/blank.png width =""200"" height = ""200"" style = ""float:right""></p><p><img src=images/blank.png width =""800"" height = ""200""></p>","","","","","","","","","","","",""
"","1926.3849998824298","sequential-stimulus-presentation","245","434819","0.0-47.0-1.1","SS1613100833955","trial","","40","800","2726.38499988243","images/stimuli/spore_stims/complex_13_B_b.gif","images/stimuli/spore_stims/complex_13_A_b.gif","","","","","13","complex_similar","images/stimuli/spore_stims/complex_13_A_b.gif","right","","","","",""
"","null","html-keyboard-response","246","436053","0.0-47.0-0.2","SS1613100833955","","","null","","","","","<p><img src= images/blank.png width =""200"" height = ""200"" style = ""float:right""></p><p><img src=images/blank.png width =""800"" height = ""200""></p>","","","","","","","","","","","",""
"","709.8449999466538","sequential-stimulus-presentation","247","437579","0.0-47.0-1.2","SS1613100833955","trial","","40","800","1509.8449999466538","images/stimuli/spore_stims/complex_13_B_b.gif","images/stimuli/spore_stims/complex_13_A_b.gif","","","","","13","complex_similar","images/stimuli/spore_stims/complex_13_A_b.gif","right","","","","",""
"","null","html-keyboard-response","248","438918","0.0-47.0-0.3","SS1613100833955","","","null","","","","","<p><img src= images/blank.png width =""200"" height = ""200"" style = ""float:right""></p><p><img src=images/blank.png width =""800"" height = ""200""></p>","","","","","","","","","","","",""
"","1039.6900000050664","sequential-stimulus-presentation","249","440771","0.0-47.0-1.3","SS1613100833955","trial","","40","800","1839.6900000050664","images/stimuli/spore_stims/complex_13_B_b.gif","images/stimuli/spore_stims/complex_13_A_b.gif","","","","","13","complex_similar","images/stimuli/spore_stims/complex_13_A_b.gif","right","","","","",""
"","null","html-keyboard-response","250","441760","0.0-47.0-0.4","SS1613100833955","","","null","","","","","<p><img src= images/blank.png width =""200"" height = ""200"" style = ""float:right""></p><p><img src=images/blank.png width =""800"" height = ""200""></p>","","","","","","","","","","","",""
"","1156.9600000511855","sequential-stimulus-presentation","251","443731","0.0-47.0-1.4","SS1613100833955","trial","","40","800","1956.9600000511855","images/stimuli/spore_stims/complex_13_B_b.gif","images/stimuli/spore_stims/complex_13_A_b.gif","","","","","13","complex_similar","images/stimuli/spore_stims/complex_13_A_b.gif","right","","","","",""
"","null","html-keyboard-response","252","444715","0.0-47.0-0.5","SS1613100833955","","","null","","","","","<p><img src= images/blank.png width =""200"" height = ""200"" style = ""float:right""></p><p><img src=images/blank.png width =""800"" height = ""200""></p>","","","","","","","","","","","",""
"","510.6199998408556","sequential-stimulus-presentation","253","446043","0.0-47.0-1.5","SS1613100833955","trial","","40","800","1310.6199998408556","images/stimuli/spore_stims/complex_13_B_b.gif","images/stimuli/spore_stims/complex_13_A_b.gif","","","","","13","complex_similar","images/stimuli/spore_stims/complex_13_A_b.gif","right","","","","",""
"","null","html-keyboard-response","254","447216","0.0-47.0-0.6","SS1613100833955","","","null","","","","","<p><img src= images/blank.png width =""200"" height = ""200"" style = ""float:right""></p><p><img src=images/blank.png width =""800"" height = ""200""></p>","","","","","","","","","","","",""
"","673.149999929592","sequential-stimulus-presentation","255","448835","0.0-47.0-1.6","SS1613100833955","trial","","40","800","1473.149999929592","images/stimuli/spore_stims/complex_13_B_b.gif","images/stimuli/spore_stims/complex_13_A_b.gif","","","","","13","complex_similar","images/stimuli/spore_stims/complex_13_A_b.gif","right","","","","",""
"","null","html-keyboard-response","256","449973","0.0-47.0-0.7","SS1613100833955","","","null","","","","","<p><img src= images/blank.png width =""200"" height = ""200"" style = ""float:right""></p><p><img src=images/blank.png width =""800"" height = ""200""></p>","","","","","","","","","","","",""
"","494.1950000356883","sequential-stimulus-presentation","257","451299","0.0-47.0-1.7","SS1613100833955","trial","","40","800","1294.1950000356883","images/stimuli/spore_stims/complex_13_B_b.gif","images/stimuli/spore_stims/complex_13_A_b.gif","","","","","13","complex_similar","images/stimuli/spore_stims/complex_13_B_b.gif","left","","","","",""
"","1038.3600001223385","html-keyboard-response","258","452347","0.0-48.0","SS1613100833955","pref_question","","49","","","","","<video width ='960' height = '540' style='padding-top:8%' autoplay muted><source src='images/stimuli/wall_pref.mp4' type='video/mp4'></video>","1","left","25%","13","","","","","","","",""
"","885.065000038594","sequential-stimulus-presentation","259","454051","0.0-49.0","SS1613100833955","pref_reveal","","40","800","1685.065000038594","null","null","","","","","13","","","","deviant","","","",""
"","null","html-keyboard-response","260","455082","0.0-50.0-0.0","SS1613100833955","","","null","","","","","<p><img src= images/blank.png width =""200"" height = ""200"" style = ""float:right""></p><p><img src=images/blank.png width =""800"" height = ""200""></p>","","","","","","","","","","","",""
"","429.3599999509752","sequential-stimulus-presentation","261","456331","0.0-50.0-1.0","SS1613100833955","trial","","40","800","1229.3599999509752","images/stimuli/spore_stims/simple_14_B_a.gif","images/stimuli/spore_stims/simple_14_A_a.gif","","","","","14","simple_similar","images/stimuli/spore_stims/simple_14_A_a.gif","middle","","","","",""
"","null","html-keyboard-response","262","457590","0.0-50.0-0.1","SS1613100833955","","","null","","","","","<p><img src= images/blank.png width =""200"" height = ""200"" style = ""float:right""></p><p><img src=images/blank.png width =""800"" height = ""200""></p>","","","","","","","","","","","",""
"","480.405000038445","sequential-stimulus-presentation","263","458891","0.0-50.0-1.1","SS1613100833955","trial","","40","800","1280.405000038445","images/stimuli/spore_stims/simple_14_B_a.gif","images/stimuli/spore_stims/simple_14_A_a.gif","","","","","14","simple_similar","images/stimuli/spore_stims/simple_14_A_a.gif","middle","","","","",""
"","null","html-keyboard-response","264","459934","0.0-50.0-0.2","SS1613100833955","","","null","","","","","<p><img src= images/blank.png width =""200"" height = ""200"" style = ""float:right""></p><p><img src=images/blank.png width =""800"" height = ""200""></p>","","","","","","","","","","","",""
"","506.52500009164214","sequential-stimulus-presentation","265","461259","0.0-50.0-1.2","SS1613100833955","trial","","40","800","1306.5250000916421","images/stimuli/spore_stims/simple_14_B_a.gif","images/stimuli/spore_stims/simple_14_A_a.gif","","","","","14","simple_similar","images/stimuli/spore_stims/simple_14_A_a.gif","middle","","","","",""
"","null","html-keyboard-response","266","462105","0.0-50.0-0.3","SS1613100833955","","","null","","","","","<p><img src= images/blank.png width =""200"" height = ""200"" style = ""float:right""></p><p><img src=images/blank.png width =""800"" height = ""200""></p>","","","","","","","","","","","",""
"","641.8950001243502","sequential-stimulus-presentation","267","463571","0.0-50.0-1.3","SS1613100833955","trial","","40","800","1441.8950001243502","images/stimuli/spore_stims/simple_14_B_a.gif","images/stimuli/spore_stims/simple_14_A_a.gif","","","","","14","simple_similar","images/stimuli/spore_stims/simple_14_B_a.gif","left","","","","",""
"","null","html-keyboard-response","268","464601","0.0-50.0-0.4","SS1613100833955","","","null","","","","","<p><img src= images/blank.png width =""200"" height = ""200"" style = ""float:right""></p><p><img src=images/blank.png width =""800"" height = ""200""></p>","","","","","","","","","","","",""
"","564.7650000173599","sequential-stimulus-presentation","269","465980","0.0-50.0-1.4","SS1613100833955","trial","","40","800","1364.7650000173599","images/stimuli/spore_stims/simple_14_B_a.gif","images/stimuli/spore_stims/simple_14_A_a.gif","","","","","14","simple_similar","images/stimuli/spore_stims/simple_14_A_a.gif","middle","","","","",""
"","null","html-keyboard-response","270","466855","0.0-50.0-0.5","SS1613100833955","","","null","","","","","<p><img src= images/blank.png width =""200"" height = ""200"" style = ""float:right""></p><p><img src=images/blank.png width =""800"" height = ""200""></p>","","","","","","","","","","","",""
"","553.4299998544157","sequential-stimulus-presentation","271","468226","0.0-50.0-1.5","SS1613100833955","trial","","40","800","1353.4299998544157","images/stimuli/spore_stims/simple_14_B_a.gif","images/stimuli/spore_stims/simple_14_A_a.gif","","","","","14","simple_similar","images/stimuli/spore_stims/simple_14_A_a.gif","middle","","","","",""
"","null","html-keyboard-response","272","469065","0.0-50.0-0.6","SS1613100833955","","","null","","","","","<p><img src= images/blank.png width =""200"" height = ""200"" style = ""float:right""></p><p><img src=images/blank.png width =""800"" height = ""200""></p>","","","","","","","","","","","",""
"","1.075000036507845","sequential-stimulus-presentation","273","469915","0.0-50.0-1.6","SS1613100833955","trial","","40","800","801.0750000365078","images/stimuli/spore_stims/simple_14_B_a.gif","images/stimuli/spore_stims/simple_14_A_a.gif","","","","","14","simple_similar","images/stimuli/spore_stims/simple_14_A_a.gif","middle","","","","",""
"","null","html-keyboard-response","274","471161","0.0-50.0-0.7","SS1613100833955","","","null","","","","","<p><img src= images/blank.png width =""200"" height = ""200"" style = ""float:right""></p><p><img src=images/blank.png width =""800"" height = ""200""></p>","","","","","","","","","","","",""
"","536.870000185445","sequential-stimulus-presentation","275","472540","0.0-50.0-1.7","SS1613100833955","trial","","40","800","1336.870000185445","images/stimuli/spore_stims/simple_14_B_a.gif","images/stimuli/spore_stims/simple_14_A_a.gif","","","","","14","simple_similar","images/stimuli/spore_stims/simple_14_A_a.gif","middle","","","","",""
"","1002.1349999587983","html-keyboard-response","276","473550","0.0-51.0","SS1613100833955","pref_question","","49","","","","","<video width ='960' height = '540' style='padding-top:8%' autoplay muted><source src='images/stimuli/wall_pref.mp4' type='video/mp4'></video>","1","left","25%","14","","","","","","","",""
"","535.0200000684708","sequential-stimulus-presentation","277","474915","0.0-52.0","SS1613100833955","pref_reveal","","40","800","1335.0200000684708","null","null","","","","","14","","","","deviant","","","",""
"","null","html-keyboard-response","278","475840","0.0-53.0-0.0","SS1613100833955","","","null","","","","","<p><img src= images/blank.png width =""200"" height = ""200"" style = ""float:right""></p><p><img src=images/blank.png width =""800"" height = ""200""></p>","","","","","","","","","","","",""
"","36.62999998778105","sequential-stimulus-presentation","279","476764","0.0-53.0-1.0","SS1613100833955","trial","","40","800","836.629999987781","images/stimuli/spore_stims/simple_07_B_d.gif","images/stimuli/spore_stims/simple_16_A_c.gif","","","","","15","simple_dissimilar","images/stimuli/spore_stims/simple_16_A_c.gif","middle","","","","",""
"","null","html-keyboard-response","280","477582","0.0-53.0-0.1","SS1613100833955","","","null","","","","","<p><img src= images/blank.png width =""200"" height = ""200"" style = ""float:right""></p><p><img src=images/blank.png width =""800"" height = ""200""></p>","","","","","","","","","","","",""
"","558.2649998832494","sequential-stimulus-presentation","281","478959","0.0-53.0-1.1","SS1613100833955","trial","","40","800","1358.2649998832494","images/stimuli/spore_stims/simple_07_B_d.gif","images/stimuli/spore_stims/simple_16_A_c.gif","","","","","15","simple_dissimilar","images/stimuli/spore_stims/simple_16_A_c.gif","middle","","","","",""
"","null","html-keyboard-response","282","479968","0.0-53.0-0.2","SS1613100833955","","","null","","","","","<p><img src= images/blank.png width =""200"" height = ""200"" style = ""float:right""></p><p><img src=images/blank.png width =""800"" height = ""200""></p>","","","","","","","","","","","",""
"","832.410000031814","sequential-stimulus-presentation","283","481607","0.0-53.0-1.2","SS1613100833955","trial","","40","800","1632.410000031814","images/stimuli/spore_stims/simple_07_B_d.gif","images/stimuli/spore_stims/simple_16_A_c.gif","","","","","15","simple_dissimilar","images/stimuli/spore_stims/simple_16_A_c.gif","middle","","","","",""
"","null","html-keyboard-response","284","482831","0.0-53.0-0.3","SS1613100833955","","","null","","","","","<p><img src= images/blank.png width =""200"" height = ""200"" style = ""float:right""></p><p><img src=images/blank.png width =""800"" height = ""200""></p>","","","","","","","","","","","",""
"","84.61999986320734","sequential-stimulus-presentation","285","483729","0.0-53.0-1.3","SS1613100833955","trial","","40","800","884.6199998632073","images/stimuli/spore_stims/simple_07_B_d.gif","images/stimuli/spore_stims/simple_16_A_c.gif","","","","","15","simple_dissimilar","images/stimuli/spore_stims/simple_16_A_c.gif","middle","","","","",""
"","null","html-keyboard-response","286","484904","0.0-53.0-0.4","SS1613100833955","","","null","","","","","<p><img src= images/blank.png width =""200"" height = ""200"" style = ""float:right""></p><p><img src=images/blank.png width =""800"" height = ""200""></p>","","","","","","","","","","","",""
"","661.0999999102205","sequential-stimulus-presentation","287","486388","0.0-53.0-1.4","SS1613100833955","trial","","40","800","1461.0999999102205","images/stimuli/spore_stims/simple_07_B_d.gif","images/stimuli/spore_stims/simple_16_A_c.gif","","","","","15","simple_dissimilar","images/stimuli/spore_stims/simple_16_A_c.gif","middle","","","","",""
"","null","html-keyboard-response","288","487213","0.0-53.0-0.5","SS1613100833955","","","null","","","","","<p><img src= images/blank.png width =""200"" height = ""200"" style = ""float:right""></p><p><img src=images/blank.png width =""800"" height = ""200""></p>","","","","","","","","","","","",""
"","6.174999987706542","sequential-stimulus-presentation","289","488195","0.0-53.0-1.5","SS1613100833955","trial","","40","800","806.1749999877065","images/stimuli/spore_stims/simple_07_B_d.gif","images/stimuli/spore_stims/simple_16_A_c.gif","","","","","15","simple_dissimilar","images/stimuli/spore_stims/simple_07_B_d.gif","right","","","","",""
"","null","html-keyboard-response","290","489349","0.0-53.0-0.6","SS1613100833955","","","null","","","","","<p><img src= images/blank.png width =""200"" height = ""200"" style = ""float:right""></p><p><img src=images/blank.png width =""800"" height = ""200""></p>","","","","","","","","","","","",""
"","49.205000046640635","sequential-stimulus-presentation","291","490277","0.0-53.0-1.6","SS1613100833955","trial","","40","800","849.2050000466406","images/stimuli/spore_stims/simple_07_B_d.gif","images/stimuli/spore_stims/simple_16_A_c.gif","","","","","15","simple_dissimilar","images/stimuli/spore_stims/simple_16_A_c.gif","middle","","","","",""
"","null","html-keyboard-response","292","491300","0.0-53.0-0.7","SS1613100833955","","","null","","","","","<p><img src= images/blank.png width =""200"" height = ""200"" style = ""float:right""></p><p><img src=images/blank.png width =""800"" height = ""200""></p>","","","","","","","","","","","",""
"","1.0350001975893974","sequential-stimulus-presentation","293","492116","0.0-53.0-1.7","SS1613100833955","trial","","40","800","801.0350001975894","images/stimuli/spore_stims/simple_07_B_d.gif","images/stimuli/spore_stims/simple_16_A_c.gif","","","","","15","simple_dissimilar","images/stimuli/spore_stims/simple_16_A_c.gif","middle","","","","",""
"","1136.0749998129904","html-keyboard-response","294","493259","0.0-54.0","SS1613100833955","pref_question","","49","","","","","<video width ='960' height = '540' style='padding-top:8%' autoplay muted><source src='images/stimuli/wall_pref.mp4' type='video/mp4'></video>","1","left","25%","15","","","","","","","",""
"","935.1249998435378","sequential-stimulus-presentation","295","495003","0.0-55.0","SS1613100833955","pref_reveal","","40","800","1735.1249998435378","null","null","","","","","15","","","","novel","","","",""
"","null","html-keyboard-response","296","496305","0.0-56.0-0.0","SS1613100833955","","","null","","","","","<p><img src= images/blank.png width =""200"" height = ""200"" style = ""float:right""></p><p><img src=images/blank.png width =""800"" height = ""200""></p>","","","","","","","","","","","",""
"","850.8349999319762","sequential-stimulus-presentation","297","497971","0.0-56.0-1.0","SS1613100833955","trial","","40","800","1650.8349999319762","images/stimuli/spore_stims/simple_06_B_b.gif","images/stimuli/spore_stims/simple_03_A_b.gif","","","","","16","simple_dissimilar","images/stimuli/spore_stims/simple_03_A_b.gif","middle","","","","",""
"","null","html-keyboard-response","298","499144","0.0-56.0-0.1","SS1613100833955","","","null","","","","","<p><img src= images/blank.png width =""200"" height = ""200"" style = ""float:right""></p><p><img src=images/blank.png width =""800"" height = ""200""></p>","","","","","","","","","","","",""
"","3.16500011831522","sequential-stimulus-presentation","299","500208","0.0-56.0-1.1","SS1613100833955","trial","","40","800","803.1650001183152","images/stimuli/spore_stims/simple_06_B_b.gif","images/stimuli/spore_stims/simple_03_A_b.gif","","","","","16","simple_dissimilar","images/stimuli/spore_stims/simple_03_A_b.gif","middle","","","","",""
"","null","html-keyboard-response","300","501404","0.0-56.0-0.2","SS1613100833955","","","null","","","","","<p><img src= images/blank.png width =""200"" height = ""200"" style = ""float:right""></p><p><img src=images/blank.png width =""800"" height = ""200""></p>","","","","","","","","","","","",""
"","311.0599999781698","sequential-stimulus-presentation","301","502530","0.0-56.0-1.2","SS1613100833955","trial","","40","800","1111.0599999781698","images/stimuli/spore_stims/simple_06_B_b.gif","images/stimuli/spore_stims/simple_03_A_b.gif","","","","","16","simple_dissimilar","images/stimuli/spore_stims/simple_06_B_b.gif","right","","","","",""
"","null","html-keyboard-response","302","503702","0.0-56.0-0.3","SS1613100833955","","","null","","","","","<p><img src= images/blank.png width =""200"" height = ""200"" style = ""float:right""></p><p><img src=images/blank.png width =""800"" height = ""200""></p>","","","","","","","","","","","",""
"","1.1650000233203173","sequential-stimulus-presentation","303","504542","0.0-56.0-1.3","SS1613100833955","trial","","40","800","801.1650000233203","images/stimuli/spore_stims/simple_06_B_b.gif","images/stimuli/spore_stims/simple_03_A_b.gif","","","","","16","simple_dissimilar","images/stimuli/spore_stims/simple_03_A_b.gif","middle","","","","",""
"","null","html-keyboard-response","304","505708","0.0-56.0-0.4","SS1613100833955","","","null","","","","","<p><img src= images/blank.png width =""200"" height = ""200"" style = ""float:right""></p><p><img src=images/blank.png width =""800"" height = ""200""></p>","","","","","","","","","","","",""
"","365.42499996721745","sequential-stimulus-presentation","305","506899","0.0-56.0-1.4","SS1613100833955","trial","","40","800","1165.4249999672174","images/stimuli/spore_stims/simple_06_B_b.gif","images/stimuli/spore_stims/simple_03_A_b.gif","","","","","16","simple_dissimilar","images/stimuli/spore_stims/simple_03_A_b.gif","middle","","","","",""
"","null","html-keyboard-response","306","507868","0.0-56.0-0.5","SS1613100833955","","","null","","","","","<p><img src= images/blank.png width =""200"" height = ""200"" style = ""float:right""></p><p><img src=images/blank.png width =""800"" height = ""200""></p>","","","","","","","","","","","",""
"","232.23500000312924","sequential-stimulus-presentation","307","508915","0.0-56.0-1.5","SS1613100833955","trial","","40","800","1032.2350000031292","images/stimuli/spore_stims/simple_06_B_b.gif","images/stimuli/spore_stims/simple_03_A_b.gif","","","","","16","simple_dissimilar","images/stimuli/spore_stims/simple_03_A_b.gif","middle","","","","",""
"","null","html-keyboard-response","308","510153","0.0-56.0-0.6","SS1613100833955","","","null","","","","","<p><img src= images/blank.png width =""200"" height = ""200"" style = ""float:right""></p><p><img src=images/blank.png width =""800"" height = ""200""></p>","","","","","","","","","","","",""
"","322.6700001396239","sequential-stimulus-presentation","309","511291","0.0-56.0-1.6","SS1613100833955","trial","","40","800","1122.6700001396239","images/stimuli/spore_stims/simple_06_B_b.gif","images/stimuli/spore_stims/simple_03_A_b.gif","","","","","16","simple_dissimilar","images/stimuli/spore_stims/simple_03_A_b.gif","middle","","","","",""
"","null","html-keyboard-response","310","512583","0.0-56.0-0.7","SS1613100833955","","","null","","","","","<p><img src= images/blank.png width =""200"" height = ""200"" style = ""float:right""></p><p><img src=images/blank.png width =""800"" height = ""200""></p>","","","","","","","","","","","",""
"","78.30499997362494","sequential-stimulus-presentation","311","513477","0.0-56.0-1.7","SS1613100833955","trial","","40","800","878.304999973625","images/stimuli/spore_stims/simple_06_B_b.gif","images/stimuli/spore_stims/simple_03_A_b.gif","","","","","16","simple_dissimilar","images/stimuli/spore_stims/simple_03_A_b.gif","middle","","","","",""
"","1368.4549999888986","html-keyboard-response","312","514852","0.0-57.0","SS1613100833955","pref_question","","49","","","","","<video width ='960' height = '540' style='padding-top:8%' autoplay muted><source src='images/stimuli/wall_pref.mp4' type='video/mp4'></video>","1","left","25%","16","","","","","","","",""
