"view_history","rt","trial_type","trial_index","time_elapsed","internal_node_id","subject","stimulus_type","trial_stimulus","key_press","minimum_viewing_duration","trial_looking_time","block_deviant","block_background","stimulus","wall_pref","location","location_percent","block_number","block_type","stimulus_displayed","position_displayed","stim_type_selected","responses","question_order","stimulus_left","stimulus_right"
"[{""page_index"":0,""viewing_time"":1410.5100000015227}]","1410.889999999199","instructions","0","1414","0.0-0.0","SS1613080899764","","","","","","","","","","","","","","","","","","","",""
"[{""page_index"":0,""viewing_time"":1050.374999998894},{""page_index"":1,""viewing_time"":4879.939999998896}]","5930.704999998852","instructions","1","9347","0.0-1.0","SS1613080899764","instructions","","","","","","","","","","","","","","","","","","",""
"","1740.7000000021071","sequential-stimulus-presentation","2","11894","0.0-2.0","SS1613080899764","","","40","800","2540.700000002107","null","null","","","","","","","","","","","","",""
"","34.140000003390014","sequential-stimulus-presentation","3","12733","0.0-3.0","SS1613080899764","","","40","800","834.14000000339","null","null","","","","","","","","","","","","",""
"[{""page_index"":0,""viewing_time"":434.75999999645865}]","435.075000001234","instructions","4","13171","0.0-4.0","SS1613080899764","instructions","","","","","","","","","","","","","","","","","","",""
"","2079.4299999979557","html-keyboard-response","5","15257","0.0-5.0","SS1613080899764","instructions","","49","","","","","<video width ='960' height = '540' autoplay muted><source src='images/stimuli/wall_pref.mp4' type='video/mp4'></video>","1","left","25%","","","","","","","","",""
"","60.66500000451924","sequential-stimulus-presentation","6","16131","0.0-6.0","SS1613080899764","pref_reveal","","40","800","860.6650000045192","null","null","","","","","","","","","","","","",""
"[{""page_index"":0,""viewing_time"":1802.76999999478},{""page_index"":1,""viewing_time"":1300.2850000048056},{""page_index"":2,""viewing_time"":883.8550000000396},{""page_index"":3,""viewing_time"":676.0250000006636}]","4663.354999996955","instructions","7","20797","0.0-7.0","SS1613080899764","instructions","","","","","","","","","","","","","","","","","","",""
"","null","html-keyboard-response","8","21813","0.0-8.0-0.0","SS1613080899764","","","null","","","","","<p><img src= images/blank.png width =""200"" height = ""200"" style = ""float:right""></p><p><img src=images/blank.png width =""800"" height = ""200""></p>","","","","","","","","","","","",""
"","112.24999999831198","sequential-stimulus-presentation","9","22736","0.0-8.0-1.0","SS1613080899764","trial","","40","800","912.249999998312","images/stimuli/spore_stims/simple_11_A_d.gif","images/stimuli/spore_stims/simple_15_B_a.gif","","","","","0","simple_dissimilar","images/stimuli/spore_stims/simple_15_B_a.gif","left","","","","",""
"","null","html-keyboard-response","10","23598","0.0-8.0-0.1","SS1613080899764","","","null","","","","","<p><img src= images/blank.png width =""200"" height = ""200"" style = ""float:right""></p><p><img src=images/blank.png width =""800"" height = ""200""></p>","","","","","","","","","","","",""
"","481.115000002319","sequential-stimulus-presentation","11","24885","0.0-8.0-1.1","SS1613080899764","trial","","40","800","1281.115000002319","images/stimuli/spore_stims/simple_11_A_d.gif","images/stimuli/spore_stims/simple_15_B_a.gif","","","","","0","simple_dissimilar","images/stimuli/spore_stims/simple_15_B_a.gif","left","","","","",""
"","null","html-keyboard-response","12","25741","0.0-8.0-0.2","SS1613080899764","","","null","","","","","<p><img src= images/blank.png width =""200"" height = ""200"" style = ""float:right""></p><p><img src=images/blank.png width =""800"" height = ""200""></p>","","","","","","","","","","","",""
"","148.44999999331776","sequential-stimulus-presentation","13","26697","0.0-8.0-1.2","SS1613080899764","trial","","40","800","948.4499999933178","images/stimuli/spore_stims/simple_11_A_d.gif","images/stimuli/spore_stims/simple_15_B_a.gif","","","","","0","simple_dissimilar","images/stimuli/spore_stims/simple_15_B_a.gif","left","","","","",""
"","null","html-keyboard-response","14","27944","0.0-8.0-0.3","SS1613080899764","","","null","","","","","<p><img src= images/blank.png width =""200"" height = ""200"" style = ""float:right""></p><p><img src=images/blank.png width =""800"" height = ""200""></p>","","","","","","","","","","","",""
"","35.00999999960186","sequential-stimulus-presentation","15","28797","0.0-8.0-1.3","SS1613080899764","trial","","40","800","835.0099999996019","images/stimuli/spore_stims/simple_11_A_d.gif","images/stimuli/spore_stims/simple_15_B_a.gif","","","","","0","simple_dissimilar","images/stimuli/spore_stims/simple_11_A_d.gif","right","","","","",""
"","null","html-keyboard-response","16","29628","0.0-8.0-0.4","SS1613080899764","","","null","","","","","<p><img src= images/blank.png width =""200"" height = ""200"" style = ""float:right""></p><p><img src=images/blank.png width =""800"" height = ""200""></p>","","","","","","","","","","","",""
"","169.64000000007218","sequential-stimulus-presentation","17","30606","0.0-8.0-1.4","SS1613080899764","trial","","40","800","969.6400000000722","images/stimuli/spore_stims/simple_11_A_d.gif","images/stimuli/spore_stims/simple_15_B_a.gif","","","","","0","simple_dissimilar","images/stimuli/spore_stims/simple_15_B_a.gif","left","","","","",""
"","null","html-keyboard-response","18","31801","0.0-8.0-0.5","SS1613080899764","","","null","","","","","<p><img src= images/blank.png width =""200"" height = ""200"" style = ""float:right""></p><p><img src=images/blank.png width =""800"" height = ""200""></p>","","","","","","","","","","","",""
"","175.41000000346685","sequential-stimulus-presentation","19","32785","0.0-8.0-1.5","SS1613080899764","trial","","40","800","975.4100000034668","images/stimuli/spore_stims/simple_11_A_d.gif","images/stimuli/spore_stims/simple_15_B_a.gif","","","","","0","simple_dissimilar","images/stimuli/spore_stims/simple_15_B_a.gif","left","","","","",""
"","null","html-keyboard-response","20","33768","0.0-8.0-0.6","SS1613080899764","","","null","","","","","<p><img src= images/blank.png width =""200"" height = ""200"" style = ""float:right""></p><p><img src=images/blank.png width =""800"" height = ""200""></p>","","","","","","","","","","","",""
"","232.3649999962072","sequential-stimulus-presentation","21","34815","0.0-8.0-1.6","SS1613080899764","trial","","40","800","1032.3649999962072","images/stimuli/spore_stims/simple_11_A_d.gif","images/stimuli/spore_stims/simple_15_B_a.gif","","","","","0","simple_dissimilar","images/stimuli/spore_stims/simple_15_B_a.gif","left","","","","",""
"","null","html-keyboard-response","22","35977","0.0-8.0-0.7","SS1613080899764","","","null","","","","","<p><img src= images/blank.png width =""200"" height = ""200"" style = ""float:right""></p><p><img src=images/blank.png width =""800"" height = ""200""></p>","","","","","","","","","","","",""
"","167.89499999867985","sequential-stimulus-presentation","23","36951","0.0-8.0-1.7","SS1613080899764","trial","","40","800","967.8949999986799","images/stimuli/spore_stims/simple_11_A_d.gif","images/stimuli/spore_stims/simple_15_B_a.gif","","","","","0","simple_dissimilar","images/stimuli/spore_stims/simple_15_B_a.gif","left","","","","",""
"","83.52000000013504","html-keyboard-response","24","37041","0.0-9.0","SS1613080899764","pref_question","","51","","","","","<video width ='960' height = '540' style='padding-top:8%' autoplay muted><source src='images/stimuli/wall_pref.mp4' type='video/mp4'></video>","3","right","66%","0","","","","","","","",""
"","0.614999997196719","sequential-stimulus-presentation","25","37848","0.0-10.0","SS1613080899764","pref_reveal","","40","800","800.6149999971967","null","null","","","","","0","","","","deviant","","","",""
"","null","html-keyboard-response","26","38940","0.0-11.0-0.0","SS1613080899764","","","null","","","","","<p><img src= images/blank.png width =""200"" height = ""200"" style = ""float:right""></p><p><img src=images/blank.png width =""800"" height = ""200""></p>","","","","","","","","","","","",""
"","80.88000000134343","sequential-stimulus-presentation","27","39843","0.0-11.0-1.0","SS1613080899764","trial","","40","800","880.8800000013434","images/stimuli/spore_stims/simple_14_B_a.gif","images/stimuli/spore_stims/simple_14_A_a.gif","","","","","1","simple_similar","images/stimuli/spore_stims/simple_14_A_a.gif","right","","","","",""
"","null","html-keyboard-response","28","40739","0.0-11.0-0.1","SS1613080899764","","","null","","","","","<p><img src= images/blank.png width =""200"" height = ""200"" style = ""float:right""></p><p><img src=images/blank.png width =""800"" height = ""200""></p>","","","","","","","","","","","",""
"","115.59000000124797","sequential-stimulus-presentation","29","41662","0.0-11.0-1.1","SS1613080899764","trial","","40","800","915.590000001248","images/stimuli/spore_stims/simple_14_B_a.gif","images/stimuli/spore_stims/simple_14_A_a.gif","","","","","1","simple_similar","images/stimuli/spore_stims/simple_14_A_a.gif","right","","","","",""
"","null","html-keyboard-response","30","42927","0.0-11.0-0.2","SS1613080899764","","","null","","","","","<p><img src= images/blank.png width =""200"" height = ""200"" style = ""float:right""></p><p><img src=images/blank.png width =""800"" height = ""200""></p>","","","","","","","","","","","",""
"","208.03000000159955","sequential-stimulus-presentation","31","43943","0.0-11.0-1.2","SS1613080899764","trial","","40","800","1008.0300000015995","images/stimuli/spore_stims/simple_14_B_a.gif","images/stimuli/spore_stims/simple_14_A_a.gif","","","","","1","simple_similar","images/stimuli/spore_stims/simple_14_B_a.gif","middle","","","","",""
"","null","html-keyboard-response","32","45088","0.0-11.0-0.3","SS1613080899764","","","null","","","","","<p><img src= images/blank.png width =""200"" height = ""200"" style = ""float:right""></p><p><img src=images/blank.png width =""800"" height = ""200""></p>","","","","","","","","","","","",""
"","157.27999999944586","sequential-stimulus-presentation","33","46063","0.0-11.0-1.3","SS1613080899764","trial","","40","800","957.2799999994459","images/stimuli/spore_stims/simple_14_B_a.gif","images/stimuli/spore_stims/simple_14_A_a.gif","","","","","1","simple_similar","images/stimuli/spore_stims/simple_14_A_a.gif","right","","","","",""
"","null","html-keyboard-response","34","47374","0.0-11.0-0.4","SS1613080899764","","","null","","","","","<p><img src= images/blank.png width =""200"" height = ""200"" style = ""float:right""></p><p><img src=images/blank.png width =""800"" height = ""200""></p>","","","","","","","","","","","",""
"","102.88500000024214","sequential-stimulus-presentation","35","48286","0.0-11.0-1.4","SS1613080899764","trial","","40","800","902.8850000002421","images/stimuli/spore_stims/simple_14_B_a.gif","images/stimuli/spore_stims/simple_14_A_a.gif","","","","","1","simple_similar","images/stimuli/spore_stims/simple_14_A_a.gif","right","","","","",""
"","null","html-keyboard-response","36","49376","0.0-11.0-0.5","SS1613080899764","","","null","","","","","<p><img src= images/blank.png width =""200"" height = ""200"" style = ""float:right""></p><p><img src=images/blank.png width =""800"" height = ""200""></p>","","","","","","","","","","","",""
"","34.22500000306172","sequential-stimulus-presentation","37","50217","0.0-11.0-1.5","SS1613080899764","trial","","40","800","834.2250000030617","images/stimuli/spore_stims/simple_14_B_a.gif","images/stimuli/spore_stims/simple_14_A_a.gif","","","","","1","simple_similar","images/stimuli/spore_stims/simple_14_A_a.gif","right","","","","",""
"","null","html-keyboard-response","38","51149","0.0-11.0-0.6","SS1613080899764","","","null","","","","","<p><img src= images/blank.png width =""200"" height = ""200"" style = ""float:right""></p><p><img src=images/blank.png width =""800"" height = ""200""></p>","","","","","","","","","","","",""
"","85.76999999786494","sequential-stimulus-presentation","39","52041","0.0-11.0-1.6","SS1613080899764","trial","","40","800","885.7699999978649","images/stimuli/spore_stims/simple_14_B_a.gif","images/stimuli/spore_stims/simple_14_A_a.gif","","","","","1","simple_similar","images/stimuli/spore_stims/simple_14_A_a.gif","right","","","","",""
"","null","html-keyboard-response","40","52869","0.0-11.0-0.7","SS1613080899764","","","null","","","","","<p><img src= images/blank.png width =""200"" height = ""200"" style = ""float:right""></p><p><img src=images/blank.png width =""800"" height = ""200""></p>","","","","","","","","","","","",""
"","85.5100000044331","sequential-stimulus-presentation","41","53770","0.0-11.0-1.7","SS1613080899764","trial","","40","800","885.5100000044331","images/stimuli/spore_stims/simple_14_B_a.gif","images/stimuli/spore_stims/simple_14_A_a.gif","","","","","1","simple_similar","images/stimuli/spore_stims/simple_14_A_a.gif","right","","","","",""
"","29.390000003331807","html-keyboard-response","42","53807","0.0-12.0","SS1613080899764","pref_question","","50","","","","","<video width ='960' height = '540' style='padding-top:8%' autoplay muted><source src='images/stimuli/wall_pref.mp4' type='video/mp4'></video>","2","middle","45%","1","","","","","","","",""
"","130.79999999899883","sequential-stimulus-presentation","43","54746","0.0-13.0","SS1613080899764","pref_reveal","","40","800","930.7999999989988","null","null","","","","","1","","","","deviant","","","",""
"","null","html-keyboard-response","44","55953","0.0-14.0-0.0","SS1613080899764","","","null","","","","","<p><img src= images/blank.png width =""200"" height = ""200"" style = ""float:right""></p><p><img src=images/blank.png width =""800"" height = ""200""></p>","","","","","","","","","","","",""
"","81.31499999581138","sequential-stimulus-presentation","45","56858","0.0-14.0-1.0","SS1613080899764","trial","","40","800","881.3149999958114","images/stimuli/spore_stims/simple_04_A_c.gif","images/stimuli/spore_stims/simple_04_B_c.gif","","","","","2","simple_similar","images/stimuli/spore_stims/simple_04_B_c.gif","right","","","","",""
"","null","html-keyboard-response","46","57853","0.0-14.0-0.1","SS1613080899764","","","null","","","","","<p><img src= images/blank.png width =""200"" height = ""200"" style = ""float:right""></p><p><img src=images/blank.png width =""800"" height = ""200""></p>","","","","","","","","","","","",""
"","96.59000000101514","sequential-stimulus-presentation","47","58757","0.0-14.0-1.1","SS1613080899764","trial","","40","800","896.5900000010151","images/stimuli/spore_stims/simple_04_A_c.gif","images/stimuli/spore_stims/simple_04_B_c.gif","","","","","2","simple_similar","images/stimuli/spore_stims/simple_04_B_c.gif","right","","","","",""
"","null","html-keyboard-response","48","59600","0.0-14.0-0.2","SS1613080899764","","","null","","","","","<p><img src= images/blank.png width =""200"" height = ""200"" style = ""float:right""></p><p><img src=images/blank.png width =""800"" height = ""200""></p>","","","","","","","","","","","",""
"","78.62000000022817","sequential-stimulus-presentation","49","60486","0.0-14.0-1.2","SS1613080899764","trial","","40","800","878.6200000002282","images/stimuli/spore_stims/simple_04_A_c.gif","images/stimuli/spore_stims/simple_04_B_c.gif","","","","","2","simple_similar","images/stimuli/spore_stims/simple_04_B_c.gif","right","","","","",""
"","null","html-keyboard-response","50","61740","0.0-14.0-0.3","SS1613080899764","","","null","","","","","<p><img src= images/blank.png width =""200"" height = ""200"" style = ""float:right""></p><p><img src=images/blank.png width =""800"" height = ""200""></p>","","","","","","","","","","","",""
"","52.81000000104541","sequential-stimulus-presentation","51","62600","0.0-14.0-1.3","SS1613080899764","trial","","40","800","852.8100000010454","images/stimuli/spore_stims/simple_04_A_c.gif","images/stimuli/spore_stims/simple_04_B_c.gif","","","","","2","simple_similar","images/stimuli/spore_stims/simple_04_B_c.gif","right","","","","",""
"","null","html-keyboard-response","52","63763","0.0-14.0-0.4","SS1613080899764","","","null","","","","","<p><img src= images/blank.png width =""200"" height = ""200"" style = ""float:right""></p><p><img src=images/blank.png width =""800"" height = ""200""></p>","","","","","","","","","","","",""
"","29.109999995853286","sequential-stimulus-presentation","53","64600","0.0-14.0-1.4","SS1613080899764","trial","","40","800","829.1099999958533","images/stimuli/spore_stims/simple_04_A_c.gif","images/stimuli/spore_stims/simple_04_B_c.gif","","","","","2","simple_similar","images/stimuli/spore_stims/simple_04_B_c.gif","right","","","","",""
"","null","html-keyboard-response","54","65674","0.0-14.0-0.5","SS1613080899764","","","null","","","","","<p><img src= images/blank.png width =""200"" height = ""200"" style = ""float:right""></p><p><img src=images/blank.png width =""800"" height = ""200""></p>","","","","","","","","","","","",""
"","165.9049999943818","sequential-stimulus-presentation","55","66646","0.0-14.0-1.5","SS1613080899764","trial","","40","800","965.9049999943818","images/stimuli/spore_stims/simple_04_A_c.gif","images/stimuli/spore_stims/simple_04_B_c.gif","","","","","2","simple_similar","images/stimuli/spore_stims/simple_04_B_c.gif","right","","","","",""
"","null","html-keyboard-response","56","67870","0.0-14.0-0.6","SS1613080899764","","","null","","","","","<p><img src= images/blank.png width =""200"" height = ""200"" style = ""float:right""></p><p><img src=images/blank.png width =""800"" height = ""200""></p>","","","","","","","","","","","",""
"","185.2950000029523","sequential-stimulus-presentation","57","68863","0.0-14.0-1.6","SS1613080899764","trial","","40","800","985.2950000029523","images/stimuli/spore_stims/simple_04_A_c.gif","images/stimuli/spore_stims/simple_04_B_c.gif","","","","","2","simple_similar","images/stimuli/spore_stims/simple_04_A_c.gif","left","","","","",""
"","null","html-keyboard-response","58","70084","0.0-14.0-0.7","SS1613080899764","","","null","","","","","<p><img src= images/blank.png width =""200"" height = ""200"" style = ""float:right""></p><p><img src=images/blank.png width =""800"" height = ""200""></p>","","","","","","","","","","","",""
"","42.00000000128057","sequential-stimulus-presentation","59","70931","0.0-14.0-1.7","SS1613080899764","trial","","40","800","842.0000000012806","images/stimuli/spore_stims/simple_04_A_c.gif","images/stimuli/spore_stims/simple_04_B_c.gif","","","","","2","simple_similar","images/stimuli/spore_stims/simple_04_B_c.gif","right","","","","",""
"","56.31500000163214","html-keyboard-response","60","70994","0.0-15.0","SS1613080899764","pref_question","","50","","","","","<video width ='960' height = '540' style='padding-top:8%' autoplay muted><source src='images/stimuli/wall_pref.mp4' type='video/mp4'></video>","2","middle","45%","2","","","","","","","",""
"","26.765000002342276","sequential-stimulus-presentation","61","71830","0.0-16.0","SS1613080899764","pref_reveal","","40","800","826.7650000023423","null","null","","","","","2","","","","novel","","","",""
"","null","html-keyboard-response","62","72688","0.0-17.0-0.0","SS1613080899764","","","null","","","","","<p><img src= images/blank.png width =""200"" height = ""200"" style = ""float:right""></p><p><img src=images/blank.png width =""800"" height = ""200""></p>","","","","","","","","","","","",""
"","121.73500000062631","sequential-stimulus-presentation","63","73627","0.0-17.0-1.0","SS1613080899764","trial","","40","800","921.7350000006263","images/stimuli/spore_stims/complex_18_A_a.gif","images/stimuli/spore_stims/complex_14_A_b.gif","","","","","3","complex_dissimilar","images/stimuli/spore_stims/complex_14_A_b.gif","middle","","","","",""
"","null","html-keyboard-response","64","74504","0.0-17.0-0.1","SS1613080899764","","","null","","","","","<p><img src= images/blank.png width =""200"" height = ""200"" style = ""float:right""></p><p><img src=images/blank.png width =""800"" height = ""200""></p>","","","","","","","","","","","",""
"","54.30499999783933","sequential-stimulus-presentation","65","75365","0.0-17.0-1.1","SS1613080899764","trial","","40","800","854.3049999978393","images/stimuli/spore_stims/complex_18_A_a.gif","images/stimuli/spore_stims/complex_14_A_b.gif","","","","","3","complex_dissimilar","images/stimuli/spore_stims/complex_14_A_b.gif","middle","","","","",""
"","null","html-keyboard-response","66","76293","0.0-17.0-0.2","SS1613080899764","","","null","","","","","<p><img src= images/blank.png width =""200"" height = ""200"" style = ""float:right""></p><p><img src=images/blank.png width =""800"" height = ""200""></p>","","","","","","","","","","","",""
"","121.24999999650754","sequential-stimulus-presentation","67","77223","0.0-17.0-1.2","SS1613080899764","trial","","40","800","921.2499999965075","images/stimuli/spore_stims/complex_18_A_a.gif","images/stimuli/spore_stims/complex_14_A_b.gif","","","","","3","complex_dissimilar","images/stimuli/spore_stims/complex_14_A_b.gif","middle","","","","",""
"","null","html-keyboard-response","68","78178","0.0-17.0-0.3","SS1613080899764","","","null","","","","","<p><img src= images/blank.png width =""200"" height = ""200"" style = ""float:right""></p><p><img src=images/blank.png width =""800"" height = ""200""></p>","","","","","","","","","","","",""
"","79.36000000336207","sequential-stimulus-presentation","69","79066","0.0-17.0-1.3","SS1613080899764","trial","","40","800","879.3600000033621","images/stimuli/spore_stims/complex_18_A_a.gif","images/stimuli/spore_stims/complex_14_A_b.gif","","","","","3","complex_dissimilar","images/stimuli/spore_stims/complex_14_A_b.gif","middle","","","","",""
"","null","html-keyboard-response","70","79940","0.0-17.0-0.4","SS1613080899764","","","null","","","","","<p><img src= images/blank.png width =""200"" height = ""200"" style = ""float:right""></p><p><img src=images/blank.png width =""800"" height = ""200""></p>","","","","","","","","","","","",""
"","44.744999999238644","sequential-stimulus-presentation","71","80809","0.0-17.0-1.4","SS1613080899764","trial","","40","800","844.7449999992386","images/stimuli/spore_stims/complex_18_A_a.gif","images/stimuli/spore_stims/complex_14_A_b.gif","","","","","3","complex_dissimilar","images/stimuli/spore_stims/complex_14_A_b.gif","middle","","","","",""
"","null","html-keyboard-response","72","81770","0.0-17.0-0.5","SS1613080899764","","","null","","","","","<p><img src= images/blank.png width =""200"" height = ""200"" style = ""float:right""></p><p><img src=images/blank.png width =""800"" height = ""200""></p>","","","","","","","","","","","",""
"","46.7549999957555","sequential-stimulus-presentation","73","82628","0.0-17.0-1.5","SS1613080899764","trial","","40","800","846.7549999957555","images/stimuli/spore_stims/complex_18_A_a.gif","images/stimuli/spore_stims/complex_14_A_b.gif","","","","","3","complex_dissimilar","images/stimuli/spore_stims/complex_14_A_b.gif","middle","","","","",""
"","null","html-keyboard-response","74","83482","0.0-17.0-0.6","SS1613080899764","","","null","","","","","<p><img src= images/blank.png width =""200"" height = ""200"" style = ""float:right""></p><p><img src=images/blank.png width =""800"" height = ""200""></p>","","","","","","","","","","","",""
"","156.68000000005122","sequential-stimulus-presentation","75","84454","0.0-17.0-1.6","SS1613080899764","trial","","40","800","956.6800000000512","images/stimuli/spore_stims/complex_18_A_a.gif","images/stimuli/spore_stims/complex_14_A_b.gif","","","","","3","complex_dissimilar","images/stimuli/spore_stims/complex_18_A_a.gif","right","","","","",""
"","null","html-keyboard-response","76","85420","0.0-17.0-0.7","SS1613080899764","","","null","","","","","<p><img src= images/blank.png width =""200"" height = ""200"" style = ""float:right""></p><p><img src=images/blank.png width =""800"" height = ""200""></p>","","","","","","","","","","","",""
"","24.164999995264225","sequential-stimulus-presentation","77","86254","0.0-17.0-1.7","SS1613080899764","trial","","40","800","824.1649999952642","images/stimuli/spore_stims/complex_18_A_a.gif","images/stimuli/spore_stims/complex_14_A_b.gif","","","","","3","complex_dissimilar","images/stimuli/spore_stims/complex_14_A_b.gif","middle","","","","",""
"","125.89000000298256","html-keyboard-response","78","86388","0.0-18.0","SS1613080899764","pref_question","","50","","","","","<video width ='960' height = '540' style='padding-top:8%' autoplay muted><source src='images/stimuli/wall_pref.mp4' type='video/mp4'></video>","2","middle","45%","3","","","","","","","",""
"","4.265000003215391","sequential-stimulus-presentation","79","87199","0.0-19.0","SS1613080899764","pref_reveal","","40","800","804.2650000032154","null","null","","","","","3","","","","background","","","",""
"","null","html-keyboard-response","80","88175","0.0-20.0-0.0","SS1613080899764","","","null","","","","","<p><img src= images/blank.png width =""200"" height = ""200"" style = ""float:right""></p><p><img src=images/blank.png width =""800"" height = ""200""></p>","","","","","","","","","","","",""
"","183.17499999830034","sequential-stimulus-presentation","81","89165","0.0-20.0-1.0","SS1613080899764","trial","","40","800","983.1749999983003","images/stimuli/spore_stims/simple_01_A_b.gif","images/stimuli/spore_stims/simple_01_B_b.gif","","","","","4","simple_similar","images/stimuli/spore_stims/simple_01_B_b.gif","left","","","","",""
"","null","html-keyboard-response","82","90415","0.0-20.0-0.1","SS1613080899764","","","null","","","","","<p><img src= images/blank.png width =""200"" height = ""200"" style = ""float:right""></p><p><img src=images/blank.png width =""800"" height = ""200""></p>","","","","","","","","","","","",""
"","131.1299999943003","sequential-stimulus-presentation","83","91358","0.0-20.0-1.1","SS1613080899764","trial","","40","800","931.1299999943003","images/stimuli/spore_stims/simple_01_A_b.gif","images/stimuli/spore_stims/simple_01_B_b.gif","","","","","4","simple_similar","images/stimuli/spore_stims/simple_01_B_b.gif","left","","","","",""
"","null","html-keyboard-response","84","92609","0.0-20.0-0.2","SS1613080899764","","","null","","","","","<p><img src= images/blank.png width =""200"" height = ""200"" style = ""float:right""></p><p><img src=images/blank.png width =""800"" height = ""200""></p>","","","","","","","","","","","",""
"","192.9699999964214","sequential-stimulus-presentation","85","93613","0.0-20.0-1.2","SS1613080899764","trial","","40","800","992.9699999964214","images/stimuli/spore_stims/simple_01_A_b.gif","images/stimuli/spore_stims/simple_01_B_b.gif","","","","","4","simple_similar","images/stimuli/spore_stims/simple_01_B_b.gif","left","","","","",""
"","null","html-keyboard-response","86","94712","0.0-20.0-0.3","SS1613080899764","","","null","","","","","<p><img src= images/blank.png width =""200"" height = ""200"" style = ""float:right""></p><p><img src=images/blank.png width =""800"" height = ""200""></p>","","","","","","","","","","","",""
"","98.39500000089174","sequential-stimulus-presentation","87","95631","0.0-20.0-1.3","SS1613080899764","trial","","40","800","898.3950000008917","images/stimuli/spore_stims/simple_01_A_b.gif","images/stimuli/spore_stims/simple_01_B_b.gif","","","","","4","simple_similar","images/stimuli/spore_stims/simple_01_B_b.gif","left","","","","",""
"","null","html-keyboard-response","88","96530","0.0-20.0-0.4","SS1613080899764","","","null","","","","","<p><img src= images/blank.png width =""200"" height = ""200"" style = ""float:right""></p><p><img src=images/blank.png width =""800"" height = ""200""></p>","","","","","","","","","","","",""
"","129.4999999954598","sequential-stimulus-presentation","89","97477","0.0-20.0-1.4","SS1613080899764","trial","","40","800","929.4999999954598","images/stimuli/spore_stims/simple_01_A_b.gif","images/stimuli/spore_stims/simple_01_B_b.gif","","","","","4","simple_similar","images/stimuli/spore_stims/simple_01_B_b.gif","left","","","","",""
"","null","html-keyboard-response","90","98285","0.0-20.0-0.5","SS1613080899764","","","null","","","","","<p><img src= images/blank.png width =""200"" height = ""200"" style = ""float:right""></p><p><img src=images/blank.png width =""800"" height = ""200""></p>","","","","","","","","","","","",""
"","60.02499999885913","sequential-stimulus-presentation","91","99153","0.0-20.0-1.5","SS1613080899764","trial","","40","800","860.0249999988591","images/stimuli/spore_stims/simple_01_A_b.gif","images/stimuli/spore_stims/simple_01_B_b.gif","","","","","4","simple_similar","images/stimuli/spore_stims/simple_01_B_b.gif","left","","","","",""
"","null","html-keyboard-response","92","100345","0.0-20.0-0.6","SS1613080899764","","","null","","","","","<p><img src= images/blank.png width =""200"" height = ""200"" style = ""float:right""></p><p><img src=images/blank.png width =""800"" height = ""200""></p>","","","","","","","","","","","",""
"","474.7300000017276","sequential-stimulus-presentation","93","101625","0.0-20.0-1.6","SS1613080899764","trial","","40","800","1274.7300000017276","images/stimuli/spore_stims/simple_01_A_b.gif","images/stimuli/spore_stims/simple_01_B_b.gif","","","","","4","simple_similar","images/stimuli/spore_stims/simple_01_A_b.gif","middle","","","","",""
"","null","html-keyboard-response","94","102624","0.0-20.0-0.7","SS1613080899764","","","null","","","","","<p><img src= images/blank.png width =""200"" height = ""200"" style = ""float:right""></p><p><img src=images/blank.png width =""800"" height = ""200""></p>","","","","","","","","","","","",""
"","59.17500000214204","sequential-stimulus-presentation","95","103510","0.0-20.0-1.7","SS1613080899764","trial","","40","800","859.175000002142","images/stimuli/spore_stims/simple_01_A_b.gif","images/stimuli/spore_stims/simple_01_B_b.gif","","","","","4","simple_similar","images/stimuli/spore_stims/simple_01_B_b.gif","left","","","","",""
"","69.54500000574626","html-keyboard-response","96","103588","0.0-21.0","SS1613080899764","pref_question","","50","","","","","<video width ='960' height = '540' style='padding-top:8%' autoplay muted><source src='images/stimuli/wall_pref.mp4' type='video/mp4'></video>","2","middle","45%","4","","","","","","","",""
"","1745.5699999991339","sequential-stimulus-presentation","97","106140","0.0-22.0","SS1613080899764","pref_reveal","","40","800","2545.569999999134","null","null","","","","","4","","","","deviant","","","",""
"","null","html-keyboard-response","98","107180","0.0-23.0-0.0","SS1613080899764","","","null","","","","","<p><img src= images/blank.png width =""200"" height = ""200"" style = ""float:right""></p><p><img src=images/blank.png width =""800"" height = ""200""></p>","","","","","","","","","","","",""
"","134.44500000332482","sequential-stimulus-presentation","99","108123","0.0-23.0-1.0","SS1613080899764","trial","","40","800","934.4450000033248","images/stimuli/spore_stims/complex_08_A_c.gif","images/stimuli/spore_stims/complex_08_B_c.gif","","","","","5","complex_similar","images/stimuli/spore_stims/complex_08_B_c.gif","middle","","","","",""
"","null","html-keyboard-response","100","109344","0.0-23.0-0.1","SS1613080899764","","","null","","","","","<p><img src= images/blank.png width =""200"" height = ""200"" style = ""float:right""></p><p><img src=images/blank.png width =""800"" height = ""200""></p>","","","","","","","","","","","",""
"","126.23500000336207","sequential-stimulus-presentation","101","110290","0.0-23.0-1.1","SS1613080899764","trial","","40","800","926.2350000033621","images/stimuli/spore_stims/complex_08_A_c.gif","images/stimuli/spore_stims/complex_08_B_c.gif","","","","","5","complex_similar","images/stimuli/spore_stims/complex_08_B_c.gif","middle","","","","",""
"","null","html-keyboard-response","102","111157","0.0-23.0-0.2","SS1613080899764","","","null","","","","","<p><img src= images/blank.png width =""200"" height = ""200"" style = ""float:right""></p><p><img src=images/blank.png width =""800"" height = ""200""></p>","","","","","","","","","","","",""
"","104.74999999860302","sequential-stimulus-presentation","103","112071","0.0-23.0-1.2","SS1613080899764","trial","","40","800","904.749999998603","images/stimuli/spore_stims/complex_08_A_c.gif","images/stimuli/spore_stims/complex_08_B_c.gif","","","","","5","complex_similar","images/stimuli/spore_stims/complex_08_B_c.gif","middle","","","","",""
"","null","html-keyboard-response","104","113114","0.0-23.0-0.3","SS1613080899764","","","null","","","","","<p><img src= images/blank.png width =""200"" height = ""200"" style = ""float:right""></p><p><img src=images/blank.png width =""800"" height = ""200""></p>","","","","","","","","","","","",""
"","124.47500000416767","sequential-stimulus-presentation","105","114066","0.0-23.0-1.3","SS1613080899764","trial","","40","800","924.4750000041677","images/stimuli/spore_stims/complex_08_A_c.gif","images/stimuli/spore_stims/complex_08_B_c.gif","","","","","5","complex_similar","images/stimuli/spore_stims/complex_08_B_c.gif","middle","","","","",""
"","null","html-keyboard-response","106","115253","0.0-23.0-0.4","SS1613080899764","","","null","","","","","<p><img src= images/blank.png width =""200"" height = ""200"" style = ""float:right""></p><p><img src=images/blank.png width =""800"" height = ""200""></p>","","","","","","","","","","","",""
"","85.02500000031432","sequential-stimulus-presentation","107","116148","0.0-23.0-1.4","SS1613080899764","trial","","40","800","885.0250000003143","images/stimuli/spore_stims/complex_08_A_c.gif","images/stimuli/spore_stims/complex_08_B_c.gif","","","","","5","complex_similar","images/stimuli/spore_stims/complex_08_A_c.gif","right","","","","",""
"","null","html-keyboard-response","108","117185","0.0-23.0-0.5","SS1613080899764","","","null","","","","","<p><img src= images/blank.png width =""200"" height = ""200"" style = ""float:right""></p><p><img src=images/blank.png width =""800"" height = ""200""></p>","","","","","","","","","","","",""
"","74.64999999501742","sequential-stimulus-presentation","109","118069","0.0-23.0-1.5","SS1613080899764","trial","","40","800","874.6499999950174","images/stimuli/spore_stims/complex_08_A_c.gif","images/stimuli/spore_stims/complex_08_B_c.gif","","","","","5","complex_similar","images/stimuli/spore_stims/complex_08_B_c.gif","middle","","","","",""
"","null","html-keyboard-response","110","119270","0.0-23.0-0.6","SS1613080899764","","","null","","","","","<p><img src= images/blank.png width =""200"" height = ""200"" style = ""float:right""></p><p><img src=images/blank.png width =""800"" height = ""200""></p>","","","","","","","","","","","",""
"","67.96500000200467","sequential-stimulus-presentation","111","120154","0.0-23.0-1.6","SS1613080899764","trial","","40","800","867.9650000020047","images/stimuli/spore_stims/complex_08_A_c.gif","images/stimuli/spore_stims/complex_08_B_c.gif","","","","","5","complex_similar","images/stimuli/spore_stims/complex_08_B_c.gif","middle","","","","",""
"","null","html-keyboard-response","112","121184","0.0-23.0-0.7","SS1613080899764","","","null","","","","","<p><img src= images/blank.png width =""200"" height = ""200"" style = ""float:right""></p><p><img src=images/blank.png width =""800"" height = ""200""></p>","","","","","","","","","","","",""
"","159.22500000306172","sequential-stimulus-presentation","113","122152","0.0-23.0-1.7","SS1613080899764","trial","","40","800","959.2250000030617","images/stimuli/spore_stims/complex_08_A_c.gif","images/stimuli/spore_stims/complex_08_B_c.gif","","","","","5","complex_similar","images/stimuli/spore_stims/complex_08_B_c.gif","middle","","","","",""
"","87.09999999700813","html-keyboard-response","114","122249","0.0-24.0","SS1613080899764","pref_question","","50","","","","","<video width ='960' height = '540' style='padding-top:8%' autoplay muted><source src='images/stimuli/wall_pref.mp4' type='video/mp4'></video>","2","middle","45%","5","","","","","","","",""
"","103.0700000046636","sequential-stimulus-presentation","115","123162","0.0-25.0","SS1613080899764","pref_reveal","","40","800","903.0700000046636","null","null","","","","","5","","","","background","","","",""
"","null","html-keyboard-response","116","124345","0.0-26.0-0.0","SS1613080899764","","","null","","","","","<p><img src= images/blank.png width =""200"" height = ""200"" style = ""float:right""></p><p><img src=images/blank.png width =""800"" height = ""200""></p>","","","","","","","","","","","",""
"","135.90999999723863","sequential-stimulus-presentation","117","125291","0.0-26.0-1.0","SS1613080899764","trial","","40","800","935.9099999972386","images/stimuli/spore_stims/simple_09_B_c.gif","images/stimuli/spore_stims/simple_19_A_b.gif","","","","","6","simple_dissimilar","images/stimuli/spore_stims/simple_19_A_b.gif","middle","","","","",""
"","null","html-keyboard-response","118","126124","0.0-26.0-0.1","SS1613080899764","","","null","","","","","<p><img src= images/blank.png width =""200"" height = ""200"" style = ""float:right""></p><p><img src=images/blank.png width =""800"" height = ""200""></p>","","","","","","","","","","","",""
"","197.34999999491265","sequential-stimulus-presentation","119","127132","0.0-26.0-1.1","SS1613080899764","trial","","40","800","997.3499999949127","images/stimuli/spore_stims/simple_09_B_c.gif","images/stimuli/spore_stims/simple_19_A_b.gif","","","","","6","simple_dissimilar","images/stimuli/spore_stims/simple_19_A_b.gif","middle","","","","",""
"","null","html-keyboard-response","120","128065","0.0-26.0-0.2","SS1613080899764","","","null","","","","","<p><img src= images/blank.png width =""200"" height = ""200"" style = ""float:right""></p><p><img src=images/blank.png width =""800"" height = ""200""></p>","","","","","","","","","","","",""
"","181.34500000451226","sequential-stimulus-presentation","121","129052","0.0-26.0-1.2","SS1613080899764","trial","","40","800","981.3450000045123","images/stimuli/spore_stims/simple_09_B_c.gif","images/stimuli/spore_stims/simple_19_A_b.gif","","","","","6","simple_dissimilar","images/stimuli/spore_stims/simple_19_A_b.gif","middle","","","","",""
"","null","html-keyboard-response","122","129959","0.0-26.0-0.3","SS1613080899764","","","null","","","","","<p><img src= images/blank.png width =""200"" height = ""200"" style = ""float:right""></p><p><img src=images/blank.png width =""800"" height = ""200""></p>","","","","","","","","","","","",""
"","61.62499999481952","sequential-stimulus-presentation","123","130839","0.0-26.0-1.3","SS1613080899764","trial","","40","800","861.6249999948195","images/stimuli/spore_stims/simple_09_B_c.gif","images/stimuli/spore_stims/simple_19_A_b.gif","","","","","6","simple_dissimilar","images/stimuli/spore_stims/simple_19_A_b.gif","middle","","","","",""
"","null","html-keyboard-response","124","131945","0.0-26.0-0.4","SS1613080899764","","","null","","","","","<p><img src= images/blank.png width =""200"" height = ""200"" style = ""float:right""></p><p><img src=images/blank.png width =""800"" height = ""200""></p>","","","","","","","","","","","",""
"","136.46999999764375","sequential-stimulus-presentation","125","132901","0.0-26.0-1.4","SS1613080899764","trial","","40","800","936.4699999976438","images/stimuli/spore_stims/simple_09_B_c.gif","images/stimuli/spore_stims/simple_19_A_b.gif","","","","","6","simple_dissimilar","images/stimuli/spore_stims/simple_09_B_c.gif","left","","","","",""
"","null","html-keyboard-response","126","134012","0.0-26.0-0.5","SS1613080899764","","","null","","","","","<p><img src= images/blank.png width =""200"" height = ""200"" style = ""float:right""></p><p><img src=images/blank.png width =""800"" height = ""200""></p>","","","","","","","","","","","",""
"","53.885000001173466","sequential-stimulus-presentation","127","134880","0.0-26.0-1.5","SS1613080899764","trial","","40","800","853.8850000011735","images/stimuli/spore_stims/simple_09_B_c.gif","images/stimuli/spore_stims/simple_19_A_b.gif","","","","","6","simple_dissimilar","images/stimuli/spore_stims/simple_19_A_b.gif","middle","","","","",""
"","null","html-keyboard-response","128","135753","0.0-26.0-0.6","SS1613080899764","","","null","","","","","<p><img src= images/blank.png width =""200"" height = ""200"" style = ""float:right""></p><p><img src=images/blank.png width =""800"" height = ""200""></p>","","","","","","","","","","","",""
"","125.7949999999255","sequential-stimulus-presentation","129","136688","0.0-26.0-1.6","SS1613080899764","trial","","40","800","925.7949999999255","images/stimuli/spore_stims/simple_09_B_c.gif","images/stimuli/spore_stims/simple_19_A_b.gif","","","","","6","simple_dissimilar","images/stimuli/spore_stims/simple_19_A_b.gif","middle","","","","",""
"","null","html-keyboard-response","130","137630","0.0-26.0-0.7","SS1613080899764","","","null","","","","","<p><img src= images/blank.png width =""200"" height = ""200"" style = ""float:right""></p><p><img src=images/blank.png width =""800"" height = ""200""></p>","","","","","","","","","","","",""
"","0.5250000031082891","sequential-stimulus-presentation","131","138443","0.0-26.0-1.7","SS1613080899764","trial","","40","800","800.5250000031083","images/stimuli/spore_stims/simple_09_B_c.gif","images/stimuli/spore_stims/simple_19_A_b.gif","","","","","6","simple_dissimilar","images/stimuli/spore_stims/simple_19_A_b.gif","middle","","","","",""
"","100.01999999803957","html-keyboard-response","132","138551","0.0-27.0","SS1613080899764","pref_question","","50","","","","","<video width ='960' height = '540' style='padding-top:8%' autoplay muted><source src='images/stimuli/wall_pref.mp4' type='video/mp4'></video>","2","middle","45%","6","","","","","","","",""
"","125.6950000024517","sequential-stimulus-presentation","133","139483","0.0-28.0","SS1613080899764","pref_reveal","","40","800","925.6950000024517","null","null","","","","","6","","","","background","","","",""
"","null","html-keyboard-response","134","140389","0.0-29.0-0.0","SS1613080899764","","","null","","","","","<p><img src= images/blank.png width =""200"" height = ""200"" style = ""float:right""></p><p><img src=images/blank.png width =""800"" height = ""200""></p>","","","","","","","","","","","",""
"","28.7049999969895","sequential-stimulus-presentation","135","141241","0.0-29.0-1.0","SS1613080899764","trial","","40","800","828.7049999969895","images/stimuli/spore_stims/complex_04_A_d.gif","images/stimuli/spore_stims/complex_14_B_d.gif","","","","","7","complex_dissimilar","images/stimuli/spore_stims/complex_14_B_d.gif","right","","","","",""
"","null","html-keyboard-response","136","142402","0.0-29.0-0.1","SS1613080899764","","","null","","","","","<p><img src= images/blank.png width =""200"" height = ""200"" style = ""float:right""></p><p><img src=images/blank.png width =""800"" height = ""200""></p>","","","","","","","","","","","",""
"","14.904999996360857","sequential-stimulus-presentation","137","143228","0.0-29.0-1.1","SS1613080899764","trial","","40","800","814.9049999963609","images/stimuli/spore_stims/complex_04_A_d.gif","images/stimuli/spore_stims/complex_14_B_d.gif","","","","","7","complex_dissimilar","images/stimuli/spore_stims/complex_14_B_d.gif","right","","","","",""
"","null","html-keyboard-response","138","144495","0.0-29.0-0.2","SS1613080899764","","","null","","","","","<p><img src= images/blank.png width =""200"" height = ""200"" style = ""float:right""></p><p><img src=images/blank.png width =""800"" height = ""200""></p>","","","","","","","","","","","",""
"","26.109999998880085","sequential-stimulus-presentation","139","145335","0.0-29.0-1.2","SS1613080899764","trial","","40","800","826.1099999988801","images/stimuli/spore_stims/complex_04_A_d.gif","images/stimuli/spore_stims/complex_14_B_d.gif","","","","","7","complex_dissimilar","images/stimuli/spore_stims/complex_14_B_d.gif","right","","","","",""
"","null","html-keyboard-response","140","146568","0.0-29.0-0.3","SS1613080899764","","","null","","","","","<p><img src= images/blank.png width =""200"" height = ""200"" style = ""float:right""></p><p><img src=images/blank.png width =""800"" height = ""200""></p>","","","","","","","","","","","",""
"","35.82499999902211","sequential-stimulus-presentation","141","147414","0.0-29.0-1.3","SS1613080899764","trial","","40","800","835.8249999990221","images/stimuli/spore_stims/complex_04_A_d.gif","images/stimuli/spore_stims/complex_14_B_d.gif","","","","","7","complex_dissimilar","images/stimuli/spore_stims/complex_04_A_d.gif","middle","","","","",""
"","null","html-keyboard-response","142","148242","0.0-29.0-0.4","SS1613080899764","","","null","","","","","<p><img src= images/blank.png width =""200"" height = ""200"" style = ""float:right""></p><p><img src=images/blank.png width =""800"" height = ""200""></p>","","","","","","","","","","","",""
"","89.54999999696156","sequential-stimulus-presentation","143","149141","0.0-29.0-1.4","SS1613080899764","trial","","40","800","889.5499999969616","images/stimuli/spore_stims/complex_04_A_d.gif","images/stimuli/spore_stims/complex_14_B_d.gif","","","","","7","complex_dissimilar","images/stimuli/spore_stims/complex_14_B_d.gif","right","","","","",""
"","null","html-keyboard-response","144","150174","0.0-29.0-0.5","SS1613080899764","","","null","","","","","<p><img src= images/blank.png width =""200"" height = ""200"" style = ""float:right""></p><p><img src=images/blank.png width =""800"" height = ""200""></p>","","","","","","","","","","","",""
"","103.6549999989802","sequential-stimulus-presentation","145","151088","0.0-29.0-1.5","SS1613080899764","trial","","40","800","903.6549999989802","images/stimuli/spore_stims/complex_04_A_d.gif","images/stimuli/spore_stims/complex_14_B_d.gif","","","","","7","complex_dissimilar","images/stimuli/spore_stims/complex_14_B_d.gif","right","","","","",""
"","null","html-keyboard-response","146","152125","0.0-29.0-0.6","SS1613080899764","","","null","","","","","<p><img src= images/blank.png width =""200"" height = ""200"" style = ""float:right""></p><p><img src=images/blank.png width =""800"" height = ""200""></p>","","","","","","","","","","","",""
"","88.40000000054715","sequential-stimulus-presentation","147","153024","0.0-29.0-1.6","SS1613080899764","trial","","40","800","888.4000000005472","images/stimuli/spore_stims/complex_04_A_d.gif","images/stimuli/spore_stims/complex_14_B_d.gif","","","","","7","complex_dissimilar","images/stimuli/spore_stims/complex_14_B_d.gif","right","","","","",""
"","null","html-keyboard-response","148","153919","0.0-29.0-0.7","SS1613080899764","","","null","","","","","<p><img src= images/blank.png width =""200"" height = ""200"" style = ""float:right""></p><p><img src=images/blank.png width =""800"" height = ""200""></p>","","","","","","","","","","","",""
"","13.700000003154855","sequential-stimulus-presentation","149","154744","0.0-29.0-1.7","SS1613080899764","trial","","40","800","813.7000000031549","images/stimuli/spore_stims/complex_04_A_d.gif","images/stimuli/spore_stims/complex_14_B_d.gif","","","","","7","complex_dissimilar","images/stimuli/spore_stims/complex_14_B_d.gif","right","","","","",""
"","60.00499999936437","html-keyboard-response","150","154817","0.0-30.0","SS1613080899764","pref_question","","49","","","","","<video width ='960' height = '540' style='padding-top:8%' autoplay muted><source src='images/stimuli/wall_pref.mp4' type='video/mp4'></video>","1","left","25%","7","","","","","","","",""
"","162.1850000010454","sequential-stimulus-presentation","151","155791","0.0-31.0","SS1613080899764","pref_reveal","","40","800","962.1850000010454","null","null","","","","","7","","","","novel","","","",""
"","null","html-keyboard-response","152","156850","0.0-32.0-0.0","SS1613080899764","","","null","","","","","<p><img src= images/blank.png width =""200"" height = ""200"" style = ""float:right""></p><p><img src=images/blank.png width =""800"" height = ""200""></p>","","","","","","","","","","","",""
"","253.75499999790918","sequential-stimulus-presentation","153","157909","0.0-32.0-1.0","SS1613080899764","trial","","40","800","1053.7549999979092","images/stimuli/spore_stims/simple_06_A_a.gif","images/stimuli/spore_stims/simple_05_B_d.gif","","","","","8","simple_dissimilar","images/stimuli/spore_stims/simple_05_B_d.gif","middle","","","","",""
"","null","html-keyboard-response","154","159070","0.0-32.0-0.1","SS1613080899764","","","null","","","","","<p><img src= images/blank.png width =""200"" height = ""200"" style = ""float:right""></p><p><img src=images/blank.png width =""800"" height = ""200""></p>","","","","","","","","","","","",""
"","198.5449999992852","sequential-stimulus-presentation","155","160076","0.0-32.0-1.1","SS1613080899764","trial","","40","800","998.5449999992852","images/stimuli/spore_stims/simple_06_A_a.gif","images/stimuli/spore_stims/simple_05_B_d.gif","","","","","8","simple_dissimilar","images/stimuli/spore_stims/simple_05_B_d.gif","middle","","","","",""
"","null","html-keyboard-response","156","160905","0.0-32.0-0.2","SS1613080899764","","","null","","","","","<p><img src= images/blank.png width =""200"" height = ""200"" style = ""float:right""></p><p><img src=images/blank.png width =""800"" height = ""200""></p>","","","","","","","","","","","",""
"","103.2550000018091","sequential-stimulus-presentation","157","161821","0.0-32.0-1.2","SS1613080899764","trial","","40","800","903.2550000018091","images/stimuli/spore_stims/simple_06_A_a.gif","images/stimuli/spore_stims/simple_05_B_d.gif","","","","","8","simple_dissimilar","images/stimuli/spore_stims/simple_05_B_d.gif","middle","","","","",""
"","null","html-keyboard-response","158","162730","0.0-32.0-0.3","SS1613080899764","","","null","","","","","<p><img src= images/blank.png width =""200"" height = ""200"" style = ""float:right""></p><p><img src=images/blank.png width =""800"" height = ""200""></p>","","","","","","","","","","","",""
"","58.61000000004424","sequential-stimulus-presentation","159","163598","0.0-32.0-1.3","SS1613080899764","trial","","40","800","858.6100000000442","images/stimuli/spore_stims/simple_06_A_a.gif","images/stimuli/spore_stims/simple_05_B_d.gif","","","","","8","simple_dissimilar","images/stimuli/spore_stims/simple_05_B_d.gif","middle","","","","",""
"","null","html-keyboard-response","160","164538","0.0-32.0-0.4","SS1613080899764","","","null","","","","","<p><img src= images/blank.png width =""200"" height = ""200"" style = ""float:right""></p><p><img src=images/blank.png width =""800"" height = ""200""></p>","","","","","","","","","","","",""
"","46.540000003005844","sequential-stimulus-presentation","161","165396","0.0-32.0-1.4","SS1613080899764","trial","","40","800","846.5400000030058","images/stimuli/spore_stims/simple_06_A_a.gif","images/stimuli/spore_stims/simple_05_B_d.gif","","","","","8","simple_dissimilar","images/stimuli/spore_stims/simple_05_B_d.gif","middle","","","","",""
"","null","html-keyboard-response","162","166588","0.0-32.0-0.5","SS1613080899764","","","null","","","","","<p><img src= images/blank.png width =""200"" height = ""200"" style = ""float:right""></p><p><img src=images/blank.png width =""800"" height = ""200""></p>","","","","","","","","","","","",""
"","132.20000000001164","sequential-stimulus-presentation","163","167535","0.0-32.0-1.5","SS1613080899764","trial","","40","800","932.2000000000116","images/stimuli/spore_stims/simple_06_A_a.gif","images/stimuli/spore_stims/simple_05_B_d.gif","","","","","8","simple_dissimilar","images/stimuli/spore_stims/simple_05_B_d.gif","middle","","","","",""
"","null","html-keyboard-response","164","168370","0.0-32.0-0.6","SS1613080899764","","","null","","","","","<p><img src= images/blank.png width =""200"" height = ""200"" style = ""float:right""></p><p><img src=images/blank.png width =""800"" height = ""200""></p>","","","","","","","","","","","",""
"","36.63000000233296","sequential-stimulus-presentation","165","169223","0.0-32.0-1.6","SS1613080899764","trial","","40","800","836.630000002333","images/stimuli/spore_stims/simple_06_A_a.gif","images/stimuli/spore_stims/simple_05_B_d.gif","","","","","8","simple_dissimilar","images/stimuli/spore_stims/simple_06_A_a.gif","left","","","","",""
"","null","html-keyboard-response","166","170174","0.0-32.0-0.7","SS1613080899764","","","null","","","","","<p><img src= images/blank.png width =""200"" height = ""200"" style = ""float:right""></p><p><img src=images/blank.png width =""800"" height = ""200""></p>","","","","","","","","","","","",""
"","269.1400000039721","sequential-stimulus-presentation","167","171266","0.0-32.0-1.7","SS1613080899764","trial","","40","800","1069.140000003972","images/stimuli/spore_stims/simple_06_A_a.gif","images/stimuli/spore_stims/simple_05_B_d.gif","","","","","8","simple_dissimilar","images/stimuli/spore_stims/simple_05_B_d.gif","middle","","","","",""
"","17.295000005105976","html-keyboard-response","168","171307","0.0-33.0","SS1613080899764","pref_question","","51","","","","","<video width ='960' height = '540' style='padding-top:8%' autoplay muted><source src='images/stimuli/wall_pref.mp4' type='video/mp4'></video>","3","right","66%","8","","","","","","","",""
"","221.36499999760417","sequential-stimulus-presentation","169","172342","0.0-34.0","SS1613080899764","pref_reveal","","40","800","1021.3649999976042","null","null","","","","","8","","","","novel","","","",""
"","null","html-keyboard-response","170","173232","0.0-35.0-0.0","SS1613080899764","","","null","","","","","<p><img src= images/blank.png width =""200"" height = ""200"" style = ""float:right""></p><p><img src=images/blank.png width =""800"" height = ""200""></p>","","","","","","","","","","","",""
"","15.540000000328291","sequential-stimulus-presentation","171","174057","0.0-35.0-1.0","SS1613080899764","trial","","40","800","815.5400000003283","images/stimuli/spore_stims/simple_10_B_d.gif","images/stimuli/spore_stims/simple_10_A_d.gif","","","","","9","simple_similar","images/stimuli/spore_stims/simple_10_A_d.gif","right","","","","",""
"","null","html-keyboard-response","172","175122","0.0-35.0-0.1","SS1613080899764","","","null","","","","","<p><img src= images/blank.png width =""200"" height = ""200"" style = ""float:right""></p><p><img src=images/blank.png width =""800"" height = ""200""></p>","","","","","","","","","","","",""
"","189.93000000045868","sequential-stimulus-presentation","173","176136","0.0-35.0-1.1","SS1613080899764","trial","","40","800","989.9300000004587","images/stimuli/spore_stims/simple_10_B_d.gif","images/stimuli/spore_stims/simple_10_A_d.gif","","","","","9","simple_similar","images/stimuli/spore_stims/simple_10_A_d.gif","right","","","","",""
"","null","html-keyboard-response","174","177054","0.0-35.0-0.2","SS1613080899764","","","null","","","","","<p><img src= images/blank.png width =""200"" height = ""200"" style = ""float:right""></p><p><img src=images/blank.png width =""800"" height = ""200""></p>","","","","","","","","","","","",""
"","6.195000001753215","sequential-stimulus-presentation","175","177870","0.0-35.0-1.2","SS1613080899764","trial","","40","800","806.1950000017532","images/stimuli/spore_stims/simple_10_B_d.gif","images/stimuli/spore_stims/simple_10_A_d.gif","","","","","9","simple_similar","images/stimuli/spore_stims/simple_10_A_d.gif","right","","","","",""
"","null","html-keyboard-response","176","179051","0.0-35.0-0.3","SS1613080899764","","","null","","","","","<p><img src= images/blank.png width =""200"" height = ""200"" style = ""float:right""></p><p><img src=images/blank.png width =""800"" height = ""200""></p>","","","","","","","","","","","",""
"","55.98499999905471","sequential-stimulus-presentation","177","179923","0.0-35.0-1.3","SS1613080899764","trial","","40","800","855.9849999990547","images/stimuli/spore_stims/simple_10_B_d.gif","images/stimuli/spore_stims/simple_10_A_d.gif","","","","","9","simple_similar","images/stimuli/spore_stims/simple_10_A_d.gif","right","","","","",""
"","null","html-keyboard-response","178","180811","0.0-35.0-0.4","SS1613080899764","","","null","","","","","<p><img src= images/blank.png width =""200"" height = ""200"" style = ""float:right""></p><p><img src=images/blank.png width =""800"" height = ""200""></p>","","","","","","","","","","","",""
"","95.77500000159489","sequential-stimulus-presentation","179","181724","0.0-35.0-1.4","SS1613080899764","trial","","40","800","895.7750000015949","images/stimuli/spore_stims/simple_10_B_d.gif","images/stimuli/spore_stims/simple_10_A_d.gif","","","","","9","simple_similar","images/stimuli/spore_stims/simple_10_B_d.gif","left","","","","",""
"","null","html-keyboard-response","180","182633","0.0-35.0-0.5","SS1613080899764","","","null","","","","","<p><img src= images/blank.png width =""200"" height = ""200"" style = ""float:right""></p><p><img src=images/blank.png width =""800"" height = ""200""></p>","","","","","","","","","","","",""
"","144.90500000101747","sequential-stimulus-presentation","181","183591","0.0-35.0-1.5","SS1613080899764","trial","","40","800","944.9050000010175","images/stimuli/spore_stims/simple_10_B_d.gif","images/stimuli/spore_stims/simple_10_A_d.gif","","","","","9","simple_similar","images/stimuli/spore_stims/simple_10_A_d.gif","right","","","","",""
"","null","html-keyboard-response","182","184760","0.0-35.0-0.6","SS1613080899764","","","null","","","","","<p><img src= images/blank.png width =""200"" height = ""200"" style = ""float:right""></p><p><img src=images/blank.png width =""800"" height = ""200""></p>","","","","","","","","","","","",""
"","108.39999999734573","sequential-stimulus-presentation","183","185682","0.0-35.0-1.6","SS1613080899764","trial","","40","800","908.3999999973457","images/stimuli/spore_stims/simple_10_B_d.gif","images/stimuli/spore_stims/simple_10_A_d.gif","","","","","9","simple_similar","images/stimuli/spore_stims/simple_10_A_d.gif","right","","","","",""
"","null","html-keyboard-response","184","186686","0.0-35.0-0.7","SS1613080899764","","","null","","","","","<p><img src= images/blank.png width =""200"" height = ""200"" style = ""float:right""></p><p><img src=images/blank.png width =""800"" height = ""200""></p>","","","","","","","","","","","",""
"","95.95500000432367","sequential-stimulus-presentation","185","187605","0.0-35.0-1.7","SS1613080899764","trial","","40","800","895.9550000043237","images/stimuli/spore_stims/simple_10_B_d.gif","images/stimuli/spore_stims/simple_10_A_d.gif","","","","","9","simple_similar","images/stimuli/spore_stims/simple_10_A_d.gif","right","","","","",""
"","17.72000000346452","html-keyboard-response","186","187638","0.0-36.0","SS1613080899764","pref_question","","50","","","","","<video width ='960' height = '540' style='padding-top:8%' autoplay muted><source src='images/stimuli/wall_pref.mp4' type='video/mp4'></video>","2","middle","45%","9","","","","","","","",""
"","142.7899999980582","sequential-stimulus-presentation","187","188605","0.0-37.0","SS1613080899764","pref_reveal","","40","800","942.7899999980582","null","null","","","","","9","","","","novel","","","",""
"","null","html-keyboard-response","188","189808","0.0-38.0-0.0","SS1613080899764","","","null","","","","","<p><img src= images/blank.png width =""200"" height = ""200"" style = ""float:right""></p><p><img src=images/blank.png width =""800"" height = ""200""></p>","","","","","","","","","","","",""
"","76.98000000527827","sequential-stimulus-presentation","189","190700","0.0-38.0-1.0","SS1613080899764","trial","","40","800","876.9800000052783","images/stimuli/spore_stims/simple_11_B_c.gif","images/stimuli/spore_stims/simple_15_A_b.gif","","","","","10","simple_dissimilar","images/stimuli/spore_stims/simple_15_A_b.gif","middle","","","","",""
"","null","html-keyboard-response","190","191640","0.0-38.0-0.1","SS1613080899764","","","null","","","","","<p><img src= images/blank.png width =""200"" height = ""200"" style = ""float:right""></p><p><img src=images/blank.png width =""800"" height = ""200""></p>","","","","","","","","","","","",""
"","205.1500000015949","sequential-stimulus-presentation","191","192656","0.0-38.0-1.1","SS1613080899764","trial","","40","800","1005.1500000015949","images/stimuli/spore_stims/simple_11_B_c.gif","images/stimuli/spore_stims/simple_15_A_b.gif","","","","","10","simple_dissimilar","images/stimuli/spore_stims/simple_15_A_b.gif","middle","","","","",""
"","null","html-keyboard-response","192","193526","0.0-38.0-0.2","SS1613080899764","","","null","","","","","<p><img src= images/blank.png width =""200"" height = ""200"" style = ""float:right""></p><p><img src=images/blank.png width =""800"" height = ""200""></p>","","","","","","","","","","","",""
"","89.5849999942584","sequential-stimulus-presentation","193","194426","0.0-38.0-1.2","SS1613080899764","trial","","40","800","889.5849999942584","images/stimuli/spore_stims/simple_11_B_c.gif","images/stimuli/spore_stims/simple_15_A_b.gif","","","","","10","simple_dissimilar","images/stimuli/spore_stims/simple_15_A_b.gif","middle","","","","",""
"","null","html-keyboard-response","194","195372","0.0-38.0-0.3","SS1613080899764","","","null","","","","","<p><img src= images/blank.png width =""200"" height = ""200"" style = ""float:right""></p><p><img src=images/blank.png width =""800"" height = ""200""></p>","","","","","","","","","","","",""
"","204.28499999979977","sequential-stimulus-presentation","195","196394","0.0-38.0-1.3","SS1613080899764","trial","","40","800","1004.2849999997998","images/stimuli/spore_stims/simple_11_B_c.gif","images/stimuli/spore_stims/simple_15_A_b.gif","","","","","10","simple_dissimilar","images/stimuli/spore_stims/simple_15_A_b.gif","middle","","","","",""
"","null","html-keyboard-response","196","197708","0.0-38.0-0.4","SS1613080899764","","","null","","","","","<p><img src= images/blank.png width =""200"" height = ""200"" style = ""float:right""></p><p><img src=images/blank.png width =""800"" height = ""200""></p>","","","","","","","","","","","",""
"","18.084999996062834","sequential-stimulus-presentation","197","198541","0.0-38.0-1.4","SS1613080899764","trial","","40","800","818.0849999960628","images/stimuli/spore_stims/simple_11_B_c.gif","images/stimuli/spore_stims/simple_15_A_b.gif","","","","","10","simple_dissimilar","images/stimuli/spore_stims/simple_15_A_b.gif","middle","","","","",""
"","null","html-keyboard-response","198","199504","0.0-38.0-0.5","SS1613080899764","","","null","","","","","<p><img src= images/blank.png width =""200"" height = ""200"" style = ""float:right""></p><p><img src=images/blank.png width =""800"" height = ""200""></p>","","","","","","","","","","","",""
"","43.215000005147886","sequential-stimulus-presentation","199","200365","0.0-38.0-1.5","SS1613080899764","trial","","40","800","843.2150000051479","images/stimuli/spore_stims/simple_11_B_c.gif","images/stimuli/spore_stims/simple_15_A_b.gif","","","","","10","simple_dissimilar","images/stimuli/spore_stims/simple_15_A_b.gif","middle","","","","",""
"","null","html-keyboard-response","200","201541","0.0-38.0-0.6","SS1613080899764","","","null","","","","","<p><img src= images/blank.png width =""200"" height = ""200"" style = ""float:right""></p><p><img src=images/blank.png width =""800"" height = ""200""></p>","","","","","","","","","","","",""
"","116.05499999859603","sequential-stimulus-presentation","201","202467","0.0-38.0-1.6","SS1613080899764","trial","","40","800","916.054999998596","images/stimuli/spore_stims/simple_11_B_c.gif","images/stimuli/spore_stims/simple_15_A_b.gif","","","","","10","simple_dissimilar","images/stimuli/spore_stims/simple_11_B_c.gif","right","","","","",""
"","null","html-keyboard-response","202","203759","0.0-38.0-0.7","SS1613080899764","","","null","","","","","<p><img src= images/blank.png width =""200"" height = ""200"" style = ""float:right""></p><p><img src=images/blank.png width =""800"" height = ""200""></p>","","","","","","","","","","","",""
"","112.0950000040466","sequential-stimulus-presentation","203","204696","0.0-38.0-1.7","SS1613080899764","trial","","40","800","912.0950000040466","images/stimuli/spore_stims/simple_11_B_c.gif","images/stimuli/spore_stims/simple_15_A_b.gif","","","","","10","simple_dissimilar","images/stimuli/spore_stims/simple_15_A_b.gif","middle","","","","",""
"","15.449999998963904","html-keyboard-response","204","204731","0.0-39.0","SS1613080899764","pref_question","","50","","","","","<video width ='960' height = '540' style='padding-top:8%' autoplay muted><source src='images/stimuli/wall_pref.mp4' type='video/mp4'></video>","2","middle","45%","10","","","","","","","",""
"","154.28000000247266","sequential-stimulus-presentation","205","205699","0.0-40.0","SS1613080899764","pref_reveal","","40","800","954.2800000024727","null","null","","","","","10","","","","background","","","",""
"","null","html-keyboard-response","206","206714","0.0-41.0-0.0","SS1613080899764","","","null","","","","","<p><img src= images/blank.png width =""200"" height = ""200"" style = ""float:right""></p><p><img src=images/blank.png width =""800"" height = ""200""></p>","","","","","","","","","","","",""
"","86.8899999986752","sequential-stimulus-presentation","207","207617","0.0-41.0-1.0","SS1613080899764","trial","","40","800","886.8899999986752","images/stimuli/spore_stims/complex_19_B_c.gif","images/stimuli/spore_stims/complex_02_A_a.gif","","","","","11","complex_dissimilar","images/stimuli/spore_stims/complex_02_A_a.gif","left","","","","",""
"","null","html-keyboard-response","208","208849","0.0-41.0-0.1","SS1613080899764","","","null","","","","","<p><img src= images/blank.png width =""200"" height = ""200"" style = ""float:right""></p><p><img src=images/blank.png width =""800"" height = ""200""></p>","","","","","","","","","","","",""
"","118.02999999781605","sequential-stimulus-presentation","209","209777","0.0-41.0-1.1","SS1613080899764","trial","","40","800","918.029999997816","images/stimuli/spore_stims/complex_19_B_c.gif","images/stimuli/spore_stims/complex_02_A_a.gif","","","","","11","complex_dissimilar","images/stimuli/spore_stims/complex_02_A_a.gif","left","","","","",""
"","null","html-keyboard-response","210","211030","0.0-41.0-0.2","SS1613080899764","","","null","","","","","<p><img src= images/blank.png width =""200"" height = ""200"" style = ""float:right""></p><p><img src=images/blank.png width =""800"" height = ""200""></p>","","","","","","","","","","","",""
"","111.32999999972526","sequential-stimulus-presentation","211","211953","0.0-41.0-1.2","SS1613080899764","trial","","40","800","911.3299999997253","images/stimuli/spore_stims/complex_19_B_c.gif","images/stimuli/spore_stims/complex_02_A_a.gif","","","","","11","complex_dissimilar","images/stimuli/spore_stims/complex_02_A_a.gif","left","","","","",""
"","null","html-keyboard-response","212","213094","0.0-41.0-0.3","SS1613080899764","","","null","","","","","<p><img src= images/blank.png width =""200"" height = ""200"" style = ""float:right""></p><p><img src=images/blank.png width =""800"" height = ""200""></p>","","","","","","","","","","","",""
"","299.8650000008638","sequential-stimulus-presentation","213","214216","0.0-41.0-1.3","SS1613080899764","trial","","40","800","1099.8650000008638","images/stimuli/spore_stims/complex_19_B_c.gif","images/stimuli/spore_stims/complex_02_A_a.gif","","","","","11","complex_dissimilar","images/stimuli/spore_stims/complex_19_B_c.gif","middle","","","","",""
"","null","html-keyboard-response","214","215036","0.0-41.0-0.4","SS1613080899764","","","null","","","","","<p><img src= images/blank.png width =""200"" height = ""200"" style = ""float:right""></p><p><img src=images/blank.png width =""800"" height = ""200""></p>","","","","","","","","","","","",""
"","61.72499999956926","sequential-stimulus-presentation","215","215909","0.0-41.0-1.4","SS1613080899764","trial","","40","800","861.7249999995693","images/stimuli/spore_stims/complex_19_B_c.gif","images/stimuli/spore_stims/complex_02_A_a.gif","","","","","11","complex_dissimilar","images/stimuli/spore_stims/complex_02_A_a.gif","left","","","","",""
"","null","html-keyboard-response","216","217211","0.0-41.0-0.5","SS1613080899764","","","null","","","","","<p><img src= images/blank.png width =""200"" height = ""200"" style = ""float:right""></p><p><img src=images/blank.png width =""800"" height = ""200""></p>","","","","","","","","","","","",""
"","64.54999999550637","sequential-stimulus-presentation","217","218091","0.0-41.0-1.5","SS1613080899764","trial","","40","800","864.5499999955064","images/stimuli/spore_stims/complex_19_B_c.gif","images/stimuli/spore_stims/complex_02_A_a.gif","","","","","11","complex_dissimilar","images/stimuli/spore_stims/complex_02_A_a.gif","left","","","","",""
"","null","html-keyboard-response","218","219369","0.0-41.0-0.6","SS1613080899764","","","null","","","","","<p><img src= images/blank.png width =""200"" height = ""200"" style = ""float:right""></p><p><img src=images/blank.png width =""800"" height = ""200""></p>","","","","","","","","","","","",""
"","109.10499999590684","sequential-stimulus-presentation","219","220297","0.0-41.0-1.6","SS1613080899764","trial","","40","800","909.1049999959068","images/stimuli/spore_stims/complex_19_B_c.gif","images/stimuli/spore_stims/complex_02_A_a.gif","","","","","11","complex_dissimilar","images/stimuli/spore_stims/complex_02_A_a.gif","left","","","","",""
"","null","html-keyboard-response","220","221439","0.0-41.0-0.7","SS1613080899764","","","null","","","","","<p><img src= images/blank.png width =""200"" height = ""200"" style = ""float:right""></p><p><img src=images/blank.png width =""800"" height = ""200""></p>","","","","","","","","","","","",""
"","83.07500000228174","sequential-stimulus-presentation","221","222334","0.0-41.0-1.7","SS1613080899764","trial","","40","800","883.0750000022817","images/stimuli/spore_stims/complex_19_B_c.gif","images/stimuli/spore_stims/complex_02_A_a.gif","","","","","11","complex_dissimilar","images/stimuli/spore_stims/complex_02_A_a.gif","left","","","","",""
"","12.945000002218876","html-keyboard-response","222","222364","0.0-42.0","SS1613080899764","pref_question","","50","","","","","<video width ='960' height = '540' style='padding-top:8%' autoplay muted><source src='images/stimuli/wall_pref.mp4' type='video/mp4'></video>","2","middle","45%","11","","","","","","","",""
"","170.79500000545522","sequential-stimulus-presentation","223","223347","0.0-43.0","SS1613080899764","pref_reveal","","40","800","970.7950000054552","null","null","","","","","11","","","","deviant","","","",""
"","null","html-keyboard-response","224","224541","0.0-44.0-0.0","SS1613080899764","","","null","","","","","<p><img src= images/blank.png width =""200"" height = ""200"" style = ""float:right""></p><p><img src=images/blank.png width =""800"" height = ""200""></p>","","","","","","","","","","","",""
"","11.850000002596062","sequential-stimulus-presentation","225","225374","0.0-44.0-1.0","SS1613080899764","trial","","40","800","811.8500000025961","images/stimuli/spore_stims/complex_15_A_d.gif","images/stimuli/spore_stims/complex_20_A_a.gif","","","","","12","complex_dissimilar","images/stimuli/spore_stims/complex_20_A_a.gif","left","","","","",""
"","null","html-keyboard-response","226","226331","0.0-44.0-0.1","SS1613080899764","","","null","","","","","<p><img src= images/blank.png width =""200"" height = ""200"" style = ""float:right""></p><p><img src=images/blank.png width =""800"" height = ""200""></p>","","","","","","","","","","","",""
"","61.73999999737134","sequential-stimulus-presentation","227","227210","0.0-44.0-1.1","SS1613080899764","trial","","40","800","861.7399999973713","images/stimuli/spore_stims/complex_15_A_d.gif","images/stimuli/spore_stims/complex_20_A_a.gif","","","","","12","complex_dissimilar","images/stimuli/spore_stims/complex_20_A_a.gif","left","","","","",""
"","null","html-keyboard-response","228","228098","0.0-44.0-0.2","SS1613080899764","","","null","","","","","<p><img src= images/blank.png width =""200"" height = ""200"" style = ""float:right""></p><p><img src=images/blank.png width =""800"" height = ""200""></p>","","","","","","","","","","","",""
"","30.534999998053536","sequential-stimulus-presentation","229","228940","0.0-44.0-1.2","SS1613080899764","trial","","40","800","830.5349999980535","images/stimuli/spore_stims/complex_15_A_d.gif","images/stimuli/spore_stims/complex_20_A_a.gif","","","","","12","complex_dissimilar","images/stimuli/spore_stims/complex_20_A_a.gif","left","","","","",""
"","null","html-keyboard-response","230","230026","0.0-44.0-0.3","SS1613080899764","","","null","","","","","<p><img src= images/blank.png width =""200"" height = ""200"" style = ""float:right""></p><p><img src=images/blank.png width =""800"" height = ""200""></p>","","","","","","","","","","","",""
"","96.29999999742722","sequential-stimulus-presentation","231","230934","0.0-44.0-1.3","SS1613080899764","trial","","40","800","896.2999999974272","images/stimuli/spore_stims/complex_15_A_d.gif","images/stimuli/spore_stims/complex_20_A_a.gif","","","","","12","complex_dissimilar","images/stimuli/spore_stims/complex_15_A_d.gif","right","","","","",""
"","null","html-keyboard-response","232","231842","0.0-44.0-0.4","SS1613080899764","","","null","","","","","<p><img src= images/blank.png width =""200"" height = ""200"" style = ""float:right""></p><p><img src=images/blank.png width =""800"" height = ""200""></p>","","","","","","","","","","","",""
"","50.145000001066364","sequential-stimulus-presentation","233","232715","0.0-44.0-1.4","SS1613080899764","trial","","40","800","850.1450000010664","images/stimuli/spore_stims/complex_15_A_d.gif","images/stimuli/spore_stims/complex_20_A_a.gif","","","","","12","complex_dissimilar","images/stimuli/spore_stims/complex_20_A_a.gif","left","","","","",""
"","null","html-keyboard-response","234","234013","0.0-44.0-0.5","SS1613080899764","","","null","","","","","<p><img src= images/blank.png width =""200"" height = ""200"" style = ""float:right""></p><p><img src=images/blank.png width =""800"" height = ""200""></p>","","","","","","","","","","","",""
"","99.0349999992759","sequential-stimulus-presentation","235","234929","0.0-44.0-1.5","SS1613080899764","trial","","40","800","899.0349999992759","images/stimuli/spore_stims/complex_15_A_d.gif","images/stimuli/spore_stims/complex_20_A_a.gif","","","","","12","complex_dissimilar","images/stimuli/spore_stims/complex_20_A_a.gif","left","","","","",""
"","null","html-keyboard-response","236","235855","0.0-44.0-0.6","SS1613080899764","","","null","","","","","<p><img src= images/blank.png width =""200"" height = ""200"" style = ""float:right""></p><p><img src=images/blank.png width =""800"" height = ""200""></p>","","","","","","","","","","","",""
"","76.40999999421183","sequential-stimulus-presentation","237","236752","0.0-44.0-1.6","SS1613080899764","trial","","40","800","876.4099999942118","images/stimuli/spore_stims/complex_15_A_d.gif","images/stimuli/spore_stims/complex_20_A_a.gif","","","","","12","complex_dissimilar","images/stimuli/spore_stims/complex_20_A_a.gif","left","","","","",""
"","null","html-keyboard-response","238","237939","0.0-44.0-0.7","SS1613080899764","","","null","","","","","<p><img src= images/blank.png width =""200"" height = ""200"" style = ""float:right""></p><p><img src=images/blank.png width =""800"" height = ""200""></p>","","","","","","","","","","","",""
"","54.195000004256144","sequential-stimulus-presentation","239","238812","0.0-44.0-1.7","SS1613080899764","trial","","40","800","854.1950000042561","images/stimuli/spore_stims/complex_15_A_d.gif","images/stimuli/spore_stims/complex_20_A_a.gif","","","","","12","complex_dissimilar","images/stimuli/spore_stims/complex_20_A_a.gif","left","","","","",""
"","184.74499999865657","html-keyboard-response","240","239014","0.0-45.0","SS1613080899764","pref_question","","50","","","","","<video width ='960' height = '540' style='padding-top:8%' autoplay muted><source src='images/stimuli/wall_pref.mp4' type='video/mp4'></video>","2","middle","45%","12","","","","","","","",""
"","165.13000000122702","sequential-stimulus-presentation","241","240009","0.0-46.0","SS1613080899764","pref_reveal","","40","800","965.130000001227","null","null","","","","","12","","","","novel","","","",""
"","null","html-keyboard-response","242","240822","0.0-47.0-0.0","SS1613080899764","","","null","","","","","<p><img src= images/blank.png width =""200"" height = ""200"" style = ""float:right""></p><p><img src=images/blank.png width =""800"" height = ""200""></p>","","","","","","","","","","","",""
"","73.17499999771826","sequential-stimulus-presentation","243","241712","0.0-47.0-1.0","SS1613080899764","trial","","40","800","873.1749999977183","images/stimuli/spore_stims/complex_18_B_d.gif","images/stimuli/spore_stims/complex_10_A_d.gif","","","","","13","complex_dissimilar","images/stimuli/spore_stims/complex_10_A_d.gif","right","","","","",""
"","null","html-keyboard-response","244","242584","0.0-47.0-0.1","SS1613080899764","","","null","","","","","<p><img src= images/blank.png width =""200"" height = ""200"" style = ""float:right""></p><p><img src=images/blank.png width =""800"" height = ""200""></p>","","","","","","","","","","","",""
"","115.95500000112224","sequential-stimulus-presentation","245","243509","0.0-47.0-1.1","SS1613080899764","trial","","40","800","915.9550000011222","images/stimuli/spore_stims/complex_18_B_d.gif","images/stimuli/spore_stims/complex_10_A_d.gif","","","","","13","complex_dissimilar","images/stimuli/spore_stims/complex_10_A_d.gif","right","","","","",""
"","null","html-keyboard-response","246","244344","0.0-47.0-0.2","SS1613080899764","","","null","","","","","<p><img src= images/blank.png width =""200"" height = ""200"" style = ""float:right""></p><p><img src=images/blank.png width =""800"" height = ""200""></p>","","","","","","","","","","","",""
"","45.58999999426305","sequential-stimulus-presentation","247","245202","0.0-47.0-1.2","SS1613080899764","trial","","40","800","845.589999994263","images/stimuli/spore_stims/complex_18_B_d.gif","images/stimuli/spore_stims/complex_10_A_d.gif","","","","","13","complex_dissimilar","images/stimuli/spore_stims/complex_10_A_d.gif","right","","","","",""
"","null","html-keyboard-response","248","246173","0.0-47.0-0.3","SS1613080899764","","","null","","","","","<p><img src= images/blank.png width =""200"" height = ""200"" style = ""float:right""></p><p><img src=images/blank.png width =""800"" height = ""200""></p>","","","","","","","","","","","",""
"","78.96999999502441","sequential-stimulus-presentation","249","247064","0.0-47.0-1.3","SS1613080899764","trial","","40","800","878.9699999950244","images/stimuli/spore_stims/complex_18_B_d.gif","images/stimuli/spore_stims/complex_10_A_d.gif","","","","","13","complex_dissimilar","images/stimuli/spore_stims/complex_10_A_d.gif","right","","","","",""
"","null","html-keyboard-response","250","247977","0.0-47.0-0.4","SS1613080899764","","","null","","","","","<p><img src= images/blank.png width =""200"" height = ""200"" style = ""float:right""></p><p><img src=images/blank.png width =""800"" height = ""200""></p>","","","","","","","","","","","",""
"","193.9249999995809","sequential-stimulus-presentation","251","248991","0.0-47.0-1.4","SS1613080899764","trial","","40","800","993.9249999995809","images/stimuli/spore_stims/complex_18_B_d.gif","images/stimuli/spore_stims/complex_10_A_d.gif","","","","","13","complex_dissimilar","images/stimuli/spore_stims/complex_10_A_d.gif","right","","","","",""
"","null","html-keyboard-response","252","250050","0.0-47.0-0.5","SS1613080899764","","","null","","","","","<p><img src= images/blank.png width =""200"" height = ""200"" style = ""float:right""></p><p><img src=images/blank.png width =""800"" height = ""200""></p>","","","","","","","","","","","",""
"","22.39499999996042","sequential-stimulus-presentation","253","250891","0.0-47.0-1.5","SS1613080899764","trial","","40","800","822.3949999999604","images/stimuli/spore_stims/complex_18_B_d.gif","images/stimuli/spore_stims/complex_10_A_d.gif","","","","","13","complex_dissimilar","images/stimuli/spore_stims/complex_10_A_d.gif","right","","","","",""
"","null","html-keyboard-response","254","251918","0.0-47.0-0.6","SS1613080899764","","","null","","","","","<p><img src= images/blank.png width =""200"" height = ""200"" style = ""float:right""></p><p><img src=images/blank.png width =""800"" height = ""200""></p>","","","","","","","","","","","",""
"","140.02500000060536","sequential-stimulus-presentation","255","252873","0.0-47.0-1.6","SS1613080899764","trial","","40","800","940.0250000006054","images/stimuli/spore_stims/complex_18_B_d.gif","images/stimuli/spore_stims/complex_10_A_d.gif","","","","","13","complex_dissimilar","images/stimuli/spore_stims/complex_18_B_d.gif","middle","","","","",""
"","null","html-keyboard-response","256","254075","0.0-47.0-0.7","SS1613080899764","","","null","","","","","<p><img src= images/blank.png width =""200"" height = ""200"" style = ""float:right""></p><p><img src=images/blank.png width =""800"" height = ""200""></p>","","","","","","","","","","","",""
"","211.1049999948591","sequential-stimulus-presentation","257","255104","0.0-47.0-1.7","SS1613080899764","trial","","40","800","1011.1049999948591","images/stimuli/spore_stims/complex_18_B_d.gif","images/stimuli/spore_stims/complex_10_A_d.gif","","","","","13","complex_dissimilar","images/stimuli/spore_stims/complex_10_A_d.gif","right","","","","",""
"","139.86499999737134","html-keyboard-response","258","255261","0.0-48.0","SS1613080899764","pref_question","","50","","","","","<video width ='960' height = '540' style='padding-top:8%' autoplay muted><source src='images/stimuli/wall_pref.mp4' type='video/mp4'></video>","2","middle","45%","13","","","","","","","",""
"","34.95499999553431","sequential-stimulus-presentation","259","256116","0.0-49.0","SS1613080899764","pref_reveal","","40","800","834.9549999955343","null","null","","","","","13","","","","deviant","","","",""
"","null","html-keyboard-response","260","257103","0.0-50.0-0.0","SS1613080899764","","","null","","","","","<p><img src= images/blank.png width =""200"" height = ""200"" style = ""float:right""></p><p><img src=images/blank.png width =""800"" height = ""200""></p>","","","","","","","","","","","",""
"","42.034999998577405","sequential-stimulus-presentation","261","257974","0.0-50.0-1.0","SS1613080899764","trial","","40","800","842.0349999985774","images/stimuli/spore_stims/complex_12_B_b.gif","images/stimuli/spore_stims/complex_12_A_b.gif","","","","","14","complex_similar","images/stimuli/spore_stims/complex_12_A_b.gif","right","","","","",""
"","null","html-keyboard-response","262","259232","0.0-50.0-0.1","SS1613080899764","","","null","","","","","<p><img src= images/blank.png width =""200"" height = ""200"" style = ""float:right""></p><p><img src=images/blank.png width =""800"" height = ""200""></p>","","","","","","","","","","","",""
"","35.45999999914784","sequential-stimulus-presentation","263","260079","0.0-50.0-1.1","SS1613080899764","trial","","40","800","835.4599999991478","images/stimuli/spore_stims/complex_12_B_b.gif","images/stimuli/spore_stims/complex_12_A_b.gif","","","","","14","complex_similar","images/stimuli/spore_stims/complex_12_A_b.gif","right","","","","",""
"","null","html-keyboard-response","264","261056","0.0-50.0-0.2","SS1613080899764","","","null","","","","","<p><img src= images/blank.png width =""200"" height = ""200"" style = ""float:right""></p><p><img src=images/blank.png width =""800"" height = ""200""></p>","","","","","","","","","","","",""
"","13.080000004265457","sequential-stimulus-presentation","265","261885","0.0-50.0-1.2","SS1613080899764","trial","","40","800","813.0800000042655","images/stimuli/spore_stims/complex_12_B_b.gif","images/stimuli/spore_stims/complex_12_A_b.gif","","","","","14","complex_similar","images/stimuli/spore_stims/complex_12_A_b.gif","right","","","","",""
"","null","html-keyboard-response","266","262950","0.0-50.0-0.3","SS1613080899764","","","null","","","","","<p><img src= images/blank.png width =""200"" height = ""200"" style = ""float:right""></p><p><img src=images/blank.png width =""800"" height = ""200""></p>","","","","","","","","","","","",""
"","42.58999999728985","sequential-stimulus-presentation","267","263806","0.0-50.0-1.3","SS1613080899764","trial","","40","800","842.5899999972899","images/stimuli/spore_stims/complex_12_B_b.gif","images/stimuli/spore_stims/complex_12_A_b.gif","","","","","14","complex_similar","images/stimuli/spore_stims/complex_12_A_b.gif","right","","","","",""
"","null","html-keyboard-response","268","265048","0.0-50.0-0.4","SS1613080899764","","","null","","","","","<p><img src= images/blank.png width =""200"" height = ""200"" style = ""float:right""></p><p><img src=images/blank.png width =""800"" height = ""200""></p>","","","","","","","","","","","",""
"","3.7749999974039383","sequential-stimulus-presentation","269","265865","0.0-50.0-1.4","SS1613080899764","trial","","40","800","803.7749999974039","images/stimuli/spore_stims/complex_12_B_b.gif","images/stimuli/spore_stims/complex_12_A_b.gif","","","","","14","complex_similar","images/stimuli/spore_stims/complex_12_A_b.gif","right","","","","",""
"","null","html-keyboard-response","270","266823","0.0-50.0-0.5","SS1613080899764","","","null","","","","","<p><img src= images/blank.png width =""200"" height = ""200"" style = ""float:right""></p><p><img src=images/blank.png width =""800"" height = ""200""></p>","","","","","","","","","","","",""
"","95.78000000328757","sequential-stimulus-presentation","271","267730","0.0-50.0-1.5","SS1613080899764","trial","","40","800","895.7800000032876","images/stimuli/spore_stims/complex_12_B_b.gif","images/stimuli/spore_stims/complex_12_A_b.gif","","","","","14","complex_similar","images/stimuli/spore_stims/complex_12_A_b.gif","right","","","","",""
"","null","html-keyboard-response","272","268609","0.0-50.0-0.6","SS1613080899764","","","null","","","","","<p><img src= images/blank.png width =""200"" height = ""200"" style = ""float:right""></p><p><img src=images/blank.png width =""800"" height = ""200""></p>","","","","","","","","","","","",""
"","183.55500000325264","sequential-stimulus-presentation","273","269610","0.0-50.0-1.6","SS1613080899764","trial","","40","800","983.5550000032526","images/stimuli/spore_stims/complex_12_B_b.gif","images/stimuli/spore_stims/complex_12_A_b.gif","","","","","14","complex_similar","images/stimuli/spore_stims/complex_12_A_b.gif","right","","","","",""
"","null","html-keyboard-response","274","270509","0.0-50.0-0.7","SS1613080899764","","","null","","","","","<p><img src= images/blank.png width =""200"" height = ""200"" style = ""float:right""></p><p><img src=images/blank.png width =""800"" height = ""200""></p>","","","","","","","","","","","",""
"","24.064999997790437","sequential-stimulus-presentation","275","271355","0.0-50.0-1.7","SS1613080899764","trial","","40","800","824.0649999977904","images/stimuli/spore_stims/complex_12_B_b.gif","images/stimuli/spore_stims/complex_12_A_b.gif","","","","","14","complex_similar","images/stimuli/spore_stims/complex_12_B_b.gif","middle","","","","",""
"","128.10999999783235","html-keyboard-response","276","271498","0.0-51.0","SS1613080899764","pref_question","","50","","","","","<video width ='960' height = '540' style='padding-top:8%' autoplay muted><source src='images/stimuli/wall_pref.mp4' type='video/mp4'></video>","2","middle","45%","14","","","","","","","",""
"","80.52500000485452","sequential-stimulus-presentation","277","272386","0.0-52.0","SS1613080899764","pref_reveal","","40","800","880.5250000048545","null","null","","","","","14","","","","deviant","","","",""
"","null","html-keyboard-response","278","273430","0.0-53.0-0.0","SS1613080899764","","","null","","","","","<p><img src= images/blank.png width =""200"" height = ""200"" style = ""float:right""></p><p><img src=images/blank.png width =""800"" height = ""200""></p>","","","","","","","","","","","",""
"","97.34000000025844","sequential-stimulus-presentation","279","274345","0.0-53.0-1.0","SS1613080899764","trial","","40","800","897.3400000002584","images/stimuli/spore_stims/complex_16_B_d.gif","images/stimuli/spore_stims/complex_16_A_d.gif","","","","","15","complex_similar","images/stimuli/spore_stims/complex_16_A_d.gif","middle","","","","",""
"","null","html-keyboard-response","280","275173","0.0-53.0-0.1","SS1613080899764","","","null","","","","","<p><img src= images/blank.png width =""200"" height = ""200"" style = ""float:right""></p><p><img src=images/blank.png width =""800"" height = ""200""></p>","","","","","","","","","","","",""
"","70.1000000044587","sequential-stimulus-presentation","281","276054","0.0-53.0-1.1","SS1613080899764","trial","","40","800","870.1000000044587","images/stimuli/spore_stims/complex_16_B_d.gif","images/stimuli/spore_stims/complex_16_A_d.gif","","","","","15","complex_similar","images/stimuli/spore_stims/complex_16_A_d.gif","middle","","","","",""
"","null","html-keyboard-response","282","277071","0.0-53.0-0.2","SS1613080899764","","","null","","","","","<p><img src= images/blank.png width =""200"" height = ""200"" style = ""float:right""></p><p><img src=images/blank.png width =""800"" height = ""200""></p>","","","","","","","","","","","",""
"","51.75500000041211","sequential-stimulus-presentation","283","277942","0.0-53.0-1.2","SS1613080899764","trial","","40","800","851.7550000004121","images/stimuli/spore_stims/complex_16_B_d.gif","images/stimuli/spore_stims/complex_16_A_d.gif","","","","","15","complex_similar","images/stimuli/spore_stims/complex_16_A_d.gif","middle","","","","",""
"","null","html-keyboard-response","284","278774","0.0-53.0-0.3","SS1613080899764","","","null","","","","","<p><img src= images/blank.png width =""200"" height = ""200"" style = ""float:right""></p><p><img src=images/blank.png width =""800"" height = ""200""></p>","","","","","","","","","","","",""
"","12.660000000323635","sequential-stimulus-presentation","285","279608","0.0-53.0-1.3","SS1613080899764","trial","","40","800","812.6600000003236","images/stimuli/spore_stims/complex_16_B_d.gif","images/stimuli/spore_stims/complex_16_A_d.gif","","","","","15","complex_similar","images/stimuli/spore_stims/complex_16_A_d.gif","middle","","","","",""
"","null","html-keyboard-response","286","280896","0.0-53.0-0.4","SS1613080899764","","","null","","","","","<p><img src= images/blank.png width =""200"" height = ""200"" style = ""float:right""></p><p><img src=images/blank.png width =""800"" height = ""200""></p>","","","","","","","","","","","",""
"","7.944999997562263","sequential-stimulus-presentation","287","281718","0.0-53.0-1.4","SS1613080899764","trial","","40","800","807.9449999975623","images/stimuli/spore_stims/complex_16_B_d.gif","images/stimuli/spore_stims/complex_16_A_d.gif","","","","","15","complex_similar","images/stimuli/spore_stims/complex_16_B_d.gif","left","","","","",""
"","null","html-keyboard-response","288","282858","0.0-53.0-0.5","SS1613080899764","","","null","","","","","<p><img src= images/blank.png width =""200"" height = ""200"" style = ""float:right""></p><p><img src=images/blank.png width =""800"" height = ""200""></p>","","","","","","","","","","","",""
"","179.59500000142725","sequential-stimulus-presentation","289","283848","0.0-53.0-1.5","SS1613080899764","trial","","40","800","979.5950000014273","images/stimuli/spore_stims/complex_16_B_d.gif","images/stimuli/spore_stims/complex_16_A_d.gif","","","","","15","complex_similar","images/stimuli/spore_stims/complex_16_A_d.gif","middle","","","","",""
"","null","html-keyboard-response","290","285059","0.0-53.0-0.6","SS1613080899764","","","null","","","","","<p><img src= images/blank.png width =""200"" height = ""200"" style = ""float:right""></p><p><img src=images/blank.png width =""800"" height = ""200""></p>","","","","","","","","","","","",""
"","224.76499999902444","sequential-stimulus-presentation","291","286099","0.0-53.0-1.6","SS1613080899764","trial","","40","800","1024.7649999990244","images/stimuli/spore_stims/complex_16_B_d.gif","images/stimuli/spore_stims/complex_16_A_d.gif","","","","","15","complex_similar","images/stimuli/spore_stims/complex_16_A_d.gif","middle","","","","",""
"","null","html-keyboard-response","292","286953","0.0-53.0-0.7","SS1613080899764","","","null","","","","","<p><img src= images/blank.png width =""200"" height = ""200"" style = ""float:right""></p><p><img src=images/blank.png width =""800"" height = ""200""></p>","","","","","","","","","","","",""
"","39.96500000357628","sequential-stimulus-presentation","293","287812","0.0-53.0-1.7","SS1613080899764","trial","","40","800","839.9650000035763","images/stimuli/spore_stims/complex_16_B_d.gif","images/stimuli/spore_stims/complex_16_A_d.gif","","","","","15","complex_similar","images/stimuli/spore_stims/complex_16_A_d.gif","middle","","","","",""
"","2.674999996088445","html-keyboard-response","294","287832","0.0-54.0","SS1613080899764","pref_question","","50","","","","","<video width ='960' height = '540' style='padding-top:8%' autoplay muted><source src='images/stimuli/wall_pref.mp4' type='video/mp4'></video>","2","middle","45%","15","","","","","","","",""
"","8.144999999785796","sequential-stimulus-presentation","295","288651","0.0-55.0","SS1613080899764","pref_reveal","","40","800","808.1449999997858","null","null","","","","","15","","","","background","","","",""
"","null","html-keyboard-response","296","289574","0.0-56.0-0.0","SS1613080899764","","","null","","","","","<p><img src= images/blank.png width =""200"" height = ""200"" style = ""float:right""></p><p><img src=images/blank.png width =""800"" height = ""200""></p>","","","","","","","","","","","",""
"","84.43500000430504","sequential-stimulus-presentation","297","290474","0.0-56.0-1.0","SS1613080899764","trial","","40","800","884.435000004305","images/stimuli/spore_stims/complex_17_B_c.gif","images/stimuli/spore_stims/complex_17_A_c.gif","","","","","16","complex_similar","images/stimuli/spore_stims/complex_17_A_c.gif","left","","","","",""
"","null","html-keyboard-response","298","291326","0.0-56.0-0.1","SS1613080899764","","","null","","","","","<p><img src= images/blank.png width =""200"" height = ""200"" style = ""float:right""></p><p><img src=images/blank.png width =""800"" height = ""200""></p>","","","","","","","","","","","",""
"","217.00500000588363","sequential-stimulus-presentation","299","292361","0.0-56.0-1.1","SS1613080899764","trial","","40","800","1017.0050000058836","images/stimuli/spore_stims/complex_17_B_c.gif","images/stimuli/spore_stims/complex_17_A_c.gif","","","","","16","complex_similar","images/stimuli/spore_stims/complex_17_A_c.gif","left","","","","",""
"","null","html-keyboard-response","300","293454","0.0-56.0-0.2","SS1613080899764","","","null","","","","","<p><img src= images/blank.png width =""200"" height = ""200"" style = ""float:right""></p><p><img src=images/blank.png width =""800"" height = ""200""></p>","","","","","","","","","","","",""
"","121.58999999519438","sequential-stimulus-presentation","301","294390","0.0-56.0-1.2","SS1613080899764","trial","","40","800","921.5899999951944","images/stimuli/spore_stims/complex_17_B_c.gif","images/stimuli/spore_stims/complex_17_A_c.gif","","","","","16","complex_similar","images/stimuli/spore_stims/complex_17_A_c.gif","left","","","","",""
"","null","html-keyboard-response","302","295702","0.0-56.0-0.3","SS1613080899764","","","null","","","","","<p><img src= images/blank.png width =""200"" height = ""200"" style = ""float:right""></p><p><img src=images/blank.png width =""800"" height = ""200""></p>","","","","","","","","","","","",""
"","125.40499999886379","sequential-stimulus-presentation","303","296639","0.0-56.0-1.3","SS1613080899764","trial","","40","800","925.4049999988638","images/stimuli/spore_stims/complex_17_B_c.gif","images/stimuli/spore_stims/complex_17_A_c.gif","","","","","16","complex_similar","images/stimuli/spore_stims/complex_17_A_c.gif","left","","","","",""
"","null","html-keyboard-response","304","297825","0.0-56.0-0.4","SS1613080899764","","","null","","","","","<p><img src= images/blank.png width =""200"" height = ""200"" style = ""float:right""></p><p><img src=images/blank.png width =""800"" height = ""200""></p>","","","","","","","","","","","",""
"","59.26500000350643","sequential-stimulus-presentation","305","298708","0.0-56.0-1.4","SS1613080899764","trial","","40","800","859.2650000035064","images/stimuli/spore_stims/complex_17_B_c.gif","images/stimuli/spore_stims/complex_17_A_c.gif","","","","","16","complex_similar","images/stimuli/spore_stims/complex_17_B_c.gif","right","","","","",""
"","null","html-keyboard-response","306","299857","0.0-56.0-0.5","SS1613080899764","","","null","","","","","<p><img src= images/blank.png width =""200"" height = ""200"" style = ""float:right""></p><p><img src=images/blank.png width =""800"" height = ""200""></p>","","","","","","","","","","","",""
"","235.41500000283122","sequential-stimulus-presentation","307","300905","0.0-56.0-1.5","SS1613080899764","trial","","40","800","1035.4150000028312","images/stimuli/spore_stims/complex_17_B_c.gif","images/stimuli/spore_stims/complex_17_A_c.gif","","","","","16","complex_similar","images/stimuli/spore_stims/complex_17_A_c.gif","left","","","","",""
"","null","html-keyboard-response","308","302132","0.0-56.0-0.6","SS1613080899764","","","null","","","","","<p><img src= images/blank.png width =""200"" height = ""200"" style = ""float:right""></p><p><img src=images/blank.png width =""800"" height = ""200""></p>","","","","","","","","","","","",""
"","103.49499999574618","sequential-stimulus-presentation","309","303056","0.0-56.0-1.6","SS1613080899764","trial","","40","800","903.4949999957462","images/stimuli/spore_stims/complex_17_B_c.gif","images/stimuli/spore_stims/complex_17_A_c.gif","","","","","16","complex_similar","images/stimuli/spore_stims/complex_17_A_c.gif","left","","","","",""
"","null","html-keyboard-response","310","304102","0.0-56.0-0.7","SS1613080899764","","","null","","","","","<p><img src= images/blank.png width =""200"" height = ""200"" style = ""float:right""></p><p><img src=images/blank.png width =""800"" height = ""200""></p>","","","","","","","","","","","",""
"","134.48999999673106","sequential-stimulus-presentation","311","305053","0.0-56.0-1.7","SS1613080899764","trial","","40","800","934.4899999967311","images/stimuli/spore_stims/complex_17_B_c.gif","images/stimuli/spore_stims/complex_17_A_c.gif","","","","","16","complex_similar","images/stimuli/spore_stims/complex_17_A_c.gif","left","","","","",""
"","159.30500000104075","html-keyboard-response","312","305234","0.0-57.0","SS1613080899764","pref_question","","50","","","","","<video width ='960' height = '540' style='padding-top:8%' autoplay muted><source src='images/stimuli/wall_pref.mp4' type='video/mp4'></video>","2","middle","45%","16","","","","","","","",""
