"view_history","rt","trial_type","trial_index","time_elapsed","internal_node_id","subject","stimulus_type","trial_stimulus","key_press","minimum_viewing_duration","trial_looking_time","block_deviant","block_background","stimulus","wall_pref","location","location_percent","block_number","block_type","stimulus_displayed","position_displayed","stim_type_selected","responses","question_order","stimulus_left","stimulus_right"
"[{""page_index"":0,""viewing_time"":8354.960000000123}]","8355.689999999871","instructions","0","8358","0.0-0.0","SS1613140029152","","","","","","","","","","","","","","","","","","","",""
"[{""page_index"":0,""viewing_time"":33283.87999999995},{""page_index"":1,""viewing_time"":10279.91500000008}]","43564.1800000003","instructions","1","53924","0.0-1.0","SS1613140029152","instructions","","","","","","","","","","","","","","","","","","",""
"","19929.910000000295","sequential-stimulus-presentation","2","74661","0.0-2.0","SS1613140029152","","","40","800","20729.910000000295","null","null","","","","","","","","","","","","",""
"","10138.039999999819","sequential-stimulus-presentation","3","85604","0.0-3.0","SS1613140029152","","","40","800","10938.039999999819","null","null","","","","","","","","","","","","",""
"[{""page_index"":0,""viewing_time"":14014.790000000168}]","14015.16499999979","instructions","4","99621","0.0-4.0","SS1613140029152","instructions","","","","","","","","","","","","","","","","","","",""
"","64081.914999999746","html-keyboard-response","5","163708","0.0-5.0","SS1613140029152","instructions","","97","","","","","<video width ='960' height = '540' autoplay muted><source src='images/stimuli/wall_pref.mp4' type='video/mp4'></video>","1","left","25%","","","","","","","","",""
"","6347.71499999988","sequential-stimulus-presentation","6","170863","0.0-6.0","SS1613140029152","pref_reveal","","40","800","7147.71499999988","null","null","","","","","","","","","","","","",""
"[{""page_index"":0,""viewing_time"":20092.44000000035},{""page_index"":1,""viewing_time"":7735.635000000009},{""page_index"":2,""viewing_time"":2800.424999999901},{""page_index"":3,""viewing_time"":2703.9700000000303}]","33332.85500000013","instructions","7","204197","0.0-7.0","SS1613140029152","instructions","","","","","","","","","","","","","","","","","","",""
"","null","html-keyboard-response","8","205158","0.0-8.0-0.0","SS1613140029152","","","null","","","","","<p><img src= images/blank.png width =""200"" height = ""200"" style = ""float:right""></p><p><img src=images/blank.png width =""800"" height = ""200""></p>","","","","","","","","","","","",""
"","20968.684999999794","sequential-stimulus-presentation","9","226938","0.0-8.0-1.0","SS1613140029152","trial","","40","800","21768.684999999794","images/stimuli/spore_stims/simple_14_B_d.gif","images/stimuli/spore_stims/simple_04_B_c.gif","","","","","0","simple_dissimilar","images/stimuli/spore_stims/simple_04_B_c.gif","middle","","","","",""
"","null","html-keyboard-response","10","227876","0.0-8.0-0.1","SS1613140029152","","","null","","","","","<p><img src= images/blank.png width =""200"" height = ""200"" style = ""float:right""></p><p><img src=images/blank.png width =""800"" height = ""200""></p>","","","","","","","","","","","",""
"","19469.90499999991","sequential-stimulus-presentation","11","248155","0.0-8.0-1.1","SS1613140029152","trial","","40","800","20269.90499999991","images/stimuli/spore_stims/simple_14_B_d.gif","images/stimuli/spore_stims/simple_04_B_c.gif","","","","","0","simple_dissimilar","images/stimuli/spore_stims/simple_04_B_c.gif","middle","","","","",""
"","null","html-keyboard-response","12","248986","0.0-8.0-0.2","SS1613140029152","","","null","","","","","<p><img src= images/blank.png width =""200"" height = ""200"" style = ""float:right""></p><p><img src=images/blank.png width =""800"" height = ""200""></p>","","","","","","","","","","","",""
"","15361.989999999874","sequential-stimulus-presentation","13","265160","0.0-8.0-1.2","SS1613140029152","trial","","40","800","16161.989999999874","images/stimuli/spore_stims/simple_14_B_d.gif","images/stimuli/spore_stims/simple_04_B_c.gif","","","","","0","simple_dissimilar","images/stimuli/spore_stims/simple_04_B_c.gif","middle","","","","",""
"","null","html-keyboard-response","14","266363","0.0-8.0-0.3","SS1613140029152","","","null","","","","","<p><img src= images/blank.png width =""200"" height = ""200"" style = ""float:right""></p><p><img src=images/blank.png width =""800"" height = ""200""></p>","","","","","","","","","","","",""
"","12312.449999999895","sequential-stimulus-presentation","15","279488","0.0-8.0-1.3","SS1613140029152","trial","","40","800","13112.449999999895","images/stimuli/spore_stims/simple_14_B_d.gif","images/stimuli/spore_stims/simple_04_B_c.gif","","","","","0","simple_dissimilar","images/stimuli/spore_stims/simple_14_B_d.gif","right","","","","",""
"","null","html-keyboard-response","16","280592","0.0-8.0-0.4","SS1613140029152","","","null","","","","","<p><img src= images/blank.png width =""200"" height = ""200"" style = ""float:right""></p><p><img src=images/blank.png width =""800"" height = ""200""></p>","","","","","","","","","","","",""
"","22213.185000000056","sequential-stimulus-presentation","17","303618","0.0-8.0-1.4","SS1613140029152","trial","","40","800","23013.185000000056","images/stimuli/spore_stims/simple_14_B_d.gif","images/stimuli/spore_stims/simple_04_B_c.gif","","","","","0","simple_dissimilar","images/stimuli/spore_stims/simple_04_B_c.gif","middle","","","","",""
"","null","html-keyboard-response","18","304595","0.0-8.0-0.5","SS1613140029152","","","null","","","","","<p><img src= images/blank.png width =""200"" height = ""200"" style = ""float:right""></p><p><img src=images/blank.png width =""800"" height = ""200""></p>","","","","","","","","","","","",""
"","15414.714999999851","sequential-stimulus-presentation","19","320818","0.0-8.0-1.5","SS1613140029152","trial","","40","800","16214.714999999851","images/stimuli/spore_stims/simple_14_B_d.gif","images/stimuli/spore_stims/simple_04_B_c.gif","","","","","0","simple_dissimilar","images/stimuli/spore_stims/simple_04_B_c.gif","middle","","","","",""
"","null","html-keyboard-response","20","321842","0.0-8.0-0.6","SS1613140029152","","","null","","","","","<p><img src= images/blank.png width =""200"" height = ""200"" style = ""float:right""></p><p><img src=images/blank.png width =""800"" height = ""200""></p>","","","","","","","","","","","",""
"","22637.744999999995","sequential-stimulus-presentation","21","345301","0.0-8.0-1.6","SS1613140029152","trial","","40","800","23437.744999999995","images/stimuli/spore_stims/simple_14_B_d.gif","images/stimuli/spore_stims/simple_04_B_c.gif","","","","","0","simple_dissimilar","images/stimuli/spore_stims/simple_04_B_c.gif","middle","","","","",""
"","null","html-keyboard-response","22","346178","0.0-8.0-0.7","SS1613140029152","","","null","","","","","<p><img src= images/blank.png width =""200"" height = ""200"" style = ""float:right""></p><p><img src=images/blank.png width =""800"" height = ""200""></p>","","","","","","","","","","","",""
"","8634.234999999986","sequential-stimulus-presentation","23","355619","0.0-8.0-1.7","SS1613140029152","trial","","40","800","9434.234999999986","images/stimuli/spore_stims/simple_14_B_d.gif","images/stimuli/spore_stims/simple_04_B_c.gif","","","","","0","simple_dissimilar","images/stimuli/spore_stims/simple_04_B_c.gif","middle","","","","",""
"","3449.425000000221","html-keyboard-response","24","359079","0.0-9.0","SS1613140029152","pref_question","","97","","","","","<video width ='960' height = '540' style='padding-top:8%' autoplay muted><source src='images/stimuli/wall_pref.mp4' type='video/mp4'></video>","1","left","25%","0","","","","","","","",""
"","11517.419999999693","sequential-stimulus-presentation","25","371407","0.0-10.0","SS1613140029152","pref_reveal","","40","800","12317.419999999693","null","null","","","","","0","","","","novel","","","",""
"","null","html-keyboard-response","26","372451","0.0-11.0-0.0","SS1613140029152","","","null","","","","","<p><img src= images/blank.png width =""200"" height = ""200"" style = ""float:right""></p><p><img src=images/blank.png width =""800"" height = ""200""></p>","","","","","","","","","","","",""
"","5307.065000000002","sequential-stimulus-presentation","27","378571","0.0-11.0-1.0","SS1613140029152","trial","","40","800","6107.065000000002","images/stimuli/spore_stims/simple_12_B_b.gif","images/stimuli/spore_stims/simple_12_A_b.gif","","","","","1","simple_similar","images/stimuli/spore_stims/simple_12_A_b.gif","left","","","","",""
"","null","html-keyboard-response","28","379805","0.0-11.0-0.1","SS1613140029152","","","null","","","","","<p><img src= images/blank.png width =""200"" height = ""200"" style = ""float:right""></p><p><img src=images/blank.png width =""800"" height = ""200""></p>","","","","","","","","","","","",""
"","6426.375","sequential-stimulus-presentation","29","387039","0.0-11.0-1.1","SS1613140029152","trial","","40","800","7226.375","images/stimuli/spore_stims/simple_12_B_b.gif","images/stimuli/spore_stims/simple_12_A_b.gif","","","","","1","simple_similar","images/stimuli/spore_stims/simple_12_A_b.gif","left","","","","",""
"","null","html-keyboard-response","30","387856","0.0-11.0-0.2","SS1613140029152","","","null","","","","","<p><img src= images/blank.png width =""200"" height = ""200"" style = ""float:right""></p><p><img src=images/blank.png width =""800"" height = ""200""></p>","","","","","","","","","","","",""
"","10067.854999999807","sequential-stimulus-presentation","31","398732","0.0-11.0-1.2","SS1613140029152","trial","","40","800","10867.854999999807","images/stimuli/spore_stims/simple_12_B_b.gif","images/stimuli/spore_stims/simple_12_A_b.gif","","","","","1","simple_similar","images/stimuli/spore_stims/simple_12_B_b.gif","right","","","","",""
"","null","html-keyboard-response","32","399910","0.0-11.0-0.3","SS1613140029152","","","null","","","","","<p><img src= images/blank.png width =""200"" height = ""200"" style = ""float:right""></p><p><img src=images/blank.png width =""800"" height = ""200""></p>","","","","","","","","","","","",""
"","7777.955000000016","sequential-stimulus-presentation","33","408497","0.0-11.0-1.3","SS1613140029152","trial","","40","800","8577.955000000016","images/stimuli/spore_stims/simple_12_B_b.gif","images/stimuli/spore_stims/simple_12_A_b.gif","","","","","1","simple_similar","images/stimuli/spore_stims/simple_12_A_b.gif","left","","","","",""
"","null","html-keyboard-response","34","409368","0.0-11.0-0.4","SS1613140029152","","","null","","","","","<p><img src= images/blank.png width =""200"" height = ""200"" style = ""float:right""></p><p><img src=images/blank.png width =""800"" height = ""200""></p>","","","","","","","","","","","",""
"","3322.975000000035","sequential-stimulus-presentation","35","413502","0.0-11.0-1.4","SS1613140029152","trial","","40","800","4122.975000000035","images/stimuli/spore_stims/simple_12_B_b.gif","images/stimuli/spore_stims/simple_12_A_b.gif","","","","","1","simple_similar","images/stimuli/spore_stims/simple_12_A_b.gif","left","","","","",""
"","null","html-keyboard-response","36","414527","0.0-11.0-0.5","SS1613140029152","","","null","","","","","<p><img src= images/blank.png width =""200"" height = ""200"" style = ""float:right""></p><p><img src=images/blank.png width =""800"" height = ""200""></p>","","","","","","","","","","","",""
"","2844.5499999998137","sequential-stimulus-presentation","37","418176","0.0-11.0-1.5","SS1613140029152","trial","","40","800","3644.5499999998137","images/stimuli/spore_stims/simple_12_B_b.gif","images/stimuli/spore_stims/simple_12_A_b.gif","","","","","1","simple_similar","images/stimuli/spore_stims/simple_12_A_b.gif","left","","","","",""
"","null","html-keyboard-response","38","419410","0.0-11.0-0.6","SS1613140029152","","","null","","","","","<p><img src= images/blank.png width =""200"" height = ""200"" style = ""float:right""></p><p><img src=images/blank.png width =""800"" height = ""200""></p>","","","","","","","","","","","",""
"","2209.0849999999627","sequential-stimulus-presentation","39","422433","0.0-11.0-1.6","SS1613140029152","trial","","40","800","3009.0849999999627","images/stimuli/spore_stims/simple_12_B_b.gif","images/stimuli/spore_stims/simple_12_A_b.gif","","","","","1","simple_similar","images/stimuli/spore_stims/simple_12_A_b.gif","left","","","","",""
"","null","html-keyboard-response","40","423485","0.0-11.0-0.7","SS1613140029152","","","null","","","","","<p><img src= images/blank.png width =""200"" height = ""200"" style = ""float:right""></p><p><img src=images/blank.png width =""800"" height = ""200""></p>","","","","","","","","","","","",""
"","11998.01999999996","sequential-stimulus-presentation","41","436291","0.0-11.0-1.7","SS1613140029152","trial","","40","800","12798.01999999996","images/stimuli/spore_stims/simple_12_B_b.gif","images/stimuli/spore_stims/simple_12_A_b.gif","","","","","1","simple_similar","images/stimuli/spore_stims/simple_12_A_b.gif","left","","","","",""
"","4496.650000000023","html-keyboard-response","42","440795","0.0-12.0","SS1613140029152","pref_question","","98","","","","","<video width ='960' height = '540' style='padding-top:8%' autoplay muted><source src='images/stimuli/wall_pref.mp4' type='video/mp4'></video>","2","middle","45%","1","","","","","","","",""
"","17578.070000000007","sequential-stimulus-presentation","43","459180","0.0-13.0","SS1613140029152","pref_reveal","","40","800","18378.070000000007","null","null","","","","","1","","","","novel","","","",""
"","null","html-keyboard-response","44","460287","0.0-14.0-0.0","SS1613140029152","","","null","","","","","<p><img src= images/blank.png width =""200"" height = ""200"" style = ""float:right""></p><p><img src=images/blank.png width =""800"" height = ""200""></p>","","","","","","","","","","","",""
"","14802.310000000056","sequential-stimulus-presentation","45","475912","0.0-14.0-1.0","SS1613140029152","trial","","40","800","15602.310000000056","images/stimuli/spore_stims/simple_10_A_d.gif","images/stimuli/spore_stims/simple_11_B_b.gif","","","","","2","simple_dissimilar","images/stimuli/spore_stims/simple_11_B_b.gif","middle","","","","",""
"","null","html-keyboard-response","46","476719","0.0-14.0-0.1","SS1613140029152","","","null","","","","","<p><img src= images/blank.png width =""200"" height = ""200"" style = ""float:right""></p><p><img src=images/blank.png width =""800"" height = ""200""></p>","","","","","","","","","","","",""
"","5554.819999999832","sequential-stimulus-presentation","47","483080","0.0-14.0-1.1","SS1613140029152","trial","","40","800","6354.819999999832","images/stimuli/spore_stims/simple_10_A_d.gif","images/stimuli/spore_stims/simple_11_B_b.gif","","","","","2","simple_dissimilar","images/stimuli/spore_stims/simple_11_B_b.gif","middle","","","","",""
"","null","html-keyboard-response","48","484072","0.0-14.0-0.2","SS1613140029152","","","null","","","","","<p><img src= images/blank.png width =""200"" height = ""200"" style = ""float:right""></p><p><img src=images/blank.png width =""800"" height = ""200""></p>","","","","","","","","","","","",""
"","15520.614999999932","sequential-stimulus-presentation","49","500402","0.0-14.0-1.2","SS1613140029152","trial","","40","800","16320.614999999932","images/stimuli/spore_stims/simple_10_A_d.gif","images/stimuli/spore_stims/simple_11_B_b.gif","","","","","2","simple_dissimilar","images/stimuli/spore_stims/simple_11_B_b.gif","middle","","","","",""
"","null","html-keyboard-response","50","501548","0.0-14.0-0.3","SS1613140029152","","","null","","","","","<p><img src= images/blank.png width =""200"" height = ""200"" style = ""float:right""></p><p><img src=images/blank.png width =""800"" height = ""200""></p>","","","","","","","","","","","",""
"","14971.409999999683","sequential-stimulus-presentation","51","517329","0.0-14.0-1.3","SS1613140029152","trial","","40","800","15771.409999999683","images/stimuli/spore_stims/simple_10_A_d.gif","images/stimuli/spore_stims/simple_11_B_b.gif","","","","","2","simple_dissimilar","images/stimuli/spore_stims/simple_10_A_d.gif","left","","","","",""
"","null","html-keyboard-response","52","518141","0.0-14.0-0.4","SS1613140029152","","","null","","","","","<p><img src= images/blank.png width =""200"" height = ""200"" style = ""float:right""></p><p><img src=images/blank.png width =""800"" height = ""200""></p>","","","","","","","","","","","",""
"","11753.015000000247","sequential-stimulus-presentation","53","530714","0.0-14.0-1.4","SS1613140029152","trial","","40","800","12553.015000000247","images/stimuli/spore_stims/simple_10_A_d.gif","images/stimuli/spore_stims/simple_11_B_b.gif","","","","","2","simple_dissimilar","images/stimuli/spore_stims/simple_11_B_b.gif","middle","","","","",""
"","null","html-keyboard-response","54","531691","0.0-14.0-0.5","SS1613140029152","","","null","","","","","<p><img src= images/blank.png width =""200"" height = ""200"" style = ""float:right""></p><p><img src=images/blank.png width =""800"" height = ""200""></p>","","","","","","","","","","","",""
"","5624.569999999949","sequential-stimulus-presentation","55","538122","0.0-14.0-1.5","SS1613140029152","trial","","40","800","6424.569999999949","images/stimuli/spore_stims/simple_10_A_d.gif","images/stimuli/spore_stims/simple_11_B_b.gif","","","","","2","simple_dissimilar","images/stimuli/spore_stims/simple_11_B_b.gif","middle","","","","",""
"","null","html-keyboard-response","56","539177","0.0-14.0-0.6","SS1613140029152","","","null","","","","","<p><img src= images/blank.png width =""200"" height = ""200"" style = ""float:right""></p><p><img src=images/blank.png width =""800"" height = ""200""></p>","","","","","","","","","","","",""
"","7267.929999999935","sequential-stimulus-presentation","57","547260","0.0-14.0-1.6","SS1613140029152","trial","","40","800","8067.929999999935","images/stimuli/spore_stims/simple_10_A_d.gif","images/stimuli/spore_stims/simple_11_B_b.gif","","","","","2","simple_dissimilar","images/stimuli/spore_stims/simple_11_B_b.gif","middle","","","","",""
"","null","html-keyboard-response","58","548396","0.0-14.0-0.7","SS1613140029152","","","null","","","","","<p><img src= images/blank.png width =""200"" height = ""200"" style = ""float:right""></p><p><img src=images/blank.png width =""800"" height = ""200""></p>","","","","","","","","","","","",""
"","7972.885000000126","sequential-stimulus-presentation","59","557182","0.0-14.0-1.7","SS1613140029152","trial","","40","800","8772.885000000126","images/stimuli/spore_stims/simple_10_A_d.gif","images/stimuli/spore_stims/simple_11_B_b.gif","","","","","2","simple_dissimilar","images/stimuli/spore_stims/simple_11_B_b.gif","middle","","","","",""
"","2624.7949999996927","html-keyboard-response","60","559817","0.0-15.0","SS1613140029152","pref_question","","99","","","","","<video width ='960' height = '540' style='padding-top:8%' autoplay muted><source src='images/stimuli/wall_pref.mp4' type='video/mp4'></video>","3","right","66%","2","","","","","","","",""
"","19068.185000000172","sequential-stimulus-presentation","61","579698","0.0-16.0","SS1613140029152","pref_reveal","","40","800","19868.185000000172","null","null","","","","","2","","","","novel","","","",""
"","null","html-keyboard-response","62","580947","0.0-17.0-0.0","SS1613140029152","","","null","","","","","<p><img src= images/blank.png width =""200"" height = ""200"" style = ""float:right""></p><p><img src=images/blank.png width =""800"" height = ""200""></p>","","","","","","","","","","","",""
"","11913.270000000019","sequential-stimulus-presentation","63","593673","0.0-17.0-1.0","SS1613140029152","trial","","40","800","12713.270000000019","images/stimuli/spore_stims/simple_02_A_d.gif","images/stimuli/spore_stims/simple_02_B_d.gif","","","","","3","simple_similar","images/stimuli/spore_stims/simple_02_B_d.gif","middle","","","","",""
"","null","html-keyboard-response","64","594564","0.0-17.0-0.1","SS1613140029152","","","null","","","","","<p><img src= images/blank.png width =""200"" height = ""200"" style = ""float:right""></p><p><img src=images/blank.png width =""800"" height = ""200""></p>","","","","","","","","","","","",""
"","8893.570000000182","sequential-stimulus-presentation","65","604267","0.0-17.0-1.1","SS1613140029152","trial","","40","800","9693.570000000182","images/stimuli/spore_stims/simple_02_A_d.gif","images/stimuli/spore_stims/simple_02_B_d.gif","","","","","3","simple_similar","images/stimuli/spore_stims/simple_02_B_d.gif","middle","","","","",""
"","null","html-keyboard-response","66","605408","0.0-17.0-0.2","SS1613140029152","","","null","","","","","<p><img src= images/blank.png width =""200"" height = ""200"" style = ""float:right""></p><p><img src=images/blank.png width =""800"" height = ""200""></p>","","","","","","","","","","","",""
"","13086.365000000107","sequential-stimulus-presentation","67","619306","0.0-17.0-1.2","SS1613140029152","trial","","40","800","13886.365000000107","images/stimuli/spore_stims/simple_02_A_d.gif","images/stimuli/spore_stims/simple_02_B_d.gif","","","","","3","simple_similar","images/stimuli/spore_stims/simple_02_B_d.gif","middle","","","","",""
"","null","html-keyboard-response","68","620372","0.0-17.0-0.3","SS1613140029152","","","null","","","","","<p><img src= images/blank.png width =""200"" height = ""200"" style = ""float:right""></p><p><img src=images/blank.png width =""800"" height = ""200""></p>","","","","","","","","","","","",""
"","6077.699999999837","sequential-stimulus-presentation","69","627262","0.0-17.0-1.3","SS1613140029152","trial","","40","800","6877.699999999837","images/stimuli/spore_stims/simple_02_A_d.gif","images/stimuli/spore_stims/simple_02_B_d.gif","","","","","3","simple_similar","images/stimuli/spore_stims/simple_02_B_d.gif","middle","","","","",""
"","null","html-keyboard-response","70","628125","0.0-17.0-0.4","SS1613140029152","","","null","","","","","<p><img src= images/blank.png width =""200"" height = ""200"" style = ""float:right""></p><p><img src=images/blank.png width =""800"" height = ""200""></p>","","","","","","","","","","","",""
"","9780.099999999977","sequential-stimulus-presentation","71","638721","0.0-17.0-1.4","SS1613140029152","trial","","40","800","10580.099999999977","images/stimuli/spore_stims/simple_02_A_d.gif","images/stimuli/spore_stims/simple_02_B_d.gif","","","","","3","simple_similar","images/stimuli/spore_stims/simple_02_A_d.gif","right","","","","",""
"","null","html-keyboard-response","72","639856","0.0-17.0-0.5","SS1613140029152","","","null","","","","","<p><img src= images/blank.png width =""200"" height = ""200"" style = ""float:right""></p><p><img src=images/blank.png width =""800"" height = ""200""></p>","","","","","","","","","","","",""
"","11358.54999999993","sequential-stimulus-presentation","73","652029","0.0-17.0-1.5","SS1613140029152","trial","","40","800","12158.54999999993","images/stimuli/spore_stims/simple_02_A_d.gif","images/stimuli/spore_stims/simple_02_B_d.gif","","","","","3","simple_similar","images/stimuli/spore_stims/simple_02_B_d.gif","middle","","","","",""
"","null","html-keyboard-response","74","653190","0.0-17.0-0.6","SS1613140029152","","","null","","","","","<p><img src= images/blank.png width =""200"" height = ""200"" style = ""float:right""></p><p><img src=images/blank.png width =""800"" height = ""200""></p>","","","","","","","","","","","",""
"","9476.69999999972","sequential-stimulus-presentation","75","663492","0.0-17.0-1.6","SS1613140029152","trial","","40","800","10276.69999999972","images/stimuli/spore_stims/simple_02_A_d.gif","images/stimuli/spore_stims/simple_02_B_d.gif","","","","","3","simple_similar","images/stimuli/spore_stims/simple_02_B_d.gif","middle","","","","",""
"","null","html-keyboard-response","76","664782","0.0-17.0-0.7","SS1613140029152","","","null","","","","","<p><img src= images/blank.png width =""200"" height = ""200"" style = ""float:right""></p><p><img src=images/blank.png width =""800"" height = ""200""></p>","","","","","","","","","","","",""
"","10020.95000000007","sequential-stimulus-presentation","77","675616","0.0-17.0-1.7","SS1613140029152","trial","","40","800","10820.95000000007","images/stimuli/spore_stims/simple_02_A_d.gif","images/stimuli/spore_stims/simple_02_B_d.gif","","","","","3","simple_similar","images/stimuli/spore_stims/simple_02_B_d.gif","middle","","","","",""
"","3019.280000000028","html-keyboard-response","78","678644","0.0-18.0","SS1613140029152","pref_question","","99","","","","","<video width ='960' height = '540' style='padding-top:8%' autoplay muted><source src='images/stimuli/wall_pref.mp4' type='video/mp4'></video>","3","right","66%","3","","","","","","","",""
"","20091.33500000008","sequential-stimulus-presentation","79","699547","0.0-19.0","SS1613140029152","pref_reveal","","40","800","20891.33500000008","null","null","","","","","3","","","","deviant","","","",""
"","null","html-keyboard-response","80","700773","0.0-20.0-0.0","SS1613140029152","","","null","","","","","<p><img src= images/blank.png width =""200"" height = ""200"" style = ""float:right""></p><p><img src=images/blank.png width =""800"" height = ""200""></p>","","","","","","","","","","","",""
"","24374.280000000028","sequential-stimulus-presentation","81","725960","0.0-20.0-1.0","SS1613140029152","trial","","40","800","25174.280000000028","images/stimuli/spore_stims/simple_08_A_c.gif","images/stimuli/spore_stims/simple_01_A_c.gif","","","","","4","simple_dissimilar","images/stimuli/spore_stims/simple_01_A_c.gif","middle","","","","",""
"","null","html-keyboard-response","82","727093","0.0-20.0-0.1","SS1613140029152","","","null","","","","","<p><img src= images/blank.png width =""200"" height = ""200"" style = ""float:right""></p><p><img src=images/blank.png width =""800"" height = ""200""></p>","","","","","","","","","","","",""
"","8291.744999999995","sequential-stimulus-presentation","83","736200","0.0-20.0-1.1","SS1613140029152","trial","","40","800","9091.744999999995","images/stimuli/spore_stims/simple_08_A_c.gif","images/stimuli/spore_stims/simple_01_A_c.gif","","","","","4","simple_dissimilar","images/stimuli/spore_stims/simple_01_A_c.gif","middle","","","","",""
"","null","html-keyboard-response","84","737242","0.0-20.0-0.2","SS1613140029152","","","null","","","","","<p><img src= images/blank.png width =""200"" height = ""200"" style = ""float:right""></p><p><img src=images/blank.png width =""800"" height = ""200""></p>","","","","","","","","","","","",""
"","23456.724999999977","sequential-stimulus-presentation","85","761509","0.0-20.0-1.2","SS1613140029152","trial","","40","800","24256.724999999977","images/stimuli/spore_stims/simple_08_A_c.gif","images/stimuli/spore_stims/simple_01_A_c.gif","","","","","4","simple_dissimilar","images/stimuli/spore_stims/simple_08_A_c.gif","left","","","","",""
"","null","html-keyboard-response","86","762539","0.0-20.0-0.3","SS1613140029152","","","null","","","","","<p><img src= images/blank.png width =""200"" height = ""200"" style = ""float:right""></p><p><img src=images/blank.png width =""800"" height = ""200""></p>","","","","","","","","","","","",""
"","18668.930000000168","sequential-stimulus-presentation","87","782020","0.0-20.0-1.3","SS1613140029152","trial","","40","800","19468.930000000168","images/stimuli/spore_stims/simple_08_A_c.gif","images/stimuli/spore_stims/simple_01_A_c.gif","","","","","4","simple_dissimilar","images/stimuli/spore_stims/simple_01_A_c.gif","middle","","","","",""
"","null","html-keyboard-response","88","782988","0.0-20.0-0.4","SS1613140029152","","","null","","","","","<p><img src= images/blank.png width =""200"" height = ""200"" style = ""float:right""></p><p><img src=images/blank.png width =""800"" height = ""200""></p>","","","","","","","","","","","",""
"","8035.6949999995995","sequential-stimulus-presentation","89","791865","0.0-20.0-1.4","SS1613140029152","trial","","40","800","8835.6949999996","images/stimuli/spore_stims/simple_08_A_c.gif","images/stimuli/spore_stims/simple_01_A_c.gif","","","","","4","simple_dissimilar","images/stimuli/spore_stims/simple_01_A_c.gif","middle","","","","",""
"","null","html-keyboard-response","90","792725","0.0-20.0-0.5","SS1613140029152","","","null","","","","","<p><img src= images/blank.png width =""200"" height = ""200"" style = ""float:right""></p><p><img src=images/blank.png width =""800"" height = ""200""></p>","","","","","","","","","","","",""
"","15965.505000000121","sequential-stimulus-presentation","91","809503","0.0-20.0-1.5","SS1613140029152","trial","","40","800","16765.50500000012","images/stimuli/spore_stims/simple_08_A_c.gif","images/stimuli/spore_stims/simple_01_A_c.gif","","","","","4","simple_dissimilar","images/stimuli/spore_stims/simple_01_A_c.gif","middle","","","","",""
"","null","html-keyboard-response","92","810640","0.0-20.0-0.6","SS1613140029152","","","null","","","","","<p><img src= images/blank.png width =""200"" height = ""200"" style = ""float:right""></p><p><img src=images/blank.png width =""800"" height = ""200""></p>","","","","","","","","","","","",""
"","15883.435000000172","sequential-stimulus-presentation","93","827337","0.0-20.0-1.6","SS1613140029152","trial","","40","800","16683.435000000172","images/stimuli/spore_stims/simple_08_A_c.gif","images/stimuli/spore_stims/simple_01_A_c.gif","","","","","4","simple_dissimilar","images/stimuli/spore_stims/simple_01_A_c.gif","middle","","","","",""
"","null","html-keyboard-response","94","828344","0.0-20.0-0.7","SS1613140029152","","","null","","","","","<p><img src= images/blank.png width =""200"" height = ""200"" style = ""float:right""></p><p><img src=images/blank.png width =""800"" height = ""200""></p>","","","","","","","","","","","",""
"","13945.920000000158","sequential-stimulus-presentation","95","843123","0.0-20.0-1.7","SS1613140029152","trial","","40","800","14745.920000000158","images/stimuli/spore_stims/simple_08_A_c.gif","images/stimuli/spore_stims/simple_01_A_c.gif","","","","","4","simple_dissimilar","images/stimuli/spore_stims/simple_01_A_c.gif","middle","","","","",""
"","3063.914999999688","html-keyboard-response","96","846192","0.0-21.0","SS1613140029152","pref_question","","98","","","","","<video width ='960' height = '540' style='padding-top:8%' autoplay muted><source src='images/stimuli/wall_pref.mp4' type='video/mp4'></video>","2","middle","45%","4","","","","","","","",""
"","20958.76000000001","sequential-stimulus-presentation","97","867963","0.0-22.0","SS1613140029152","pref_reveal","","40","800","21758.76000000001","null","null","","","","","4","","","","background","","","",""
"","null","html-keyboard-response","98","868921","0.0-23.0-0.0","SS1613140029152","","","null","","","","","<p><img src= images/blank.png width =""200"" height = ""200"" style = ""float:right""></p><p><img src=images/blank.png width =""800"" height = ""200""></p>","","","","","","","","","","","",""
"","18765.519999999902","sequential-stimulus-presentation","99","888496","0.0-23.0-1.0","SS1613140029152","trial","","40","800","19565.519999999902","images/stimuli/spore_stims/simple_03_B_a.gif","images/stimuli/spore_stims/simple_06_B_c.gif","","","","","5","simple_dissimilar","images/stimuli/spore_stims/simple_06_B_c.gif","right","","","","",""
"","null","html-keyboard-response","100","889414","0.0-23.0-0.1","SS1613140029152","","","null","","","","","<p><img src= images/blank.png width =""200"" height = ""200"" style = ""float:right""></p><p><img src=images/blank.png width =""800"" height = ""200""></p>","","","","","","","","","","","",""
"","11540.765000000247","sequential-stimulus-presentation","101","901766","0.0-23.0-1.1","SS1613140029152","trial","","40","800","12340.765000000247","images/stimuli/spore_stims/simple_03_B_a.gif","images/stimuli/spore_stims/simple_06_B_c.gif","","","","","5","simple_dissimilar","images/stimuli/spore_stims/simple_06_B_c.gif","right","","","","",""
"","null","html-keyboard-response","102","902771","0.0-23.0-0.2","SS1613140029152","","","null","","","","","<p><img src= images/blank.png width =""200"" height = ""200"" style = ""float:right""></p><p><img src=images/blank.png width =""800"" height = ""200""></p>","","","","","","","","","","","",""
"","4881.690000000177","sequential-stimulus-presentation","103","908462","0.0-23.0-1.2","SS1613140029152","trial","","40","800","5681.690000000177","images/stimuli/spore_stims/simple_03_B_a.gif","images/stimuli/spore_stims/simple_06_B_c.gif","","","","","5","simple_dissimilar","images/stimuli/spore_stims/simple_06_B_c.gif","right","","","","",""
"","null","html-keyboard-response","104","909315","0.0-23.0-0.3","SS1613140029152","","","null","","","","","<p><img src= images/blank.png width =""200"" height = ""200"" style = ""float:right""></p><p><img src=images/blank.png width =""800"" height = ""200""></p>","","","","","","","","","","","",""
"","3492.2549999996554","sequential-stimulus-presentation","105","913625","0.0-23.0-1.3","SS1613140029152","trial","","40","800","4292.254999999655","images/stimuli/spore_stims/simple_03_B_a.gif","images/stimuli/spore_stims/simple_06_B_c.gif","","","","","5","simple_dissimilar","images/stimuli/spore_stims/simple_06_B_c.gif","right","","","","",""
"","null","html-keyboard-response","106","914494","0.0-23.0-0.4","SS1613140029152","","","null","","","","","<p><img src= images/blank.png width =""200"" height = ""200"" style = ""float:right""></p><p><img src=images/blank.png width =""800"" height = ""200""></p>","","","","","","","","","","","",""
"","10409.510000000475","sequential-stimulus-presentation","107","925714","0.0-23.0-1.4","SS1613140029152","trial","","40","800","11209.510000000475","images/stimuli/spore_stims/simple_03_B_a.gif","images/stimuli/spore_stims/simple_06_B_c.gif","","","","","5","simple_dissimilar","images/stimuli/spore_stims/simple_03_B_a.gif","left","","","","",""
"","null","html-keyboard-response","108","926600","0.0-23.0-0.5","SS1613140029152","","","null","","","","","<p><img src= images/blank.png width =""200"" height = ""200"" style = ""float:right""></p><p><img src=images/blank.png width =""800"" height = ""200""></p>","","","","","","","","","","","",""
"","7911.860000000102","sequential-stimulus-presentation","109","935323","0.0-23.0-1.5","SS1613140029152","trial","","40","800","8711.860000000102","images/stimuli/spore_stims/simple_03_B_a.gif","images/stimuli/spore_stims/simple_06_B_c.gif","","","","","5","simple_dissimilar","images/stimuli/spore_stims/simple_06_B_c.gif","right","","","","",""
"","null","html-keyboard-response","110","936270","0.0-23.0-0.6","SS1613140029152","","","null","","","","","<p><img src= images/blank.png width =""200"" height = ""200"" style = ""float:right""></p><p><img src=images/blank.png width =""800"" height = ""200""></p>","","","","","","","","","","","",""
"","4860.480000000214","sequential-stimulus-presentation","111","941942","0.0-23.0-1.6","SS1613140029152","trial","","40","800","5660.480000000214","images/stimuli/spore_stims/simple_03_B_a.gif","images/stimuli/spore_stims/simple_06_B_c.gif","","","","","5","simple_dissimilar","images/stimuli/spore_stims/simple_06_B_c.gif","right","","","","",""
"","null","html-keyboard-response","112","943007","0.0-23.0-0.7","SS1613140029152","","","null","","","","","<p><img src= images/blank.png width =""200"" height = ""200"" style = ""float:right""></p><p><img src=images/blank.png width =""800"" height = ""200""></p>","","","","","","","","","","","",""
"","6709.135000000126","sequential-stimulus-presentation","113","950528","0.0-23.0-1.7","SS1613140029152","trial","","40","800","7509.135000000126","images/stimuli/spore_stims/simple_03_B_a.gif","images/stimuli/spore_stims/simple_06_B_c.gif","","","","","5","simple_dissimilar","images/stimuli/spore_stims/simple_06_B_c.gif","right","","","","",""
"","6400.230000000214","html-keyboard-response","114","956939","0.0-24.0","SS1613140029152","pref_question","","97","","","","","<video width ='960' height = '540' style='padding-top:8%' autoplay muted><source src='images/stimuli/wall_pref.mp4' type='video/mp4'></video>","1","left","25%","5","","","","","","","",""
"","5495.574999999837","sequential-stimulus-presentation","115","963245","0.0-25.0","SS1613140029152","pref_reveal","","40","800","6295.574999999837","null","null","","","","","5","","","","deviant","","","",""
"","null","html-keyboard-response","116","964339","0.0-26.0-0.0","SS1613140029152","","","null","","","","","<p><img src= images/blank.png width =""200"" height = ""200"" style = ""float:right""></p><p><img src=images/blank.png width =""800"" height = ""200""></p>","","","","","","","","","","","",""
"","9517.160000000382","sequential-stimulus-presentation","117","974704","0.0-26.0-1.0","SS1613140029152","trial","","40","800","10317.160000000382","images/stimuli/spore_stims/complex_17_B_a.gif","images/stimuli/spore_stims/complex_17_A_a.gif","","","","","6","complex_similar","images/stimuli/spore_stims/complex_17_A_a.gif","left","","","","",""
"","null","html-keyboard-response","118","975979","0.0-26.0-0.1","SS1613140029152","","","null","","","","","<p><img src= images/blank.png width =""200"" height = ""200"" style = ""float:right""></p><p><img src=images/blank.png width =""800"" height = ""200""></p>","","","","","","","","","","","",""
"","7000.6500000003725","sequential-stimulus-presentation","119","983801","0.0-26.0-1.1","SS1613140029152","trial","","40","800","7800.6500000003725","images/stimuli/spore_stims/complex_17_B_a.gif","images/stimuli/spore_stims/complex_17_A_a.gif","","","","","6","complex_similar","images/stimuli/spore_stims/complex_17_A_a.gif","left","","","","",""
"","null","html-keyboard-response","120","984711","0.0-26.0-0.2","SS1613140029152","","","null","","","","","<p><img src= images/blank.png width =""200"" height = ""200"" style = ""float:right""></p><p><img src=images/blank.png width =""800"" height = ""200""></p>","","","","","","","","","","","",""
"","9695.435000000056","sequential-stimulus-presentation","121","995221","0.0-26.0-1.2","SS1613140029152","trial","","40","800","10495.435000000056","images/stimuli/spore_stims/complex_17_B_a.gif","images/stimuli/spore_stims/complex_17_A_a.gif","","","","","6","complex_similar","images/stimuli/spore_stims/complex_17_A_a.gif","left","","","","",""
"","null","html-keyboard-response","122","996487","0.0-26.0-0.3","SS1613140029152","","","null","","","","","<p><img src= images/blank.png width =""200"" height = ""200"" style = ""float:right""></p><p><img src=images/blank.png width =""800"" height = ""200""></p>","","","","","","","","","","","",""
"","14225.719999999972","sequential-stimulus-presentation","123","1011519","0.0-26.0-1.3","SS1613140029152","trial","","40","800","15025.719999999972","images/stimuli/spore_stims/complex_17_B_a.gif","images/stimuli/spore_stims/complex_17_A_a.gif","","","","","6","complex_similar","images/stimuli/spore_stims/complex_17_A_a.gif","left","","","","",""
"","null","html-keyboard-response","124","1012377","0.0-26.0-0.4","SS1613140029152","","","null","","","","","<p><img src= images/blank.png width =""200"" height = ""200"" style = ""float:right""></p><p><img src=images/blank.png width =""800"" height = ""200""></p>","","","","","","","","","","","",""
"","7234.01500000013","sequential-stimulus-presentation","125","1020422","0.0-26.0-1.4","SS1613140029152","trial","","40","800","8034.01500000013","images/stimuli/spore_stims/complex_17_B_a.gif","images/stimuli/spore_stims/complex_17_A_a.gif","","","","","6","complex_similar","images/stimuli/spore_stims/complex_17_A_a.gif","left","","","","",""
"","null","html-keyboard-response","126","1021643","0.0-26.0-0.5","SS1613140029152","","","null","","","","","<p><img src= images/blank.png width =""200"" height = ""200"" style = ""float:right""></p><p><img src=images/blank.png width =""800"" height = ""200""></p>","","","","","","","","","","","",""
"","10051.67499999958","sequential-stimulus-presentation","127","1032509","0.0-26.0-1.5","SS1613140029152","trial","","40","800","10851.67499999958","images/stimuli/spore_stims/complex_17_B_a.gif","images/stimuli/spore_stims/complex_17_A_a.gif","","","","","6","complex_similar","images/stimuli/spore_stims/complex_17_A_a.gif","left","","","","",""
"","null","html-keyboard-response","128","1033641","0.0-26.0-0.6","SS1613140029152","","","null","","","","","<p><img src= images/blank.png width =""200"" height = ""200"" style = ""float:right""></p><p><img src=images/blank.png width =""800"" height = ""200""></p>","","","","","","","","","","","",""
"","3801.9000000003725","sequential-stimulus-presentation","129","1038262","0.0-26.0-1.6","SS1613140029152","trial","","40","800","4601.9000000003725","images/stimuli/spore_stims/complex_17_B_a.gif","images/stimuli/spore_stims/complex_17_A_a.gif","","","","","6","complex_similar","images/stimuli/spore_stims/complex_17_B_a.gif","middle","","","","",""
"","null","html-keyboard-response","130","1039550","0.0-26.0-0.7","SS1613140029152","","","null","","","","","<p><img src= images/blank.png width =""200"" height = ""200"" style = ""float:right""></p><p><img src=images/blank.png width =""800"" height = ""200""></p>","","","","","","","","","","","",""
"","10618.455000000307","sequential-stimulus-presentation","131","1050980","0.0-26.0-1.7","SS1613140029152","trial","","40","800","11418.455000000307","images/stimuli/spore_stims/complex_17_B_a.gif","images/stimuli/spore_stims/complex_17_A_a.gif","","","","","6","complex_similar","images/stimuli/spore_stims/complex_17_A_a.gif","left","","","","",""
"","2467.56500000041","html-keyboard-response","132","1053458","0.0-27.0","SS1613140029152","pref_question","","98","","","","","<video width ='960' height = '540' style='padding-top:8%' autoplay muted><source src='images/stimuli/wall_pref.mp4' type='video/mp4'></video>","2","middle","45%","6","","","","","","","",""
"","5015.850000000326","sequential-stimulus-presentation","133","1059292","0.0-28.0","SS1613140029152","pref_reveal","","40","800","5815.850000000326","null","null","","","","","6","","","","deviant","","","",""
"","null","html-keyboard-response","134","1060428","0.0-29.0-0.0","SS1613140029152","","","null","","","","","<p><img src= images/blank.png width =""200"" height = ""200"" style = ""float:right""></p><p><img src=images/blank.png width =""800"" height = ""200""></p>","","","","","","","","","","","",""
"","2779.560000000056","sequential-stimulus-presentation","135","1064021","0.0-29.0-1.0","SS1613140029152","trial","","40","800","3579.560000000056","images/stimuli/spore_stims/complex_11_A_c.gif","images/stimuli/spore_stims/complex_11_B_c.gif","","","","","7","complex_similar","images/stimuli/spore_stims/complex_11_B_c.gif","left","","","","",""
"","null","html-keyboard-response","136","1064924","0.0-29.0-0.1","SS1613140029152","","","null","","","","","<p><img src= images/blank.png width =""200"" height = ""200"" style = ""float:right""></p><p><img src=images/blank.png width =""800"" height = ""200""></p>","","","","","","","","","","","",""
"","2859.6999999999534","sequential-stimulus-presentation","137","1068593","0.0-29.0-1.1","SS1613140029152","trial","","40","800","3659.6999999999534","images/stimuli/spore_stims/complex_11_A_c.gif","images/stimuli/spore_stims/complex_11_B_c.gif","","","","","7","complex_similar","images/stimuli/spore_stims/complex_11_B_c.gif","left","","","","",""
"","null","html-keyboard-response","138","1069893","0.0-29.0-0.2","SS1613140029152","","","null","","","","","<p><img src= images/blank.png width =""200"" height = ""200"" style = ""float:right""></p><p><img src=images/blank.png width =""800"" height = ""200""></p>","","","","","","","","","","","",""
"","5309.674999999814","sequential-stimulus-presentation","139","1076039","0.0-29.0-1.2","SS1613140029152","trial","","40","800","6109.674999999814","images/stimuli/spore_stims/complex_11_A_c.gif","images/stimuli/spore_stims/complex_11_B_c.gif","","","","","7","complex_similar","images/stimuli/spore_stims/complex_11_A_c.gif","right","","","","",""
"","null","html-keyboard-response","140","1076972","0.0-29.0-0.3","SS1613140029152","","","null","","","","","<p><img src= images/blank.png width =""200"" height = ""200"" style = ""float:right""></p><p><img src=images/blank.png width =""800"" height = ""200""></p>","","","","","","","","","","","",""
"","2036.845000000205","sequential-stimulus-presentation","141","1079824","0.0-29.0-1.3","SS1613140029152","trial","","40","800","2836.845000000205","images/stimuli/spore_stims/complex_11_A_c.gif","images/stimuli/spore_stims/complex_11_B_c.gif","","","","","7","complex_similar","images/stimuli/spore_stims/complex_11_B_c.gif","left","","","","",""
"","null","html-keyboard-response","142","1080739","0.0-29.0-0.4","SS1613140029152","","","null","","","","","<p><img src= images/blank.png width =""200"" height = ""200"" style = ""float:right""></p><p><img src=images/blank.png width =""800"" height = ""200""></p>","","","","","","","","","","","",""
"","3357.1049999999814","sequential-stimulus-presentation","143","1084908","0.0-29.0-1.4","SS1613140029152","trial","","40","800","4157.104999999981","images/stimuli/spore_stims/complex_11_A_c.gif","images/stimuli/spore_stims/complex_11_B_c.gif","","","","","7","complex_similar","images/stimuli/spore_stims/complex_11_B_c.gif","left","","","","",""
"","null","html-keyboard-response","144","1086137","0.0-29.0-0.5","SS1613140029152","","","null","","","","","<p><img src= images/blank.png width =""200"" height = ""200"" style = ""float:right""></p><p><img src=images/blank.png width =""800"" height = ""200""></p>","","","","","","","","","","","",""
"","1433.8900000003632","sequential-stimulus-presentation","145","1088379","0.0-29.0-1.5","SS1613140029152","trial","","40","800","2233.890000000363","images/stimuli/spore_stims/complex_11_A_c.gif","images/stimuli/spore_stims/complex_11_B_c.gif","","","","","7","complex_similar","images/stimuli/spore_stims/complex_11_B_c.gif","left","","","","",""
"","null","html-keyboard-response","146","1089260","0.0-29.0-0.6","SS1613140029152","","","null","","","","","<p><img src= images/blank.png width =""200"" height = ""200"" style = ""float:right""></p><p><img src=images/blank.png width =""800"" height = ""200""></p>","","","","","","","","","","","",""
"","1342.4250000002794","sequential-stimulus-presentation","147","1091415","0.0-29.0-1.6","SS1613140029152","trial","","40","800","2142.4250000002794","images/stimuli/spore_stims/complex_11_A_c.gif","images/stimuli/spore_stims/complex_11_B_c.gif","","","","","7","complex_similar","images/stimuli/spore_stims/complex_11_B_c.gif","left","","","","",""
"","null","html-keyboard-response","148","1092350","0.0-29.0-0.7","SS1613140029152","","","null","","","","","<p><img src= images/blank.png width =""200"" height = ""200"" style = ""float:right""></p><p><img src=images/blank.png width =""800"" height = ""200""></p>","","","","","","","","","","","",""
"","1215.4749999998603","sequential-stimulus-presentation","149","1094375","0.0-29.0-1.7","SS1613140029152","trial","","40","800","2015.4749999998603","images/stimuli/spore_stims/complex_11_A_c.gif","images/stimuli/spore_stims/complex_11_B_c.gif","","","","","7","complex_similar","images/stimuli/spore_stims/complex_11_B_c.gif","left","","","","",""
"","3331.600000000093","html-keyboard-response","150","1097717","0.0-30.0","SS1613140029152","pref_question","","98","","","","","<video width ='960' height = '540' style='padding-top:8%' autoplay muted><source src='images/stimuli/wall_pref.mp4' type='video/mp4'></video>","2","middle","45%","7","","","","","","","",""
"","7228.360000000102","sequential-stimulus-presentation","151","1105756","0.0-31.0","SS1613140029152","pref_reveal","","40","800","8028.360000000102","null","null","","","","","7","","","","novel","","","",""
"","null","html-keyboard-response","152","1107004","0.0-32.0-0.0","SS1613140029152","","","null","","","","","<p><img src= images/blank.png width =""200"" height = ""200"" style = ""float:right""></p><p><img src=images/blank.png width =""800"" height = ""200""></p>","","","","","","","","","","","",""
"","3714.369999999646","sequential-stimulus-presentation","153","1111548","0.0-32.0-1.0","SS1613140029152","trial","","40","800","4514.369999999646","images/stimuli/spore_stims/complex_03_B_c.gif","images/stimuli/spore_stims/complex_17_B_d.gif","","","","","8","complex_dissimilar","images/stimuli/spore_stims/complex_17_B_d.gif","left","","","","",""
"","null","html-keyboard-response","154","1112472","0.0-32.0-0.1","SS1613140029152","","","null","","","","","<p><img src= images/blank.png width =""200"" height = ""200"" style = ""float:right""></p><p><img src=images/blank.png width =""800"" height = ""200""></p>","","","","","","","","","","","",""
"","3072.8700000001118","sequential-stimulus-presentation","155","1116356","0.0-32.0-1.1","SS1613140029152","trial","","40","800","3872.8700000001118","images/stimuli/spore_stims/complex_03_B_c.gif","images/stimuli/spore_stims/complex_17_B_d.gif","","","","","8","complex_dissimilar","images/stimuli/spore_stims/complex_17_B_d.gif","left","","","","",""
"","null","html-keyboard-response","156","1117264","0.0-32.0-0.2","SS1613140029152","","","null","","","","","<p><img src= images/blank.png width =""200"" height = ""200"" style = ""float:right""></p><p><img src=images/blank.png width =""800"" height = ""200""></p>","","","","","","","","","","","",""
"","3503.4149999995716","sequential-stimulus-presentation","157","1121582","0.0-32.0-1.2","SS1613140029152","trial","","40","800","4303.414999999572","images/stimuli/spore_stims/complex_03_B_c.gif","images/stimuli/spore_stims/complex_17_B_d.gif","","","","","8","complex_dissimilar","images/stimuli/spore_stims/complex_17_B_d.gif","left","","","","",""
"","null","html-keyboard-response","158","1122659","0.0-32.0-0.3","SS1613140029152","","","null","","","","","<p><img src= images/blank.png width =""200"" height = ""200"" style = ""float:right""></p><p><img src=images/blank.png width =""800"" height = ""200""></p>","","","","","","","","","","","",""
"","3868.1500000001397","sequential-stimulus-presentation","159","1127335","0.0-32.0-1.3","SS1613140029152","trial","","40","800","4668.15000000014","images/stimuli/spore_stims/complex_03_B_c.gif","images/stimuli/spore_stims/complex_17_B_d.gif","","","","","8","complex_dissimilar","images/stimuli/spore_stims/complex_17_B_d.gif","left","","","","",""
"","null","html-keyboard-response","160","1128228","0.0-32.0-0.4","SS1613140029152","","","null","","","","","<p><img src= images/blank.png width =""200"" height = ""200"" style = ""float:right""></p><p><img src=images/blank.png width =""800"" height = ""200""></p>","","","","","","","","","","","",""
"","5936.910000000382","sequential-stimulus-presentation","161","1134977","0.0-32.0-1.4","SS1613140029152","trial","","40","800","6736.910000000382","images/stimuli/spore_stims/complex_03_B_c.gif","images/stimuli/spore_stims/complex_17_B_d.gif","","","","","8","complex_dissimilar","images/stimuli/spore_stims/complex_17_B_d.gif","left","","","","",""
"","null","html-keyboard-response","162","1135840","0.0-32.0-0.5","SS1613140029152","","","null","","","","","<p><img src= images/blank.png width =""200"" height = ""200"" style = ""float:right""></p><p><img src=images/blank.png width =""800"" height = ""200""></p>","","","","","","","","","","","",""
"","7787.0449999999255","sequential-stimulus-presentation","163","1144454","0.0-32.0-1.5","SS1613140029152","trial","","40","800","8587.044999999925","images/stimuli/spore_stims/complex_03_B_c.gif","images/stimuli/spore_stims/complex_17_B_d.gif","","","","","8","complex_dissimilar","images/stimuli/spore_stims/complex_03_B_c.gif","right","","","","",""
"","null","html-keyboard-response","164","1145740","0.0-32.0-0.6","SS1613140029152","","","null","","","","","<p><img src= images/blank.png width =""200"" height = ""200"" style = ""float:right""></p><p><img src=images/blank.png width =""800"" height = ""200""></p>","","","","","","","","","","","",""
"","2748.33499999973","sequential-stimulus-presentation","165","1149301","0.0-32.0-1.6","SS1613140029152","trial","","40","800","3548.33499999973","images/stimuli/spore_stims/complex_03_B_c.gif","images/stimuli/spore_stims/complex_17_B_d.gif","","","","","8","complex_dissimilar","images/stimuli/spore_stims/complex_17_B_d.gif","left","","","","",""
"","null","html-keyboard-response","166","1150482","0.0-32.0-0.7","SS1613140029152","","","null","","","","","<p><img src= images/blank.png width =""200"" height = ""200"" style = ""float:right""></p><p><img src=images/blank.png width =""800"" height = ""200""></p>","","","","","","","","","","","",""
"","2578.1650000000373","sequential-stimulus-presentation","167","1153875","0.0-32.0-1.7","SS1613140029152","trial","","40","800","3378.1650000000373","images/stimuli/spore_stims/complex_03_B_c.gif","images/stimuli/spore_stims/complex_17_B_d.gif","","","","","8","complex_dissimilar","images/stimuli/spore_stims/complex_17_B_d.gif","left","","","","",""
"","1908.065000000177","html-keyboard-response","168","1155801","0.0-33.0","SS1613140029152","pref_question","","98","","","","","<video width ='960' height = '540' style='padding-top:8%' autoplay muted><source src='images/stimuli/wall_pref.mp4' type='video/mp4'></video>","2","middle","45%","8","","","","","","","",""
"","6160.535000000149","sequential-stimulus-presentation","169","1162775","0.0-34.0","SS1613140029152","pref_reveal","","40","800","6960.535000000149","null","null","","","","","8","","","","novel","","","",""
"","null","html-keyboard-response","170","1164005","0.0-35.0-0.0","SS1613140029152","","","null","","","","","<p><img src= images/blank.png width =""200"" height = ""200"" style = ""float:right""></p><p><img src=images/blank.png width =""800"" height = ""200""></p>","","","","","","","","","","","",""
"","3710.480000000214","sequential-stimulus-presentation","171","1168568","0.0-35.0-1.0","SS1613140029152","trial","","40","800","4510.480000000214","images/stimuli/spore_stims/complex_16_B_b.gif","images/stimuli/spore_stims/complex_16_A_b.gif","","","","","9","complex_similar","images/stimuli/spore_stims/complex_16_A_b.gif","right","","","","",""
"","null","html-keyboard-response","172","1169630","0.0-35.0-0.1","SS1613140029152","","","null","","","","","<p><img src= images/blank.png width =""200"" height = ""200"" style = ""float:right""></p><p><img src=images/blank.png width =""800"" height = ""200""></p>","","","","","","","","","","","",""
"","1910.3300000003073","sequential-stimulus-presentation","173","1172354","0.0-35.0-1.1","SS1613140029152","trial","","40","800","2710.3300000003073","images/stimuli/spore_stims/complex_16_B_b.gif","images/stimuli/spore_stims/complex_16_A_b.gif","","","","","9","complex_similar","images/stimuli/spore_stims/complex_16_A_b.gif","right","","","","",""
"","null","html-keyboard-response","174","1173244","0.0-35.0-0.2","SS1613140029152","","","null","","","","","<p><img src= images/blank.png width =""200"" height = ""200"" style = ""float:right""></p><p><img src=images/blank.png width =""800"" height = ""200""></p>","","","","","","","","","","","",""
"","1026.7049999996088","sequential-stimulus-presentation","175","1175077","0.0-35.0-1.2","SS1613140029152","trial","","40","800","1826.7049999996088","images/stimuli/spore_stims/complex_16_B_b.gif","images/stimuli/spore_stims/complex_16_A_b.gif","","","","","9","complex_similar","images/stimuli/spore_stims/complex_16_B_b.gif","left","","","","",""
"","null","html-keyboard-response","176","1176153","0.0-35.0-0.3","SS1613140029152","","","null","","","","","<p><img src= images/blank.png width =""200"" height = ""200"" style = ""float:right""></p><p><img src=images/blank.png width =""800"" height = ""200""></p>","","","","","","","","","","","",""
"","2237.9250000000466","sequential-stimulus-presentation","177","1179216","0.0-35.0-1.3","SS1613140029152","trial","","40","800","3037.9250000000466","images/stimuli/spore_stims/complex_16_B_b.gif","images/stimuli/spore_stims/complex_16_A_b.gif","","","","","9","complex_similar","images/stimuli/spore_stims/complex_16_A_b.gif","right","","","","",""
"","null","html-keyboard-response","178","1180232","0.0-35.0-0.4","SS1613140029152","","","null","","","","","<p><img src= images/blank.png width =""200"" height = ""200"" style = ""float:right""></p><p><img src=images/blank.png width =""800"" height = ""200""></p>","","","","","","","","","","","",""
"","619.7350000001024","sequential-stimulus-presentation","179","1181664","0.0-35.0-1.4","SS1613140029152","trial","","40","800","1419.7350000001024","images/stimuli/spore_stims/complex_16_B_b.gif","images/stimuli/spore_stims/complex_16_A_b.gif","","","","","9","complex_similar","images/stimuli/spore_stims/complex_16_A_b.gif","right","","","","",""
"","null","html-keyboard-response","180","1182667","0.0-35.0-0.5","SS1613140029152","","","null","","","","","<p><img src= images/blank.png width =""200"" height = ""200"" style = ""float:right""></p><p><img src=images/blank.png width =""800"" height = ""200""></p>","","","","","","","","","","","",""
"","468.58499999996275","sequential-stimulus-presentation","181","1183953","0.0-35.0-1.5","SS1613140029152","trial","","40","800","1268.5849999999627","images/stimuli/spore_stims/complex_16_B_b.gif","images/stimuli/spore_stims/complex_16_A_b.gif","","","","","9","complex_similar","images/stimuli/spore_stims/complex_16_A_b.gif","right","","","","",""
"","null","html-keyboard-response","182","1185113","0.0-35.0-0.6","SS1613140029152","","","null","","","","","<p><img src= images/blank.png width =""200"" height = ""200"" style = ""float:right""></p><p><img src=images/blank.png width =""800"" height = ""200""></p>","","","","","","","","","","","",""
"","1265.964999999851","sequential-stimulus-presentation","183","1187188","0.0-35.0-1.6","SS1613140029152","trial","","40","800","2065.964999999851","images/stimuli/spore_stims/complex_16_B_b.gif","images/stimuli/spore_stims/complex_16_A_b.gif","","","","","9","complex_similar","images/stimuli/spore_stims/complex_16_A_b.gif","right","","","","",""
"","null","html-keyboard-response","184","1188486","0.0-35.0-0.7","SS1613140029152","","","null","","","","","<p><img src= images/blank.png width =""200"" height = ""200"" style = ""float:right""></p><p><img src=images/blank.png width =""800"" height = ""200""></p>","","","","","","","","","","","",""
"","879.4450000000652","sequential-stimulus-presentation","185","1190209","0.0-35.0-1.7","SS1613140029152","trial","","40","800","1679.4450000000652","images/stimuli/spore_stims/complex_16_B_b.gif","images/stimuli/spore_stims/complex_16_A_b.gif","","","","","9","complex_similar","images/stimuli/spore_stims/complex_16_A_b.gif","right","","","","",""
"","3014.904999999795","html-keyboard-response","186","1193238","0.0-36.0","SS1613140029152","pref_question","","98","","","","","<video width ='960' height = '540' style='padding-top:8%' autoplay muted><source src='images/stimuli/wall_pref.mp4' type='video/mp4'></video>","2","middle","45%","9","","","","","","","",""
"","6829.804999999702","sequential-stimulus-presentation","187","1200882","0.0-37.0","SS1613140029152","pref_reveal","","40","800","7629.804999999702","null","null","","","","","9","","","","novel","","","",""
"","null","html-keyboard-response","188","1202086","0.0-38.0-0.0","SS1613140029152","","","null","","","","","<p><img src= images/blank.png width =""200"" height = ""200"" style = ""float:right""></p><p><img src=images/blank.png width =""800"" height = ""200""></p>","","","","","","","","","","","",""
"","1057.0449999996927","sequential-stimulus-presentation","189","1203960","0.0-38.0-1.0","SS1613140029152","trial","","40","800","1857.0449999996927","images/stimuli/spore_stims/complex_18_A_d.gif","images/stimuli/spore_stims/complex_02_A_c.gif","","","","","10","complex_dissimilar","images/stimuli/spore_stims/complex_02_A_c.gif","left","","","","",""
"","null","html-keyboard-response","190","1205255","0.0-38.0-0.1","SS1613140029152","","","null","","","","","<p><img src= images/blank.png width =""200"" height = ""200"" style = ""float:right""></p><p><img src=images/blank.png width =""800"" height = ""200""></p>","","","","","","","","","","","",""
"","1036.405000000028","sequential-stimulus-presentation","191","1207115","0.0-38.0-1.1","SS1613140029152","trial","","40","800","1836.405000000028","images/stimuli/spore_stims/complex_18_A_d.gif","images/stimuli/spore_stims/complex_02_A_c.gif","","","","","10","complex_dissimilar","images/stimuli/spore_stims/complex_02_A_c.gif","left","","","","",""
"","null","html-keyboard-response","192","1208324","0.0-38.0-0.2","SS1613140029152","","","null","","","","","<p><img src= images/blank.png width =""200"" height = ""200"" style = ""float:right""></p><p><img src=images/blank.png width =""800"" height = ""200""></p>","","","","","","","","","","","",""
"","564.0949999997392","sequential-stimulus-presentation","193","1209719","0.0-38.0-1.2","SS1613140029152","trial","","40","800","1364.0949999997392","images/stimuli/spore_stims/complex_18_A_d.gif","images/stimuli/spore_stims/complex_02_A_c.gif","","","","","10","complex_dissimilar","images/stimuli/spore_stims/complex_02_A_c.gif","left","","","","",""
"","null","html-keyboard-response","194","1210591","0.0-38.0-0.3","SS1613140029152","","","null","","","","","<p><img src= images/blank.png width =""200"" height = ""200"" style = ""float:right""></p><p><img src=images/blank.png width =""800"" height = ""200""></p>","","","","","","","","","","","",""
"","603.2099999999627","sequential-stimulus-presentation","195","1212010","0.0-38.0-1.3","SS1613140029152","trial","","40","800","1403.2099999999627","images/stimuli/spore_stims/complex_18_A_d.gif","images/stimuli/spore_stims/complex_02_A_c.gif","","","","","10","complex_dissimilar","images/stimuli/spore_stims/complex_02_A_c.gif","left","","","","",""
"","null","html-keyboard-response","196","1213024","0.0-38.0-0.4","SS1613140029152","","","null","","","","","<p><img src= images/blank.png width =""200"" height = ""200"" style = ""float:right""></p><p><img src=images/blank.png width =""800"" height = ""200""></p>","","","","","","","","","","","",""
"","399.9799999999814","sequential-stimulus-presentation","197","1214260","0.0-38.0-1.4","SS1613140029152","trial","","40","800","1199.9799999999814","images/stimuli/spore_stims/complex_18_A_d.gif","images/stimuli/spore_stims/complex_02_A_c.gif","","","","","10","complex_dissimilar","images/stimuli/spore_stims/complex_02_A_c.gif","left","","","","",""
"","null","html-keyboard-response","198","1215093","0.0-38.0-0.5","SS1613140029152","","","null","","","","","<p><img src= images/blank.png width =""200"" height = ""200"" style = ""float:right""></p><p><img src=images/blank.png width =""800"" height = ""200""></p>","","","","","","","","","","","",""
"","438.7950000001583","sequential-stimulus-presentation","199","1216354","0.0-38.0-1.5","SS1613140029152","trial","","40","800","1238.7950000001583","images/stimuli/spore_stims/complex_18_A_d.gif","images/stimuli/spore_stims/complex_02_A_c.gif","","","","","10","complex_dissimilar","images/stimuli/spore_stims/complex_02_A_c.gif","left","","","","",""
"","null","html-keyboard-response","200","1217250","0.0-38.0-0.6","SS1613140029152","","","null","","","","","<p><img src= images/blank.png width =""200"" height = ""200"" style = ""float:right""></p><p><img src=images/blank.png width =""800"" height = ""200""></p>","","","","","","","","","","","",""
"","799.3700000003446","sequential-stimulus-presentation","201","1218879","0.0-38.0-1.6","SS1613140029152","trial","","40","800","1599.3700000003446","images/stimuli/spore_stims/complex_18_A_d.gif","images/stimuli/spore_stims/complex_02_A_c.gif","","","","","10","complex_dissimilar","images/stimuli/spore_stims/complex_18_A_d.gif","middle","","","","",""
"","null","html-keyboard-response","202","1219869","0.0-38.0-0.7","SS1613140029152","","","null","","","","","<p><img src= images/blank.png width =""200"" height = ""200"" style = ""float:right""></p><p><img src=images/blank.png width =""800"" height = ""200""></p>","","","","","","","","","","","",""
"","484.6899999997113","sequential-stimulus-presentation","203","1221169","0.0-38.0-1.7","SS1613140029152","trial","","40","800","1284.6899999997113","images/stimuli/spore_stims/complex_18_A_d.gif","images/stimuli/spore_stims/complex_02_A_c.gif","","","","","10","complex_dissimilar","images/stimuli/spore_stims/complex_02_A_c.gif","left","","","","",""
"","1526.244999999879","html-keyboard-response","204","1222703","0.0-39.0","SS1613140029152","pref_question","","97","","","","","<video width ='960' height = '540' style='padding-top:8%' autoplay muted><source src='images/stimuli/wall_pref.mp4' type='video/mp4'></video>","1","left","25%","10","","","","","","","",""
"","728.1949999995995","sequential-stimulus-presentation","205","1224246","0.0-40.0","SS1613140029152","pref_reveal","","40","800","1528.1949999995995","null","null","","","","","10","","","","background","","","",""
"","null","html-keyboard-response","206","1225204","0.0-41.0-0.0","SS1613140029152","","","null","","","","","<p><img src= images/blank.png width =""200"" height = ""200"" style = ""float:right""></p><p><img src=images/blank.png width =""800"" height = ""200""></p>","","","","","","","","","","","",""
"","1701.3200000000652","sequential-stimulus-presentation","207","1227718","0.0-41.0-1.0","SS1613140029152","trial","","40","800","2501.320000000065","images/stimuli/spore_stims/simple_15_A_a.gif","images/stimuli/spore_stims/simple_15_B_a.gif","","","","","11","simple_similar","images/stimuli/spore_stims/simple_15_B_a.gif","right","","","","",""
"","null","html-keyboard-response","208","1228661","0.0-41.0-0.1","SS1613140029152","","","null","","","","","<p><img src= images/blank.png width =""200"" height = ""200"" style = ""float:right""></p><p><img src=images/blank.png width =""800"" height = ""200""></p>","","","","","","","","","","","",""
"","806.2100000001956","sequential-stimulus-presentation","209","1230283","0.0-41.0-1.1","SS1613140029152","trial","","40","800","1606.2100000001956","images/stimuli/spore_stims/simple_15_A_a.gif","images/stimuli/spore_stims/simple_15_B_a.gif","","","","","11","simple_similar","images/stimuli/spore_stims/simple_15_B_a.gif","right","","","","",""
"","null","html-keyboard-response","210","1231281","0.0-41.0-0.2","SS1613140029152","","","null","","","","","<p><img src= images/blank.png width =""200"" height = ""200"" style = ""float:right""></p><p><img src=images/blank.png width =""800"" height = ""200""></p>","","","","","","","","","","","",""
"","553.0199999997858","sequential-stimulus-presentation","211","1232658","0.0-41.0-1.2","SS1613140029152","trial","","40","800","1353.0199999997858","images/stimuli/spore_stims/simple_15_A_a.gif","images/stimuli/spore_stims/simple_15_B_a.gif","","","","","11","simple_similar","images/stimuli/spore_stims/simple_15_B_a.gif","right","","","","",""
"","null","html-keyboard-response","212","1233668","0.0-41.0-0.3","SS1613140029152","","","null","","","","","<p><img src= images/blank.png width =""200"" height = ""200"" style = ""float:right""></p><p><img src=images/blank.png width =""800"" height = ""200""></p>","","","","","","","","","","","",""
"","422.98500000010245","sequential-stimulus-presentation","213","1234903","0.0-41.0-1.3","SS1613140029152","trial","","40","800","1222.9850000001024","images/stimuli/spore_stims/simple_15_A_a.gif","images/stimuli/spore_stims/simple_15_B_a.gif","","","","","11","simple_similar","images/stimuli/spore_stims/simple_15_B_a.gif","right","","","","",""
"","null","html-keyboard-response","214","1236061","0.0-41.0-0.4","SS1613140029152","","","null","","","","","<p><img src= images/blank.png width =""200"" height = ""200"" style = ""float:right""></p><p><img src=images/blank.png width =""800"" height = ""200""></p>","","","","","","","","","","","",""
"","433.19999999995343","sequential-stimulus-presentation","215","1237311","0.0-41.0-1.4","SS1613140029152","trial","","40","800","1233.1999999999534","images/stimuli/spore_stims/simple_15_A_a.gif","images/stimuli/spore_stims/simple_15_B_a.gif","","","","","11","simple_similar","images/stimuli/spore_stims/simple_15_B_a.gif","right","","","","",""
"","null","html-keyboard-response","216","1238338","0.0-41.0-0.5","SS1613140029152","","","null","","","","","<p><img src= images/blank.png width =""200"" height = ""200"" style = ""float:right""></p><p><img src=images/blank.png width =""800"" height = ""200""></p>","","","","","","","","","","","",""
"","478.0799999998417","sequential-stimulus-presentation","217","1239625","0.0-41.0-1.5","SS1613140029152","trial","","40","800","1278.0799999998417","images/stimuli/spore_stims/simple_15_A_a.gif","images/stimuli/spore_stims/simple_15_B_a.gif","","","","","11","simple_similar","images/stimuli/spore_stims/simple_15_B_a.gif","right","","","","",""
"","null","html-keyboard-response","218","1240500","0.0-41.0-0.6","SS1613140029152","","","null","","","","","<p><img src= images/blank.png width =""200"" height = ""200"" style = ""float:right""></p><p><img src=images/blank.png width =""800"" height = ""200""></p>","","","","","","","","","","","",""
"","1574.5750000001863","sequential-stimulus-presentation","219","1242898","0.0-41.0-1.6","SS1613140029152","trial","","40","800","2374.5750000001863","images/stimuli/spore_stims/simple_15_A_a.gif","images/stimuli/spore_stims/simple_15_B_a.gif","","","","","11","simple_similar","images/stimuli/spore_stims/simple_15_A_a.gif","middle","","","","",""
"","null","html-keyboard-response","220","1243879","0.0-41.0-0.7","SS1613140029152","","","null","","","","","<p><img src= images/blank.png width =""200"" height = ""200"" style = ""float:right""></p><p><img src=images/blank.png width =""800"" height = ""200""></p>","","","","","","","","","","","",""
"","730.8249999999534","sequential-stimulus-presentation","221","1245424","0.0-41.0-1.7","SS1613140029152","trial","","40","800","1530.8249999999534","images/stimuli/spore_stims/simple_15_A_a.gif","images/stimuli/spore_stims/simple_15_B_a.gif","","","","","11","simple_similar","images/stimuli/spore_stims/simple_15_B_a.gif","right","","","","",""
"","1231.1049999997485","html-keyboard-response","222","1246691","0.0-42.0","SS1613140029152","pref_question","","97","","","","","<video width ='960' height = '540' style='padding-top:8%' autoplay muted><source src='images/stimuli/wall_pref.mp4' type='video/mp4'></video>","1","left","25%","11","","","","","","","",""
"","805.2649999998976","sequential-stimulus-presentation","223","1248313","0.0-43.0","SS1613140029152","pref_reveal","","40","800","1605.2649999998976","null","null","","","","","11","","","","novel","","","",""
"","null","html-keyboard-response","224","1249542","0.0-44.0-0.0","SS1613140029152","","","null","","","","","<p><img src= images/blank.png width =""200"" height = ""200"" style = ""float:right""></p><p><img src=images/blank.png width =""800"" height = ""200""></p>","","","","","","","","","","","",""
"","597.375","sequential-stimulus-presentation","225","1250957","0.0-44.0-1.0","SS1613140029152","trial","","40","800","1397.375","images/stimuli/spore_stims/complex_10_A_c.gif","images/stimuli/spore_stims/complex_12_B_c.gif","","","","","12","complex_dissimilar","images/stimuli/spore_stims/complex_12_B_c.gif","middle","","","","",""
"","null","html-keyboard-response","226","1251770","0.0-44.0-0.1","SS1613140029152","","","null","","","","","<p><img src= images/blank.png width =""200"" height = ""200"" style = ""float:right""></p><p><img src=images/blank.png width =""800"" height = ""200""></p>","","","","","","","","","","","",""
"","513.2900000000373","sequential-stimulus-presentation","227","1253097","0.0-44.0-1.1","SS1613140029152","trial","","40","800","1313.2900000000373","images/stimuli/spore_stims/complex_10_A_c.gif","images/stimuli/spore_stims/complex_12_B_c.gif","","","","","12","complex_dissimilar","images/stimuli/spore_stims/complex_12_B_c.gif","middle","","","","",""
"","null","html-keyboard-response","228","1254335","0.0-44.0-0.2","SS1613140029152","","","null","","","","","<p><img src= images/blank.png width =""200"" height = ""200"" style = ""float:right""></p><p><img src=images/blank.png width =""800"" height = ""200""></p>","","","","","","","","","","","",""
"","363.82499999995343","sequential-stimulus-presentation","229","1255507","0.0-44.0-1.2","SS1613140029152","trial","","40","800","1163.8249999999534","images/stimuli/spore_stims/complex_10_A_c.gif","images/stimuli/spore_stims/complex_12_B_c.gif","","","","","12","complex_dissimilar","images/stimuli/spore_stims/complex_12_B_c.gif","middle","","","","",""
"","null","html-keyboard-response","230","1256493","0.0-44.0-0.3","SS1613140029152","","","null","","","","","<p><img src= images/blank.png width =""200"" height = ""200"" style = ""float:right""></p><p><img src=images/blank.png width =""800"" height = ""200""></p>","","","","","","","","","","","",""
"","448.84999999962747","sequential-stimulus-presentation","231","1257757","0.0-44.0-1.3","SS1613140029152","trial","","40","800","1248.8499999996275","images/stimuli/spore_stims/complex_10_A_c.gif","images/stimuli/spore_stims/complex_12_B_c.gif","","","","","12","complex_dissimilar","images/stimuli/spore_stims/complex_12_B_c.gif","middle","","","","",""
"","null","html-keyboard-response","232","1258804","0.0-44.0-0.4","SS1613140029152","","","null","","","","","<p><img src= images/blank.png width =""200"" height = ""200"" style = ""float:right""></p><p><img src=images/blank.png width =""800"" height = ""200""></p>","","","","","","","","","","","",""
"","434.1449999997858","sequential-stimulus-presentation","233","1260054","0.0-44.0-1.4","SS1613140029152","trial","","40","800","1234.1449999997858","images/stimuli/spore_stims/complex_10_A_c.gif","images/stimuli/spore_stims/complex_12_B_c.gif","","","","","12","complex_dissimilar","images/stimuli/spore_stims/complex_12_B_c.gif","middle","","","","",""
"","null","html-keyboard-response","234","1261052","0.0-44.0-0.5","SS1613140029152","","","null","","","","","<p><img src= images/blank.png width =""200"" height = ""200"" style = ""float:right""></p><p><img src=images/blank.png width =""800"" height = ""200""></p>","","","","","","","","","","","",""
"","932.2800000000279","sequential-stimulus-presentation","235","1262800","0.0-44.0-1.5","SS1613140029152","trial","","40","800","1732.280000000028","images/stimuli/spore_stims/complex_10_A_c.gif","images/stimuli/spore_stims/complex_12_B_c.gif","","","","","12","complex_dissimilar","images/stimuli/spore_stims/complex_12_B_c.gif","middle","","","","",""
"","null","html-keyboard-response","236","1263717","0.0-44.0-0.6","SS1613140029152","","","null","","","","","<p><img src= images/blank.png width =""200"" height = ""200"" style = ""float:right""></p><p><img src=images/blank.png width =""800"" height = ""200""></p>","","","","","","","","","","","",""
"","1290.8649999997579","sequential-stimulus-presentation","237","1265824","0.0-44.0-1.6","SS1613140029152","trial","","40","800","2090.864999999758","images/stimuli/spore_stims/complex_10_A_c.gif","images/stimuli/spore_stims/complex_12_B_c.gif","","","","","12","complex_dissimilar","images/stimuli/spore_stims/complex_10_A_c.gif","left","","","","",""
"","null","html-keyboard-response","238","1267068","0.0-44.0-0.7","SS1613140029152","","","null","","","","","<p><img src= images/blank.png width =""200"" height = ""200"" style = ""float:right""></p><p><img src=images/blank.png width =""800"" height = ""200""></p>","","","","","","","","","","","",""
"","585.9300000001676","sequential-stimulus-presentation","239","1268467","0.0-44.0-1.7","SS1613140029152","trial","","40","800","1385.9300000001676","images/stimuli/spore_stims/complex_10_A_c.gif","images/stimuli/spore_stims/complex_12_B_c.gif","","","","","12","complex_dissimilar","images/stimuli/spore_stims/complex_12_B_c.gif","middle","","","","",""
"","1521.5749999997206","html-keyboard-response","240","1270001","0.0-45.0","SS1613140029152","pref_question","","97","","","","","<video width ='960' height = '540' style='padding-top:8%' autoplay muted><source src='images/stimuli/wall_pref.mp4' type='video/mp4'></video>","1","left","25%","12","","","","","","","",""
"","2656.6450000000186","sequential-stimulus-presentation","241","1273474","0.0-46.0","SS1613140029152","pref_reveal","","40","800","3456.6450000000186","null","null","","","","","12","","","","deviant","","","",""
"","null","html-keyboard-response","242","1274540","0.0-47.0-0.0","SS1613140029152","","","null","","","","","<p><img src= images/blank.png width =""200"" height = ""200"" style = ""float:right""></p><p><img src=images/blank.png width =""800"" height = ""200""></p>","","","","","","","","","","","",""
"","489.8849999997765","sequential-stimulus-presentation","243","1275848","0.0-47.0-1.0","SS1613140029152","trial","","40","800","1289.8849999997765","images/stimuli/spore_stims/simple_17_A_c.gif","images/stimuli/spore_stims/simple_17_B_c.gif","","","","","13","simple_similar","images/stimuli/spore_stims/simple_17_B_c.gif","middle","","","","",""
"","null","html-keyboard-response","244","1276995","0.0-47.0-0.1","SS1613140029152","","","null","","","","","<p><img src= images/blank.png width =""200"" height = ""200"" style = ""float:right""></p><p><img src=images/blank.png width =""800"" height = ""200""></p>","","","","","","","","","","","",""
"","598.410000000149","sequential-stimulus-presentation","245","1278414","0.0-47.0-1.1","SS1613140029152","trial","","40","800","1398.410000000149","images/stimuli/spore_stims/simple_17_A_c.gif","images/stimuli/spore_stims/simple_17_B_c.gif","","","","","13","simple_similar","images/stimuli/spore_stims/simple_17_B_c.gif","middle","","","","",""
"","null","html-keyboard-response","246","1279463","0.0-47.0-0.2","SS1613140029152","","","null","","","","","<p><img src= images/blank.png width =""200"" height = ""200"" style = ""float:right""></p><p><img src=images/blank.png width =""800"" height = ""200""></p>","","","","","","","","","","","",""
"","503.6300000001211","sequential-stimulus-presentation","247","1280784","0.0-47.0-1.2","SS1613140029152","trial","","40","800","1303.630000000121","images/stimuli/spore_stims/simple_17_A_c.gif","images/stimuli/spore_stims/simple_17_B_c.gif","","","","","13","simple_similar","images/stimuli/spore_stims/simple_17_B_c.gif","middle","","","","",""
"","null","html-keyboard-response","248","1282087","0.0-47.0-0.3","SS1613140029152","","","null","","","","","<p><img src= images/blank.png width =""200"" height = ""200"" style = ""float:right""></p><p><img src=images/blank.png width =""800"" height = ""200""></p>","","","","","","","","","","","",""
"","453.32499999995343","sequential-stimulus-presentation","249","1283348","0.0-47.0-1.3","SS1613140029152","trial","","40","800","1253.3249999999534","images/stimuli/spore_stims/simple_17_A_c.gif","images/stimuli/spore_stims/simple_17_B_c.gif","","","","","13","simple_similar","images/stimuli/spore_stims/simple_17_B_c.gif","middle","","","","",""
"","null","html-keyboard-response","250","1284572","0.0-47.0-0.4","SS1613140029152","","","null","","","","","<p><img src= images/blank.png width =""200"" height = ""200"" style = ""float:right""></p><p><img src=images/blank.png width =""800"" height = ""200""></p>","","","","","","","","","","","",""
"","484.40500000002794","sequential-stimulus-presentation","251","1285874","0.0-47.0-1.4","SS1613140029152","trial","","40","800","1284.405000000028","images/stimuli/spore_stims/simple_17_A_c.gif","images/stimuli/spore_stims/simple_17_B_c.gif","","","","","13","simple_similar","images/stimuli/spore_stims/simple_17_B_c.gif","middle","","","","",""
"","null","html-keyboard-response","252","1286716","0.0-47.0-0.5","SS1613140029152","","","null","","","","","<p><img src= images/blank.png width =""200"" height = ""200"" style = ""float:right""></p><p><img src=images/blank.png width =""800"" height = ""200""></p>","","","","","","","","","","","",""
"","398.7899999998044","sequential-stimulus-presentation","253","1287928","0.0-47.0-1.5","SS1613140029152","trial","","40","800","1198.7899999998044","images/stimuli/spore_stims/simple_17_A_c.gif","images/stimuli/spore_stims/simple_17_B_c.gif","","","","","13","simple_similar","images/stimuli/spore_stims/simple_17_B_c.gif","middle","","","","",""
"","null","html-keyboard-response","254","1288907","0.0-47.0-0.6","SS1613140029152","","","null","","","","","<p><img src= images/blank.png width =""200"" height = ""200"" style = ""float:right""></p><p><img src=images/blank.png width =""800"" height = ""200""></p>","","","","","","","","","","","",""
"","338.64500000025146","sequential-stimulus-presentation","255","1290061","0.0-47.0-1.6","SS1613140029152","trial","","40","800","1138.6450000002515","images/stimuli/spore_stims/simple_17_A_c.gif","images/stimuli/spore_stims/simple_17_B_c.gif","","","","","13","simple_similar","images/stimuli/spore_stims/simple_17_A_c.gif","left","","","","",""
"","null","html-keyboard-response","256","1290950","0.0-47.0-0.7","SS1613140029152","","","null","","","","","<p><img src= images/blank.png width =""200"" height = ""200"" style = ""float:right""></p><p><img src=images/blank.png width =""800"" height = ""200""></p>","","","","","","","","","","","",""
"","359.44000000017695","sequential-stimulus-presentation","257","1292155","0.0-47.0-1.7","SS1613140029152","trial","","40","800","1159.440000000177","images/stimuli/spore_stims/simple_17_A_c.gif","images/stimuli/spore_stims/simple_17_B_c.gif","","","","","13","simple_similar","images/stimuli/spore_stims/simple_17_B_c.gif","middle","","","","",""
"","2818.159999999916","html-keyboard-response","258","1294987","0.0-48.0","SS1613140029152","pref_question","","97","","","","","<video width ='960' height = '540' style='padding-top:8%' autoplay muted><source src='images/stimuli/wall_pref.mp4' type='video/mp4'></video>","1","left","25%","13","","","","","","","",""
"","2652.4199999999255","sequential-stimulus-presentation","259","1298458","0.0-49.0","SS1613140029152","pref_reveal","","40","800","3452.4199999999255","null","null","","","","","13","","","","deviant","","","",""
"","null","html-keyboard-response","260","1299340","0.0-50.0-0.0","SS1613140029152","","","null","","","","","<p><img src= images/blank.png width =""200"" height = ""200"" style = ""float:right""></p><p><img src=images/blank.png width =""800"" height = ""200""></p>","","","","","","","","","","","",""
"","630.8649999999907","sequential-stimulus-presentation","261","1300788","0.0-50.0-1.0","SS1613140029152","trial","","40","800","1430.8649999999907","images/stimuli/spore_stims/complex_19_A_a.gif","images/stimuli/spore_stims/complex_19_B_a.gif","","","","","14","complex_similar","images/stimuli/spore_stims/complex_19_B_a.gif","left","","","","",""
"","null","html-keyboard-response","262","1301617","0.0-50.0-0.1","SS1613140029152","","","null","","","","","<p><img src= images/blank.png width =""200"" height = ""200"" style = ""float:right""></p><p><img src=images/blank.png width =""800"" height = ""200""></p>","","","","","","","","","","","",""
"","485.4199999999255","sequential-stimulus-presentation","263","1302921","0.0-50.0-1.1","SS1613140029152","trial","","40","800","1285.4199999999255","images/stimuli/spore_stims/complex_19_A_a.gif","images/stimuli/spore_stims/complex_19_B_a.gif","","","","","14","complex_similar","images/stimuli/spore_stims/complex_19_B_a.gif","left","","","","",""
"","null","html-keyboard-response","264","1303836","0.0-50.0-0.2","SS1613140029152","","","null","","","","","<p><img src= images/blank.png width =""200"" height = ""200"" style = ""float:right""></p><p><img src=images/blank.png width =""800"" height = ""200""></p>","","","","","","","","","","","",""
"","467.97999999974854","sequential-stimulus-presentation","265","1305131","0.0-50.0-1.2","SS1613140029152","trial","","40","800","1267.9799999997485","images/stimuli/spore_stims/complex_19_A_a.gif","images/stimuli/spore_stims/complex_19_B_a.gif","","","","","14","complex_similar","images/stimuli/spore_stims/complex_19_B_a.gif","left","","","","",""
"","null","html-keyboard-response","266","1306139","0.0-50.0-0.3","SS1613140029152","","","null","","","","","<p><img src= images/blank.png width =""200"" height = ""200"" style = ""float:right""></p><p><img src=images/blank.png width =""800"" height = ""200""></p>","","","","","","","","","","","",""
"","475.42499999981374","sequential-stimulus-presentation","267","1307422","0.0-50.0-1.3","SS1613140029152","trial","","40","800","1275.4249999998137","images/stimuli/spore_stims/complex_19_A_a.gif","images/stimuli/spore_stims/complex_19_B_a.gif","","","","","14","complex_similar","images/stimuli/spore_stims/complex_19_B_a.gif","left","","","","",""
"","null","html-keyboard-response","268","1308697","0.0-50.0-0.4","SS1613140029152","","","null","","","","","<p><img src= images/blank.png width =""200"" height = ""200"" style = ""float:right""></p><p><img src=images/blank.png width =""800"" height = ""200""></p>","","","","","","","","","","","",""
"","476.2099999997299","sequential-stimulus-presentation","269","1309988","0.0-50.0-1.4","SS1613140029152","trial","","40","800","1276.20999999973","images/stimuli/spore_stims/complex_19_A_a.gif","images/stimuli/spore_stims/complex_19_B_a.gif","","","","","14","complex_similar","images/stimuli/spore_stims/complex_19_B_a.gif","left","","","","",""
"","null","html-keyboard-response","270","1311280","0.0-50.0-0.5","SS1613140029152","","","null","","","","","<p><img src= images/blank.png width =""200"" height = ""200"" style = ""float:right""></p><p><img src=images/blank.png width =""800"" height = ""200""></p>","","","","","","","","","","","",""
"","581.2249999998603","sequential-stimulus-presentation","271","1312673","0.0-50.0-1.5","SS1613140029152","trial","","40","800","1381.2249999998603","images/stimuli/spore_stims/complex_19_A_a.gif","images/stimuli/spore_stims/complex_19_B_a.gif","","","","","14","complex_similar","images/stimuli/spore_stims/complex_19_B_a.gif","left","","","","",""
"","null","html-keyboard-response","272","1313901","0.0-50.0-0.6","SS1613140029152","","","null","","","","","<p><img src= images/blank.png width =""200"" height = ""200"" style = ""float:right""></p><p><img src=images/blank.png width =""800"" height = ""200""></p>","","","","","","","","","","","",""
"","719.3349999999627","sequential-stimulus-presentation","273","1315434","0.0-50.0-1.6","SS1613140029152","trial","","40","800","1519.3349999999627","images/stimuli/spore_stims/complex_19_A_a.gif","images/stimuli/spore_stims/complex_19_B_a.gif","","","","","14","complex_similar","images/stimuli/spore_stims/complex_19_A_a.gif","right","","","","",""
"","null","html-keyboard-response","274","1316413","0.0-50.0-0.7","SS1613140029152","","","null","","","","","<p><img src= images/blank.png width =""200"" height = ""200"" style = ""float:right""></p><p><img src=images/blank.png width =""800"" height = ""200""></p>","","","","","","","","","","","",""
"","490.92500000004657","sequential-stimulus-presentation","275","1317723","0.0-50.0-1.7","SS1613140029152","trial","","40","800","1290.9250000000466","images/stimuli/spore_stims/complex_19_A_a.gif","images/stimuli/spore_stims/complex_19_B_a.gif","","","","","14","complex_similar","images/stimuli/spore_stims/complex_19_B_a.gif","left","","","","",""
"","1284.2350000001024","html-keyboard-response","276","1319021","0.0-51.0","SS1613140029152","pref_question","","97","","","","","<video width ='960' height = '540' style='padding-top:8%' autoplay muted><source src='images/stimuli/wall_pref.mp4' type='video/mp4'></video>","1","left","25%","14","","","","","","","",""
"","2567.1049999995157","sequential-stimulus-presentation","277","1322415","0.0-52.0","SS1613140029152","pref_reveal","","40","800","3367.1049999995157","null","null","","","","","14","","","","background","","","",""
"","null","html-keyboard-response","278","1323261","0.0-53.0-0.0","SS1613140029152","","","null","","","","","<p><img src= images/blank.png width =""200"" height = ""200"" style = ""float:right""></p><p><img src=images/blank.png width =""800"" height = ""200""></p>","","","","","","","","","","","",""
"","678.8250000001863","sequential-stimulus-presentation","279","1324784","0.0-53.0-1.0","SS1613140029152","trial","","40","800","1478.8250000001863","images/stimuli/spore_stims/complex_14_B_c.gif","images/stimuli/spore_stims/complex_07_A_d.gif","","","","","15","complex_dissimilar","images/stimuli/spore_stims/complex_07_A_d.gif","right","","","","",""
"","null","html-keyboard-response","280","1326005","0.0-53.0-0.1","SS1613140029152","","","null","","","","","<p><img src= images/blank.png width =""200"" height = ""200"" style = ""float:right""></p><p><img src=images/blank.png width =""800"" height = ""200""></p>","","","","","","","","","","","",""
"","698.5099999997765","sequential-stimulus-presentation","281","1327545","0.0-53.0-1.1","SS1613140029152","trial","","40","800","1498.5099999997765","images/stimuli/spore_stims/complex_14_B_c.gif","images/stimuli/spore_stims/complex_07_A_d.gif","","","","","15","complex_dissimilar","images/stimuli/spore_stims/complex_07_A_d.gif","right","","","","",""
"","null","html-keyboard-response","282","1328780","0.0-53.0-0.2","SS1613140029152","","","null","","","","","<p><img src= images/blank.png width =""200"" height = ""200"" style = ""float:right""></p><p><img src=images/blank.png width =""800"" height = ""200""></p>","","","","","","","","","","","",""
"","1500.654999999795","sequential-stimulus-presentation","283","1331095","0.0-53.0-1.2","SS1613140029152","trial","","40","800","2300.654999999795","images/stimuli/spore_stims/complex_14_B_c.gif","images/stimuli/spore_stims/complex_07_A_d.gif","","","","","15","complex_dissimilar","images/stimuli/spore_stims/complex_07_A_d.gif","right","","","","",""
"","null","html-keyboard-response","284","1332331","0.0-53.0-0.3","SS1613140029152","","","null","","","","","<p><img src= images/blank.png width =""200"" height = ""200"" style = ""float:right""></p><p><img src=images/blank.png width =""800"" height = ""200""></p>","","","","","","","","","","","",""
"","472.30500000016764","sequential-stimulus-presentation","285","1333621","0.0-53.0-1.3","SS1613140029152","trial","","40","800","1272.3050000001676","images/stimuli/spore_stims/complex_14_B_c.gif","images/stimuli/spore_stims/complex_07_A_d.gif","","","","","15","complex_dissimilar","images/stimuli/spore_stims/complex_14_B_c.gif","middle","","","","",""
"","null","html-keyboard-response","286","1334799","0.0-53.0-0.4","SS1613140029152","","","null","","","","","<p><img src= images/blank.png width =""200"" height = ""200"" style = ""float:right""></p><p><img src=images/blank.png width =""800"" height = ""200""></p>","","","","","","","","","","","",""
"","715.9799999999814","sequential-stimulus-presentation","287","1336343","0.0-53.0-1.4","SS1613140029152","trial","","40","800","1515.9799999999814","images/stimuli/spore_stims/complex_14_B_c.gif","images/stimuli/spore_stims/complex_07_A_d.gif","","","","","15","complex_dissimilar","images/stimuli/spore_stims/complex_07_A_d.gif","right","","","","",""
"","null","html-keyboard-response","288","1337535","0.0-53.0-0.5","SS1613140029152","","","null","","","","","<p><img src= images/blank.png width =""200"" height = ""200"" style = ""float:right""></p><p><img src=images/blank.png width =""800"" height = ""200""></p>","","","","","","","","","","","",""
"","635.1550000002608","sequential-stimulus-presentation","289","1338988","0.0-53.0-1.5","SS1613140029152","trial","","40","800","1435.1550000002608","images/stimuli/spore_stims/complex_14_B_c.gif","images/stimuli/spore_stims/complex_07_A_d.gif","","","","","15","complex_dissimilar","images/stimuli/spore_stims/complex_07_A_d.gif","right","","","","",""
"","null","html-keyboard-response","290","1340066","0.0-53.0-0.6","SS1613140029152","","","null","","","","","<p><img src= images/blank.png width =""200"" height = ""200"" style = ""float:right""></p><p><img src=images/blank.png width =""800"" height = ""200""></p>","","","","","","","","","","","",""
"","671.2849999999162","sequential-stimulus-presentation","291","1341553","0.0-53.0-1.6","SS1613140029152","trial","","40","800","1471.2849999999162","images/stimuli/spore_stims/complex_14_B_c.gif","images/stimuli/spore_stims/complex_07_A_d.gif","","","","","15","complex_dissimilar","images/stimuli/spore_stims/complex_07_A_d.gif","right","","","","",""
"","null","html-keyboard-response","292","1342575","0.0-53.0-0.7","SS1613140029152","","","null","","","","","<p><img src= images/blank.png width =""200"" height = ""200"" style = ""float:right""></p><p><img src=images/blank.png width =""800"" height = ""200""></p>","","","","","","","","","","","",""
"","489.45999999996275","sequential-stimulus-presentation","293","1343882","0.0-53.0-1.7","SS1613140029152","trial","","40","800","1289.4599999999627","images/stimuli/spore_stims/complex_14_B_c.gif","images/stimuli/spore_stims/complex_07_A_d.gif","","","","","15","complex_dissimilar","images/stimuli/spore_stims/complex_07_A_d.gif","right","","","","",""
"","1517.04000000027","html-keyboard-response","294","1345416","0.0-54.0","SS1613140029152","pref_question","","97","","","","","<video width ='960' height = '540' style='padding-top:8%' autoplay muted><source src='images/stimuli/wall_pref.mp4' type='video/mp4'></video>","1","left","25%","15","","","","","","","",""
"","3440.6299999998882","sequential-stimulus-presentation","295","1349675","0.0-55.0","SS1613140029152","pref_reveal","","40","800","4240.629999999888","null","null","","","","","15","","","","novel","","","",""
"","null","html-keyboard-response","296","1350688","0.0-56.0-0.0","SS1613140029152","","","null","","","","","<p><img src= images/blank.png width =""200"" height = ""200"" style = ""float:right""></p><p><img src=images/blank.png width =""800"" height = ""200""></p>","","","","","","","","","","","",""
"","695.5000000002328","sequential-stimulus-presentation","297","1352202","0.0-56.0-1.0","SS1613140029152","trial","","40","800","1495.5000000002328","images/stimuli/spore_stims/simple_16_A_d.gif","images/stimuli/spore_stims/simple_11_A_c.gif","","","","","16","simple_dissimilar","images/stimuli/spore_stims/simple_11_A_c.gif","left","","","","",""
"","null","html-keyboard-response","298","1353288","0.0-56.0-0.1","SS1613140029152","","","null","","","","","<p><img src= images/blank.png width =""200"" height = ""200"" style = ""float:right""></p><p><img src=images/blank.png width =""800"" height = ""200""></p>","","","","","","","","","","","",""
"","623.5700000000652","sequential-stimulus-presentation","299","1354727","0.0-56.0-1.1","SS1613140029152","trial","","40","800","1423.5700000000652","images/stimuli/spore_stims/simple_16_A_d.gif","images/stimuli/spore_stims/simple_11_A_c.gif","","","","","16","simple_dissimilar","images/stimuli/spore_stims/simple_11_A_c.gif","left","","","","",""
"","null","html-keyboard-response","300","1355941","0.0-56.0-0.2","SS1613140029152","","","null","","","","","<p><img src= images/blank.png width =""200"" height = ""200"" style = ""float:right""></p><p><img src=images/blank.png width =""800"" height = ""200""></p>","","","","","","","","","","","",""
"","1677.91500000027","sequential-stimulus-presentation","301","1358434","0.0-56.0-1.2","SS1613140029152","trial","","40","800","2477.91500000027","images/stimuli/spore_stims/simple_16_A_d.gif","images/stimuli/spore_stims/simple_11_A_c.gif","","","","","16","simple_dissimilar","images/stimuli/spore_stims/simple_11_A_c.gif","left","","","","",""
"","null","html-keyboard-response","302","1359667","0.0-56.0-0.3","SS1613140029152","","","null","","","","","<p><img src= images/blank.png width =""200"" height = ""200"" style = ""float:right""></p><p><img src=images/blank.png width =""800"" height = ""200""></p>","","","","","","","","","","","",""
"","750.2449999998789","sequential-stimulus-presentation","303","1361236","0.0-56.0-1.3","SS1613140029152","trial","","40","800","1550.244999999879","images/stimuli/spore_stims/simple_16_A_d.gif","images/stimuli/spore_stims/simple_11_A_c.gif","","","","","16","simple_dissimilar","images/stimuli/spore_stims/simple_16_A_d.gif","right","","","","",""
"","null","html-keyboard-response","304","1362205","0.0-56.0-0.4","SS1613140029152","","","null","","","","","<p><img src= images/blank.png width =""200"" height = ""200"" style = ""float:right""></p><p><img src=images/blank.png width =""800"" height = ""200""></p>","","","","","","","","","","","",""
"","577.4399999999441","sequential-stimulus-presentation","305","1363605","0.0-56.0-1.4","SS1613140029152","trial","","40","800","1377.4399999999441","images/stimuli/spore_stims/simple_16_A_d.gif","images/stimuli/spore_stims/simple_11_A_c.gif","","","","","16","simple_dissimilar","images/stimuli/spore_stims/simple_11_A_c.gif","left","","","","",""
"","null","html-keyboard-response","306","1364565","0.0-56.0-0.5","SS1613140029152","","","null","","","","","<p><img src= images/blank.png width =""200"" height = ""200"" style = ""float:right""></p><p><img src=images/blank.png width =""800"" height = ""200""></p>","","","","","","","","","","","",""
"","422.46500000031665","sequential-stimulus-presentation","307","1365802","0.0-56.0-1.5","SS1613140029152","trial","","40","800","1222.4650000003166","images/stimuli/spore_stims/simple_16_A_d.gif","images/stimuli/spore_stims/simple_11_A_c.gif","","","","","16","simple_dissimilar","images/stimuli/spore_stims/simple_11_A_c.gif","left","","","","",""
"","null","html-keyboard-response","308","1366847","0.0-56.0-0.6","SS1613140029152","","","null","","","","","<p><img src= images/blank.png width =""200"" height = ""200"" style = ""float:right""></p><p><img src=images/blank.png width =""800"" height = ""200""></p>","","","","","","","","","","","",""
"","385.1849999995902","sequential-stimulus-presentation","309","1368052","0.0-56.0-1.6","SS1613140029152","trial","","40","800","1185.1849999995902","images/stimuli/spore_stims/simple_16_A_d.gif","images/stimuli/spore_stims/simple_11_A_c.gif","","","","","16","simple_dissimilar","images/stimuli/spore_stims/simple_11_A_c.gif","left","","","","",""
"","null","html-keyboard-response","310","1368876","0.0-56.0-0.7","SS1613140029152","","","null","","","","","<p><img src= images/blank.png width =""200"" height = ""200"" style = ""float:right""></p><p><img src=images/blank.png width =""800"" height = ""200""></p>","","","","","","","","","","","",""
"","375.30500000016764","sequential-stimulus-presentation","311","1370065","0.0-56.0-1.7","SS1613140029152","trial","","40","800","1175.3050000001676","images/stimuli/spore_stims/simple_16_A_d.gif","images/stimuli/spore_stims/simple_11_A_c.gif","","","","","16","simple_dissimilar","images/stimuli/spore_stims/simple_11_A_c.gif","left","","","","",""
