"view_history","rt","trial_type","trial_index","time_elapsed","internal_node_id","subject","stimulus_type","trial_stimulus","key_press","minimum_viewing_duration","trial_looking_time","block_deviant","block_background","stimulus","wall_pref","location","location_percent","block_number","block_type","stimulus_displayed","position_displayed","stim_type_selected","responses","question_order","stimulus_left","stimulus_right"
"[{""page_index"":0,""viewing_time"":40626.72500000917}]","40627.464999997756","instructions","0","40630","0.0-0.0","SS1613099700623","","","","","","","","","","","","","","","","","","","",""
"[{""page_index"":0,""viewing_time"":5757.480000000214},{""page_index"":1,""viewing_time"":2937.934999994468}]","8695.739999995567","instructions","1","51341","0.0-1.0","SS1613099700623","instructions","","","","","","","","","","","","","","","","","","",""
"","3916.2150000047404","sequential-stimulus-presentation","2","56083","0.0-2.0","SS1613099700623","","","40","800","4716.21500000474","null","null","","","","","","","","","","","","",""
"","1026.3949999934994","sequential-stimulus-presentation","3","57915","0.0-3.0","SS1613099700623","","","40","800","1826.3949999934994","null","null","","","","","","","","","","","","",""
"[{""page_index"":0,""viewing_time"":3562.5900000159163}]","3562.9149999876972","instructions","4","61479","0.0-4.0","SS1613099700623","instructions","","","","","","","","","","","","","","","","","","",""
"","5256.894999998622","html-keyboard-response","5","66739","0.0-5.0","SS1613099700623","instructions","","97","","","","","<video width ='960' height = '540' autoplay muted><source src='images/stimuli/wall_pref.mp4' type='video/mp4'></video>","1","left","25%","","","","","","","","",""
"","2162.2949999873526","sequential-stimulus-presentation","6","69715","0.0-6.0","SS1613099700623","pref_reveal","","40","800","2962.2949999873526","null","null","","","","","","","","","","","","",""
"[{""page_index"":0,""viewing_time"":6074.08999998006},{""page_index"":1,""viewing_time"":3444.115000020247},{""page_index"":2,""viewing_time"":926.0099999955855},{""page_index"":3,""viewing_time"":899.9999999941792}]","11344.544999999925","instructions","7","81060","0.0-7.0","SS1613099700623","instructions","","","","","","","","","","","","","","","","","","",""
"","null","html-keyboard-response","8","82003","0.0-8.0-0.0","SS1613099700623","","","null","","","","","<p><img src= images/blank.png width =""200"" height = ""200"" style = ""float:right""></p><p><img src=images/blank.png width =""800"" height = ""200""></p>","","","","","","","","","","","",""
"","1710.495000006631","sequential-stimulus-presentation","9","84522","0.0-8.0-1.0","SS1613099700623","trial","","40","800","2510.495000006631","images/stimuli/spore_stims/complex_05_A_b.gif","images/stimuli/spore_stims/complex_04_B_d.gif","","","","","0","complex_dissimilar","images/stimuli/spore_stims/complex_04_B_d.gif","right","","","","",""
"","null","html-keyboard-response","10","85463","0.0-8.0-0.1","SS1613099700623","","","null","","","","","<p><img src= images/blank.png width =""200"" height = ""200"" style = ""float:right""></p><p><img src=images/blank.png width =""800"" height = ""200""></p>","","","","","","","","","","","",""
"","4451.544999988982","sequential-stimulus-presentation","11","90732","0.0-8.0-1.1","SS1613099700623","trial","","40","800","5251.544999988982","images/stimuli/spore_stims/complex_05_A_b.gif","images/stimuli/spore_stims/complex_04_B_d.gif","","","","","0","complex_dissimilar","images/stimuli/spore_stims/complex_04_B_d.gif","right","","","","",""
"","null","html-keyboard-response","12","91562","0.0-8.0-0.2","SS1613099700623","","","null","","","","","<p><img src= images/blank.png width =""200"" height = ""200"" style = ""float:right""></p><p><img src=images/blank.png width =""800"" height = ""200""></p>","","","","","","","","","","","",""
"","2386.205000017071","sequential-stimulus-presentation","13","94762","0.0-8.0-1.2","SS1613099700623","trial","","40","800","3186.205000017071","images/stimuli/spore_stims/complex_05_A_b.gif","images/stimuli/spore_stims/complex_04_B_d.gif","","","","","0","complex_dissimilar","images/stimuli/spore_stims/complex_04_B_d.gif","right","","","","",""
"","null","html-keyboard-response","14","95902","0.0-8.0-0.3","SS1613099700623","","","null","","","","","<p><img src= images/blank.png width =""200"" height = ""200"" style = ""float:right""></p><p><img src=images/blank.png width =""800"" height = ""200""></p>","","","","","","","","","","","",""
"","932.98500002129","sequential-stimulus-presentation","15","97650","0.0-8.0-1.3","SS1613099700623","trial","","40","800","1732.98500002129","images/stimuli/spore_stims/complex_05_A_b.gif","images/stimuli/spore_stims/complex_04_B_d.gif","","","","","0","complex_dissimilar","images/stimuli/spore_stims/complex_04_B_d.gif","right","","","","",""
"","null","html-keyboard-response","16","98780","0.0-8.0-0.4","SS1613099700623","","","null","","","","","<p><img src= images/blank.png width =""200"" height = ""200"" style = ""float:right""></p><p><img src=images/blank.png width =""800"" height = ""200""></p>","","","","","","","","","","","",""
"","395.09999999427237","sequential-stimulus-presentation","17","99987","0.0-8.0-1.4","SS1613099700623","trial","","40","800","1195.0999999942724","images/stimuli/spore_stims/complex_05_A_b.gif","images/stimuli/spore_stims/complex_04_B_d.gif","","","","","0","complex_dissimilar","images/stimuli/spore_stims/complex_04_B_d.gif","right","","","","",""
"","null","html-keyboard-response","18","101061","0.0-8.0-0.5","SS1613099700623","","","null","","","","","<p><img src= images/blank.png width =""200"" height = ""200"" style = ""float:right""></p><p><img src=images/blank.png width =""800"" height = ""200""></p>","","","","","","","","","","","",""
"","654.0849999873899","sequential-stimulus-presentation","19","102523","0.0-8.0-1.5","SS1613099700623","trial","","40","800","1454.08499998739","images/stimuli/spore_stims/complex_05_A_b.gif","images/stimuli/spore_stims/complex_04_B_d.gif","","","","","0","complex_dissimilar","images/stimuli/spore_stims/complex_04_B_d.gif","right","","","","",""
"","null","html-keyboard-response","20","103361","0.0-8.0-0.6","SS1613099700623","","","null","","","","","<p><img src= images/blank.png width =""200"" height = ""200"" style = ""float:right""></p><p><img src=images/blank.png width =""800"" height = ""200""></p>","","","","","","","","","","","",""
"","454.98500001849607","sequential-stimulus-presentation","21","104626","0.0-8.0-1.6","SS1613099700623","trial","","40","800","1254.985000018496","images/stimuli/spore_stims/complex_05_A_b.gif","images/stimuli/spore_stims/complex_04_B_d.gif","","","","","0","complex_dissimilar","images/stimuli/spore_stims/complex_04_B_d.gif","right","","","","",""
"","null","html-keyboard-response","22","105728","0.0-8.0-0.7","SS1613099700623","","","null","","","","","<p><img src= images/blank.png width =""200"" height = ""200"" style = ""float:right""></p><p><img src=images/blank.png width =""800"" height = ""200""></p>","","","","","","","","","","","",""
"","3453.2800000160933","sequential-stimulus-presentation","23","109995","0.0-8.0-1.7","SS1613099700623","trial","","40","800","4253.280000016093","images/stimuli/spore_stims/complex_05_A_b.gif","images/stimuli/spore_stims/complex_04_B_d.gif","","","","","0","complex_dissimilar","images/stimuli/spore_stims/complex_05_A_b.gif","middle","","","","",""
"","1658.5550000017975","html-keyboard-response","24","111659","0.0-9.0","SS1613099700623","pref_question","","98","","","","","<video width ='960' height = '540' style='padding-top:8%' autoplay muted><source src='images/stimuli/wall_pref.mp4' type='video/mp4'></video>","2","middle","45%","0","","","","","","","",""
"","4737.995000003139","sequential-stimulus-presentation","25","117202","0.0-10.0","SS1613099700623","pref_reveal","","40","800","5537.995000003139","null","null","","","","","0","","","","deviant","","","",""
"","null","html-keyboard-response","26","118160","0.0-11.0-0.0","SS1613099700623","","","null","","","","","<p><img src= images/blank.png width =""200"" height = ""200"" style = ""float:right""></p><p><img src=images/blank.png width =""800"" height = ""200""></p>","","","","","","","","","","","",""
"","3487.6449999865144","sequential-stimulus-presentation","27","122458","0.0-11.0-1.0","SS1613099700623","trial","","40","800","4287.644999986514","images/stimuli/spore_stims/simple_03_A_b.gif","images/stimuli/spore_stims/simple_17_A_c.gif","","","","","1","simple_dissimilar","images/stimuli/spore_stims/simple_17_A_c.gif","middle","","","","",""
"","null","html-keyboard-response","28","123551","0.0-11.0-0.1","SS1613099700623","","","null","","","","","<p><img src= images/blank.png width =""200"" height = ""200"" style = ""float:right""></p><p><img src=images/blank.png width =""800"" height = ""200""></p>","","","","","","","","","","","",""
"","3947.66500001424","sequential-stimulus-presentation","29","128331","0.0-11.0-1.1","SS1613099700623","trial","","40","800","4747.66500001424","images/stimuli/spore_stims/simple_03_A_b.gif","images/stimuli/spore_stims/simple_17_A_c.gif","","","","","1","simple_dissimilar","images/stimuli/spore_stims/simple_17_A_c.gif","middle","","","","",""
"","null","html-keyboard-response","30","129623","0.0-11.0-0.2","SS1613099700623","","","null","","","","","<p><img src= images/blank.png width =""200"" height = ""200"" style = ""float:right""></p><p><img src=images/blank.png width =""800"" height = ""200""></p>","","","","","","","","","","","",""
"","509.6049999992829","sequential-stimulus-presentation","31","130946","0.0-11.0-1.2","SS1613099700623","trial","","40","800","1309.6049999992829","images/stimuli/spore_stims/simple_03_A_b.gif","images/stimuli/spore_stims/simple_17_A_c.gif","","","","","1","simple_dissimilar","images/stimuli/spore_stims/simple_17_A_c.gif","middle","","","","",""
"","null","html-keyboard-response","32","131977","0.0-11.0-0.3","SS1613099700623","","","null","","","","","<p><img src= images/blank.png width =""200"" height = ""200"" style = ""float:right""></p><p><img src=images/blank.png width =""800"" height = ""200""></p>","","","","","","","","","","","",""
"","935.0149999954738","sequential-stimulus-presentation","33","133722","0.0-11.0-1.3","SS1613099700623","trial","","40","800","1735.0149999954738","images/stimuli/spore_stims/simple_03_A_b.gif","images/stimuli/spore_stims/simple_17_A_c.gif","","","","","1","simple_dissimilar","images/stimuli/spore_stims/simple_17_A_c.gif","middle","","","","",""
"","null","html-keyboard-response","34","134676","0.0-11.0-0.4","SS1613099700623","","","null","","","","","<p><img src= images/blank.png width =""200"" height = ""200"" style = ""float:right""></p><p><img src=images/blank.png width =""800"" height = ""200""></p>","","","","","","","","","","","",""
"","1894.7700000135228","sequential-stimulus-presentation","35","137386","0.0-11.0-1.4","SS1613099700623","trial","","40","800","2694.770000013523","images/stimuli/spore_stims/simple_03_A_b.gif","images/stimuli/spore_stims/simple_17_A_c.gif","","","","","1","simple_dissimilar","images/stimuli/spore_stims/simple_17_A_c.gif","middle","","","","",""
"","null","html-keyboard-response","36","138655","0.0-11.0-0.5","SS1613099700623","","","null","","","","","<p><img src= images/blank.png width =""200"" height = ""200"" style = ""float:right""></p><p><img src=images/blank.png width =""800"" height = ""200""></p>","","","","","","","","","","","",""
"","1717.4899999808986","sequential-stimulus-presentation","37","141187","0.0-11.0-1.5","SS1613099700623","trial","","40","800","2517.4899999808986","images/stimuli/spore_stims/simple_03_A_b.gif","images/stimuli/spore_stims/simple_17_A_c.gif","","","","","1","simple_dissimilar","images/stimuli/spore_stims/simple_17_A_c.gif","middle","","","","",""
"","null","html-keyboard-response","38","142269","0.0-11.0-0.6","SS1613099700623","","","null","","","","","<p><img src= images/blank.png width =""200"" height = ""200"" style = ""float:right""></p><p><img src=images/blank.png width =""800"" height = ""200""></p>","","","","","","","","","","","",""
"","3220.3349999908824","sequential-stimulus-presentation","39","146298","0.0-11.0-1.6","SS1613099700623","trial","","40","800","4020.3349999908824","images/stimuli/spore_stims/simple_03_A_b.gif","images/stimuli/spore_stims/simple_17_A_c.gif","","","","","1","simple_dissimilar","images/stimuli/spore_stims/simple_03_A_b.gif","right","","","","",""
"","null","html-keyboard-response","40","147127","0.0-11.0-0.7","SS1613099700623","","","null","","","","","<p><img src= images/blank.png width =""200"" height = ""200"" style = ""float:right""></p><p><img src=images/blank.png width =""800"" height = ""200""></p>","","","","","","","","","","","",""
"","3404.819999996107","sequential-stimulus-presentation","41","151346","0.0-11.0-1.7","SS1613099700623","trial","","40","800","4204.819999996107","images/stimuli/spore_stims/simple_03_A_b.gif","images/stimuli/spore_stims/simple_17_A_c.gif","","","","","1","simple_dissimilar","images/stimuli/spore_stims/simple_17_A_c.gif","middle","","","","",""
"","1794.095000019297","html-keyboard-response","42","153146","0.0-12.0","SS1613099700623","pref_question","","97","","","","","<video width ='960' height = '540' style='padding-top:8%' autoplay muted><source src='images/stimuli/wall_pref.mp4' type='video/mp4'></video>","1","left","25%","1","","","","","","","",""
"","4794.324999995297","sequential-stimulus-presentation","43","158753","0.0-13.0","SS1613099700623","pref_reveal","","40","800","5594.324999995297","null","null","","","","","1","","","","novel","","","",""
"","null","html-keyboard-response","44","159885","0.0-14.0-0.0","SS1613099700623","","","null","","","","","<p><img src= images/blank.png width =""200"" height = ""200"" style = ""float:right""></p><p><img src=images/blank.png width =""800"" height = ""200""></p>","","","","","","","","","","","",""
"","2867.3150000104215","sequential-stimulus-presentation","45","163562","0.0-14.0-1.0","SS1613099700623","trial","","40","800","3667.3150000104215","images/stimuli/spore_stims/complex_19_B_a.gif","images/stimuli/spore_stims/complex_19_A_a.gif","","","","","2","complex_similar","images/stimuli/spore_stims/complex_19_A_a.gif","right","","","","",""
"","null","html-keyboard-response","46","164654","0.0-14.0-0.1","SS1613099700623","","","null","","","","","<p><img src= images/blank.png width =""200"" height = ""200"" style = ""float:right""></p><p><img src=images/blank.png width =""800"" height = ""200""></p>","","","","","","","","","","","",""
"","1955.7800000184216","sequential-stimulus-presentation","47","167425","0.0-14.0-1.1","SS1613099700623","trial","","40","800","2755.7800000184216","images/stimuli/spore_stims/complex_19_B_a.gif","images/stimuli/spore_stims/complex_19_A_a.gif","","","","","2","complex_similar","images/stimuli/spore_stims/complex_19_A_a.gif","right","","","","",""
"","null","html-keyboard-response","48","168499","0.0-14.0-0.2","SS1613099700623","","","null","","","","","<p><img src= images/blank.png width =""200"" height = ""200"" style = ""float:right""></p><p><img src=images/blank.png width =""800"" height = ""200""></p>","","","","","","","","","","","",""
"","2520.80999998725","sequential-stimulus-presentation","49","171840","0.0-14.0-1.2","SS1613099700623","trial","","40","800","3320.80999998725","images/stimuli/spore_stims/complex_19_B_a.gif","images/stimuli/spore_stims/complex_19_A_a.gif","","","","","2","complex_similar","images/stimuli/spore_stims/complex_19_A_a.gif","right","","","","",""
"","null","html-keyboard-response","50","172820","0.0-14.0-0.3","SS1613099700623","","","null","","","","","<p><img src= images/blank.png width =""200"" height = ""200"" style = ""float:right""></p><p><img src=images/blank.png width =""800"" height = ""200""></p>","","","","","","","","","","","",""
"","4474.580000009155","sequential-stimulus-presentation","51","178105","0.0-14.0-1.3","SS1613099700623","trial","","40","800","5274.580000009155","images/stimuli/spore_stims/complex_19_B_a.gif","images/stimuli/spore_stims/complex_19_A_a.gif","","","","","2","complex_similar","images/stimuli/spore_stims/complex_19_B_a.gif","left","","","","",""
"","null","html-keyboard-response","52","179136","0.0-14.0-0.4","SS1613099700623","","","null","","","","","<p><img src= images/blank.png width =""200"" height = ""200"" style = ""float:right""></p><p><img src=images/blank.png width =""800"" height = ""200""></p>","","","","","","","","","","","",""
"","530.7099999918137","sequential-stimulus-presentation","53","180481","0.0-14.0-1.4","SS1613099700623","trial","","40","800","1330.7099999918137","images/stimuli/spore_stims/complex_19_B_a.gif","images/stimuli/spore_stims/complex_19_A_a.gif","","","","","2","complex_similar","images/stimuli/spore_stims/complex_19_A_a.gif","right","","","","",""
"","null","html-keyboard-response","54","181719","0.0-14.0-0.5","SS1613099700623","","","null","","","","","<p><img src= images/blank.png width =""200"" height = ""200"" style = ""float:right""></p><p><img src=images/blank.png width =""800"" height = ""200""></p>","","","","","","","","","","","",""
"","1015.3750000172295","sequential-stimulus-presentation","55","183552","0.0-14.0-1.5","SS1613099700623","trial","","40","800","1815.3750000172295","images/stimuli/spore_stims/complex_19_B_a.gif","images/stimuli/spore_stims/complex_19_A_a.gif","","","","","2","complex_similar","images/stimuli/spore_stims/complex_19_A_a.gif","right","","","","",""
"","null","html-keyboard-response","56","184366","0.0-14.0-0.6","SS1613099700623","","","null","","","","","<p><img src= images/blank.png width =""200"" height = ""200"" style = ""float:right""></p><p><img src=images/blank.png width =""800"" height = ""200""></p>","","","","","","","","","","","",""
"","582.2449999977835","sequential-stimulus-presentation","57","185760","0.0-14.0-1.6","SS1613099700623","trial","","40","800","1382.2449999977835","images/stimuli/spore_stims/complex_19_B_a.gif","images/stimuli/spore_stims/complex_19_A_a.gif","","","","","2","complex_similar","images/stimuli/spore_stims/complex_19_A_a.gif","right","","","","",""
"","null","html-keyboard-response","58","186790","0.0-14.0-0.7","SS1613099700623","","","null","","","","","<p><img src= images/blank.png width =""200"" height = ""200"" style = ""float:right""></p><p><img src=images/blank.png width =""800"" height = ""200""></p>","","","","","","","","","","","",""
"","511.50000002235174","sequential-stimulus-presentation","59","188112","0.0-14.0-1.7","SS1613099700623","trial","","40","800","1311.5000000223517","images/stimuli/spore_stims/complex_19_B_a.gif","images/stimuli/spore_stims/complex_19_A_a.gif","","","","","2","complex_similar","images/stimuli/spore_stims/complex_19_A_a.gif","right","","","","",""
"","1913.9849999919534","html-keyboard-response","60","190033","0.0-15.0","SS1613099700623","pref_question","","97","","","","","<video width ='960' height = '540' style='padding-top:8%' autoplay muted><source src='images/stimuli/wall_pref.mp4' type='video/mp4'></video>","1","left","25%","2","","","","","","","",""
"","2156.3049999822397","sequential-stimulus-presentation","61","193008","0.0-16.0","SS1613099700623","pref_reveal","","40","800","2956.3049999822397","null","null","","","","","2","","","","deviant","","","",""
"","null","html-keyboard-response","62","194035","0.0-17.0-0.0","SS1613099700623","","","null","","","","","<p><img src= images/blank.png width =""200"" height = ""200"" style = ""float:right""></p><p><img src=images/blank.png width =""800"" height = ""200""></p>","","","","","","","","","","","",""
"","1939.1250000044238","sequential-stimulus-presentation","63","196785","0.0-17.0-1.0","SS1613099700623","trial","","40","800","2739.125000004424","images/stimuli/spore_stims/simple_05_B_b.gif","images/stimuli/spore_stims/simple_17_B_c.gif","","","","","3","simple_dissimilar","images/stimuli/spore_stims/simple_17_B_c.gif","middle","","","","",""
"","null","html-keyboard-response","64","198013","0.0-17.0-0.1","SS1613099700623","","","null","","","","","<p><img src= images/blank.png width =""200"" height = ""200"" style = ""float:right""></p><p><img src=images/blank.png width =""800"" height = ""200""></p>","","","","","","","","","","","",""
"","460.59500001138076","sequential-stimulus-presentation","65","199288","0.0-17.0-1.1","SS1613099700623","trial","","40","800","1260.5950000113808","images/stimuli/spore_stims/simple_05_B_b.gif","images/stimuli/spore_stims/simple_17_B_c.gif","","","","","3","simple_dissimilar","images/stimuli/spore_stims/simple_17_B_c.gif","middle","","","","",""
"","null","html-keyboard-response","66","200424","0.0-17.0-0.2","SS1613099700623","","","null","","","","","<p><img src= images/blank.png width =""200"" height = ""200"" style = ""float:right""></p><p><img src=images/blank.png width =""800"" height = ""200""></p>","","","","","","","","","","","",""
"","390.89000000967644","sequential-stimulus-presentation","67","201625","0.0-17.0-1.2","SS1613099700623","trial","","40","800","1190.8900000096764","images/stimuli/spore_stims/simple_05_B_b.gif","images/stimuli/spore_stims/simple_17_B_c.gif","","","","","3","simple_dissimilar","images/stimuli/spore_stims/simple_05_B_b.gif","left","","","","",""
"","null","html-keyboard-response","68","202825","0.0-17.0-0.3","SS1613099700623","","","null","","","","","<p><img src= images/blank.png width =""200"" height = ""200"" style = ""float:right""></p><p><img src=images/blank.png width =""800"" height = ""200""></p>","","","","","","","","","","","",""
"","677.510000008624","sequential-stimulus-presentation","69","204312","0.0-17.0-1.3","SS1613099700623","trial","","40","800","1477.510000008624","images/stimuli/spore_stims/simple_05_B_b.gif","images/stimuli/spore_stims/simple_17_B_c.gif","","","","","3","simple_dissimilar","images/stimuli/spore_stims/simple_17_B_c.gif","middle","","","","",""
"","null","html-keyboard-response","70","205525","0.0-17.0-0.4","SS1613099700623","","","null","","","","","<p><img src= images/blank.png width =""200"" height = ""200"" style = ""float:right""></p><p><img src=images/blank.png width =""800"" height = ""200""></p>","","","","","","","","","","","",""
"","413.88500001630746","sequential-stimulus-presentation","71","206760","0.0-17.0-1.4","SS1613099700623","trial","","40","800","1213.8850000163075","images/stimuli/spore_stims/simple_05_B_b.gif","images/stimuli/spore_stims/simple_17_B_c.gif","","","","","3","simple_dissimilar","images/stimuli/spore_stims/simple_17_B_c.gif","middle","","","","",""
"","null","html-keyboard-response","72","207851","0.0-17.0-0.5","SS1613099700623","","","null","","","","","<p><img src= images/blank.png width =""200"" height = ""200"" style = ""float:right""></p><p><img src=images/blank.png width =""800"" height = ""200""></p>","","","","","","","","","","","",""
"","370.75000000186265","sequential-stimulus-presentation","73","209032","0.0-17.0-1.5","SS1613099700623","trial","","40","800","1170.7500000018626","images/stimuli/spore_stims/simple_05_B_b.gif","images/stimuli/spore_stims/simple_17_B_c.gif","","","","","3","simple_dissimilar","images/stimuli/spore_stims/simple_17_B_c.gif","middle","","","","",""
"","null","html-keyboard-response","74","209999","0.0-17.0-0.6","SS1613099700623","","","null","","","","","<p><img src= images/blank.png width =""200"" height = ""200"" style = ""float:right""></p><p><img src=images/blank.png width =""800"" height = ""200""></p>","","","","","","","","","","","",""
"","313.2749999931548","sequential-stimulus-presentation","75","211120","0.0-17.0-1.6","SS1613099700623","trial","","40","800","1113.2749999931548","images/stimuli/spore_stims/simple_05_B_b.gif","images/stimuli/spore_stims/simple_17_B_c.gif","","","","","3","simple_dissimilar","images/stimuli/spore_stims/simple_17_B_c.gif","middle","","","","",""
"","null","html-keyboard-response","76","212351","0.0-17.0-0.7","SS1613099700623","","","null","","","","","<p><img src= images/blank.png width =""200"" height = ""200"" style = ""float:right""></p><p><img src=images/blank.png width =""800"" height = ""200""></p>","","","","","","","","","","","",""
"","466.4999999804422","sequential-stimulus-presentation","77","213641","0.0-17.0-1.7","SS1613099700623","trial","","40","800","1266.4999999804422","images/stimuli/spore_stims/simple_05_B_b.gif","images/stimuli/spore_stims/simple_17_B_c.gif","","","","","3","simple_dissimilar","images/stimuli/spore_stims/simple_17_B_c.gif","middle","","","","",""
"","1352.8950000181794","html-keyboard-response","78","215000","0.0-18.0","SS1613099700623","pref_question","","97","","","","","<video width ='960' height = '540' style='padding-top:8%' autoplay muted><source src='images/stimuli/wall_pref.mp4' type='video/mp4'></video>","1","left","25%","3","","","","","","","",""
"","2921.5299999923445","sequential-stimulus-presentation","79","218744","0.0-19.0","SS1613099700623","pref_reveal","","40","800","3721.5299999923445","null","null","","","","","3","","","","deviant","","","",""
"","null","html-keyboard-response","80","219686","0.0-20.0-0.0","SS1613099700623","","","null","","","","","<p><img src= images/blank.png width =""200"" height = ""200"" style = ""float:right""></p><p><img src=images/blank.png width =""800"" height = ""200""></p>","","","","","","","","","","","",""
"","3950.119999994058","sequential-stimulus-presentation","81","224449","0.0-20.0-1.0","SS1613099700623","trial","","40","800","4750.119999994058","images/stimuli/spore_stims/simple_19_A_d.gif","images/stimuli/spore_stims/simple_19_B_d.gif","","","","","4","simple_similar","images/stimuli/spore_stims/simple_19_B_d.gif","left","","","","",""
"","null","html-keyboard-response","82","225311","0.0-20.0-0.1","SS1613099700623","","","null","","","","","<p><img src= images/blank.png width =""200"" height = ""200"" style = ""float:right""></p><p><img src=images/blank.png width =""800"" height = ""200""></p>","","","","","","","","","","","",""
"","365.3950000007171","sequential-stimulus-presentation","83","226488","0.0-20.0-1.1","SS1613099700623","trial","","40","800","1165.3950000007171","images/stimuli/spore_stims/simple_19_A_d.gif","images/stimuli/spore_stims/simple_19_B_d.gif","","","","","4","simple_similar","images/stimuli/spore_stims/simple_19_B_d.gif","left","","","","",""
"","null","html-keyboard-response","84","227658","0.0-20.0-0.2","SS1613099700623","","","null","","","","","<p><img src= images/blank.png width =""200"" height = ""200"" style = ""float:right""></p><p><img src=images/blank.png width =""800"" height = ""200""></p>","","","","","","","","","","","",""
"","268.4550000121817","sequential-stimulus-presentation","85","228736","0.0-20.0-1.2","SS1613099700623","trial","","40","800","1068.4550000121817","images/stimuli/spore_stims/simple_19_A_d.gif","images/stimuli/spore_stims/simple_19_B_d.gif","","","","","4","simple_similar","images/stimuli/spore_stims/simple_19_B_d.gif","left","","","","",""
"","null","html-keyboard-response","86","229646","0.0-20.0-0.3","SS1613099700623","","","null","","","","","<p><img src= images/blank.png width =""200"" height = ""200"" style = ""float:right""></p><p><img src=images/blank.png width =""800"" height = ""200""></p>","","","","","","","","","","","",""
"","359.2249999928754","sequential-stimulus-presentation","87","230816","0.0-20.0-1.3","SS1613099700623","trial","","40","800","1159.2249999928754","images/stimuli/spore_stims/simple_19_A_d.gif","images/stimuli/spore_stims/simple_19_B_d.gif","","","","","4","simple_similar","images/stimuli/spore_stims/simple_19_B_d.gif","left","","","","",""
"","null","html-keyboard-response","88","231851","0.0-20.0-0.4","SS1613099700623","","","null","","","","","<p><img src= images/blank.png width =""200"" height = ""200"" style = ""float:right""></p><p><img src=images/blank.png width =""800"" height = ""200""></p>","","","","","","","","","","","",""
"","242.854999989504","sequential-stimulus-presentation","89","232904","0.0-20.0-1.4","SS1613099700623","trial","","40","800","1042.854999989504","images/stimuli/spore_stims/simple_19_A_d.gif","images/stimuli/spore_stims/simple_19_B_d.gif","","","","","4","simple_similar","images/stimuli/spore_stims/simple_19_B_d.gif","left","","","","",""
"","null","html-keyboard-response","90","233857","0.0-20.0-0.5","SS1613099700623","","","null","","","","","<p><img src= images/blank.png width =""200"" height = ""200"" style = ""float:right""></p><p><img src=images/blank.png width =""800"" height = ""200""></p>","","","","","","","","","","","",""
"","1251.94499999634","sequential-stimulus-presentation","91","235929","0.0-20.0-1.5","SS1613099700623","trial","","40","800","2051.94499999634","images/stimuli/spore_stims/simple_19_A_d.gif","images/stimuli/spore_stims/simple_19_B_d.gif","","","","","4","simple_similar","images/stimuli/spore_stims/simple_19_A_d.gif","right","","","","",""
"","null","html-keyboard-response","92","236997","0.0-20.0-0.6","SS1613099700623","","","null","","","","","<p><img src= images/blank.png width =""200"" height = ""200"" style = ""float:right""></p><p><img src=images/blank.png width =""800"" height = ""200""></p>","","","","","","","","","","","",""
"","341.27999999327585","sequential-stimulus-presentation","93","238168","0.0-20.0-1.6","SS1613099700623","trial","","40","800","1141.2799999932759","images/stimuli/spore_stims/simple_19_A_d.gif","images/stimuli/spore_stims/simple_19_B_d.gif","","","","","4","simple_similar","images/stimuli/spore_stims/simple_19_B_d.gif","left","","","","",""
"","null","html-keyboard-response","94","239037","0.0-20.0-0.7","SS1613099700623","","","null","","","","","<p><img src= images/blank.png width =""200"" height = ""200"" style = ""float:right""></p><p><img src=images/blank.png width =""800"" height = ""200""></p>","","","","","","","","","","","",""
"","301.2299999827519","sequential-stimulus-presentation","95","240160","0.0-20.0-1.7","SS1613099700623","trial","","40","800","1101.229999982752","images/stimuli/spore_stims/simple_19_A_d.gif","images/stimuli/spore_stims/simple_19_B_d.gif","","","","","4","simple_similar","images/stimuli/spore_stims/simple_19_B_d.gif","left","","","","",""
"","1488.500000006752","html-keyboard-response","96","241657","0.0-21.0","SS1613099700623","pref_question","","99","","","","","<video width ='960' height = '540' style='padding-top:8%' autoplay muted><source src='images/stimuli/wall_pref.mp4' type='video/mp4'></video>","3","right","66%","4","","","","","","","",""
"","1391.84500000556","sequential-stimulus-presentation","97","243864","0.0-22.0","SS1613099700623","pref_reveal","","40","800","2191.84500000556","null","null","","","","","4","","","","deviant","","","",""
"","null","html-keyboard-response","98","244799","0.0-23.0-0.0","SS1613099700623","","","null","","","","","<p><img src= images/blank.png width =""200"" height = ""200"" style = ""float:right""></p><p><img src=images/blank.png width =""800"" height = ""200""></p>","","","","","","","","","","","",""
"","333.35499998065643","sequential-stimulus-presentation","99","245945","0.0-23.0-1.0","SS1613099700623","trial","","40","800","1133.3549999806564","images/stimuli/spore_stims/simple_16_B_d.gif","images/stimuli/spore_stims/simple_01_B_d.gif","","","","","5","simple_dissimilar","images/stimuli/spore_stims/simple_01_B_d.gif","left","","","","",""
"","null","html-keyboard-response","100","247205","0.0-23.0-0.1","SS1613099700623","","","null","","","","","<p><img src= images/blank.png width =""200"" height = ""200"" style = ""float:right""></p><p><img src=images/blank.png width =""800"" height = ""200""></p>","","","","","","","","","","","",""
"","1947.0250000013039","sequential-stimulus-presentation","101","249968","0.0-23.0-1.1","SS1613099700623","trial","","40","800","2747.025000001304","images/stimuli/spore_stims/simple_16_B_d.gif","images/stimuli/spore_stims/simple_01_B_d.gif","","","","","5","simple_dissimilar","images/stimuli/spore_stims/simple_01_B_d.gif","left","","","","",""
"","null","html-keyboard-response","102","251010","0.0-23.0-0.2","SS1613099700623","","","null","","","","","<p><img src= images/blank.png width =""200"" height = ""200"" style = ""float:right""></p><p><img src=images/blank.png width =""800"" height = ""200""></p>","","","","","","","","","","","",""
"","353.5200000042096","sequential-stimulus-presentation","103","252176","0.0-23.0-1.2","SS1613099700623","trial","","40","800","1153.5200000042096","images/stimuli/spore_stims/simple_16_B_d.gif","images/stimuli/spore_stims/simple_01_B_d.gif","","","","","5","simple_dissimilar","images/stimuli/spore_stims/simple_01_B_d.gif","left","","","","",""
"","null","html-keyboard-response","104","253277","0.0-23.0-0.3","SS1613099700623","","","null","","","","","<p><img src= images/blank.png width =""200"" height = ""200"" style = ""float:right""></p><p><img src=images/blank.png width =""800"" height = ""200""></p>","","","","","","","","","","","",""
"","482.82999999355525","sequential-stimulus-presentation","105","254576","0.0-23.0-1.3","SS1613099700623","trial","","40","800","1282.8299999935552","images/stimuli/spore_stims/simple_16_B_d.gif","images/stimuli/spore_stims/simple_01_B_d.gif","","","","","5","simple_dissimilar","images/stimuli/spore_stims/simple_01_B_d.gif","left","","","","",""
"","null","html-keyboard-response","106","255706","0.0-23.0-0.4","SS1613099700623","","","null","","","","","<p><img src= images/blank.png width =""200"" height = ""200"" style = ""float:right""></p><p><img src=images/blank.png width =""800"" height = ""200""></p>","","","","","","","","","","","",""
"","655.0850000057835","sequential-stimulus-presentation","107","257177","0.0-23.0-1.4","SS1613099700623","trial","","40","800","1455.0850000057835","images/stimuli/spore_stims/simple_16_B_d.gif","images/stimuli/spore_stims/simple_01_B_d.gif","","","","","5","simple_dissimilar","images/stimuli/spore_stims/simple_01_B_d.gif","left","","","","",""
"","null","html-keyboard-response","108","258227","0.0-23.0-0.5","SS1613099700623","","","null","","","","","<p><img src= images/blank.png width =""200"" height = ""200"" style = ""float:right""></p><p><img src=images/blank.png width =""800"" height = ""200""></p>","","","","","","","","","","","",""
"","440.07500002044253","sequential-stimulus-presentation","109","259480","0.0-23.0-1.5","SS1613099700623","trial","","40","800","1240.0750000204425","images/stimuli/spore_stims/simple_16_B_d.gif","images/stimuli/spore_stims/simple_01_B_d.gif","","","","","5","simple_dissimilar","images/stimuli/spore_stims/simple_01_B_d.gif","left","","","","",""
"","null","html-keyboard-response","110","260472","0.0-23.0-0.6","SS1613099700623","","","null","","","","","<p><img src= images/blank.png width =""200"" height = ""200"" style = ""float:right""></p><p><img src=images/blank.png width =""800"" height = ""200""></p>","","","","","","","","","","","",""
"","2275.839999987511","sequential-stimulus-presentation","111","263568","0.0-23.0-1.6","SS1613099700623","trial","","40","800","3075.839999987511","images/stimuli/spore_stims/simple_16_B_d.gif","images/stimuli/spore_stims/simple_01_B_d.gif","","","","","5","simple_dissimilar","images/stimuli/spore_stims/simple_16_B_d.gif","right","","","","",""
"","null","html-keyboard-response","112","264545","0.0-23.0-0.7","SS1613099700623","","","null","","","","","<p><img src= images/blank.png width =""200"" height = ""200"" style = ""float:right""></p><p><img src=images/blank.png width =""800"" height = ""200""></p>","","","","","","","","","","","",""
"","400.7100000162609","sequential-stimulus-presentation","113","265768","0.0-23.0-1.7","SS1613099700623","trial","","40","800","1200.710000016261","images/stimuli/spore_stims/simple_16_B_d.gif","images/stimuli/spore_stims/simple_01_B_d.gif","","","","","5","simple_dissimilar","images/stimuli/spore_stims/simple_01_B_d.gif","left","","","","",""
"","1343.3450000011362","html-keyboard-response","114","267120","0.0-24.0","SS1613099700623","pref_question","","99","","","","","<video width ='960' height = '540' style='padding-top:8%' autoplay muted><source src='images/stimuli/wall_pref.mp4' type='video/mp4'></video>","3","right","66%","5","","","","","","","",""
"","4076.679999998305","sequential-stimulus-presentation","115","272017","0.0-25.0","SS1613099700623","pref_reveal","","40","800","4876.679999998305","null","null","","","","","5","","","","deviant","","","",""
"","null","html-keyboard-response","116","273051","0.0-26.0-0.0","SS1613099700623","","","null","","","","","<p><img src= images/blank.png width =""200"" height = ""200"" style = ""float:right""></p><p><img src=images/blank.png width =""800"" height = ""200""></p>","","","","","","","","","","","",""
"","2644.2000000097323","sequential-stimulus-presentation","117","276520","0.0-26.0-1.0","SS1613099700623","trial","","40","800","3444.2000000097323","images/stimuli/spore_stims/simple_13_B_d.gif","images/stimuli/spore_stims/simple_09_B_a.gif","","","","","6","simple_dissimilar","images/stimuli/spore_stims/simple_09_B_a.gif","left","","","","",""
"","null","html-keyboard-response","118","277535","0.0-26.0-0.1","SS1613099700623","","","null","","","","","<p><img src= images/blank.png width =""200"" height = ""200"" style = ""float:right""></p><p><img src=images/blank.png width =""800"" height = ""200""></p>","","","","","","","","","","","",""
"","853.159999998752","sequential-stimulus-presentation","119","279200","0.0-26.0-1.1","SS1613099700623","trial","","40","800","1653.159999998752","images/stimuli/spore_stims/simple_13_B_d.gif","images/stimuli/spore_stims/simple_09_B_a.gif","","","","","6","simple_dissimilar","images/stimuli/spore_stims/simple_09_B_a.gif","left","","","","",""
"","null","html-keyboard-response","120","280111","0.0-26.0-0.2","SS1613099700623","","","null","","","","","<p><img src= images/blank.png width =""200"" height = ""200"" style = ""float:right""></p><p><img src=images/blank.png width =""800"" height = ""200""></p>","","","","","","","","","","","",""
"","302.8500000073109","sequential-stimulus-presentation","121","281240","0.0-26.0-1.2","SS1613099700623","trial","","40","800","1102.8500000073109","images/stimuli/spore_stims/simple_13_B_d.gif","images/stimuli/spore_stims/simple_09_B_a.gif","","","","","6","simple_dissimilar","images/stimuli/spore_stims/simple_09_B_a.gif","left","","","","",""
"","null","html-keyboard-response","122","282068","0.0-26.0-0.3","SS1613099700623","","","null","","","","","<p><img src= images/blank.png width =""200"" height = ""200"" style = ""float:right""></p><p><img src=images/blank.png width =""800"" height = ""200""></p>","","","","","","","","","","","",""
"","288.18000000319444","sequential-stimulus-presentation","123","283176","0.0-26.0-1.3","SS1613099700623","trial","","40","800","1088.1800000031944","images/stimuli/spore_stims/simple_13_B_d.gif","images/stimuli/spore_stims/simple_09_B_a.gif","","","","","6","simple_dissimilar","images/stimuli/spore_stims/simple_09_B_a.gif","left","","","","",""
"","null","html-keyboard-response","124","284465","0.0-26.0-0.4","SS1613099700623","","","null","","","","","<p><img src= images/blank.png width =""200"" height = ""200"" style = ""float:right""></p><p><img src=images/blank.png width =""800"" height = ""200""></p>","","","","","","","","","","","",""
"","2235.87000000407","sequential-stimulus-presentation","125","287528","0.0-26.0-1.4","SS1613099700623","trial","","40","800","3035.87000000407","images/stimuli/spore_stims/simple_13_B_d.gif","images/stimuli/spore_stims/simple_09_B_a.gif","","","","","6","simple_dissimilar","images/stimuli/spore_stims/simple_13_B_d.gif","middle","","","","",""
"","null","html-keyboard-response","126","288416","0.0-26.0-0.5","SS1613099700623","","","null","","","","","<p><img src= images/blank.png width =""200"" height = ""200"" style = ""float:right""></p><p><img src=images/blank.png width =""800"" height = ""200""></p>","","","","","","","","","","","",""
"","482.66499998862855","sequential-stimulus-presentation","127","289712","0.0-26.0-1.5","SS1613099700623","trial","","40","800","1282.6649999886286","images/stimuli/spore_stims/simple_13_B_d.gif","images/stimuli/spore_stims/simple_09_B_a.gif","","","","","6","simple_dissimilar","images/stimuli/spore_stims/simple_09_B_a.gif","left","","","","",""
"","null","html-keyboard-response","128","290887","0.0-26.0-0.6","SS1613099700623","","","null","","","","","<p><img src= images/blank.png width =""200"" height = ""200"" style = ""float:right""></p><p><img src=images/blank.png width =""800"" height = ""200""></p>","","","","","","","","","","","",""
"","276.66999999200925","sequential-stimulus-presentation","129","291976","0.0-26.0-1.6","SS1613099700623","trial","","40","800","1076.6699999920093","images/stimuli/spore_stims/simple_13_B_d.gif","images/stimuli/spore_stims/simple_09_B_a.gif","","","","","6","simple_dissimilar","images/stimuli/spore_stims/simple_09_B_a.gif","left","","","","",""
"","null","html-keyboard-response","130","292860","0.0-26.0-0.7","SS1613099700623","","","null","","","","","<p><img src= images/blank.png width =""200"" height = ""200"" style = ""float:right""></p><p><img src=images/blank.png width =""800"" height = ""200""></p>","","","","","","","","","","","",""
"","276.4899999892805","sequential-stimulus-presentation","131","293960","0.0-26.0-1.7","SS1613099700623","trial","","40","800","1076.4899999892805","images/stimuli/spore_stims/simple_13_B_d.gif","images/stimuli/spore_stims/simple_09_B_a.gif","","","","","6","simple_dissimilar","images/stimuli/spore_stims/simple_09_B_a.gif","left","","","","",""
"","1438.0099999834783","html-keyboard-response","132","295408","0.0-27.0","SS1613099700623","pref_question","","99","","","","","<video width ='960' height = '540' style='padding-top:8%' autoplay muted><source src='images/stimuli/wall_pref.mp4' type='video/mp4'></video>","3","right","66%","6","","","","","","","",""
"","2246.5050000173505","sequential-stimulus-presentation","133","298471","0.0-28.0","SS1613099700623","pref_reveal","","40","800","3046.5050000173505","null","null","","","","","6","","","","novel","","","",""
"","null","html-keyboard-response","134","299407","0.0-29.0-0.0","SS1613099700623","","","null","","","","","<p><img src= images/blank.png width =""200"" height = ""200"" style = ""float:right""></p><p><img src=images/blank.png width =""800"" height = ""200""></p>","","","","","","","","","","","",""
"","809.2949999845587","sequential-stimulus-presentation","135","301039","0.0-29.0-1.0","SS1613099700623","trial","","40","800","1609.2949999845587","images/stimuli/spore_stims/complex_12_B_a.gif","images/stimuli/spore_stims/complex_07_B_a.gif","","","","","7","complex_dissimilar","images/stimuli/spore_stims/complex_07_B_a.gif","left","","","","",""
"","null","html-keyboard-response","136","302340","0.0-29.0-0.1","SS1613099700623","","","null","","","","","<p><img src= images/blank.png width =""200"" height = ""200"" style = ""float:right""></p><p><img src=images/blank.png width =""800"" height = ""200""></p>","","","","","","","","","","","",""
"","352.5250000238884","sequential-stimulus-presentation","137","303504","0.0-29.0-1.1","SS1613099700623","trial","","40","800","1152.5250000238884","images/stimuli/spore_stims/complex_12_B_a.gif","images/stimuli/spore_stims/complex_07_B_a.gif","","","","","7","complex_dissimilar","images/stimuli/spore_stims/complex_07_B_a.gif","left","","","","",""
"","null","html-keyboard-response","138","304344","0.0-29.0-0.2","SS1613099700623","","","null","","","","","<p><img src= images/blank.png width =""200"" height = ""200"" style = ""float:right""></p><p><img src=images/blank.png width =""800"" height = ""200""></p>","","","","","","","","","","","",""
"","230.17500000423752","sequential-stimulus-presentation","139","305401","0.0-29.0-1.2","SS1613099700623","trial","","40","800","1030.1750000042375","images/stimuli/spore_stims/complex_12_B_a.gif","images/stimuli/spore_stims/complex_07_B_a.gif","","","","","7","complex_dissimilar","images/stimuli/spore_stims/complex_07_B_a.gif","left","","","","",""
"","null","html-keyboard-response","140","306461","0.0-29.0-0.3","SS1613099700623","","","null","","","","","<p><img src= images/blank.png width =""200"" height = ""200"" style = ""float:right""></p><p><img src=images/blank.png width =""800"" height = ""200""></p>","","","","","","","","","","","",""
"","176.74499997519888","sequential-stimulus-presentation","141","307463","0.0-29.0-1.3","SS1613099700623","trial","","40","800","976.7449999751989","images/stimuli/spore_stims/complex_12_B_a.gif","images/stimuli/spore_stims/complex_07_B_a.gif","","","","","7","complex_dissimilar","images/stimuli/spore_stims/complex_07_B_a.gif","left","","","","",""
"","null","html-keyboard-response","142","308777","0.0-29.0-0.4","SS1613099700623","","","null","","","","","<p><img src= images/blank.png width =""200"" height = ""200"" style = ""float:right""></p><p><img src=images/blank.png width =""800"" height = ""200""></p>","","","","","","","","","","","",""
"","1273.365000000922","sequential-stimulus-presentation","143","310879","0.0-29.0-1.4","SS1613099700623","trial","","40","800","2073.365000000922","images/stimuli/spore_stims/complex_12_B_a.gif","images/stimuli/spore_stims/complex_07_B_a.gif","","","","","7","complex_dissimilar","images/stimuli/spore_stims/complex_12_B_a.gif","middle","","","","",""
"","null","html-keyboard-response","144","311831","0.0-29.0-0.5","SS1613099700623","","","null","","","","","<p><img src= images/blank.png width =""200"" height = ""200"" style = ""float:right""></p><p><img src=images/blank.png width =""800"" height = ""200""></p>","","","","","","","","","","","",""
"","411.98000000440516","sequential-stimulus-presentation","145","313071","0.0-29.0-1.5","SS1613099700623","trial","","40","800","1211.9800000044052","images/stimuli/spore_stims/complex_12_B_a.gif","images/stimuli/spore_stims/complex_07_B_a.gif","","","","","7","complex_dissimilar","images/stimuli/spore_stims/complex_07_B_a.gif","left","","","","",""
"","null","html-keyboard-response","146","313901","0.0-29.0-0.6","SS1613099700623","","","null","","","","","<p><img src= images/blank.png width =""200"" height = ""200"" style = ""float:right""></p><p><img src=images/blank.png width =""800"" height = ""200""></p>","","","","","","","","","","","",""
"","413.6249999864958","sequential-stimulus-presentation","147","315127","0.0-29.0-1.6","SS1613099700623","trial","","40","800","1213.6249999864958","images/stimuli/spore_stims/complex_12_B_a.gif","images/stimuli/spore_stims/complex_07_B_a.gif","","","","","7","complex_dissimilar","images/stimuli/spore_stims/complex_07_B_a.gif","left","","","","",""
"","null","html-keyboard-response","148","315942","0.0-29.0-0.7","SS1613099700623","","","null","","","","","<p><img src= images/blank.png width =""200"" height = ""200"" style = ""float:right""></p><p><img src=images/blank.png width =""800"" height = ""200""></p>","","","","","","","","","","","",""
"","303.9299999945797","sequential-stimulus-presentation","149","317072","0.0-29.0-1.7","SS1613099700623","trial","","40","800","1103.9299999945797","images/stimuli/spore_stims/complex_12_B_a.gif","images/stimuli/spore_stims/complex_07_B_a.gif","","","","","7","complex_dissimilar","images/stimuli/spore_stims/complex_07_B_a.gif","left","","","","",""
"","1333.4050000121351","html-keyboard-response","150","318415","0.0-30.0","SS1613099700623","pref_question","","99","","","","","<video width ='960' height = '540' style='padding-top:8%' autoplay muted><source src='images/stimuli/wall_pref.mp4' type='video/mp4'></video>","3","right","66%","7","","","","","","","",""
"","2613.9600000169594","sequential-stimulus-presentation","151","321855","0.0-31.0","SS1613099700623","pref_reveal","","40","800","3413.9600000169594","null","null","","","","","7","","","","novel","","","",""
"","null","html-keyboard-response","152","322754","0.0-32.0-0.0","SS1613099700623","","","null","","","","","<p><img src= images/blank.png width =""200"" height = ""200"" style = ""float:right""></p><p><img src=images/blank.png width =""800"" height = ""200""></p>","","","","","","","","","","","",""
"","311.54500000411645","sequential-stimulus-presentation","153","323879","0.0-32.0-1.0","SS1613099700623","trial","","40","800","1111.5450000041164","images/stimuli/spore_stims/complex_11_A_a.gif","images/stimuli/spore_stims/complex_08_B_b.gif","","","","","8","complex_dissimilar","images/stimuli/spore_stims/complex_08_B_b.gif","left","","","","",""
"","null","html-keyboard-response","154","325075","0.0-32.0-0.1","SS1613099700623","","","null","","","","","<p><img src= images/blank.png width =""200"" height = ""200"" style = ""float:right""></p><p><img src=images/blank.png width =""800"" height = ""200""></p>","","","","","","","","","","","",""
"","273.7549999728799","sequential-stimulus-presentation","155","326175","0.0-32.0-1.1","SS1613099700623","trial","","40","800","1073.75499997288","images/stimuli/spore_stims/complex_11_A_a.gif","images/stimuli/spore_stims/complex_08_B_b.gif","","","","","8","complex_dissimilar","images/stimuli/spore_stims/complex_08_B_b.gif","left","","","","",""
"","null","html-keyboard-response","156","327430","0.0-32.0-0.2","SS1613099700623","","","null","","","","","<p><img src= images/blank.png width =""200"" height = ""200"" style = ""float:right""></p><p><img src=images/blank.png width =""800"" height = ""200""></p>","","","","","","","","","","","",""
"","528.8149999978486","sequential-stimulus-presentation","157","328784","0.0-32.0-1.2","SS1613099700623","trial","","40","800","1328.8149999978486","images/stimuli/spore_stims/complex_11_A_a.gif","images/stimuli/spore_stims/complex_08_B_b.gif","","","","","8","complex_dissimilar","images/stimuli/spore_stims/complex_11_A_a.gif","right","","","","",""
"","null","html-keyboard-response","158","330065","0.0-32.0-0.3","SS1613099700623","","","null","","","","","<p><img src= images/blank.png width =""200"" height = ""200"" style = ""float:right""></p><p><img src=images/blank.png width =""800"" height = ""200""></p>","","","","","","","","","","","",""
"","407.7300000062678","sequential-stimulus-presentation","159","331287","0.0-32.0-1.3","SS1613099700623","trial","","40","800","1207.7300000062678","images/stimuli/spore_stims/complex_11_A_a.gif","images/stimuli/spore_stims/complex_08_B_b.gif","","","","","8","complex_dissimilar","images/stimuli/spore_stims/complex_08_B_b.gif","left","","","","",""
"","null","html-keyboard-response","160","332352","0.0-32.0-0.4","SS1613099700623","","","null","","","","","<p><img src= images/blank.png width =""200"" height = ""200"" style = ""float:right""></p><p><img src=images/blank.png width =""800"" height = ""200""></p>","","","","","","","","","","","",""
"","541.5649999922607","sequential-stimulus-presentation","161","333719","0.0-32.0-1.4","SS1613099700623","trial","","40","800","1341.5649999922607","images/stimuli/spore_stims/complex_11_A_a.gif","images/stimuli/spore_stims/complex_08_B_b.gif","","","","","8","complex_dissimilar","images/stimuli/spore_stims/complex_08_B_b.gif","left","","","","",""
"","null","html-keyboard-response","162","334621","0.0-32.0-0.5","SS1613099700623","","","null","","","","","<p><img src= images/blank.png width =""200"" height = ""200"" style = ""float:right""></p><p><img src=images/blank.png width =""800"" height = ""200""></p>","","","","","","","","","","","",""
"","411.8799999996554","sequential-stimulus-presentation","163","335847","0.0-32.0-1.5","SS1613099700623","trial","","40","800","1211.8799999996554","images/stimuli/spore_stims/complex_11_A_a.gif","images/stimuli/spore_stims/complex_08_B_b.gif","","","","","8","complex_dissimilar","images/stimuli/spore_stims/complex_08_B_b.gif","left","","","","",""
"","null","html-keyboard-response","164","337130","0.0-32.0-0.6","SS1613099700623","","","null","","","","","<p><img src= images/blank.png width =""200"" height = ""200"" style = ""float:right""></p><p><img src=images/blank.png width =""800"" height = ""200""></p>","","","","","","","","","","","",""
"","342.23999999812804","sequential-stimulus-presentation","165","338295","0.0-32.0-1.6","SS1613099700623","trial","","40","800","1142.239999998128","images/stimuli/spore_stims/complex_11_A_a.gif","images/stimuli/spore_stims/complex_08_B_b.gif","","","","","8","complex_dissimilar","images/stimuli/spore_stims/complex_08_B_b.gif","left","","","","",""
"","null","html-keyboard-response","166","339312","0.0-32.0-0.7","SS1613099700623","","","null","","","","","<p><img src= images/blank.png width =""200"" height = ""200"" style = ""float:right""></p><p><img src=images/blank.png width =""800"" height = ""200""></p>","","","","","","","","","","","",""
"","313.88000000151806","sequential-stimulus-presentation","167","340440","0.0-32.0-1.7","SS1613099700623","trial","","40","800","1113.880000001518","images/stimuli/spore_stims/complex_11_A_a.gif","images/stimuli/spore_stims/complex_08_B_b.gif","","","","","8","complex_dissimilar","images/stimuli/spore_stims/complex_08_B_b.gif","left","","","","",""
"","1401.7649999877904","html-keyboard-response","168","341855","0.0-33.0","SS1613099700623","pref_question","","98","","","","","<video width ='960' height = '540' style='padding-top:8%' autoplay muted><source src='images/stimuli/wall_pref.mp4' type='video/mp4'></video>","2","middle","45%","8","","","","","","","",""
"","4730.964999995194","sequential-stimulus-presentation","169","347407","0.0-34.0","SS1613099700623","pref_reveal","","40","800","5530.964999995194","null","null","","","","","8","","","","novel","","","",""
"","null","html-keyboard-response","170","348361","0.0-35.0-0.0","SS1613099700623","","","null","","","","","<p><img src= images/blank.png width =""200"" height = ""200"" style = ""float:right""></p><p><img src=images/blank.png width =""800"" height = ""200""></p>","","","","","","","","","","","",""
"","1064.2700000025798","sequential-stimulus-presentation","171","350239","0.0-35.0-1.0","SS1613099700623","trial","","40","800","1864.2700000025798","images/stimuli/spore_stims/complex_17_B_a.gif","images/stimuli/spore_stims/complex_17_A_a.gif","","","","","9","complex_similar","images/stimuli/spore_stims/complex_17_A_a.gif","left","","","","",""
"","null","html-keyboard-response","172","351523","0.0-35.0-0.1","SS1613099700623","","","null","","","","","<p><img src= images/blank.png width =""200"" height = ""200"" style = ""float:right""></p><p><img src=images/blank.png width =""800"" height = ""200""></p>","","","","","","","","","","","",""
"","409.9299999943469","sequential-stimulus-presentation","173","352759","0.0-35.0-1.1","SS1613099700623","trial","","40","800","1209.9299999943469","images/stimuli/spore_stims/complex_17_B_a.gif","images/stimuli/spore_stims/complex_17_A_a.gif","","","","","9","complex_similar","images/stimuli/spore_stims/complex_17_A_a.gif","left","","","","",""
"","null","html-keyboard-response","174","353899","0.0-35.0-0.2","SS1613099700623","","","null","","","","","<p><img src= images/blank.png width =""200"" height = ""200"" style = ""float:right""></p><p><img src=images/blank.png width =""800"" height = ""200""></p>","","","","","","","","","","","",""
"","405.49500001361594","sequential-stimulus-presentation","175","355134","0.0-35.0-1.2","SS1613099700623","trial","","40","800","1205.495000013616","images/stimuli/spore_stims/complex_17_B_a.gif","images/stimuli/spore_stims/complex_17_A_a.gif","","","","","9","complex_similar","images/stimuli/spore_stims/complex_17_A_a.gif","left","","","","",""
"","null","html-keyboard-response","176","356136","0.0-35.0-0.3","SS1613099700623","","","null","","","","","<p><img src= images/blank.png width =""200"" height = ""200"" style = ""float:right""></p><p><img src=images/blank.png width =""800"" height = ""200""></p>","","","","","","","","","","","",""
"","975.6249999918509","sequential-stimulus-presentation","177","357934","0.0-35.0-1.3","SS1613099700623","trial","","40","800","1775.624999991851","images/stimuli/spore_stims/complex_17_B_a.gif","images/stimuli/spore_stims/complex_17_A_a.gif","","","","","9","complex_similar","images/stimuli/spore_stims/complex_17_A_a.gif","left","","","","",""
"","null","html-keyboard-response","178","358976","0.0-35.0-0.4","SS1613099700623","","","null","","","","","<p><img src= images/blank.png width =""200"" height = ""200"" style = ""float:right""></p><p><img src=images/blank.png width =""800"" height = ""200""></p>","","","","","","","","","","","",""
"","598.1349999783561","sequential-stimulus-presentation","179","360398","0.0-35.0-1.4","SS1613099700623","trial","","40","800","1398.134999978356","images/stimuli/spore_stims/complex_17_B_a.gif","images/stimuli/spore_stims/complex_17_A_a.gif","","","","","9","complex_similar","images/stimuli/spore_stims/complex_17_B_a.gif","right","","","","",""
"","null","html-keyboard-response","180","361589","0.0-35.0-0.5","SS1613099700623","","","null","","","","","<p><img src= images/blank.png width =""200"" height = ""200"" style = ""float:right""></p><p><img src=images/blank.png width =""800"" height = ""200""></p>","","","","","","","","","","","",""
"","403.5699999949429","sequential-stimulus-presentation","181","362807","0.0-35.0-1.5","SS1613099700623","trial","","40","800","1203.569999994943","images/stimuli/spore_stims/complex_17_B_a.gif","images/stimuli/spore_stims/complex_17_A_a.gif","","","","","9","complex_similar","images/stimuli/spore_stims/complex_17_A_a.gif","left","","","","",""
"","null","html-keyboard-response","182","363858","0.0-35.0-0.6","SS1613099700623","","","null","","","","","<p><img src= images/blank.png width =""200"" height = ""200"" style = ""float:right""></p><p><img src=images/blank.png width =""800"" height = ""200""></p>","","","","","","","","","","","",""
"","365.54999998770654","sequential-stimulus-presentation","183","365038","0.0-35.0-1.6","SS1613099700623","trial","","40","800","1165.5499999877065","images/stimuli/spore_stims/complex_17_B_a.gif","images/stimuli/spore_stims/complex_17_A_a.gif","","","","","9","complex_similar","images/stimuli/spore_stims/complex_17_A_a.gif","left","","","","",""
"","null","html-keyboard-response","184","366176","0.0-35.0-0.7","SS1613099700623","","","null","","","","","<p><img src= images/blank.png width =""200"" height = ""200"" style = ""float:right""></p><p><img src=images/blank.png width =""800"" height = ""200""></p>","","","","","","","","","","","",""
"","624.6049999899697","sequential-stimulus-presentation","185","367622","0.0-35.0-1.7","SS1613099700623","trial","","40","800","1424.6049999899697","images/stimuli/spore_stims/complex_17_B_a.gif","images/stimuli/spore_stims/complex_17_A_a.gif","","","","","9","complex_similar","images/stimuli/spore_stims/complex_17_A_a.gif","left","","","","",""
"","3971.755000005942","html-keyboard-response","186","371607","0.0-36.0","SS1613099700623","pref_question","","98","","","","","<video width ='960' height = '540' style='padding-top:8%' autoplay muted><source src='images/stimuli/wall_pref.mp4' type='video/mp4'></video>","2","middle","45%","9","","","","","","","",""
"","1756.7300000227988","sequential-stimulus-presentation","187","374183","0.0-37.0","SS1613099700623","pref_reveal","","40","800","2556.730000022799","null","null","","","","","9","","","","novel","","","",""
"","null","html-keyboard-response","188","375082","0.0-38.0-0.0","SS1613099700623","","","null","","","","","<p><img src= images/blank.png width =""200"" height = ""200"" style = ""float:right""></p><p><img src=images/blank.png width =""800"" height = ""200""></p>","","","","","","","","","","","",""
"","946.9000000099186","sequential-stimulus-presentation","189","376854","0.0-38.0-1.0","SS1613099700623","trial","","40","800","1746.9000000099186","images/stimuli/spore_stims/complex_03_A_d.gif","images/stimuli/spore_stims/complex_03_B_d.gif","","","","","10","complex_similar","images/stimuli/spore_stims/complex_03_B_d.gif","left","","","","",""
"","null","html-keyboard-response","190","378143","0.0-38.0-0.1","SS1613099700623","","","null","","","","","<p><img src= images/blank.png width =""200"" height = ""200"" style = ""float:right""></p><p><img src=images/blank.png width =""800"" height = ""200""></p>","","","","","","","","","","","",""
"","311.54999998398125","sequential-stimulus-presentation","191","379278","0.0-38.0-1.1","SS1613099700623","trial","","40","800","1111.5499999839813","images/stimuli/spore_stims/complex_03_A_d.gif","images/stimuli/spore_stims/complex_03_B_d.gif","","","","","10","complex_similar","images/stimuli/spore_stims/complex_03_B_d.gif","left","","","","",""
"","null","html-keyboard-response","192","380580","0.0-38.0-0.2","SS1613099700623","","","null","","","","","<p><img src= images/blank.png width =""200"" height = ""200"" style = ""float:right""></p><p><img src=images/blank.png width =""800"" height = ""200""></p>","","","","","","","","","","","",""
"","276.255000004312","sequential-stimulus-presentation","193","381670","0.0-38.0-1.2","SS1613099700623","trial","","40","800","1076.255000004312","images/stimuli/spore_stims/complex_03_A_d.gif","images/stimuli/spore_stims/complex_03_B_d.gif","","","","","10","complex_similar","images/stimuli/spore_stims/complex_03_B_d.gif","left","","","","",""
"","null","html-keyboard-response","194","382741","0.0-38.0-0.3","SS1613099700623","","","null","","","","","<p><img src= images/blank.png width =""200"" height = ""200"" style = ""float:right""></p><p><img src=images/blank.png width =""800"" height = ""200""></p>","","","","","","","","","","","",""
"","312.52999999560416","sequential-stimulus-presentation","195","383878","0.0-38.0-1.3","SS1613099700623","trial","","40","800","1112.5299999956042","images/stimuli/spore_stims/complex_03_A_d.gif","images/stimuli/spore_stims/complex_03_B_d.gif","","","","","10","complex_similar","images/stimuli/spore_stims/complex_03_A_d.gif","right","","","","",""
"","null","html-keyboard-response","196","384729","0.0-38.0-0.4","SS1613099700623","","","null","","","","","<p><img src= images/blank.png width =""200"" height = ""200"" style = ""float:right""></p><p><img src=images/blank.png width =""800"" height = ""200""></p>","","","","","","","","","","","",""
"","404.6049999888055","sequential-stimulus-presentation","197","385959","0.0-38.0-1.4","SS1613099700623","trial","","40","800","1204.6049999888055","images/stimuli/spore_stims/complex_03_A_d.gif","images/stimuli/spore_stims/complex_03_B_d.gif","","","","","10","complex_similar","images/stimuli/spore_stims/complex_03_B_d.gif","left","","","","",""
"","null","html-keyboard-response","198","387050","0.0-38.0-0.5","SS1613099700623","","","null","","","","","<p><img src= images/blank.png width =""200"" height = ""200"" style = ""float:right""></p><p><img src=images/blank.png width =""800"" height = ""200""></p>","","","","","","","","","","","",""
"","293.6749999935273","sequential-stimulus-presentation","199","388158","0.0-38.0-1.5","SS1613099700623","trial","","40","800","1093.6749999935273","images/stimuli/spore_stims/complex_03_A_d.gif","images/stimuli/spore_stims/complex_03_B_d.gif","","","","","10","complex_similar","images/stimuli/spore_stims/complex_03_B_d.gif","left","","","","",""
"","null","html-keyboard-response","200","389327","0.0-38.0-0.6","SS1613099700623","","","null","","","","","<p><img src= images/blank.png width =""200"" height = ""200"" style = ""float:right""></p><p><img src=images/blank.png width =""800"" height = ""200""></p>","","","","","","","","","","","",""
"","599.0949999832083","sequential-stimulus-presentation","201","390750","0.0-38.0-1.6","SS1613099700623","trial","","40","800","1399.0949999832083","images/stimuli/spore_stims/complex_03_A_d.gif","images/stimuli/spore_stims/complex_03_B_d.gif","","","","","10","complex_similar","images/stimuli/spore_stims/complex_03_B_d.gif","left","","","","",""
"","null","html-keyboard-response","202","391952","0.0-38.0-0.7","SS1613099700623","","","null","","","","","<p><img src= images/blank.png width =""200"" height = ""200"" style = ""float:right""></p><p><img src=images/blank.png width =""800"" height = ""200""></p>","","","","","","","","","","","",""
"","374.8199999972712","sequential-stimulus-presentation","203","393150","0.0-38.0-1.7","SS1613099700623","trial","","40","800","1174.8199999972712","images/stimuli/spore_stims/complex_03_A_d.gif","images/stimuli/spore_stims/complex_03_B_d.gif","","","","","10","complex_similar","images/stimuli/spore_stims/complex_03_B_d.gif","left","","","","",""
"","1323.2649999845307","html-keyboard-response","204","394486","0.0-39.0","SS1613099700623","pref_question","","98","","","","","<video width ='960' height = '540' style='padding-top:8%' autoplay muted><source src='images/stimuli/wall_pref.mp4' type='video/mp4'></video>","2","middle","45%","10","","","","","","","",""
"","2107.6049999974202","sequential-stimulus-presentation","205","397422","0.0-40.0","SS1613099700623","pref_reveal","","40","800","2907.6049999974202","null","null","","","","","10","","","","novel","","","",""
"","null","html-keyboard-response","206","398359","0.0-41.0-0.0","SS1613099700623","","","null","","","","","<p><img src= images/blank.png width =""200"" height = ""200"" style = ""float:right""></p><p><img src=images/blank.png width =""800"" height = ""200""></p>","","","","","","","","","","","",""
"","1191.3099999947008","sequential-stimulus-presentation","207","400366","0.0-41.0-1.0","SS1613099700623","trial","","40","800","1991.3099999947008","images/stimuli/spore_stims/simple_12_A_c.gif","images/stimuli/spore_stims/simple_12_B_c.gif","","","","","11","simple_similar","images/stimuli/spore_stims/simple_12_B_c.gif","right","","","","",""
"","null","html-keyboard-response","208","401359","0.0-41.0-0.1","SS1613099700623","","","null","","","","","<p><img src= images/blank.png width =""200"" height = ""200"" style = ""float:right""></p><p><img src=images/blank.png width =""800"" height = ""200""></p>","","","","","","","","","","","",""
"","862.2150000010151","sequential-stimulus-presentation","209","403046","0.0-41.0-1.1","SS1613099700623","trial","","40","800","1662.2150000010151","images/stimuli/spore_stims/simple_12_A_c.gif","images/stimuli/spore_stims/simple_12_B_c.gif","","","","","11","simple_similar","images/stimuli/spore_stims/simple_12_B_c.gif","right","","","","",""
"","null","html-keyboard-response","210","404219","0.0-41.0-0.2","SS1613099700623","","","null","","","","","<p><img src= images/blank.png width =""200"" height = ""200"" style = ""float:right""></p><p><img src=images/blank.png width =""800"" height = ""200""></p>","","","","","","","","","","","",""
"","335.68499999819323","sequential-stimulus-presentation","211","405382","0.0-41.0-1.2","SS1613099700623","trial","","40","800","1135.6849999981932","images/stimuli/spore_stims/simple_12_A_c.gif","images/stimuli/spore_stims/simple_12_B_c.gif","","","","","11","simple_similar","images/stimuli/spore_stims/simple_12_B_c.gif","right","","","","",""
"","null","html-keyboard-response","212","406382","0.0-41.0-0.3","SS1613099700623","","","null","","","","","<p><img src= images/blank.png width =""200"" height = ""200"" style = ""float:right""></p><p><img src=images/blank.png width =""800"" height = ""200""></p>","","","","","","","","","","","",""
"","313.2799999730196","sequential-stimulus-presentation","213","407510","0.0-41.0-1.3","SS1613099700623","trial","","40","800","1113.2799999730196","images/stimuli/spore_stims/simple_12_A_c.gif","images/stimuli/spore_stims/simple_12_B_c.gif","","","","","11","simple_similar","images/stimuli/spore_stims/simple_12_B_c.gif","right","","","","",""
"","null","html-keyboard-response","214","408373","0.0-41.0-0.4","SS1613099700623","","","null","","","","","<p><img src= images/blank.png width =""200"" height = ""200"" style = ""float:right""></p><p><img src=images/blank.png width =""800"" height = ""200""></p>","","","","","","","","","","","",""
"","470.1350000104867","sequential-stimulus-presentation","215","409670","0.0-41.0-1.4","SS1613099700623","trial","","40","800","1270.1350000104867","images/stimuli/spore_stims/simple_12_A_c.gif","images/stimuli/spore_stims/simple_12_B_c.gif","","","","","11","simple_similar","images/stimuli/spore_stims/simple_12_B_c.gif","right","","","","",""
"","null","html-keyboard-response","216","410974","0.0-41.0-0.5","SS1613099700623","","","null","","","","","<p><img src= images/blank.png width =""200"" height = ""200"" style = ""float:right""></p><p><img src=images/blank.png width =""800"" height = ""200""></p>","","","","","","","","","","","",""
"","834.6149999997579","sequential-stimulus-presentation","217","412638","0.0-41.0-1.5","SS1613099700623","trial","","40","800","1634.6149999997579","images/stimuli/spore_stims/simple_12_A_c.gif","images/stimuli/spore_stims/simple_12_B_c.gif","","","","","11","simple_similar","images/stimuli/spore_stims/simple_12_A_c.gif","middle","","","","",""
"","null","html-keyboard-response","218","413569","0.0-41.0-0.6","SS1613099700623","","","null","","","","","<p><img src= images/blank.png width =""200"" height = ""200"" style = ""float:right""></p><p><img src=images/blank.png width =""800"" height = ""200""></p>","","","","","","","","","","","",""
"","664.4150000065565","sequential-stimulus-presentation","219","415062","0.0-41.0-1.6","SS1613099700623","trial","","40","800","1464.4150000065565","images/stimuli/spore_stims/simple_12_A_c.gif","images/stimuli/spore_stims/simple_12_B_c.gif","","","","","11","simple_similar","images/stimuli/spore_stims/simple_12_B_c.gif","right","","","","",""
"","null","html-keyboard-response","220","415885","0.0-41.0-0.7","SS1613099700623","","","null","","","","","<p><img src= images/blank.png width =""200"" height = ""200"" style = ""float:right""></p><p><img src=images/blank.png width =""800"" height = ""200""></p>","","","","","","","","","","","",""
"","376.4650000084657","sequential-stimulus-presentation","221","417086","0.0-41.0-1.7","SS1613099700623","trial","","40","800","1176.4650000084657","images/stimuli/spore_stims/simple_12_A_c.gif","images/stimuli/spore_stims/simple_12_B_c.gif","","","","","11","simple_similar","images/stimuli/spore_stims/simple_12_B_c.gif","right","","","","",""
"","1131.4750000019558","html-keyboard-response","222","418231","0.0-42.0","SS1613099700623","pref_question","","98","","","","","<video width ='960' height = '540' style='padding-top:8%' autoplay muted><source src='images/stimuli/wall_pref.mp4' type='video/mp4'></video>","2","middle","45%","11","","","","","","","",""
"","2108.505000011064","sequential-stimulus-presentation","223","421158","0.0-43.0","SS1613099700623","pref_reveal","","40","800","2908.505000011064","null","null","","","","","11","","","","deviant","","","",""
"","null","html-keyboard-response","224","422111","0.0-44.0-0.0","SS1613099700623","","","null","","","","","<p><img src= images/blank.png width =""200"" height = ""200"" style = ""float:right""></p><p><img src=images/blank.png width =""800"" height = ""200""></p>","","","","","","","","","","","",""
"","909.8050000029616","sequential-stimulus-presentation","225","423846","0.0-44.0-1.0","SS1613099700623","trial","","40","800","1709.8050000029616","images/stimuli/spore_stims/complex_16_B_b.gif","images/stimuli/spore_stims/complex_16_A_b.gif","","","","","12","complex_similar","images/stimuli/spore_stims/complex_16_A_b.gif","right","","","","",""
"","null","html-keyboard-response","226","424990","0.0-44.0-0.1","SS1613099700623","","","null","","","","","<p><img src= images/blank.png width =""200"" height = ""200"" style = ""float:right""></p><p><img src=images/blank.png width =""800"" height = ""200""></p>","","","","","","","","","","","",""
"","534.4650000042748","sequential-stimulus-presentation","227","426350","0.0-44.0-1.1","SS1613099700623","trial","","40","800","1334.4650000042748","images/stimuli/spore_stims/complex_16_B_b.gif","images/stimuli/spore_stims/complex_16_A_b.gif","","","","","12","complex_similar","images/stimuli/spore_stims/complex_16_A_b.gif","right","","","","",""
"","null","html-keyboard-response","228","427570","0.0-44.0-0.2","SS1613099700623","","","null","","","","","<p><img src= images/blank.png width =""200"" height = ""200"" style = ""float:right""></p><p><img src=images/blank.png width =""800"" height = ""200""></p>","","","","","","","","","","","",""
"","1526.7199999943841","sequential-stimulus-presentation","229","429919","0.0-44.0-1.2","SS1613099700623","trial","","40","800","2326.719999994384","images/stimuli/spore_stims/complex_16_B_b.gif","images/stimuli/spore_stims/complex_16_A_b.gif","","","","","12","complex_similar","images/stimuli/spore_stims/complex_16_A_b.gif","right","","","","",""
"","null","html-keyboard-response","230","430871","0.0-44.0-0.3","SS1613099700623","","","null","","","","","<p><img src= images/blank.png width =""200"" height = ""200"" style = ""float:right""></p><p><img src=images/blank.png width =""800"" height = ""200""></p>","","","","","","","","","","","",""
"","3422.1050000051036","sequential-stimulus-presentation","231","435118","0.0-44.0-1.3","SS1613099700623","trial","","40","800","4222.105000005104","images/stimuli/spore_stims/complex_16_B_b.gif","images/stimuli/spore_stims/complex_16_A_b.gif","","","","","12","complex_similar","images/stimuli/spore_stims/complex_16_A_b.gif","right","","","","",""
"","null","html-keyboard-response","232","436311","0.0-44.0-0.4","SS1613099700623","","","null","","","","","<p><img src= images/blank.png width =""200"" height = ""200"" style = ""float:right""></p><p><img src=images/blank.png width =""800"" height = ""200""></p>","","","","","","","","","","","",""
"","1501.71500002034","sequential-stimulus-presentation","233","438638","0.0-44.0-1.4","SS1613099700623","trial","","40","800","2301.71500002034","images/stimuli/spore_stims/complex_16_B_b.gif","images/stimuli/spore_stims/complex_16_A_b.gif","","","","","12","complex_similar","images/stimuli/spore_stims/complex_16_B_b.gif","middle","","","","",""
"","null","html-keyboard-response","234","439511","0.0-44.0-0.5","SS1613099700623","","","null","","","","","<p><img src= images/blank.png width =""200"" height = ""200"" style = ""float:right""></p><p><img src=images/blank.png width =""800"" height = ""200""></p>","","","","","","","","","","","",""
"","1195.6000000063796","sequential-stimulus-presentation","235","441535","0.0-44.0-1.5","SS1613099700623","trial","","40","800","1995.6000000063796","images/stimuli/spore_stims/complex_16_B_b.gif","images/stimuli/spore_stims/complex_16_A_b.gif","","","","","12","complex_similar","images/stimuli/spore_stims/complex_16_A_b.gif","right","","","","",""
"","null","html-keyboard-response","236","442481","0.0-44.0-0.6","SS1613099700623","","","null","","","","","<p><img src= images/blank.png width =""200"" height = ""200"" style = ""float:right""></p><p><img src=images/blank.png width =""800"" height = ""200""></p>","","","","","","","","","","","",""
"","427.4800000130199","sequential-stimulus-presentation","237","443734","0.0-44.0-1.6","SS1613099700623","trial","","40","800","1227.48000001302","images/stimuli/spore_stims/complex_16_B_b.gif","images/stimuli/spore_stims/complex_16_A_b.gif","","","","","12","complex_similar","images/stimuli/spore_stims/complex_16_A_b.gif","right","","","","",""
"","null","html-keyboard-response","238","444965","0.0-44.0-0.7","SS1613099700623","","","null","","","","","<p><img src= images/blank.png width =""200"" height = ""200"" style = ""float:right""></p><p><img src=images/blank.png width =""800"" height = ""200""></p>","","","","","","","","","","","",""
"","252.45499997981824","sequential-stimulus-presentation","239","446046","0.0-44.0-1.7","SS1613099700623","trial","","40","800","1052.4549999798182","images/stimuli/spore_stims/complex_16_B_b.gif","images/stimuli/spore_stims/complex_16_A_b.gif","","","","","12","complex_similar","images/stimuli/spore_stims/complex_16_A_b.gif","right","","","","",""
"","1753.6899999831803","html-keyboard-response","240","447814","0.0-45.0","SS1613099700623","pref_question","","97","","","","","<video width ='960' height = '540' style='padding-top:8%' autoplay muted><source src='images/stimuli/wall_pref.mp4' type='video/mp4'></video>","1","left","25%","12","","","","","","","",""
"","2554.070000012871","sequential-stimulus-presentation","241","451198","0.0-46.0","SS1613099700623","pref_reveal","","40","800","3354.070000012871","null","null","","","","","12","","","","novel","","","",""
"","null","html-keyboard-response","242","452284","0.0-47.0-0.0","SS1613099700623","","","null","","","","","<p><img src= images/blank.png width =""200"" height = ""200"" style = ""float:right""></p><p><img src=images/blank.png width =""800"" height = ""200""></p>","","","","","","","","","","","",""
"","964.8900000029244","sequential-stimulus-presentation","243","454070","0.0-47.0-1.0","SS1613099700623","trial","","40","800","1764.8900000029244","images/stimuli/spore_stims/complex_12_B_a.gif","images/stimuli/spore_stims/complex_12_A_a.gif","","","","","13","complex_similar","images/stimuli/spore_stims/complex_12_A_a.gif","right","","","","",""
"","null","html-keyboard-response","244","455129","0.0-47.0-0.1","SS1613099700623","","","null","","","","","<p><img src= images/blank.png width =""200"" height = ""200"" style = ""float:right""></p><p><img src=images/blank.png width =""800"" height = ""200""></p>","","","","","","","","","","","",""
"","700.2050000010058","sequential-stimulus-presentation","245","456654","0.0-47.0-1.1","SS1613099700623","trial","","40","800","1500.2050000010058","images/stimuli/spore_stims/complex_12_B_a.gif","images/stimuli/spore_stims/complex_12_A_a.gif","","","","","13","complex_similar","images/stimuli/spore_stims/complex_12_A_a.gif","right","","","","",""
"","null","html-keyboard-response","246","457493","0.0-47.0-0.2","SS1613099700623","","","null","","","","","<p><img src= images/blank.png width =""200"" height = ""200"" style = ""float:right""></p><p><img src=images/blank.png width =""800"" height = ""200""></p>","","","","","","","","","","","",""
"","520.3849999816157","sequential-stimulus-presentation","247","458838","0.0-47.0-1.2","SS1613099700623","trial","","40","800","1320.3849999816157","images/stimuli/spore_stims/complex_12_B_a.gif","images/stimuli/spore_stims/complex_12_A_a.gif","","","","","13","complex_similar","images/stimuli/spore_stims/complex_12_A_a.gif","right","","","","",""
"","null","html-keyboard-response","248","459802","0.0-47.0-0.3","SS1613099700623","","","null","","","","","<p><img src= images/blank.png width =""200"" height = ""200"" style = ""float:right""></p><p><img src=images/blank.png width =""800"" height = ""200""></p>","","","","","","","","","","","",""
"","498.51000000489876","sequential-stimulus-presentation","249","461117","0.0-47.0-1.3","SS1613099700623","trial","","40","800","1298.5100000048988","images/stimuli/spore_stims/complex_12_B_a.gif","images/stimuli/spore_stims/complex_12_A_a.gif","","","","","13","complex_similar","images/stimuli/spore_stims/complex_12_B_a.gif","middle","","","","",""
"","null","html-keyboard-response","250","462286","0.0-47.0-0.4","SS1613099700623","","","null","","","","","<p><img src= images/blank.png width =""200"" height = ""200"" style = ""float:right""></p><p><img src=images/blank.png width =""800"" height = ""200""></p>","","","","","","","","","","","",""
"","50.90000000200234","sequential-stimulus-presentation","251","463166","0.0-47.0-1.4","SS1613099700623","trial","","40","800","850.9000000020023","images/stimuli/spore_stims/complex_12_B_a.gif","images/stimuli/spore_stims/complex_12_A_a.gif","","","","","13","complex_similar","images/stimuli/spore_stims/complex_12_A_a.gif","right","","","","",""
"","null","html-keyboard-response","252","464304","0.0-47.0-0.5","SS1613099700623","","","null","","","","","<p><img src= images/blank.png width =""200"" height = ""200"" style = ""float:right""></p><p><img src=images/blank.png width =""800"" height = ""200""></p>","","","","","","","","","","","",""
"","331.13000000594184","sequential-stimulus-presentation","253","465462","0.0-47.0-1.5","SS1613099700623","trial","","40","800","1131.1300000059418","images/stimuli/spore_stims/complex_12_B_a.gif","images/stimuli/spore_stims/complex_12_A_a.gif","","","","","13","complex_similar","images/stimuli/spore_stims/complex_12_A_a.gif","right","","","","",""
"","null","html-keyboard-response","254","466462","0.0-47.0-0.6","SS1613099700623","","","null","","","","","<p><img src= images/blank.png width =""200"" height = ""200"" style = ""float:right""></p><p><img src=images/blank.png width =""800"" height = ""200""></p>","","","","","","","","","","","",""
"","223.54999999515712","sequential-stimulus-presentation","255","467510","0.0-47.0-1.6","SS1613099700623","trial","","40","800","1023.5499999951571","images/stimuli/spore_stims/complex_12_B_a.gif","images/stimuli/spore_stims/complex_12_A_a.gif","","","","","13","complex_similar","images/stimuli/spore_stims/complex_12_A_a.gif","right","","","","",""
"","null","html-keyboard-response","256","468697","0.0-47.0-0.7","SS1613099700623","","","null","","","","","<p><img src= images/blank.png width =""200"" height = ""200"" style = ""float:right""></p><p><img src=images/blank.png width =""800"" height = ""200""></p>","","","","","","","","","","","",""
"","383.4999999962747","sequential-stimulus-presentation","257","469910","0.0-47.0-1.7","SS1613099700623","trial","","40","800","1183.4999999962747","images/stimuli/spore_stims/complex_12_B_a.gif","images/stimuli/spore_stims/complex_12_A_a.gif","","","","","13","complex_similar","images/stimuli/spore_stims/complex_12_A_a.gif","right","","","","",""
"","1665.1549999951385","html-keyboard-response","258","471590","0.0-48.0","SS1613099700623","pref_question","","97","","","","","<video width ='960' height = '540' style='padding-top:8%' autoplay muted><source src='images/stimuli/wall_pref.mp4' type='video/mp4'></video>","1","left","25%","13","","","","","","","",""
"","3003.5099999804515","sequential-stimulus-presentation","259","475422","0.0-49.0","SS1613099700623","pref_reveal","","40","800","3803.5099999804515","null","null","","","","","13","","","","novel","","","",""
"","null","html-keyboard-response","260","476554","0.0-50.0-0.0","SS1613099700623","","","null","","","","","<p><img src= images/blank.png width =""200"" height = ""200"" style = ""float:right""></p><p><img src=images/blank.png width =""800"" height = ""200""></p>","","","","","","","","","","","",""
"","1407.1100000001024","sequential-stimulus-presentation","261","478784","0.0-50.0-1.0","SS1613099700623","trial","","40","800","2207.1100000001024","images/stimuli/spore_stims/complex_14_A_d.gif","images/stimuli/spore_stims/complex_05_B_b.gif","","","","","14","complex_dissimilar","images/stimuli/spore_stims/complex_05_B_b.gif","right","","","","",""
"","null","html-keyboard-response","262","479994","0.0-50.0-0.1","SS1613099700623","","","null","","","","","<p><img src= images/blank.png width =""200"" height = ""200"" style = ""float:right""></p><p><img src=images/blank.png width =""800"" height = ""200""></p>","","","","","","","","","","","",""
"","730.4500000027474","sequential-stimulus-presentation","263","481549","0.0-50.0-1.1","SS1613099700623","trial","","40","800","1530.4500000027474","images/stimuli/spore_stims/complex_14_A_d.gif","images/stimuli/spore_stims/complex_05_B_b.gif","","","","","14","complex_dissimilar","images/stimuli/spore_stims/complex_05_B_b.gif","right","","","","",""
"","null","html-keyboard-response","264","482551","0.0-50.0-0.2","SS1613099700623","","","null","","","","","<p><img src= images/blank.png width =""200"" height = ""200"" style = ""float:right""></p><p><img src=images/blank.png width =""800"" height = ""200""></p>","","","","","","","","","","","",""
"","275.11499999673106","sequential-stimulus-presentation","265","483653","0.0-50.0-1.2","SS1613099700623","trial","","40","800","1075.114999996731","images/stimuli/spore_stims/complex_14_A_d.gif","images/stimuli/spore_stims/complex_05_B_b.gif","","","","","14","complex_dissimilar","images/stimuli/spore_stims/complex_05_B_b.gif","right","","","","",""
"","null","html-keyboard-response","266","484918","0.0-50.0-0.3","SS1613099700623","","","null","","","","","<p><img src= images/blank.png width =""200"" height = ""200"" style = ""float:right""></p><p><img src=images/blank.png width =""800"" height = ""200""></p>","","","","","","","","","","","",""
"","842.8249999997206","sequential-stimulus-presentation","267","486589","0.0-50.0-1.3","SS1613099700623","trial","","40","800","1642.8249999997206","images/stimuli/spore_stims/complex_14_A_d.gif","images/stimuli/spore_stims/complex_05_B_b.gif","","","","","14","complex_dissimilar","images/stimuli/spore_stims/complex_05_B_b.gif","right","","","","",""
"","null","html-keyboard-response","268","487516","0.0-50.0-0.4","SS1613099700623","","","null","","","","","<p><img src= images/blank.png width =""200"" height = ""200"" style = ""float:right""></p><p><img src=images/blank.png width =""800"" height = ""200""></p>","","","","","","","","","","","",""
"","329.939999995986","sequential-stimulus-presentation","269","488669","0.0-50.0-1.4","SS1613099700623","trial","","40","800","1129.939999995986","images/stimuli/spore_stims/complex_14_A_d.gif","images/stimuli/spore_stims/complex_05_B_b.gif","","","","","14","complex_dissimilar","images/stimuli/spore_stims/complex_05_B_b.gif","right","","","","",""
"","null","html-keyboard-response","270","489830","0.0-50.0-0.5","SS1613099700623","","","null","","","","","<p><img src= images/blank.png width =""200"" height = ""200"" style = ""float:right""></p><p><img src=images/blank.png width =""800"" height = ""200""></p>","","","","","","","","","","","",""
"","649.0049999847542","sequential-stimulus-presentation","271","491302","0.0-50.0-1.5","SS1613099700623","trial","","40","800","1449.0049999847542","images/stimuli/spore_stims/complex_14_A_d.gif","images/stimuli/spore_stims/complex_05_B_b.gif","","","","","14","complex_dissimilar","images/stimuli/spore_stims/complex_14_A_d.gif","middle","","","","",""
"","null","html-keyboard-response","272","492328","0.0-50.0-0.6","SS1613099700623","","","null","","","","","<p><img src= images/blank.png width =""200"" height = ""200"" style = ""float:right""></p><p><img src=images/blank.png width =""800"" height = ""200""></p>","","","","","","","","","","","",""
"","1253.1250000174623","sequential-stimulus-presentation","273","494405","0.0-50.0-1.6","SS1613099700623","trial","","40","800","2053.1250000174623","images/stimuli/spore_stims/complex_14_A_d.gif","images/stimuli/spore_stims/complex_05_B_b.gif","","","","","14","complex_dissimilar","images/stimuli/spore_stims/complex_05_B_b.gif","right","","","","",""
"","null","html-keyboard-response","274","495334","0.0-50.0-0.7","SS1613099700623","","","null","","","","","<p><img src= images/blank.png width =""200"" height = ""200"" style = ""float:right""></p><p><img src=images/blank.png width =""800"" height = ""200""></p>","","","","","","","","","","","",""
"","462.7000000036787","sequential-stimulus-presentation","275","496621","0.0-50.0-1.7","SS1613099700623","trial","","40","800","1262.7000000036787","images/stimuli/spore_stims/complex_14_A_d.gif","images/stimuli/spore_stims/complex_05_B_b.gif","","","","","14","complex_dissimilar","images/stimuli/spore_stims/complex_05_B_b.gif","right","","","","",""
"","5903.920000011567","html-keyboard-response","276","502542","0.0-51.0","SS1613099700623","pref_question","","97","","","","","<video width ='960' height = '540' style='padding-top:8%' autoplay muted><source src='images/stimuli/wall_pref.mp4' type='video/mp4'></video>","1","left","25%","14","","","","","","","",""
"","3721.3950000004843","sequential-stimulus-presentation","277","507093","0.0-52.0","SS1613099700623","pref_reveal","","40","800","4521.395000000484","null","null","","","","","14","","","","novel","","","",""
"","null","html-keyboard-response","278","508268","0.0-53.0-0.0","SS1613099700623","","","null","","","","","<p><img src= images/blank.png width =""200"" height = ""200"" style = ""float:right""></p><p><img src=images/blank.png width =""800"" height = ""200""></p>","","","","","","","","","","","",""
"","391.814999980852","sequential-stimulus-presentation","279","509485","0.0-53.0-1.0","SS1613099700623","trial","","40","800","1191.814999980852","images/stimuli/spore_stims/complex_04_A_d.gif","images/stimuli/spore_stims/complex_14_B_d.gif","","","","","15","complex_dissimilar","images/stimuli/spore_stims/complex_14_B_d.gif","left","","","","",""
"","null","html-keyboard-response","280","510334","0.0-53.0-0.1","SS1613099700623","","","null","","","","","<p><img src= images/blank.png width =""200"" height = ""200"" style = ""float:right""></p><p><img src=images/blank.png width =""800"" height = ""200""></p>","","","","","","","","","","","",""
"","285.280000010971","sequential-stimulus-presentation","281","511445","0.0-53.0-1.1","SS1613099700623","trial","","40","800","1085.280000010971","images/stimuli/spore_stims/complex_04_A_d.gif","images/stimuli/spore_stims/complex_14_B_d.gif","","","","","15","complex_dissimilar","images/stimuli/spore_stims/complex_14_B_d.gif","left","","","","",""
"","null","html-keyboard-response","282","512302","0.0-53.0-0.2","SS1613099700623","","","null","","","","","<p><img src= images/blank.png width =""200"" height = ""200"" style = ""float:right""></p><p><img src=images/blank.png width =""800"" height = ""200""></p>","","","","","","","","","","","",""
"","298.71999999159016","sequential-stimulus-presentation","283","513430","0.0-53.0-1.2","SS1613099700623","trial","","40","800","1098.7199999915902","images/stimuli/spore_stims/complex_04_A_d.gif","images/stimuli/spore_stims/complex_14_B_d.gif","","","","","15","complex_dissimilar","images/stimuli/spore_stims/complex_14_B_d.gif","left","","","","",""
"","null","html-keyboard-response","284","514295","0.0-53.0-0.3","SS1613099700623","","","null","","","","","<p><img src= images/blank.png width =""200"" height = ""200"" style = ""float:right""></p><p><img src=images/blank.png width =""800"" height = ""200""></p>","","","","","","","","","","","",""
"","328.05999999982305","sequential-stimulus-presentation","285","515445","0.0-53.0-1.3","SS1613099700623","trial","","40","800","1128.059999999823","images/stimuli/spore_stims/complex_04_A_d.gif","images/stimuli/spore_stims/complex_14_B_d.gif","","","","","15","complex_dissimilar","images/stimuli/spore_stims/complex_14_B_d.gif","left","","","","",""
"","null","html-keyboard-response","286","516413","0.0-53.0-0.4","SS1613099700623","","","null","","","","","<p><img src= images/blank.png width =""200"" height = ""200"" style = ""float:right""></p><p><img src=images/blank.png width =""800"" height = ""200""></p>","","","","","","","","","","","",""
"","294.94000002159737","sequential-stimulus-presentation","287","517533","0.0-53.0-1.4","SS1613099700623","trial","","40","800","1094.9400000215974","images/stimuli/spore_stims/complex_04_A_d.gif","images/stimuli/spore_stims/complex_14_B_d.gif","","","","","15","complex_dissimilar","images/stimuli/spore_stims/complex_14_B_d.gif","left","","","","",""
"","null","html-keyboard-response","288","518576","0.0-53.0-0.5","SS1613099700623","","","null","","","","","<p><img src= images/blank.png width =""200"" height = ""200"" style = ""float:right""></p><p><img src=images/blank.png width =""800"" height = ""200""></p>","","","","","","","","","","","",""
"","320.9250000072643","sequential-stimulus-presentation","289","519725","0.0-53.0-1.5","SS1613099700623","trial","","40","800","1120.9250000072643","images/stimuli/spore_stims/complex_04_A_d.gif","images/stimuli/spore_stims/complex_14_B_d.gif","","","","","15","complex_dissimilar","images/stimuli/spore_stims/complex_14_B_d.gif","left","","","","",""
"","null","html-keyboard-response","290","520674","0.0-53.0-0.6","SS1613099700623","","","null","","","","","<p><img src= images/blank.png width =""200"" height = ""200"" style = ""float:right""></p><p><img src=images/blank.png width =""800"" height = ""200""></p>","","","","","","","","","","","",""
"","274.8800000117626","sequential-stimulus-presentation","291","521773","0.0-53.0-1.6","SS1613099700623","trial","","40","800","1074.8800000117626","images/stimuli/spore_stims/complex_04_A_d.gif","images/stimuli/spore_stims/complex_14_B_d.gif","","","","","15","complex_dissimilar","images/stimuli/spore_stims/complex_14_B_d.gif","left","","","","",""
"","null","html-keyboard-response","292","522736","0.0-53.0-0.7","SS1613099700623","","","null","","","","","<p><img src= images/blank.png width =""200"" height = ""200"" style = ""float:right""></p><p><img src=images/blank.png width =""800"" height = ""200""></p>","","","","","","","","","","","",""
"","377.86499998765066","sequential-stimulus-presentation","293","523942","0.0-53.0-1.7","SS1613099700623","trial","","40","800","1177.8649999876507","images/stimuli/spore_stims/complex_04_A_d.gif","images/stimuli/spore_stims/complex_14_B_d.gif","","","","","15","complex_dissimilar","images/stimuli/spore_stims/complex_04_A_d.gif","right","","","","",""
"","1583.1599999801256","html-keyboard-response","294","525541","0.0-54.0","SS1613099700623","pref_question","","99","","","","","<video width ='960' height = '540' style='padding-top:8%' autoplay muted><source src='images/stimuli/wall_pref.mp4' type='video/mp4'></video>","3","right","66%","15","","","","","","","",""
"","3402.619999978924","sequential-stimulus-presentation","295","529773","0.0-55.0","SS1613099700623","pref_reveal","","40","800","4202.619999978924","null","null","","","","","15","","","","deviant","","","",""
"","null","html-keyboard-response","296","530862","0.0-56.0-0.0","SS1613099700623","","","null","","","","","<p><img src= images/blank.png width =""200"" height = ""200"" style = ""float:right""></p><p><img src=images/blank.png width =""800"" height = ""200""></p>","","","","","","","","","","","",""
"","626.9449999963399","sequential-stimulus-presentation","297","532317","0.0-56.0-1.0","SS1613099700623","trial","","40","800","1426.94499999634","images/stimuli/spore_stims/simple_20_B_b.gif","images/stimuli/spore_stims/simple_20_A_b.gif","","","","","16","simple_similar","images/stimuli/spore_stims/simple_20_A_b.gif","left","","","","",""
"","null","html-keyboard-response","298","533393","0.0-56.0-0.1","SS1613099700623","","","null","","","","","<p><img src= images/blank.png width =""200"" height = ""200"" style = ""float:right""></p><p><img src=images/blank.png width =""800"" height = ""200""></p>","","","","","","","","","","","",""
"","248.6849999986589","sequential-stimulus-presentation","299","534469","0.0-56.0-1.1","SS1613099700623","trial","","40","800","1048.684999998659","images/stimuli/spore_stims/simple_20_B_b.gif","images/stimuli/spore_stims/simple_20_A_b.gif","","","","","16","simple_similar","images/stimuli/spore_stims/simple_20_A_b.gif","left","","","","",""
"","null","html-keyboard-response","300","535321","0.0-56.0-0.2","SS1613099700623","","","null","","","","","<p><img src= images/blank.png width =""200"" height = ""200"" style = ""float:right""></p><p><img src=images/blank.png width =""800"" height = ""200""></p>","","","","","","","","","","","",""
"","306.0199999890756","sequential-stimulus-presentation","301","536453","0.0-56.0-1.2","SS1613099700623","trial","","40","800","1106.0199999890756","images/stimuli/spore_stims/simple_20_B_b.gif","images/stimuli/spore_stims/simple_20_A_b.gif","","","","","16","simple_similar","images/stimuli/spore_stims/simple_20_A_b.gif","left","","","","",""
"","null","html-keyboard-response","302","537661","0.0-56.0-0.3","SS1613099700623","","","null","","","","","<p><img src= images/blank.png width =""200"" height = ""200"" style = ""float:right""></p><p><img src=images/blank.png width =""800"" height = ""200""></p>","","","","","","","","","","","",""
"","204.24500000081025","sequential-stimulus-presentation","303","538692","0.0-56.0-1.3","SS1613099700623","trial","","40","800","1004.2450000008103","images/stimuli/spore_stims/simple_20_B_b.gif","images/stimuli/spore_stims/simple_20_A_b.gif","","","","","16","simple_similar","images/stimuli/spore_stims/simple_20_A_b.gif","left","","","","",""
"","null","html-keyboard-response","304","539989","0.0-56.0-0.4","SS1613099700623","","","null","","","","","<p><img src= images/blank.png width =""200"" height = ""200"" style = ""float:right""></p><p><img src=images/blank.png width =""800"" height = ""200""></p>","","","","","","","","","","","",""
"","191.354999988107","sequential-stimulus-presentation","305","541005","0.0-56.0-1.4","SS1613099700623","trial","","40","800","991.354999988107","images/stimuli/spore_stims/simple_20_B_b.gif","images/stimuli/spore_stims/simple_20_A_b.gif","","","","","16","simple_similar","images/stimuli/spore_stims/simple_20_A_b.gif","left","","","","",""
"","null","html-keyboard-response","306","542297","0.0-56.0-0.5","SS1613099700623","","","null","","","","","<p><img src= images/blank.png width =""200"" height = ""200"" style = ""float:right""></p><p><img src=images/blank.png width =""800"" height = ""200""></p>","","","","","","","","","","","",""
"","195.41499999468215","sequential-stimulus-presentation","307","543316","0.0-56.0-1.5","SS1613099700623","trial","","40","800","995.4149999946821","images/stimuli/spore_stims/simple_20_B_b.gif","images/stimuli/spore_stims/simple_20_A_b.gif","","","","","16","simple_similar","images/stimuli/spore_stims/simple_20_A_b.gif","left","","","","",""
"","null","html-keyboard-response","308","544349","0.0-56.0-0.6","SS1613099700623","","","null","","","","","<p><img src= images/blank.png width =""200"" height = ""200"" style = ""float:right""></p><p><img src=images/blank.png width =""800"" height = ""200""></p>","","","","","","","","","","","",""
"","135.28499999665655","sequential-stimulus-presentation","309","545309","0.0-56.0-1.6","SS1613099700623","trial","","40","800","935.2849999966566","images/stimuli/spore_stims/simple_20_B_b.gif","images/stimuli/spore_stims/simple_20_A_b.gif","","","","","16","simple_similar","images/stimuli/spore_stims/simple_20_B_b.gif","right","","","","",""
"","null","html-keyboard-response","310","546169","0.0-56.0-0.7","SS1613099700623","","","null","","","","","<p><img src= images/blank.png width =""200"" height = ""200"" style = ""float:right""></p><p><img src=images/blank.png width =""800"" height = ""200""></p>","","","","","","","","","","","",""
"","211.35500000673346","sequential-stimulus-presentation","311","547204","0.0-56.0-1.7","SS1613099700623","trial","","40","800","1011.3550000067335","images/stimuli/spore_stims/simple_20_B_b.gif","images/stimuli/spore_stims/simple_20_A_b.gif","","","","","16","simple_similar","images/stimuli/spore_stims/simple_20_A_b.gif","left","","","","",""
"","7342.819999990752","html-keyboard-response","312","554564","0.0-57.0","SS1613099700623","pref_question","","99","","","","","<video width ='960' height = '540' style='padding-top:8%' autoplay muted><source src='images/stimuli/wall_pref.mp4' type='video/mp4'></video>","3","right","66%","16","","","","","","","",""
