"view_history","rt","trial_type","trial_index","time_elapsed","internal_node_id","subject","stimulus_type","trial_stimulus","key_press","minimum_viewing_duration","trial_looking_time","block_deviant","block_background","stimulus","wall_pref","location","location_percent","block_number","block_type","stimulus_displayed","position_displayed","stim_type_selected","responses","question_order","stimulus_left","stimulus_right"
"[{""page_index"":0,""viewing_time"":6752.539999783039}]","6754.215000197291","instructions","0","6756","0.0-0.0","SS1613100607399","","","","","","","","","","","","","","","","","","","",""
"[{""page_index"":0,""viewing_time"":11767.140000127256},{""page_index"":1,""viewing_time"":4392.115000169724}]","16159.725000150502","instructions","1","24921","0.0-1.0","SS1613100607399","instructions","","","","","","","","","","","","","","","","","","",""
"","7032.60499984026","sequential-stimulus-presentation","2","32761","0.0-2.0","SS1613100607399","","","40","800","7832.60499984026","null","null","","","","","","","","","","","","",""
"","3424.6600000187755","sequential-stimulus-presentation","3","36992","0.0-3.0","SS1613100607399","","","40","800","4224.6600000187755","null","null","","","","","","","","","","","","",""
"[{""page_index"":0,""viewing_time"":3647.0349999144673}]","3647.224999964237","instructions","4","40640","0.0-4.0","SS1613100607399","instructions","","","","","","","","","","","","","","","","","","",""
"","12061.67500000447","html-keyboard-response","5","52704","0.0-5.0","SS1613100607399","instructions","","49","","","","","<video width ='960' height = '540' autoplay muted><source src='images/stimuli/wall_pref.mp4' type='video/mp4'></video>","1","left","25%","","","","","","","","",""
"","2632.765000220388","sequential-stimulus-presentation","6","56152","0.0-6.0","SS1613100607399","pref_reveal","","40","800","3432.765000220388","null","null","","","","","","","","","","","","",""
"[{""page_index"":0,""viewing_time"":14052.97499988228},{""page_index"":1,""viewing_time"":3736.3299997523427},{""page_index"":2,""viewing_time"":1103.8000001572073},{""page_index"":3,""viewing_time"":928.9649999700487}]","19822.57999991998","instructions","7","75977","0.0-7.0","SS1613100607399","instructions","","","","","","","","","","","","","","","","","","",""
"","null","html-keyboard-response","8","77116","0.0-8.0-0.0","SS1613100607399","","","null","","","","","<p><img src= images/blank.png width =""200"" height = ""200"" style = ""float:right""></p><p><img src=images/blank.png width =""800"" height = ""200""></p>","","","","","","","","","","","",""
"","4245.050000026822","sequential-stimulus-presentation","9","82165","0.0-8.0-1.0","SS1613100607399","trial","","40","800","5045.050000026822","images/stimuli/spore_stims/complex_03_A_c.gif","images/stimuli/spore_stims/complex_02_A_c.gif","","","","","0","complex_dissimilar","images/stimuli/spore_stims/complex_02_A_c.gif","right","","","","",""
"","null","html-keyboard-response","10","83420","0.0-8.0-0.1","SS1613100607399","","","null","","","","","<p><img src= images/blank.png width =""200"" height = ""200"" style = ""float:right""></p><p><img src=images/blank.png width =""800"" height = ""200""></p>","","","","","","","","","","","",""
"","4154.509999789298","sequential-stimulus-presentation","11","88381","0.0-8.0-1.1","SS1613100607399","trial","","40","800","4954.509999789298","images/stimuli/spore_stims/complex_03_A_c.gif","images/stimuli/spore_stims/complex_02_A_c.gif","","","","","0","complex_dissimilar","images/stimuli/spore_stims/complex_02_A_c.gif","right","","","","",""
"","null","html-keyboard-response","12","89376","0.0-8.0-0.2","SS1613100607399","","","null","","","","","<p><img src= images/blank.png width =""200"" height = ""200"" style = ""float:right""></p><p><img src=images/blank.png width =""800"" height = ""200""></p>","","","","","","","","","","","",""
"","1004.880000371486","sequential-stimulus-presentation","13","91184","0.0-8.0-1.2","SS1613100607399","trial","","40","800","1804.880000371486","images/stimuli/spore_stims/complex_03_A_c.gif","images/stimuli/spore_stims/complex_02_A_c.gif","","","","","0","complex_dissimilar","images/stimuli/spore_stims/complex_02_A_c.gif","right","","","","",""
"","null","html-keyboard-response","14","92269","0.0-8.0-0.3","SS1613100607399","","","null","","","","","<p><img src= images/blank.png width =""200"" height = ""200"" style = ""float:right""></p><p><img src=images/blank.png width =""800"" height = ""200""></p>","","","","","","","","","","","",""
"","3491.605000104755","sequential-stimulus-presentation","15","96568","0.0-8.0-1.3","SS1613100607399","trial","","40","800","4291.605000104755","images/stimuli/spore_stims/complex_03_A_c.gif","images/stimuli/spore_stims/complex_02_A_c.gif","","","","","0","complex_dissimilar","images/stimuli/spore_stims/complex_03_A_c.gif","left","","","","",""
"","null","html-keyboard-response","16","97582","0.0-8.0-0.4","SS1613100607399","","","null","","","","","<p><img src= images/blank.png width =""200"" height = ""200"" style = ""float:right""></p><p><img src=images/blank.png width =""800"" height = ""200""></p>","","","","","","","","","","","",""
"","2729.874999728054","sequential-stimulus-presentation","17","101118","0.0-8.0-1.4","SS1613100607399","trial","","40","800","3529.874999728054","images/stimuli/spore_stims/complex_03_A_c.gif","images/stimuli/spore_stims/complex_02_A_c.gif","","","","","0","complex_dissimilar","images/stimuli/spore_stims/complex_02_A_c.gif","right","","","","",""
"","null","html-keyboard-response","18","102318","0.0-8.0-0.5","SS1613100607399","","","null","","","","","<p><img src= images/blank.png width =""200"" height = ""200"" style = ""float:right""></p><p><img src=images/blank.png width =""800"" height = ""200""></p>","","","","","","","","","","","",""
"","449.239999987185","sequential-stimulus-presentation","19","103574","0.0-8.0-1.5","SS1613100607399","trial","","40","800","1249.239999987185","images/stimuli/spore_stims/complex_03_A_c.gif","images/stimuli/spore_stims/complex_02_A_c.gif","","","","","0","complex_dissimilar","images/stimuli/spore_stims/complex_02_A_c.gif","right","","","","",""
"","null","html-keyboard-response","20","104395","0.0-8.0-0.6","SS1613100607399","","","null","","","","","<p><img src= images/blank.png width =""200"" height = ""200"" style = ""float:right""></p><p><img src=images/blank.png width =""800"" height = ""200""></p>","","","","","","","","","","","",""
"","883.2600000314415","sequential-stimulus-presentation","21","106097","0.0-8.0-1.6","SS1613100607399","trial","","40","800","1683.2600000314415","images/stimuli/spore_stims/complex_03_A_c.gif","images/stimuli/spore_stims/complex_02_A_c.gif","","","","","0","complex_dissimilar","images/stimuli/spore_stims/complex_02_A_c.gif","right","","","","",""
"","null","html-keyboard-response","22","107073","0.0-8.0-0.7","SS1613100607399","","","null","","","","","<p><img src= images/blank.png width =""200"" height = ""200"" style = ""float:right""></p><p><img src=images/blank.png width =""800"" height = ""200""></p>","","","","","","","","","","","",""
"","378.6599999293685","sequential-stimulus-presentation","23","108260","0.0-8.0-1.7","SS1613100607399","trial","","40","800","1178.6599999293685","images/stimuli/spore_stims/complex_03_A_c.gif","images/stimuli/spore_stims/complex_02_A_c.gif","","","","","0","complex_dissimilar","images/stimuli/spore_stims/complex_02_A_c.gif","right","","","","",""
"","2074.1150001995265","html-keyboard-response","24","110340","0.0-9.0","SS1613100607399","pref_question","","50","","","","","<video width ='960' height = '540' style='padding-top:8%' autoplay muted><source src='images/stimuli/wall_pref.mp4' type='video/mp4'></video>","2","middle","45%","0","","","","","","","",""
"","6273.624999914318","sequential-stimulus-presentation","25","117421","0.0-10.0","SS1613100607399","pref_reveal","","40","800","7073.624999914318","null","null","","","","","0","","","","novel","","","",""
"","null","html-keyboard-response","26","118322","0.0-11.0-0.0","SS1613100607399","","","null","","","","","<p><img src= images/blank.png width =""200"" height = ""200"" style = ""float:right""></p><p><img src=images/blank.png width =""800"" height = ""200""></p>","","","","","","","","","","","",""
"","3261.8100000545382","sequential-stimulus-presentation","27","122388","0.0-11.0-1.0","SS1613100607399","trial","","40","800","4061.8100000545382","images/stimuli/spore_stims/simple_11_B_c.gif","images/stimuli/spore_stims/simple_11_A_c.gif","","","","","1","simple_similar","images/stimuli/spore_stims/simple_11_A_c.gif","right","","","","",""
"","null","html-keyboard-response","28","123220","0.0-11.0-0.1","SS1613100607399","","","null","","","","","<p><img src= images/blank.png width =""200"" height = ""200"" style = ""float:right""></p><p><img src=images/blank.png width =""800"" height = ""200""></p>","","","","","","","","","","","",""
"","1391.1900003440678","sequential-stimulus-presentation","29","125414","0.0-11.0-1.1","SS1613100607399","trial","","40","800","2191.190000344068","images/stimuli/spore_stims/simple_11_B_c.gif","images/stimuli/spore_stims/simple_11_A_c.gif","","","","","1","simple_similar","images/stimuli/spore_stims/simple_11_A_c.gif","right","","","","",""
"","null","html-keyboard-response","30","126278","0.0-11.0-0.2","SS1613100607399","","","null","","","","","<p><img src= images/blank.png width =""200"" height = ""200"" style = ""float:right""></p><p><img src=images/blank.png width =""800"" height = ""200""></p>","","","","","","","","","","","",""
"","1583.6400003172457","sequential-stimulus-presentation","31","128669","0.0-11.0-1.2","SS1613100607399","trial","","40","800","2383.6400003172457","images/stimuli/spore_stims/simple_11_B_c.gif","images/stimuli/spore_stims/simple_11_A_c.gif","","","","","1","simple_similar","images/stimuli/spore_stims/simple_11_A_c.gif","right","","","","",""
"","null","html-keyboard-response","32","129773","0.0-11.0-0.3","SS1613100607399","","","null","","","","","<p><img src= images/blank.png width =""200"" height = ""200"" style = ""float:right""></p><p><img src=images/blank.png width =""800"" height = ""200""></p>","","","","","","","","","","","",""
"","489.1200000420213","sequential-stimulus-presentation","33","131066","0.0-11.0-1.3","SS1613100607399","trial","","40","800","1289.1200000420213","images/stimuli/spore_stims/simple_11_B_c.gif","images/stimuli/spore_stims/simple_11_A_c.gif","","","","","1","simple_similar","images/stimuli/spore_stims/simple_11_A_c.gif","right","","","","",""
"","null","html-keyboard-response","34","132050","0.0-11.0-0.4","SS1613100607399","","","null","","","","","<p><img src= images/blank.png width =""200"" height = ""200"" style = ""float:right""></p><p><img src=images/blank.png width =""800"" height = ""200""></p>","","","","","","","","","","","",""
"","3425.58000003919","sequential-stimulus-presentation","35","136285","0.0-11.0-1.4","SS1613100607399","trial","","40","800","4225.58000003919","images/stimuli/spore_stims/simple_11_B_c.gif","images/stimuli/spore_stims/simple_11_A_c.gif","","","","","1","simple_similar","images/stimuli/spore_stims/simple_11_B_c.gif","middle","","","","",""
"","null","html-keyboard-response","36","137097","0.0-11.0-0.5","SS1613100607399","","","null","","","","","<p><img src= images/blank.png width =""200"" height = ""200"" style = ""float:right""></p><p><img src=images/blank.png width =""800"" height = ""200""></p>","","","","","","","","","","","",""
"","456.5400001592934","sequential-stimulus-presentation","37","138362","0.0-11.0-1.5","SS1613100607399","trial","","40","800","1256.5400001592934","images/stimuli/spore_stims/simple_11_B_c.gif","images/stimuli/spore_stims/simple_11_A_c.gif","","","","","1","simple_similar","images/stimuli/spore_stims/simple_11_A_c.gif","right","","","","",""
"","null","html-keyboard-response","38","139391","0.0-11.0-0.6","SS1613100607399","","","null","","","","","<p><img src= images/blank.png width =""200"" height = ""200"" style = ""float:right""></p><p><img src=images/blank.png width =""800"" height = ""200""></p>","","","","","","","","","","","",""
"","375.45999977737665","sequential-stimulus-presentation","39","140570","0.0-11.0-1.6","SS1613100607399","trial","","40","800","1175.4599997773767","images/stimuli/spore_stims/simple_11_B_c.gif","images/stimuli/spore_stims/simple_11_A_c.gif","","","","","1","simple_similar","images/stimuli/spore_stims/simple_11_A_c.gif","right","","","","",""
"","null","html-keyboard-response","40","141611","0.0-11.0-0.7","SS1613100607399","","","null","","","","","<p><img src= images/blank.png width =""200"" height = ""200"" style = ""float:right""></p><p><img src=images/blank.png width =""800"" height = ""200""></p>","","","","","","","","","","","",""
"","921.3499999605119","sequential-stimulus-presentation","41","143339","0.0-11.0-1.7","SS1613100607399","trial","","40","800","1721.349999960512","images/stimuli/spore_stims/simple_11_B_c.gif","images/stimuli/spore_stims/simple_11_A_c.gif","","","","","1","simple_similar","images/stimuli/spore_stims/simple_11_A_c.gif","right","","","","",""
"","1724.6600002981722","html-keyboard-response","42","145067","0.0-12.0","SS1613100607399","pref_question","","49","","","","","<video width ='960' height = '540' style='padding-top:8%' autoplay muted><source src='images/stimuli/wall_pref.mp4' type='video/mp4'></video>","1","left","25%","1","","","","","","","",""
"","5887.790000066161","sequential-stimulus-presentation","43","151774","0.0-13.0","SS1613100607399","pref_reveal","","40","800","6687.790000066161","null","null","","","","","1","","","","novel","","","",""
"","null","html-keyboard-response","44","152661","0.0-14.0-0.0","SS1613100607399","","","null","","","","","<p><img src= images/blank.png width =""200"" height = ""200"" style = ""float:right""></p><p><img src=images/blank.png width =""800"" height = ""200""></p>","","","","","","","","","","","",""
"","3267.974999733269","sequential-stimulus-presentation","45","156748","0.0-14.0-1.0","SS1613100607399","trial","","40","800","4067.974999733269","images/stimuli/spore_stims/complex_06_B_c.gif","images/stimuli/spore_stims/complex_06_A_c.gif","","","","","2","complex_similar","images/stimuli/spore_stims/complex_06_A_c.gif","right","","","","",""
"","null","html-keyboard-response","46","157934","0.0-14.0-0.1","SS1613100607399","","","null","","","","","<p><img src= images/blank.png width =""200"" height = ""200"" style = ""float:right""></p><p><img src=images/blank.png width =""800"" height = ""200""></p>","","","","","","","","","","","",""
"","535.8199998736382","sequential-stimulus-presentation","47","159275","0.0-14.0-1.1","SS1613100607399","trial","","40","800","1335.8199998736382","images/stimuli/spore_stims/complex_06_B_c.gif","images/stimuli/spore_stims/complex_06_A_c.gif","","","","","2","complex_similar","images/stimuli/spore_stims/complex_06_A_c.gif","right","","","","",""
"","null","html-keyboard-response","48","160248","0.0-14.0-0.2","SS1613100607399","","","null","","","","","<p><img src= images/blank.png width =""200"" height = ""200"" style = ""float:right""></p><p><img src=images/blank.png width =""800"" height = ""200""></p>","","","","","","","","","","","",""
"","209.3549999408424","sequential-stimulus-presentation","49","161266","0.0-14.0-1.2","SS1613100607399","trial","","40","800","1009.3549999408424","images/stimuli/spore_stims/complex_06_B_c.gif","images/stimuli/spore_stims/complex_06_A_c.gif","","","","","2","complex_similar","images/stimuli/spore_stims/complex_06_A_c.gif","right","","","","",""
"","null","html-keyboard-response","50","162185","0.0-14.0-0.3","SS1613100607399","","","null","","","","","<p><img src= images/blank.png width =""200"" height = ""200"" style = ""float:right""></p><p><img src=images/blank.png width =""800"" height = ""200""></p>","","","","","","","","","","","",""
"","1228.8850001059473","sequential-stimulus-presentation","51","164218","0.0-14.0-1.3","SS1613100607399","trial","","40","800","2028.8850001059473","images/stimuli/spore_stims/complex_06_B_c.gif","images/stimuli/spore_stims/complex_06_A_c.gif","","","","","2","complex_similar","images/stimuli/spore_stims/complex_06_A_c.gif","right","","","","",""
"","null","html-keyboard-response","52","165076","0.0-14.0-0.4","SS1613100607399","","","null","","","","","<p><img src= images/blank.png width =""200"" height = ""200"" style = ""float:right""></p><p><img src=images/blank.png width =""800"" height = ""200""></p>","","","","","","","","","","","",""
"","756.7449999041855","sequential-stimulus-presentation","53","166640","0.0-14.0-1.4","SS1613100607399","trial","","40","800","1556.7449999041855","images/stimuli/spore_stims/complex_06_B_c.gif","images/stimuli/spore_stims/complex_06_A_c.gif","","","","","2","complex_similar","images/stimuli/spore_stims/complex_06_A_c.gif","right","","","","",""
"","null","html-keyboard-response","54","167542","0.0-14.0-0.5","SS1613100607399","","","null","","","","","<p><img src= images/blank.png width =""200"" height = ""200"" style = ""float:right""></p><p><img src=images/blank.png width =""800"" height = ""200""></p>","","","","","","","","","","","",""
"","844.7500001639128","sequential-stimulus-presentation","55","169195","0.0-14.0-1.5","SS1613100607399","trial","","40","800","1644.7500001639128","images/stimuli/spore_stims/complex_06_B_c.gif","images/stimuli/spore_stims/complex_06_A_c.gif","","","","","2","complex_similar","images/stimuli/spore_stims/complex_06_A_c.gif","right","","","","",""
"","null","html-keyboard-response","56","170496","0.0-14.0-0.6","SS1613100607399","","","null","","","","","<p><img src= images/blank.png width =""200"" height = ""200"" style = ""float:right""></p><p><img src=images/blank.png width =""800"" height = ""200""></p>","","","","","","","","","","","",""
"","3589.2000002786517","sequential-stimulus-presentation","57","174890","0.0-14.0-1.6","SS1613100607399","trial","","40","800","4389.200000278652","images/stimuli/spore_stims/complex_06_B_c.gif","images/stimuli/spore_stims/complex_06_A_c.gif","","","","","2","complex_similar","images/stimuli/spore_stims/complex_06_B_c.gif","middle","","","","",""
"","null","html-keyboard-response","58","176013","0.0-14.0-0.7","SS1613100607399","","","null","","","","","<p><img src= images/blank.png width =""200"" height = ""200"" style = ""float:right""></p><p><img src=images/blank.png width =""800"" height = ""200""></p>","","","","","","","","","","","",""
"","397.170000243932","sequential-stimulus-presentation","59","177231","0.0-14.0-1.7","SS1613100607399","trial","","40","800","1197.170000243932","images/stimuli/spore_stims/complex_06_B_c.gif","images/stimuli/spore_stims/complex_06_A_c.gif","","","","","2","complex_similar","images/stimuli/spore_stims/complex_06_A_c.gif","right","","","","",""
"","2054.4249997474253","html-keyboard-response","60","179293","0.0-15.0","SS1613100607399","pref_question","","49","","","","","<video width ='960' height = '540' style='padding-top:8%' autoplay muted><source src='images/stimuli/wall_pref.mp4' type='video/mp4'></video>","1","left","25%","2","","","","","","","",""
"","5867.2850001603365","sequential-stimulus-presentation","61","185978","0.0-16.0","SS1613100607399","pref_reveal","","40","800","6667.2850001603365","null","null","","","","","2","","","","novel","","","",""
"","null","html-keyboard-response","62","187128","0.0-17.0-0.0","SS1613100607399","","","null","","","","","<p><img src= images/blank.png width =""200"" height = ""200"" style = ""float:right""></p><p><img src=images/blank.png width =""800"" height = ""200""></p>","","","","","","","","","","","",""
"","3516.9150000438094","sequential-stimulus-presentation","63","191453","0.0-17.0-1.0","SS1613100607399","trial","","40","800","4316.915000043809","images/stimuli/spore_stims/complex_08_A_b.gif","images/stimuli/spore_stims/complex_16_A_b.gif","","","","","3","complex_dissimilar","images/stimuli/spore_stims/complex_16_A_b.gif","middle","","","","",""
"","null","html-keyboard-response","64","192366","0.0-17.0-0.1","SS1613100607399","","","null","","","","","<p><img src= images/blank.png width =""200"" height = ""200"" style = ""float:right""></p><p><img src=images/blank.png width =""800"" height = ""200""></p>","","","","","","","","","","","",""
"","464.70999997109175","sequential-stimulus-presentation","65","193635","0.0-17.0-1.1","SS1613100607399","trial","","40","800","1264.7099999710917","images/stimuli/spore_stims/complex_08_A_b.gif","images/stimuli/spore_stims/complex_16_A_b.gif","","","","","3","complex_dissimilar","images/stimuli/spore_stims/complex_16_A_b.gif","middle","","","","",""
"","null","html-keyboard-response","66","194713","0.0-17.0-0.2","SS1613100607399","","","null","","","","","<p><img src= images/blank.png width =""200"" height = ""200"" style = ""float:right""></p><p><img src=images/blank.png width =""800"" height = ""200""></p>","","","","","","","","","","","",""
"","644.5800000801682","sequential-stimulus-presentation","67","196166","0.0-17.0-1.2","SS1613100607399","trial","","40","800","1444.5800000801682","images/stimuli/spore_stims/complex_08_A_b.gif","images/stimuli/spore_stims/complex_16_A_b.gif","","","","","3","complex_dissimilar","images/stimuli/spore_stims/complex_16_A_b.gif","middle","","","","",""
"","null","html-keyboard-response","68","197155","0.0-17.0-0.3","SS1613100607399","","","null","","","","","<p><img src= images/blank.png width =""200"" height = ""200"" style = ""float:right""></p><p><img src=images/blank.png width =""800"" height = ""200""></p>","","","","","","","","","","","",""
"","3340.210000053048","sequential-stimulus-presentation","69","201313","0.0-17.0-1.3","SS1613100607399","trial","","40","800","4140.210000053048","images/stimuli/spore_stims/complex_08_A_b.gif","images/stimuli/spore_stims/complex_16_A_b.gif","","","","","3","complex_dissimilar","images/stimuli/spore_stims/complex_08_A_b.gif","left","","","","",""
"","null","html-keyboard-response","70","202419","0.0-17.0-0.4","SS1613100607399","","","null","","","","","<p><img src= images/blank.png width =""200"" height = ""200"" style = ""float:right""></p><p><img src=images/blank.png width =""800"" height = ""200""></p>","","","","","","","","","","","",""
"","868.0700003169477","sequential-stimulus-presentation","71","204095","0.0-17.0-1.4","SS1613100607399","trial","","40","800","1668.0700003169477","images/stimuli/spore_stims/complex_08_A_b.gif","images/stimuli/spore_stims/complex_16_A_b.gif","","","","","3","complex_dissimilar","images/stimuli/spore_stims/complex_16_A_b.gif","middle","","","","",""
"","null","html-keyboard-response","72","205174","0.0-17.0-0.5","SS1613100607399","","","null","","","","","<p><img src= images/blank.png width =""200"" height = ""200"" style = ""float:right""></p><p><img src=images/blank.png width =""800"" height = ""200""></p>","","","","","","","","","","","",""
"","1042.4799998290837","sequential-stimulus-presentation","73","207026","0.0-17.0-1.5","SS1613100607399","trial","","40","800","1842.4799998290837","images/stimuli/spore_stims/complex_08_A_b.gif","images/stimuli/spore_stims/complex_16_A_b.gif","","","","","3","complex_dissimilar","images/stimuli/spore_stims/complex_16_A_b.gif","middle","","","","",""
"","null","html-keyboard-response","74","208040","0.0-17.0-0.6","SS1613100607399","","","null","","","","","<p><img src= images/blank.png width =""200"" height = ""200"" style = ""float:right""></p><p><img src=images/blank.png width =""800"" height = ""200""></p>","","","","","","","","","","","",""
"","388.9450002461672","sequential-stimulus-presentation","75","209238","0.0-17.0-1.6","SS1613100607399","trial","","40","800","1188.9450002461672","images/stimuli/spore_stims/complex_08_A_b.gif","images/stimuli/spore_stims/complex_16_A_b.gif","","","","","3","complex_dissimilar","images/stimuli/spore_stims/complex_16_A_b.gif","middle","","","","",""
"","null","html-keyboard-response","76","210432","0.0-17.0-0.7","SS1613100607399","","","null","","","","","<p><img src= images/blank.png width =""200"" height = ""200"" style = ""float:right""></p><p><img src=images/blank.png width =""800"" height = ""200""></p>","","","","","","","","","","","",""
"","337.33499981462955","sequential-stimulus-presentation","77","211588","0.0-17.0-1.7","SS1613100607399","trial","","40","800","1137.3349998146296","images/stimuli/spore_stims/complex_08_A_b.gif","images/stimuli/spore_stims/complex_16_A_b.gif","","","","","3","complex_dissimilar","images/stimuli/spore_stims/complex_16_A_b.gif","middle","","","","",""
"","1817.0099998824298","html-keyboard-response","78","213412","0.0-18.0","SS1613100607399","pref_question","","51","","","","","<video width ='960' height = '540' style='padding-top:8%' autoplay muted><source src='images/stimuli/wall_pref.mp4' type='video/mp4'></video>","3","right","66%","3","","","","","","","",""
"","4259.594999719411","sequential-stimulus-presentation","79","218475","0.0-19.0","SS1613100607399","pref_reveal","","40","800","5059.594999719411","null","null","","","","","3","","","","novel","","","",""
"","null","html-keyboard-response","80","219718","0.0-20.0-0.0","SS1613100607399","","","null","","","","","<p><img src= images/blank.png width =""200"" height = ""200"" style = ""float:right""></p><p><img src=images/blank.png width =""800"" height = ""200""></p>","","","","","","","","","","","",""
"","3935.025000013411","sequential-stimulus-presentation","81","224465","0.0-20.0-1.0","SS1613100607399","trial","","40","800","4735.025000013411","images/stimuli/spore_stims/complex_18_B_a.gif","images/stimuli/spore_stims/complex_12_B_b.gif","","","","","4","complex_dissimilar","images/stimuli/spore_stims/complex_12_B_b.gif","left","","","","",""
"","null","html-keyboard-response","82","225321","0.0-20.0-0.1","SS1613100607399","","","null","","","","","<p><img src= images/blank.png width =""200"" height = ""200"" style = ""float:right""></p><p><img src=images/blank.png width =""800"" height = ""200""></p>","","","","","","","","","","","",""
"","2893.869999796152","sequential-stimulus-presentation","83","229022","0.0-20.0-1.1","SS1613100607399","trial","","40","800","3693.869999796152","images/stimuli/spore_stims/complex_18_B_a.gif","images/stimuli/spore_stims/complex_12_B_b.gif","","","","","4","complex_dissimilar","images/stimuli/spore_stims/complex_12_B_b.gif","left","","","","",""
"","null","html-keyboard-response","84","230318","0.0-20.0-0.2","SS1613100607399","","","null","","","","","<p><img src= images/blank.png width =""200"" height = ""200"" style = ""float:right""></p><p><img src=images/blank.png width =""800"" height = ""200""></p>","","","","","","","","","","","",""
"","436.1899998039007","sequential-stimulus-presentation","85","231572","0.0-20.0-1.2","SS1613100607399","trial","","40","800","1236.1899998039007","images/stimuli/spore_stims/complex_18_B_a.gif","images/stimuli/spore_stims/complex_12_B_b.gif","","","","","4","complex_dissimilar","images/stimuli/spore_stims/complex_12_B_b.gif","left","","","","",""
"","null","html-keyboard-response","86","232655","0.0-20.0-0.3","SS1613100607399","","","null","","","","","<p><img src= images/blank.png width =""200"" height = ""200"" style = ""float:right""></p><p><img src=images/blank.png width =""800"" height = ""200""></p>","","","","","","","","","","","",""
"","690.1950002647936","sequential-stimulus-presentation","87","234165","0.0-20.0-1.3","SS1613100607399","trial","","40","800","1490.1950002647936","images/stimuli/spore_stims/complex_18_B_a.gif","images/stimuli/spore_stims/complex_12_B_b.gif","","","","","4","complex_dissimilar","images/stimuli/spore_stims/complex_12_B_b.gif","left","","","","",""
"","null","html-keyboard-response","88","235059","0.0-20.0-0.4","SS1613100607399","","","null","","","","","<p><img src= images/blank.png width =""200"" height = ""200"" style = ""float:right""></p><p><img src=images/blank.png width =""800"" height = ""200""></p>","","","","","","","","","","","",""
"","4320.780000183731","sequential-stimulus-presentation","89","240189","0.0-20.0-1.4","SS1613100607399","trial","","40","800","5120.780000183731","images/stimuli/spore_stims/complex_18_B_a.gif","images/stimuli/spore_stims/complex_12_B_b.gif","","","","","4","complex_dissimilar","images/stimuli/spore_stims/complex_18_B_a.gif","right","","","","",""
"","null","html-keyboard-response","90","241222","0.0-20.0-0.5","SS1613100607399","","","null","","","","","<p><img src= images/blank.png width =""200"" height = ""200"" style = ""float:right""></p><p><img src=images/blank.png width =""800"" height = ""200""></p>","","","","","","","","","","","",""
"","1937.0500002987683","sequential-stimulus-presentation","91","243965","0.0-20.0-1.5","SS1613100607399","trial","","40","800","2737.0500002987683","images/stimuli/spore_stims/complex_18_B_a.gif","images/stimuli/spore_stims/complex_12_B_b.gif","","","","","4","complex_dissimilar","images/stimuli/spore_stims/complex_12_B_b.gif","left","","","","",""
"","null","html-keyboard-response","92","244859","0.0-20.0-0.6","SS1613100607399","","","null","","","","","<p><img src= images/blank.png width =""200"" height = ""200"" style = ""float:right""></p><p><img src=images/blank.png width =""800"" height = ""200""></p>","","","","","","","","","","","",""
"","383.3350003696978","sequential-stimulus-presentation","93","246066","0.0-20.0-1.6","SS1613100607399","trial","","40","800","1183.3350003696978","images/stimuli/spore_stims/complex_18_B_a.gif","images/stimuli/spore_stims/complex_12_B_b.gif","","","","","4","complex_dissimilar","images/stimuli/spore_stims/complex_12_B_b.gif","left","","","","",""
"","null","html-keyboard-response","94","247053","0.0-20.0-0.7","SS1613100607399","","","null","","","","","<p><img src= images/blank.png width =""200"" height = ""200"" style = ""float:right""></p><p><img src=images/blank.png width =""800"" height = ""200""></p>","","","","","","","","","","","",""
"","929.5049998909235","sequential-stimulus-presentation","95","248787","0.0-20.0-1.7","SS1613100607399","trial","","40","800","1729.5049998909235","images/stimuli/spore_stims/complex_18_B_a.gif","images/stimuli/spore_stims/complex_12_B_b.gif","","","","","4","complex_dissimilar","images/stimuli/spore_stims/complex_12_B_b.gif","left","","","","",""
"","1766.8450004421175","html-keyboard-response","96","250563","0.0-21.0","SS1613100607399","pref_question","","50","","","","","<video width ='960' height = '540' style='padding-top:8%' autoplay muted><source src='images/stimuli/wall_pref.mp4' type='video/mp4'></video>","2","middle","45%","4","","","","","","","",""
"","3829.884999897331","sequential-stimulus-presentation","97","255203","0.0-22.0","SS1613100607399","pref_reveal","","40","800","4629.884999897331","null","null","","","","","4","","","","novel","","","",""
"","null","html-keyboard-response","98","256343","0.0-23.0-0.0","SS1613100607399","","","null","","","","","<p><img src= images/blank.png width =""200"" height = ""200"" style = ""float:right""></p><p><img src=images/blank.png width =""800"" height = ""200""></p>","","","","","","","","","","","",""
"","3408.210000023246","sequential-stimulus-presentation","99","260562","0.0-23.0-1.0","SS1613100607399","trial","","40","800","4208.210000023246","images/stimuli/spore_stims/simple_12_A_d.gif","images/stimuli/spore_stims/simple_18_B_b.gif","","","","","5","simple_dissimilar","images/stimuli/spore_stims/simple_18_B_b.gif","left","","","","",""
"","null","html-keyboard-response","100","261557","0.0-23.0-0.1","SS1613100607399","","","null","","","","","<p><img src= images/blank.png width =""200"" height = ""200"" style = ""float:right""></p><p><img src=images/blank.png width =""800"" height = ""200""></p>","","","","","","","","","","","",""
"","351.8600002862513","sequential-stimulus-presentation","101","262719","0.0-23.0-1.1","SS1613100607399","trial","","40","800","1151.8600002862513","images/stimuli/spore_stims/simple_12_A_d.gif","images/stimuli/spore_stims/simple_18_B_b.gif","","","","","5","simple_dissimilar","images/stimuli/spore_stims/simple_18_B_b.gif","left","","","","",""
"","null","html-keyboard-response","102","264014","0.0-23.0-0.2","SS1613100607399","","","null","","","","","<p><img src= images/blank.png width =""200"" height = ""200"" style = ""float:right""></p><p><img src=images/blank.png width =""800"" height = ""200""></p>","","","","","","","","","","","",""
"","682.4799999594688","sequential-stimulus-presentation","103","265507","0.0-23.0-1.2","SS1613100607399","trial","","40","800","1482.4799999594688","images/stimuli/spore_stims/simple_12_A_d.gif","images/stimuli/spore_stims/simple_18_B_b.gif","","","","","5","simple_dissimilar","images/stimuli/spore_stims/simple_18_B_b.gif","left","","","","",""
"","null","html-keyboard-response","104","266506","0.0-23.0-0.3","SS1613100607399","","","null","","","","","<p><img src= images/blank.png width =""200"" height = ""200"" style = ""float:right""></p><p><img src=images/blank.png width =""800"" height = ""200""></p>","","","","","","","","","","","",""
"","436.19500007480383","sequential-stimulus-presentation","105","267764","0.0-23.0-1.3","SS1613100607399","trial","","40","800","1236.1950000748038","images/stimuli/spore_stims/simple_12_A_d.gif","images/stimuli/spore_stims/simple_18_B_b.gif","","","","","5","simple_dissimilar","images/stimuli/spore_stims/simple_18_B_b.gif","left","","","","",""
"","null","html-keyboard-response","106","268781","0.0-23.0-0.4","SS1613100607399","","","null","","","","","<p><img src= images/blank.png width =""200"" height = ""200"" style = ""float:right""></p><p><img src=images/blank.png width =""800"" height = ""200""></p>","","","","","","","","","","","",""
"","1842.6600000821054","sequential-stimulus-presentation","107","271428","0.0-23.0-1.4","SS1613100607399","trial","","40","800","2642.6600000821054","images/stimuli/spore_stims/simple_12_A_d.gif","images/stimuli/spore_stims/simple_18_B_b.gif","","","","","5","simple_dissimilar","images/stimuli/spore_stims/simple_12_A_d.gif","middle","","","","",""
"","null","html-keyboard-response","108","272458","0.0-23.0-0.5","SS1613100607399","","","null","","","","","<p><img src= images/blank.png width =""200"" height = ""200"" style = ""float:right""></p><p><img src=images/blank.png width =""800"" height = ""200""></p>","","","","","","","","","","","",""
"","2356.6699996590614","sequential-stimulus-presentation","109","275618","0.0-23.0-1.5","SS1613100607399","trial","","40","800","3156.6699996590614","images/stimuli/spore_stims/simple_12_A_d.gif","images/stimuli/spore_stims/simple_18_B_b.gif","","","","","5","simple_dissimilar","images/stimuli/spore_stims/simple_18_B_b.gif","left","","","","",""
"","null","html-keyboard-response","110","276861","0.0-23.0-0.6","SS1613100607399","","","null","","","","","<p><img src= images/blank.png width =""200"" height = ""200"" style = ""float:right""></p><p><img src=images/blank.png width =""800"" height = ""200""></p>","","","","","","","","","","","",""
"","823.7700001336634","sequential-stimulus-presentation","111","278488","0.0-23.0-1.6","SS1613100607399","trial","","40","800","1623.7700001336634","images/stimuli/spore_stims/simple_12_A_d.gif","images/stimuli/spore_stims/simple_18_B_b.gif","","","","","5","simple_dissimilar","images/stimuli/spore_stims/simple_18_B_b.gif","left","","","","",""
"","null","html-keyboard-response","112","279636","0.0-23.0-0.7","SS1613100607399","","","null","","","","","<p><img src= images/blank.png width =""200"" height = ""200"" style = ""float:right""></p><p><img src=images/blank.png width =""800"" height = ""200""></p>","","","","","","","","","","","",""
"","345.88499972596765","sequential-stimulus-presentation","113","280793","0.0-23.0-1.7","SS1613100607399","trial","","40","800","1145.8849997259676","images/stimuli/spore_stims/simple_12_A_d.gif","images/stimuli/spore_stims/simple_18_B_b.gif","","","","","5","simple_dissimilar","images/stimuli/spore_stims/simple_18_B_b.gif","left","","","","",""
"","2249.9550003558397","html-keyboard-response","114","283046","0.0-24.0","SS1613100607399","pref_question","","51","","","","","<video width ='960' height = '540' style='padding-top:8%' autoplay muted><source src='images/stimuli/wall_pref.mp4' type='video/mp4'></video>","3","right","66%","5","","","","","","","",""
"","6178.009999915957","sequential-stimulus-presentation","115","290041","0.0-25.0","SS1613100607399","pref_reveal","","40","800","6978.009999915957","null","null","","","","","5","","","","novel","","","",""
"","null","html-keyboard-response","116","291031","0.0-26.0-0.0","SS1613100607399","","","null","","","","","<p><img src= images/blank.png width =""200"" height = ""200"" style = ""float:right""></p><p><img src=images/blank.png width =""800"" height = ""200""></p>","","","","","","","","","","","",""
"","3599.5300002396107","sequential-stimulus-presentation","117","295442","0.0-26.0-1.0","SS1613100607399","trial","","40","800","4399.530000239611","images/stimuli/spore_stims/simple_09_A_a.gif","images/stimuli/spore_stims/simple_09_B_a.gif","","","","","6","simple_similar","images/stimuli/spore_stims/simple_09_B_a.gif","left","","","","",""
"","null","html-keyboard-response","118","296520","0.0-26.0-0.1","SS1613100607399","","","null","","","","","<p><img src= images/blank.png width =""200"" height = ""200"" style = ""float:right""></p><p><img src=images/blank.png width =""800"" height = ""200""></p>","","","","","","","","","","","",""
"","307.02999979257584","sequential-stimulus-presentation","119","297634","0.0-26.0-1.1","SS1613100607399","trial","","40","800","1107.0299997925758","images/stimuli/spore_stims/simple_09_A_a.gif","images/stimuli/spore_stims/simple_09_B_a.gif","","","","","6","simple_similar","images/stimuli/spore_stims/simple_09_B_a.gif","left","","","","",""
"","null","html-keyboard-response","120","298925","0.0-26.0-0.2","SS1613100607399","","","null","","","","","<p><img src= images/blank.png width =""200"" height = ""200"" style = ""float:right""></p><p><img src=images/blank.png width =""800"" height = ""200""></p>","","","","","","","","","","","",""
"","475.99999979138374","sequential-stimulus-presentation","121","300204","0.0-26.0-1.2","SS1613100607399","trial","","40","800","1275.9999997913837","images/stimuli/spore_stims/simple_09_A_a.gif","images/stimuli/spore_stims/simple_09_B_a.gif","","","","","6","simple_similar","images/stimuli/spore_stims/simple_09_B_a.gif","left","","","","",""
"","null","html-keyboard-response","122","301502","0.0-26.0-0.3","SS1613100607399","","","null","","","","","<p><img src= images/blank.png width =""200"" height = ""200"" style = ""float:right""></p><p><img src=images/blank.png width =""800"" height = ""200""></p>","","","","","","","","","","","",""
"","4348.389999940991","sequential-stimulus-presentation","123","306660","0.0-26.0-1.3","SS1613100607399","trial","","40","800","5148.389999940991","images/stimuli/spore_stims/simple_09_A_a.gif","images/stimuli/spore_stims/simple_09_B_a.gif","","","","","6","simple_similar","images/stimuli/spore_stims/simple_09_A_a.gif","right","","","","",""
"","null","html-keyboard-response","124","307680","0.0-26.0-0.4","SS1613100607399","","","null","","","","","<p><img src= images/blank.png width =""200"" height = ""200"" style = ""float:right""></p><p><img src=images/blank.png width =""800"" height = ""200""></p>","","","","","","","","","","","",""
"","1991.0850003361702","sequential-stimulus-presentation","125","310481","0.0-26.0-1.4","SS1613100607399","trial","","40","800","2791.08500033617","images/stimuli/spore_stims/simple_09_A_a.gif","images/stimuli/spore_stims/simple_09_B_a.gif","","","","","6","simple_similar","images/stimuli/spore_stims/simple_09_B_a.gif","left","","","","",""
"","null","html-keyboard-response","126","311599","0.0-26.0-0.5","SS1613100607399","","","null","","","","","<p><img src= images/blank.png width =""200"" height = ""200"" style = ""float:right""></p><p><img src=images/blank.png width =""800"" height = ""200""></p>","","","","","","","","","","","",""
"","562.0200000703335","sequential-stimulus-presentation","127","312973","0.0-26.0-1.5","SS1613100607399","trial","","40","800","1362.0200000703335","images/stimuli/spore_stims/simple_09_A_a.gif","images/stimuli/spore_stims/simple_09_B_a.gif","","","","","6","simple_similar","images/stimuli/spore_stims/simple_09_B_a.gif","left","","","","",""
"","null","html-keyboard-response","128","314254","0.0-26.0-0.6","SS1613100607399","","","null","","","","","<p><img src= images/blank.png width =""200"" height = ""200"" style = ""float:right""></p><p><img src=images/blank.png width =""800"" height = ""200""></p>","","","","","","","","","","","",""
"","729.0900000371039","sequential-stimulus-presentation","129","315793","0.0-26.0-1.6","SS1613100607399","trial","","40","800","1529.090000037104","images/stimuli/spore_stims/simple_09_A_a.gif","images/stimuli/spore_stims/simple_09_B_a.gif","","","","","6","simple_similar","images/stimuli/spore_stims/simple_09_B_a.gif","left","","","","",""
"","null","html-keyboard-response","130","316698","0.0-26.0-0.7","SS1613100607399","","","null","","","","","<p><img src= images/blank.png width =""200"" height = ""200"" style = ""float:right""></p><p><img src=images/blank.png width =""800"" height = ""200""></p>","","","","","","","","","","","",""
"","778.3699999563396","sequential-stimulus-presentation","131","318281","0.0-26.0-1.7","SS1613100607399","trial","","40","800","1578.3699999563396","images/stimuli/spore_stims/simple_09_A_a.gif","images/stimuli/spore_stims/simple_09_B_a.gif","","","","","6","simple_similar","images/stimuli/spore_stims/simple_09_B_a.gif","left","","","","",""
"","1847.5449997931719","html-keyboard-response","132","320138","0.0-27.0","SS1613100607399","pref_question","","50","","","","","<video width ='960' height = '540' style='padding-top:8%' autoplay muted><source src='images/stimuli/wall_pref.mp4' type='video/mp4'></video>","2","middle","45%","6","","","","","","","",""
"","4285.945000126958","sequential-stimulus-presentation","133","325236","0.0-28.0","SS1613100607399","pref_reveal","","40","800","5085.945000126958","null","null","","","","","6","","","","novel","","","",""
"","null","html-keyboard-response","134","326145","0.0-29.0-0.0","SS1613100607399","","","null","","","","","<p><img src= images/blank.png width =""200"" height = ""200"" style = ""float:right""></p><p><img src=images/blank.png width =""800"" height = ""200""></p>","","","","","","","","","","","",""
"","1165.6450000591576","sequential-stimulus-presentation","135","328123","0.0-29.0-1.0","SS1613100607399","trial","","40","800","1965.6450000591576","images/stimuli/spore_stims/simple_07_B_d.gif","images/stimuli/spore_stims/simple_07_A_d.gif","","","","","7","simple_similar","images/stimuli/spore_stims/simple_07_A_d.gif","left","","","","",""
"","null","html-keyboard-response","136","329295","0.0-29.0-0.1","SS1613100607399","","","null","","","","","<p><img src= images/blank.png width =""200"" height = ""200"" style = ""float:right""></p><p><img src=images/blank.png width =""800"" height = ""200""></p>","","","","","","","","","","","",""
"","3582.9500001855195","sequential-stimulus-presentation","137","333684","0.0-29.0-1.1","SS1613100607399","trial","","40","800","4382.9500001855195","images/stimuli/spore_stims/simple_07_B_d.gif","images/stimuli/spore_stims/simple_07_A_d.gif","","","","","7","simple_similar","images/stimuli/spore_stims/simple_07_A_d.gif","left","","","","",""
"","null","html-keyboard-response","138","334948","0.0-29.0-0.2","SS1613100607399","","","null","","","","","<p><img src= images/blank.png width =""200"" height = ""200"" style = ""float:right""></p><p><img src=images/blank.png width =""800"" height = ""200""></p>","","","","","","","","","","","",""
"","3478.889999911189","sequential-stimulus-presentation","139","339243","0.0-29.0-1.2","SS1613100607399","trial","","40","800","4278.889999911189","images/stimuli/spore_stims/simple_07_B_d.gif","images/stimuli/spore_stims/simple_07_A_d.gif","","","","","7","simple_similar","images/stimuli/spore_stims/simple_07_B_d.gif","right","","","","",""
"","null","html-keyboard-response","140","340227","0.0-29.0-0.3","SS1613100607399","","","null","","","","","<p><img src= images/blank.png width =""200"" height = ""200"" style = ""float:right""></p><p><img src=images/blank.png width =""800"" height = ""200""></p>","","","","","","","","","","","",""
"","324.1849998012185","sequential-stimulus-presentation","141","341360","0.0-29.0-1.3","SS1613100607399","trial","","40","800","1124.1849998012185","images/stimuli/spore_stims/simple_07_B_d.gif","images/stimuli/spore_stims/simple_07_A_d.gif","","","","","7","simple_similar","images/stimuli/spore_stims/simple_07_A_d.gif","left","","","","",""
"","null","html-keyboard-response","142","342465","0.0-29.0-0.4","SS1613100607399","","","null","","","","","<p><img src= images/blank.png width =""200"" height = ""200"" style = ""float:right""></p><p><img src=images/blank.png width =""800"" height = ""200""></p>","","","","","","","","","","","",""
"","610.2350000292063","sequential-stimulus-presentation","143","343885","0.0-29.0-1.4","SS1613100607399","trial","","40","800","1410.2350000292063","images/stimuli/spore_stims/simple_07_B_d.gif","images/stimuli/spore_stims/simple_07_A_d.gif","","","","","7","simple_similar","images/stimuli/spore_stims/simple_07_A_d.gif","left","","","","",""
"","null","html-keyboard-response","144","344739","0.0-29.0-0.5","SS1613100607399","","","null","","","","","<p><img src= images/blank.png width =""200"" height = ""200"" style = ""float:right""></p><p><img src=images/blank.png width =""800"" height = ""200""></p>","","","","","","","","","","","",""
"","699.8649998567998","sequential-stimulus-presentation","145","346243","0.0-29.0-1.5","SS1613100607399","trial","","40","800","1499.8649998567998","images/stimuli/spore_stims/simple_07_B_d.gif","images/stimuli/spore_stims/simple_07_A_d.gif","","","","","7","simple_similar","images/stimuli/spore_stims/simple_07_A_d.gif","left","","","","",""
"","null","html-keyboard-response","146","347384","0.0-29.0-0.6","SS1613100607399","","","null","","","","","<p><img src= images/blank.png width =""200"" height = ""200"" style = ""float:right""></p><p><img src=images/blank.png width =""800"" height = ""200""></p>","","","","","","","","","","","",""
"","712.5550000928342","sequential-stimulus-presentation","147","348905","0.0-29.0-1.6","SS1613100607399","trial","","40","800","1512.5550000928342","images/stimuli/spore_stims/simple_07_B_d.gif","images/stimuli/spore_stims/simple_07_A_d.gif","","","","","7","simple_similar","images/stimuli/spore_stims/simple_07_A_d.gif","left","","","","",""
"","null","html-keyboard-response","148","349754","0.0-29.0-0.7","SS1613100607399","","","null","","","","","<p><img src= images/blank.png width =""200"" height = ""200"" style = ""float:right""></p><p><img src=images/blank.png width =""800"" height = ""200""></p>","","","","","","","","","","","",""
"","275.47500003129244","sequential-stimulus-presentation","149","350834","0.0-29.0-1.7","SS1613100607399","trial","","40","800","1075.4750000312924","images/stimuli/spore_stims/simple_07_B_d.gif","images/stimuli/spore_stims/simple_07_A_d.gif","","","","","7","simple_similar","images/stimuli/spore_stims/simple_07_A_d.gif","left","","","","",""
"","1605.0100000575185","html-keyboard-response","150","352442","0.0-30.0","SS1613100607399","pref_question","","50","","","","","<video width ='960' height = '540' style='padding-top:8%' autoplay muted><source src='images/stimuli/wall_pref.mp4' type='video/mp4'></video>","2","middle","45%","7","","","","","","","",""
"","4204.700000118464","sequential-stimulus-presentation","151","357465","0.0-31.0","SS1613100607399","pref_reveal","","40","800","5004.700000118464","null","null","","","","","7","","","","novel","","","",""
"","null","html-keyboard-response","152","358421","0.0-32.0-0.0","SS1613100607399","","","null","","","","","<p><img src= images/blank.png width =""200"" height = ""200"" style = ""float:right""></p><p><img src=images/blank.png width =""800"" height = ""200""></p>","","","","","","","","","","","",""
"","3393.0750000290573","sequential-stimulus-presentation","153","362631","0.0-32.0-1.0","SS1613100607399","trial","","40","800","4193.075000029057","images/stimuli/spore_stims/simple_04_B_b.gif","images/stimuli/spore_stims/simple_16_A_b.gif","","","","","8","simple_dissimilar","images/stimuli/spore_stims/simple_16_A_b.gif","right","","","","",""
"","null","html-keyboard-response","154","363693","0.0-32.0-0.1","SS1613100607399","","","null","","","","","<p><img src= images/blank.png width =""200"" height = ""200"" style = ""float:right""></p><p><img src=images/blank.png width =""800"" height = ""200""></p>","","","","","","","","","","","",""
"","887.9049997776747","sequential-stimulus-presentation","155","365394","0.0-32.0-1.1","SS1613100607399","trial","","40","800","1687.9049997776747","images/stimuli/spore_stims/simple_04_B_b.gif","images/stimuli/spore_stims/simple_16_A_b.gif","","","","","8","simple_dissimilar","images/stimuli/spore_stims/simple_16_A_b.gif","right","","","","",""
"","null","html-keyboard-response","156","366560","0.0-32.0-0.2","SS1613100607399","","","null","","","","","<p><img src= images/blank.png width =""200"" height = ""200"" style = ""float:right""></p><p><img src=images/blank.png width =""800"" height = ""200""></p>","","","","","","","","","","","",""
"","3926.6900001093745","sequential-stimulus-presentation","157","371298","0.0-32.0-1.2","SS1613100607399","trial","","40","800","4726.6900001093745","images/stimuli/spore_stims/simple_04_B_b.gif","images/stimuli/spore_stims/simple_16_A_b.gif","","","","","8","simple_dissimilar","images/stimuli/spore_stims/simple_04_B_b.gif","middle","","","","",""
"","null","html-keyboard-response","158","372200","0.0-32.0-0.3","SS1613100607399","","","null","","","","","<p><img src= images/blank.png width =""200"" height = ""200"" style = ""float:right""></p><p><img src=images/blank.png width =""800"" height = ""200""></p>","","","","","","","","","","","",""
"","355.574999935925","sequential-stimulus-presentation","159","373361","0.0-32.0-1.3","SS1613100607399","trial","","40","800","1155.574999935925","images/stimuli/spore_stims/simple_04_B_b.gif","images/stimuli/spore_stims/simple_16_A_b.gif","","","","","8","simple_dissimilar","images/stimuli/spore_stims/simple_16_A_b.gif","right","","","","",""
"","null","html-keyboard-response","160","374590","0.0-32.0-0.4","SS1613100607399","","","null","","","","","<p><img src= images/blank.png width =""200"" height = ""200"" style = ""float:right""></p><p><img src=images/blank.png width =""800"" height = ""200""></p>","","","","","","","","","","","",""
"","292.905000038445","sequential-stimulus-presentation","161","375694","0.0-32.0-1.4","SS1613100607399","trial","","40","800","1092.905000038445","images/stimuli/spore_stims/simple_04_B_b.gif","images/stimuli/spore_stims/simple_16_A_b.gif","","","","","8","simple_dissimilar","images/stimuli/spore_stims/simple_16_A_b.gif","right","","","","",""
"","null","html-keyboard-response","162","376894","0.0-32.0-0.5","SS1613100607399","","","null","","","","","<p><img src= images/blank.png width =""200"" height = ""200"" style = ""float:right""></p><p><img src=images/blank.png width =""800"" height = ""200""></p>","","","","","","","","","","","",""
"","322.6250000298023","sequential-stimulus-presentation","163","378027","0.0-32.0-1.5","SS1613100607399","trial","","40","800","1122.6250000298023","images/stimuli/spore_stims/simple_04_B_b.gif","images/stimuli/spore_stims/simple_16_A_b.gif","","","","","8","simple_dissimilar","images/stimuli/spore_stims/simple_16_A_b.gif","right","","","","",""
"","null","html-keyboard-response","164","379165","0.0-32.0-0.6","SS1613100607399","","","null","","","","","<p><img src= images/blank.png width =""200"" height = ""200"" style = ""float:right""></p><p><img src=images/blank.png width =""800"" height = ""200""></p>","","","","","","","","","","","",""
"","1803.0099999159575","sequential-stimulus-presentation","165","381779","0.0-32.0-1.6","SS1613100607399","trial","","40","800","2603.0099999159575","images/stimuli/spore_stims/simple_04_B_b.gif","images/stimuli/spore_stims/simple_16_A_b.gif","","","","","8","simple_dissimilar","images/stimuli/spore_stims/simple_16_A_b.gif","right","","","","",""
"","null","html-keyboard-response","166","382943","0.0-32.0-0.7","SS1613100607399","","","null","","","","","<p><img src= images/blank.png width =""200"" height = ""200"" style = ""float:right""></p><p><img src=images/blank.png width =""800"" height = ""200""></p>","","","","","","","","","","","",""
"","1799.329999834299","sequential-stimulus-presentation","167","385557","0.0-32.0-1.7","SS1613100607399","trial","","40","800","2599.329999834299","images/stimuli/spore_stims/simple_04_B_b.gif","images/stimuli/spore_stims/simple_16_A_b.gif","","","","","8","simple_dissimilar","images/stimuli/spore_stims/simple_16_A_b.gif","right","","","","",""
"","1718.639999628067","html-keyboard-response","168","387283","0.0-33.0","SS1613100607399","pref_question","","49","","","","","<video width ='960' height = '540' style='padding-top:8%' autoplay muted><source src='images/stimuli/wall_pref.mp4' type='video/mp4'></video>","1","left","25%","8","","","","","","","",""
"","4244.444999843836","sequential-stimulus-presentation","169","392342","0.0-34.0","SS1613100607399","pref_reveal","","40","800","5044.444999843836","null","null","","","","","8","","","","novel","","","",""
"","null","html-keyboard-response","170","393523","0.0-35.0-0.0","SS1613100607399","","","null","","","","","<p><img src= images/blank.png width =""200"" height = ""200"" style = ""float:right""></p><p><img src=images/blank.png width =""800"" height = ""200""></p>","","","","","","","","","","","",""
"","4389.070000033826","sequential-stimulus-presentation","171","398727","0.0-35.0-1.0","SS1613100607399","trial","","40","800","5189.070000033826","images/stimuli/spore_stims/complex_11_A_d.gif","images/stimuli/spore_stims/complex_11_B_d.gif","","","","","9","complex_similar","images/stimuli/spore_stims/complex_11_B_d.gif","left","","","","",""
"","null","html-keyboard-response","172","399679","0.0-35.0-0.1","SS1613100607399","","","null","","","","","<p><img src= images/blank.png width =""200"" height = ""200"" style = ""float:right""></p><p><img src=images/blank.png width =""800"" height = ""200""></p>","","","","","","","","","","","",""
"","2878.259999677539","sequential-stimulus-presentation","173","403371","0.0-35.0-1.1","SS1613100607399","trial","","40","800","3678.259999677539","images/stimuli/spore_stims/complex_11_A_d.gif","images/stimuli/spore_stims/complex_11_B_d.gif","","","","","9","complex_similar","images/stimuli/spore_stims/complex_11_B_d.gif","left","","","","",""
"","null","html-keyboard-response","174","404443","0.0-35.0-0.2","SS1613100607399","","","null","","","","","<p><img src= images/blank.png width =""200"" height = ""200"" style = ""float:right""></p><p><img src=images/blank.png width =""800"" height = ""200""></p>","","","","","","","","","","","",""
"","3520.1499997638166","sequential-stimulus-presentation","175","408778","0.0-35.0-1.2","SS1613100607399","trial","","40","800","4320.149999763817","images/stimuli/spore_stims/complex_11_A_d.gif","images/stimuli/spore_stims/complex_11_B_d.gif","","","","","9","complex_similar","images/stimuli/spore_stims/complex_11_B_d.gif","left","","","","",""
"","null","html-keyboard-response","176","410043","0.0-35.0-0.3","SS1613100607399","","","null","","","","","<p><img src= images/blank.png width =""200"" height = ""200"" style = ""float:right""></p><p><img src=images/blank.png width =""800"" height = ""200""></p>","","","","","","","","","","","",""
"","257.8199999406934","sequential-stimulus-presentation","177","411114","0.0-35.0-1.3","SS1613100607399","trial","","40","800","1057.8199999406934","images/stimuli/spore_stims/complex_11_A_d.gif","images/stimuli/spore_stims/complex_11_B_d.gif","","","","","9","complex_similar","images/stimuli/spore_stims/complex_11_B_d.gif","left","","","","",""
"","null","html-keyboard-response","178","412068","0.0-35.0-0.4","SS1613100607399","","","null","","","","","<p><img src= images/blank.png width =""200"" height = ""200"" style = ""float:right""></p><p><img src=images/blank.png width =""800"" height = ""200""></p>","","","","","","","","","","","",""
"","269.3700003437698","sequential-stimulus-presentation","179","413167","0.0-35.0-1.4","SS1613100607399","trial","","40","800","1069.3700003437698","images/stimuli/spore_stims/complex_11_A_d.gif","images/stimuli/spore_stims/complex_11_B_d.gif","","","","","9","complex_similar","images/stimuli/spore_stims/complex_11_B_d.gif","left","","","","",""
"","null","html-keyboard-response","180","414297","0.0-35.0-0.5","SS1613100607399","","","null","","","","","<p><img src= images/blank.png width =""200"" height = ""200"" style = ""float:right""></p><p><img src=images/blank.png width =""800"" height = ""200""></p>","","","","","","","","","","","",""
"","358.46500005573034","sequential-stimulus-presentation","181","415475","0.0-35.0-1.5","SS1613100607399","trial","","40","800","1158.4650000557303","images/stimuli/spore_stims/complex_11_A_d.gif","images/stimuli/spore_stims/complex_11_B_d.gif","","","","","9","complex_similar","images/stimuli/spore_stims/complex_11_B_d.gif","left","","","","",""
"","null","html-keyboard-response","182","416713","0.0-35.0-0.6","SS1613100607399","","","null","","","","","<p><img src= images/blank.png width =""200"" height = ""200"" style = ""float:right""></p><p><img src=images/blank.png width =""800"" height = ""200""></p>","","","","","","","","","","","",""
"","335.5300002731383","sequential-stimulus-presentation","183","417854","0.0-35.0-1.6","SS1613100607399","trial","","40","800","1135.5300002731383","images/stimuli/spore_stims/complex_11_A_d.gif","images/stimuli/spore_stims/complex_11_B_d.gif","","","","","9","complex_similar","images/stimuli/spore_stims/complex_11_B_d.gif","left","","","","",""
"","null","html-keyboard-response","184","418684","0.0-35.0-0.7","SS1613100607399","","","null","","","","","<p><img src= images/blank.png width =""200"" height = ""200"" style = ""float:right""></p><p><img src=images/blank.png width =""800"" height = ""200""></p>","","","","","","","","","","","",""
"","3657.409999985248","sequential-stimulus-presentation","185","423157","0.0-35.0-1.7","SS1613100607399","trial","","40","800","4457.409999985248","images/stimuli/spore_stims/complex_11_A_d.gif","images/stimuli/spore_stims/complex_11_B_d.gif","","","","","9","complex_similar","images/stimuli/spore_stims/complex_11_A_d.gif","right","","","","",""
"","1626.1700000613928","html-keyboard-response","186","424789","0.0-36.0","SS1613100607399","pref_question","","50","","","","","<video width ='960' height = '540' style='padding-top:8%' autoplay muted><source src='images/stimuli/wall_pref.mp4' type='video/mp4'></video>","2","middle","45%","9","","","","","","","",""
"","4071.399999782443","sequential-stimulus-presentation","187","429667","0.0-37.0","SS1613100607399","pref_reveal","","40","800","4871.399999782443","null","null","","","","","9","","","","novel","","","",""
"","null","html-keyboard-response","188","430832","0.0-38.0-0.0","SS1613100607399","","","null","","","","","<p><img src= images/blank.png width =""200"" height = ""200"" style = ""float:right""></p><p><img src=images/blank.png width =""800"" height = ""200""></p>","","","","","","","","","","","",""
"","3482.3599997907877","sequential-stimulus-presentation","189","435119","0.0-38.0-1.0","SS1613100607399","trial","","40","800","4282.359999790788","images/stimuli/spore_stims/complex_15_A_c.gif","images/stimuli/spore_stims/complex_15_B_c.gif","","","","","10","complex_similar","images/stimuli/spore_stims/complex_15_B_c.gif","middle","","","","",""
"","null","html-keyboard-response","190","435954","0.0-38.0-0.1","SS1613100607399","","","null","","","","","<p><img src= images/blank.png width =""200"" height = ""200"" style = ""float:right""></p><p><img src=images/blank.png width =""800"" height = ""200""></p>","","","","","","","","","","","",""
"","300.97000021487474","sequential-stimulus-presentation","191","437069","0.0-38.0-1.1","SS1613100607399","trial","","40","800","1100.9700002148747","images/stimuli/spore_stims/complex_15_A_c.gif","images/stimuli/spore_stims/complex_15_B_c.gif","","","","","10","complex_similar","images/stimuli/spore_stims/complex_15_B_c.gif","middle","","","","",""
"","null","html-keyboard-response","192","438069","0.0-38.0-0.2","SS1613100607399","","","null","","","","","<p><img src= images/blank.png width =""200"" height = ""200"" style = ""float:right""></p><p><img src=images/blank.png width =""800"" height = ""200""></p>","","","","","","","","","","","",""
"","226.27999959513545","sequential-stimulus-presentation","193","439108","0.0-38.0-1.2","SS1613100607399","trial","","40","800","1026.2799995951355","images/stimuli/spore_stims/complex_15_A_c.gif","images/stimuli/spore_stims/complex_15_B_c.gif","","","","","10","complex_similar","images/stimuli/spore_stims/complex_15_B_c.gif","middle","","","","",""
"","null","html-keyboard-response","194","440040","0.0-38.0-0.3","SS1613100607399","","","null","","","","","<p><img src= images/blank.png width =""200"" height = ""200"" style = ""float:right""></p><p><img src=images/blank.png width =""800"" height = ""200""></p>","","","","","","","","","","","",""
"","629.1449996642768","sequential-stimulus-presentation","195","441474","0.0-38.0-1.3","SS1613100607399","trial","","40","800","1429.1449996642768","images/stimuli/spore_stims/complex_15_A_c.gif","images/stimuli/spore_stims/complex_15_B_c.gif","","","","","10","complex_similar","images/stimuli/spore_stims/complex_15_B_c.gif","middle","","","","",""
"","null","html-keyboard-response","196","442513","0.0-38.0-0.4","SS1613100607399","","","null","","","","","<p><img src= images/blank.png width =""200"" height = ""200"" style = ""float:right""></p><p><img src=images/blank.png width =""800"" height = ""200""></p>","","","","","","","","","","","",""
"","3666.2650001235306","sequential-stimulus-presentation","197","446986","0.0-38.0-1.4","SS1613100607399","trial","","40","800","4466.265000123531","images/stimuli/spore_stims/complex_15_A_c.gif","images/stimuli/spore_stims/complex_15_B_c.gif","","","","","10","complex_similar","images/stimuli/spore_stims/complex_15_A_c.gif","left","","","","",""
"","null","html-keyboard-response","198","447862","0.0-38.0-0.5","SS1613100607399","","","null","","","","","<p><img src= images/blank.png width =""200"" height = ""200"" style = ""float:right""></p><p><img src=images/blank.png width =""800"" height = ""200""></p>","","","","","","","","","","","",""
"","300.1749999821186","sequential-stimulus-presentation","199","448979","0.0-38.0-1.5","SS1613100607399","trial","","40","800","1100.1749999821186","images/stimuli/spore_stims/complex_15_A_c.gif","images/stimuli/spore_stims/complex_15_B_c.gif","","","","","10","complex_similar","images/stimuli/spore_stims/complex_15_B_c.gif","middle","","","","",""
"","null","html-keyboard-response","200","450024","0.0-38.0-0.6","SS1613100607399","","","null","","","","","<p><img src= images/blank.png width =""200"" height = ""200"" style = ""float:right""></p><p><img src=images/blank.png width =""800"" height = ""200""></p>","","","","","","","","","","","",""
"","223.61000021919608","sequential-stimulus-presentation","201","451054","0.0-38.0-1.6","SS1613100607399","trial","","40","800","1023.6100002191961","images/stimuli/spore_stims/complex_15_A_c.gif","images/stimuli/spore_stims/complex_15_B_c.gif","","","","","10","complex_similar","images/stimuli/spore_stims/complex_15_B_c.gif","middle","","","","",""
"","null","html-keyboard-response","202","452274","0.0-38.0-0.7","SS1613100607399","","","null","","","","","<p><img src= images/blank.png width =""200"" height = ""200"" style = ""float:right""></p><p><img src=images/blank.png width =""800"" height = ""200""></p>","","","","","","","","","","","",""
"","685.8149999752641","sequential-stimulus-presentation","203","453774","0.0-38.0-1.7","SS1613100607399","trial","","40","800","1485.814999975264","images/stimuli/spore_stims/complex_15_A_c.gif","images/stimuli/spore_stims/complex_15_B_c.gif","","","","","10","complex_similar","images/stimuli/spore_stims/complex_15_B_c.gif","middle","","","","",""
"","2018.7800000421703","html-keyboard-response","204","455817","0.0-39.0","SS1613100607399","pref_question","","51","","","","","<video width ='960' height = '540' style='padding-top:8%' autoplay muted><source src='images/stimuli/wall_pref.mp4' type='video/mp4'></video>","3","right","66%","10","","","","","","","",""
"","3869.5150003768504","sequential-stimulus-presentation","205","460491","0.0-40.0","SS1613100607399","pref_reveal","","40","800","4669.51500037685","null","null","","","","","10","","","","novel","","","",""
"","null","html-keyboard-response","206","461646","0.0-41.0-0.0","SS1613100607399","","","null","","","","","<p><img src= images/blank.png width =""200"" height = ""200"" style = ""float:right""></p><p><img src=images/blank.png width =""800"" height = ""200""></p>","","","","","","","","","","","",""
"","2168.945000041276","sequential-stimulus-presentation","207","464630","0.0-41.0-1.0","SS1613100607399","trial","","40","800","2968.945000041276","images/stimuli/spore_stims/simple_10_A_d.gif","images/stimuli/spore_stims/simple_10_B_d.gif","","","","","11","simple_similar","images/stimuli/spore_stims/simple_10_B_d.gif","left","","","","",""
"","null","html-keyboard-response","208","465711","0.0-41.0-0.1","SS1613100607399","","","null","","","","","<p><img src= images/blank.png width =""200"" height = ""200"" style = ""float:right""></p><p><img src=images/blank.png width =""800"" height = ""200""></p>","","","","","","","","","","","",""
"","1297.6999999955297","sequential-stimulus-presentation","209","467814","0.0-41.0-1.1","SS1613100607399","trial","","40","800","2097.6999999955297","images/stimuli/spore_stims/simple_10_A_d.gif","images/stimuli/spore_stims/simple_10_B_d.gif","","","","","11","simple_similar","images/stimuli/spore_stims/simple_10_B_d.gif","left","","","","",""
"","null","html-keyboard-response","210","468702","0.0-41.0-0.2","SS1613100607399","","","null","","","","","<p><img src= images/blank.png width =""200"" height = ""200"" style = ""float:right""></p><p><img src=images/blank.png width =""800"" height = ""200""></p>","","","","","","","","","","","",""
"","279.80499994009733","sequential-stimulus-presentation","211","469798","0.0-41.0-1.2","SS1613100607399","trial","","40","800","1079.8049999400973","images/stimuli/spore_stims/simple_10_A_d.gif","images/stimuli/spore_stims/simple_10_B_d.gif","","","","","11","simple_similar","images/stimuli/spore_stims/simple_10_B_d.gif","left","","","","",""
"","null","html-keyboard-response","212","471005","0.0-41.0-0.3","SS1613100607399","","","null","","","","","<p><img src= images/blank.png width =""200"" height = ""200"" style = ""float:right""></p><p><img src=images/blank.png width =""800"" height = ""200""></p>","","","","","","","","","","","",""
"","314.24500001594424","sequential-stimulus-presentation","213","472135","0.0-41.0-1.3","SS1613100607399","trial","","40","800","1114.2450000159442","images/stimuli/spore_stims/simple_10_A_d.gif","images/stimuli/spore_stims/simple_10_B_d.gif","","","","","11","simple_similar","images/stimuli/spore_stims/simple_10_B_d.gif","left","","","","",""
"","null","html-keyboard-response","214","473287","0.0-41.0-0.4","SS1613100607399","","","null","","","","","<p><img src= images/blank.png width =""200"" height = ""200"" style = ""float:right""></p><p><img src=images/blank.png width =""800"" height = ""200""></p>","","","","","","","","","","","",""
"","345.55000020191073","sequential-stimulus-presentation","215","474446","0.0-41.0-1.4","SS1613100607399","trial","","40","800","1145.5500002019107","images/stimuli/spore_stims/simple_10_A_d.gif","images/stimuli/spore_stims/simple_10_B_d.gif","","","","","11","simple_similar","images/stimuli/spore_stims/simple_10_B_d.gif","left","","","","",""
"","null","html-keyboard-response","216","475743","0.0-41.0-0.5","SS1613100607399","","","null","","","","","<p><img src= images/blank.png width =""200"" height = ""200"" style = ""float:right""></p><p><img src=images/blank.png width =""800"" height = ""200""></p>","","","","","","","","","","","",""
"","1936.3699997775257","sequential-stimulus-presentation","217","478486","0.0-41.0-1.5","SS1613100607399","trial","","40","800","2736.3699997775257","images/stimuli/spore_stims/simple_10_A_d.gif","images/stimuli/spore_stims/simple_10_B_d.gif","","","","","11","simple_similar","images/stimuli/spore_stims/simple_10_A_d.gif","right","","","","",""
"","null","html-keyboard-response","218","479526","0.0-41.0-0.6","SS1613100607399","","","null","","","","","<p><img src= images/blank.png width =""200"" height = ""200"" style = ""float:right""></p><p><img src=images/blank.png width =""800"" height = ""200""></p>","","","","","","","","","","","",""
"","837.0599998161197","sequential-stimulus-presentation","219","481180","0.0-41.0-1.6","SS1613100607399","trial","","40","800","1637.0599998161197","images/stimuli/spore_stims/simple_10_A_d.gif","images/stimuli/spore_stims/simple_10_B_d.gif","","","","","11","simple_similar","images/stimuli/spore_stims/simple_10_B_d.gif","left","","","","",""
"","null","html-keyboard-response","220","482116","0.0-41.0-0.7","SS1613100607399","","","null","","","","","<p><img src= images/blank.png width =""200"" height = ""200"" style = ""float:right""></p><p><img src=images/blank.png width =""800"" height = ""200""></p>","","","","","","","","","","","",""
"","249.35500044375658","sequential-stimulus-presentation","221","483177","0.0-41.0-1.7","SS1613100607399","trial","","40","800","1049.3550004437566","images/stimuli/spore_stims/simple_10_A_d.gif","images/stimuli/spore_stims/simple_10_B_d.gif","","","","","11","simple_similar","images/stimuli/spore_stims/simple_10_B_d.gif","left","","","","",""
"","1626.8050000071526","html-keyboard-response","222","484812","0.0-42.0","SS1613100607399","pref_question","","50","","","","","<video width ='960' height = '540' style='padding-top:8%' autoplay muted><source src='images/stimuli/wall_pref.mp4' type='video/mp4'></video>","2","middle","45%","11","","","","","","","",""
"","3516.7999998666346","sequential-stimulus-presentation","223","489146","0.0-43.0","SS1613100607399","pref_reveal","","40","800","4316.799999866635","null","null","","","","","11","","","","novel","","","",""
"","null","html-keyboard-response","224","490417","0.0-44.0-0.0","SS1613100607399","","","null","","","","","<p><img src= images/blank.png width =""200"" height = ""200"" style = ""float:right""></p><p><img src=images/blank.png width =""800"" height = ""200""></p>","","","","","","","","","","","",""
"","2393.189999740571","sequential-stimulus-presentation","225","493626","0.0-44.0-1.0","SS1613100607399","trial","","40","800","3193.189999740571","images/stimuli/spore_stims/complex_09_A_c.gif","images/stimuli/spore_stims/complex_16_B_c.gif","","","","","12","complex_dissimilar","images/stimuli/spore_stims/complex_16_B_c.gif","left","","","","",""
"","null","html-keyboard-response","226","494535","0.0-44.0-0.1","SS1613100607399","","","null","","","","","<p><img src= images/blank.png width =""200"" height = ""200"" style = ""float:right""></p><p><img src=images/blank.png width =""800"" height = ""200""></p>","","","","","","","","","","","",""
"","552.3350001312792","sequential-stimulus-presentation","227","495904","0.0-44.0-1.1","SS1613100607399","trial","","40","800","1352.3350001312792","images/stimuli/spore_stims/complex_09_A_c.gif","images/stimuli/spore_stims/complex_16_B_c.gif","","","","","12","complex_dissimilar","images/stimuli/spore_stims/complex_16_B_c.gif","left","","","","",""
"","null","html-keyboard-response","228","497065","0.0-44.0-0.2","SS1613100607399","","","null","","","","","<p><img src= images/blank.png width =""200"" height = ""200"" style = ""float:right""></p><p><img src=images/blank.png width =""800"" height = ""200""></p>","","","","","","","","","","","",""
"","177.25999979302287","sequential-stimulus-presentation","229","498046","0.0-44.0-1.2","SS1613100607399","trial","","40","800","977.2599997930229","images/stimuli/spore_stims/complex_09_A_c.gif","images/stimuli/spore_stims/complex_16_B_c.gif","","","","","12","complex_dissimilar","images/stimuli/spore_stims/complex_16_B_c.gif","left","","","","",""
"","null","html-keyboard-response","230","499074","0.0-44.0-0.3","SS1613100607399","","","null","","","","","<p><img src= images/blank.png width =""200"" height = ""200"" style = ""float:right""></p><p><img src=images/blank.png width =""800"" height = ""200""></p>","","","","","","","","","","","",""
"","351.2099999934435","sequential-stimulus-presentation","231","500237","0.0-44.0-1.3","SS1613100607399","trial","","40","800","1151.2099999934435","images/stimuli/spore_stims/complex_09_A_c.gif","images/stimuli/spore_stims/complex_16_B_c.gif","","","","","12","complex_dissimilar","images/stimuli/spore_stims/complex_16_B_c.gif","left","","","","",""
"","null","html-keyboard-response","232","501269","0.0-44.0-0.4","SS1613100607399","","","null","","","","","<p><img src= images/blank.png width =""200"" height = ""200"" style = ""float:right""></p><p><img src=images/blank.png width =""800"" height = ""200""></p>","","","","","","","","","","","",""
"","245.4750002361834","sequential-stimulus-presentation","233","502332","0.0-44.0-1.4","SS1613100607399","trial","","40","800","1045.4750002361834","images/stimuli/spore_stims/complex_09_A_c.gif","images/stimuli/spore_stims/complex_16_B_c.gif","","","","","12","complex_dissimilar","images/stimuli/spore_stims/complex_16_B_c.gif","left","","","","",""
"","null","html-keyboard-response","234","503571","0.0-44.0-0.5","SS1613100607399","","","null","","","","","<p><img src= images/blank.png width =""200"" height = ""200"" style = ""float:right""></p><p><img src=images/blank.png width =""800"" height = ""200""></p>","","","","","","","","","","","",""
"","802.450000308454","sequential-stimulus-presentation","235","505185","0.0-44.0-1.5","SS1613100607399","trial","","40","800","1602.450000308454","images/stimuli/spore_stims/complex_09_A_c.gif","images/stimuli/spore_stims/complex_16_B_c.gif","","","","","12","complex_dissimilar","images/stimuli/spore_stims/complex_16_B_c.gif","left","","","","",""
"","null","html-keyboard-response","236","506471","0.0-44.0-0.6","SS1613100607399","","","null","","","","","<p><img src= images/blank.png width =""200"" height = ""200"" style = ""float:right""></p><p><img src=images/blank.png width =""800"" height = ""200""></p>","","","","","","","","","","","",""
"","1138.1649998947978","sequential-stimulus-presentation","237","508414","0.0-44.0-1.6","SS1613100607399","trial","","40","800","1938.1649998947978","images/stimuli/spore_stims/complex_09_A_c.gif","images/stimuli/spore_stims/complex_16_B_c.gif","","","","","12","complex_dissimilar","images/stimuli/spore_stims/complex_16_B_c.gif","left","","","","",""
"","null","html-keyboard-response","238","509547","0.0-44.0-0.7","SS1613100607399","","","null","","","","","<p><img src= images/blank.png width =""200"" height = ""200"" style = ""float:right""></p><p><img src=images/blank.png width =""800"" height = ""200""></p>","","","","","","","","","","","",""
"","1951.2450001202524","sequential-stimulus-presentation","239","512313","0.0-44.0-1.7","SS1613100607399","trial","","40","800","2751.2450001202524","images/stimuli/spore_stims/complex_09_A_c.gif","images/stimuli/spore_stims/complex_16_B_c.gif","","","","","12","complex_dissimilar","images/stimuli/spore_stims/complex_09_A_c.gif","right","","","","",""
"","1886.5249999798834","html-keyboard-response","240","514215","0.0-45.0","SS1613100607399","pref_question","","50","","","","","<video width ='960' height = '540' style='padding-top:8%' autoplay muted><source src='images/stimuli/wall_pref.mp4' type='video/mp4'></video>","2","middle","45%","12","","","","","","","",""
"","4045.1449998654425","sequential-stimulus-presentation","241","519082","0.0-46.0","SS1613100607399","pref_reveal","","40","800","4845.1449998654425","null","null","","","","","12","","","","novel","","","",""
"","null","html-keyboard-response","242","520096","0.0-47.0-0.0","SS1613100607399","","","null","","","","","<p><img src= images/blank.png width =""200"" height = ""200"" style = ""float:right""></p><p><img src=images/blank.png width =""800"" height = ""200""></p>","","","","","","","","","","","",""
"","2100.010000169277","sequential-stimulus-presentation","243","523016","0.0-47.0-1.0","SS1613100607399","trial","","40","800","2900.010000169277","images/stimuli/spore_stims/complex_17_A_d.gif","images/stimuli/spore_stims/complex_17_B_d.gif","","","","","13","complex_similar","images/stimuli/spore_stims/complex_17_B_d.gif","left","","","","",""
"","null","html-keyboard-response","244","524139","0.0-47.0-0.1","SS1613100607399","","","null","","","","","<p><img src= images/blank.png width =""200"" height = ""200"" style = ""float:right""></p><p><img src=images/blank.png width =""800"" height = ""200""></p>","","","","","","","","","","","",""
"","1634.5150000415742","sequential-stimulus-presentation","245","526589","0.0-47.0-1.1","SS1613100607399","trial","","40","800","2434.5150000415742","images/stimuli/spore_stims/complex_17_A_d.gif","images/stimuli/spore_stims/complex_17_B_d.gif","","","","","13","complex_similar","images/stimuli/spore_stims/complex_17_B_d.gif","left","","","","",""
"","null","html-keyboard-response","246","527548","0.0-47.0-0.2","SS1613100607399","","","null","","","","","<p><img src= images/blank.png width =""200"" height = ""200"" style = ""float:right""></p><p><img src=images/blank.png width =""800"" height = ""200""></p>","","","","","","","","","","","",""
"","765.3999999165535","sequential-stimulus-presentation","247","529129","0.0-47.0-1.2","SS1613100607399","trial","","40","800","1565.3999999165535","images/stimuli/spore_stims/complex_17_A_d.gif","images/stimuli/spore_stims/complex_17_B_d.gif","","","","","13","complex_similar","images/stimuli/spore_stims/complex_17_B_d.gif","left","","","","",""
"","null","html-keyboard-response","248","530293","0.0-47.0-0.3","SS1613100607399","","","null","","","","","<p><img src= images/blank.png width =""200"" height = ""200"" style = ""float:right""></p><p><img src=images/blank.png width =""800"" height = ""200""></p>","","","","","","","","","","","",""
"","2025.8149998262525","sequential-stimulus-presentation","249","533136","0.0-47.0-1.3","SS1613100607399","trial","","40","800","2825.8149998262525","images/stimuli/spore_stims/complex_17_A_d.gif","images/stimuli/spore_stims/complex_17_B_d.gif","","","","","13","complex_similar","images/stimuli/spore_stims/complex_17_A_d.gif","middle","","","","",""
"","null","html-keyboard-response","250","534369","0.0-47.0-0.4","SS1613100607399","","","null","","","","","<p><img src= images/blank.png width =""200"" height = ""200"" style = ""float:right""></p><p><img src=images/blank.png width =""800"" height = ""200""></p>","","","","","","","","","","","",""
"","308.12499998137355","sequential-stimulus-presentation","251","535493","0.0-47.0-1.4","SS1613100607399","trial","","40","800","1108.1249999813735","images/stimuli/spore_stims/complex_17_A_d.gif","images/stimuli/spore_stims/complex_17_B_d.gif","","","","","13","complex_similar","images/stimuli/spore_stims/complex_17_B_d.gif","left","","","","",""
"","null","html-keyboard-response","252","536368","0.0-47.0-0.5","SS1613100607399","","","null","","","","","<p><img src= images/blank.png width =""200"" height = ""200"" style = ""float:right""></p><p><img src=images/blank.png width =""800"" height = ""200""></p>","","","","","","","","","","","",""
"","761.2100001424551","sequential-stimulus-presentation","253","537934","0.0-47.0-1.5","SS1613100607399","trial","","40","800","1561.210000142455","images/stimuli/spore_stims/complex_17_A_d.gif","images/stimuli/spore_stims/complex_17_B_d.gif","","","","","13","complex_similar","images/stimuli/spore_stims/complex_17_B_d.gif","left","","","","",""
"","null","html-keyboard-response","254","538942","0.0-47.0-0.6","SS1613100607399","","","null","","","","","<p><img src= images/blank.png width =""200"" height = ""200"" style = ""float:right""></p><p><img src=images/blank.png width =""800"" height = ""200""></p>","","","","","","","","","","","",""
"","631.1099999584258","sequential-stimulus-presentation","255","540384","0.0-47.0-1.6","SS1613100607399","trial","","40","800","1431.1099999584258","images/stimuli/spore_stims/complex_17_A_d.gif","images/stimuli/spore_stims/complex_17_B_d.gif","","","","","13","complex_similar","images/stimuli/spore_stims/complex_17_B_d.gif","left","","","","",""
"","null","html-keyboard-response","256","541678","0.0-47.0-0.7","SS1613100607399","","","null","","","","","<p><img src= images/blank.png width =""200"" height = ""200"" style = ""float:right""></p><p><img src=images/blank.png width =""800"" height = ""200""></p>","","","","","","","","","","","",""
"","477.309999987483","sequential-stimulus-presentation","257","542963","0.0-47.0-1.7","SS1613100607399","trial","","40","800","1277.309999987483","images/stimuli/spore_stims/complex_17_A_d.gif","images/stimuli/spore_stims/complex_17_B_d.gif","","","","","13","complex_similar","images/stimuli/spore_stims/complex_17_B_d.gif","left","","","","",""
"","2235.3250002488494","html-keyboard-response","258","545214","0.0-48.0","SS1613100607399","pref_question","","51","","","","","<video width ='960' height = '540' style='padding-top:8%' autoplay muted><source src='images/stimuli/wall_pref.mp4' type='video/mp4'></video>","3","right","66%","13","","","","","","","",""
"","3450.9399998933077","sequential-stimulus-presentation","259","549475","0.0-49.0","SS1613100607399","pref_reveal","","40","800","4250.939999893308","null","null","","","","","13","","","","novel","","","",""
"","null","html-keyboard-response","260","550562","0.0-50.0-0.0","SS1613100607399","","","null","","","","","<p><img src= images/blank.png width =""200"" height = ""200"" style = ""float:right""></p><p><img src=images/blank.png width =""800"" height = ""200""></p>","","","","","","","","","","","",""
"","6657.225000206381","sequential-stimulus-presentation","261","558035","0.0-50.0-1.0","SS1613100607399","trial","","40","800","7457.225000206381","images/stimuli/spore_stims/complex_10_A_c.gif","images/stimuli/spore_stims/complex_10_B_c.gif","","","","","14","complex_similar","images/stimuli/spore_stims/complex_10_B_c.gif","left","","","","",""
"","null","html-keyboard-response","262","559097","0.0-50.0-0.1","SS1613100607399","","","null","","","","","<p><img src= images/blank.png width =""200"" height = ""200"" style = ""float:right""></p><p><img src=images/blank.png width =""800"" height = ""200""></p>","","","","","","","","","","","",""
"","700.4599999636412","sequential-stimulus-presentation","263","560615","0.0-50.0-1.1","SS1613100607399","trial","","40","800","1500.4599999636412","images/stimuli/spore_stims/complex_10_A_c.gif","images/stimuli/spore_stims/complex_10_B_c.gif","","","","","14","complex_similar","images/stimuli/spore_stims/complex_10_B_c.gif","left","","","","",""
"","null","html-keyboard-response","264","561743","0.0-50.0-0.2","SS1613100607399","","","null","","","","","<p><img src= images/blank.png width =""200"" height = ""200"" style = ""float:right""></p><p><img src=images/blank.png width =""800"" height = ""200""></p>","","","","","","","","","","","",""
"","271.54000010341406","sequential-stimulus-presentation","265","562820","0.0-50.0-1.2","SS1613100607399","trial","","40","800","1071.540000103414","images/stimuli/spore_stims/complex_10_A_c.gif","images/stimuli/spore_stims/complex_10_B_c.gif","","","","","14","complex_similar","images/stimuli/spore_stims/complex_10_B_c.gif","left","","","","",""
"","null","html-keyboard-response","266","563857","0.0-50.0-0.3","SS1613100607399","","","null","","","","","<p><img src= images/blank.png width =""200"" height = ""200"" style = ""float:right""></p><p><img src=images/blank.png width =""800"" height = ""200""></p>","","","","","","","","","","","",""
"","284.34500005096197","sequential-stimulus-presentation","267","564955","0.0-50.0-1.3","SS1613100607399","trial","","40","800","1084.345000050962","images/stimuli/spore_stims/complex_10_A_c.gif","images/stimuli/spore_stims/complex_10_B_c.gif","","","","","14","complex_similar","images/stimuli/spore_stims/complex_10_B_c.gif","left","","","","",""
"","null","html-keyboard-response","268","565859","0.0-50.0-0.4","SS1613100607399","","","null","","","","","<p><img src= images/blank.png width =""200"" height = ""200"" style = ""float:right""></p><p><img src=images/blank.png width =""800"" height = ""200""></p>","","","","","","","","","","","",""
"","264.2600000835955","sequential-stimulus-presentation","269","566937","0.0-50.0-1.4","SS1613100607399","trial","","40","800","1064.2600000835955","images/stimuli/spore_stims/complex_10_A_c.gif","images/stimuli/spore_stims/complex_10_B_c.gif","","","","","14","complex_similar","images/stimuli/spore_stims/complex_10_B_c.gif","left","","","","",""
"","null","html-keyboard-response","270","568184","0.0-50.0-0.5","SS1613100607399","","","null","","","","","<p><img src= images/blank.png width =""200"" height = ""200"" style = ""float:right""></p><p><img src=images/blank.png width =""800"" height = ""200""></p>","","","","","","","","","","","",""
"","196.26499991863966","sequential-stimulus-presentation","271","569195","0.0-50.0-1.5","SS1613100607399","trial","","40","800","996.2649999186397","images/stimuli/spore_stims/complex_10_A_c.gif","images/stimuli/spore_stims/complex_10_B_c.gif","","","","","14","complex_similar","images/stimuli/spore_stims/complex_10_B_c.gif","left","","","","",""
"","null","html-keyboard-response","272","570237","0.0-50.0-0.6","SS1613100607399","","","null","","","","","<p><img src= images/blank.png width =""200"" height = ""200"" style = ""float:right""></p><p><img src=images/blank.png width =""800"" height = ""200""></p>","","","","","","","","","","","",""
"","1671.6999998316169","sequential-stimulus-presentation","273","572720","0.0-50.0-1.6","SS1613100607399","trial","","40","800","2471.699999831617","images/stimuli/spore_stims/complex_10_A_c.gif","images/stimuli/spore_stims/complex_10_B_c.gif","","","","","14","complex_similar","images/stimuli/spore_stims/complex_10_A_c.gif","right","","","","",""
"","null","html-keyboard-response","274","573951","0.0-50.0-0.7","SS1613100607399","","","null","","","","","<p><img src= images/blank.png width =""200"" height = ""200"" style = ""float:right""></p><p><img src=images/blank.png width =""800"" height = ""200""></p>","","","","","","","","","","","",""
"","264.82999976724386","sequential-stimulus-presentation","275","575026","0.0-50.0-1.7","SS1613100607399","trial","","40","800","1064.8299997672439","images/stimuli/spore_stims/complex_10_A_c.gif","images/stimuli/spore_stims/complex_10_B_c.gif","","","","","14","complex_similar","images/stimuli/spore_stims/complex_10_B_c.gif","left","","","","",""
"","1534.5499999821186","html-keyboard-response","276","576565","0.0-51.0","SS1613100607399","pref_question","","50","","","","","<video width ='960' height = '540' style='padding-top:8%' autoplay muted><source src='images/stimuli/wall_pref.mp4' type='video/mp4'></video>","2","middle","45%","14","","","","","","","",""
"","3495.329999830574","sequential-stimulus-presentation","277","580870","0.0-52.0","SS1613100607399","pref_reveal","","40","800","4295.329999830574","null","null","","","","","14","","","","novel","","","",""
"","null","html-keyboard-response","278","581920","0.0-53.0-0.0","SS1613100607399","","","null","","","","","<p><img src= images/blank.png width =""200"" height = ""200"" style = ""float:right""></p><p><img src=images/blank.png width =""800"" height = ""200""></p>","","","","","","","","","","","",""
"","3440.345000009984","sequential-stimulus-presentation","279","586178","0.0-53.0-1.0","SS1613100607399","trial","","40","800","4240.345000009984","images/stimuli/spore_stims/simple_14_B_a.gif","images/stimuli/spore_stims/simple_14_A_a.gif","","","","","15","simple_similar","images/stimuli/spore_stims/simple_14_A_a.gif","middle","","","","",""
"","null","html-keyboard-response","280","587495","0.0-53.0-0.1","SS1613100607399","","","null","","","","","<p><img src= images/blank.png width =""200"" height = ""200"" style = ""float:right""></p><p><img src=images/blank.png width =""800"" height = ""200""></p>","","","","","","","","","","","",""
"","258.9449998922646","sequential-stimulus-presentation","281","588571","0.0-53.0-1.1","SS1613100607399","trial","","40","800","1058.9449998922646","images/stimuli/spore_stims/simple_14_B_a.gif","images/stimuli/spore_stims/simple_14_A_a.gif","","","","","15","simple_similar","images/stimuli/spore_stims/simple_14_A_a.gif","middle","","","","",""
"","null","html-keyboard-response","282","589567","0.0-53.0-0.2","SS1613100607399","","","null","","","","","<p><img src= images/blank.png width =""200"" height = ""200"" style = ""float:right""></p><p><img src=images/blank.png width =""800"" height = ""200""></p>","","","","","","","","","","","",""
"","1722.2049999982119","sequential-stimulus-presentation","283","592105","0.0-53.0-1.2","SS1613100607399","trial","","40","800","2522.204999998212","images/stimuli/spore_stims/simple_14_B_a.gif","images/stimuli/spore_stims/simple_14_A_a.gif","","","","","15","simple_similar","images/stimuli/spore_stims/simple_14_B_a.gif","right","","","","",""
"","null","html-keyboard-response","284","593371","0.0-53.0-0.3","SS1613100607399","","","null","","","","","<p><img src= images/blank.png width =""200"" height = ""200"" style = ""float:right""></p><p><img src=images/blank.png width =""800"" height = ""200""></p>","","","","","","","","","","","",""
"","349.0599999204278","sequential-stimulus-presentation","285","594526","0.0-53.0-1.3","SS1613100607399","trial","","40","800","1149.0599999204278","images/stimuli/spore_stims/simple_14_B_a.gif","images/stimuli/spore_stims/simple_14_A_a.gif","","","","","15","simple_similar","images/stimuli/spore_stims/simple_14_A_a.gif","middle","","","","",""
"","null","html-keyboard-response","286","595783","0.0-53.0-0.4","SS1613100607399","","","null","","","","","<p><img src= images/blank.png width =""200"" height = ""200"" style = ""float:right""></p><p><img src=images/blank.png width =""800"" height = ""200""></p>","","","","","","","","","","","",""
"","171.13499995321035","sequential-stimulus-presentation","287","596761","0.0-53.0-1.4","SS1613100607399","trial","","40","800","971.1349999532104","images/stimuli/spore_stims/simple_14_B_a.gif","images/stimuli/spore_stims/simple_14_A_a.gif","","","","","15","simple_similar","images/stimuli/spore_stims/simple_14_A_a.gif","middle","","","","",""
"","null","html-keyboard-response","288","597803","0.0-53.0-0.5","SS1613100607399","","","null","","","","","<p><img src= images/blank.png width =""200"" height = ""200"" style = ""float:right""></p><p><img src=images/blank.png width =""800"" height = ""200""></p>","","","","","","","","","","","",""
"","213.70500000193715","sequential-stimulus-presentation","289","598826","0.0-53.0-1.5","SS1613100607399","trial","","40","800","1013.7050000019372","images/stimuli/spore_stims/simple_14_B_a.gif","images/stimuli/spore_stims/simple_14_A_a.gif","","","","","15","simple_similar","images/stimuli/spore_stims/simple_14_A_a.gif","middle","","","","",""
"","null","html-keyboard-response","290","599757","0.0-53.0-0.6","SS1613100607399","","","null","","","","","<p><img src= images/blank.png width =""200"" height = ""200"" style = ""float:right""></p><p><img src=images/blank.png width =""800"" height = ""200""></p>","","","","","","","","","","","",""
"","336.54999965801835","sequential-stimulus-presentation","291","600898","0.0-53.0-1.6","SS1613100607399","trial","","40","800","1136.5499996580184","images/stimuli/spore_stims/simple_14_B_a.gif","images/stimuli/spore_stims/simple_14_A_a.gif","","","","","15","simple_similar","images/stimuli/spore_stims/simple_14_A_a.gif","middle","","","","",""
"","null","html-keyboard-response","292","601950","0.0-53.0-0.7","SS1613100607399","","","null","","","","","<p><img src= images/blank.png width =""200"" height = ""200"" style = ""float:right""></p><p><img src=images/blank.png width =""800"" height = ""200""></p>","","","","","","","","","","","",""
"","280.22499987855554","sequential-stimulus-presentation","293","603044","0.0-53.0-1.7","SS1613100607399","trial","","40","800","1080.2249998785555","images/stimuli/spore_stims/simple_14_B_a.gif","images/stimuli/spore_stims/simple_14_A_a.gif","","","","","15","simple_similar","images/stimuli/spore_stims/simple_14_A_a.gif","middle","","","","",""
"","1554.1699999012053","html-keyboard-response","294","604620","0.0-54.0","SS1613100607399","pref_question","","49","","","","","<video width ='960' height = '540' style='padding-top:8%' autoplay muted><source src='images/stimuli/wall_pref.mp4' type='video/mp4'></video>","1","left","25%","15","","","","","","","",""
"","3789.27499987185","sequential-stimulus-presentation","295","609225","0.0-55.0","SS1613100607399","pref_reveal","","40","800","4589.27499987185","null","null","","","","","15","","","","novel","","","",""
"","null","html-keyboard-response","296","610432","0.0-56.0-0.0","SS1613100607399","","","null","","","","","<p><img src= images/blank.png width =""200"" height = ""200"" style = ""float:right""></p><p><img src=images/blank.png width =""800"" height = ""200""></p>","","","","","","","","","","","",""
"","343.1099997833371","sequential-stimulus-presentation","297","611582","0.0-56.0-1.0","SS1613100607399","trial","","40","800","1143.1099997833371","images/stimuli/spore_stims/simple_03_B_b.gif","images/stimuli/spore_stims/simple_13_B_a.gif","","","","","16","simple_dissimilar","images/stimuli/spore_stims/simple_13_B_a.gif","middle","","","","",""
"","null","html-keyboard-response","298","612807","0.0-56.0-0.1","SS1613100607399","","","null","","","","","<p><img src= images/blank.png width =""200"" height = ""200"" style = ""float:right""></p><p><img src=images/blank.png width =""800"" height = ""200""></p>","","","","","","","","","","","",""
"","3966.714999638498","sequential-stimulus-presentation","299","617580","0.0-56.0-1.1","SS1613100607399","trial","","40","800","4766.714999638498","images/stimuli/spore_stims/simple_03_B_b.gif","images/stimuli/spore_stims/simple_13_B_a.gif","","","","","16","simple_dissimilar","images/stimuli/spore_stims/simple_13_B_a.gif","middle","","","","",""
"","null","html-keyboard-response","300","618780","0.0-56.0-0.2","SS1613100607399","","","null","","","","","<p><img src= images/blank.png width =""200"" height = ""200"" style = ""float:right""></p><p><img src=images/blank.png width =""800"" height = ""200""></p>","","","","","","","","","","","",""
"","311.7499998770654","sequential-stimulus-presentation","301","619914","0.0-56.0-1.2","SS1613100607399","trial","","40","800","1111.7499998770654","images/stimuli/spore_stims/simple_03_B_b.gif","images/stimuli/spore_stims/simple_13_B_a.gif","","","","","16","simple_dissimilar","images/stimuli/spore_stims/simple_13_B_a.gif","middle","","","","",""
"","null","html-keyboard-response","302","620851","0.0-56.0-0.3","SS1613100607399","","","null","","","","","<p><img src= images/blank.png width =""200"" height = ""200"" style = ""float:right""></p><p><img src=images/blank.png width =""800"" height = ""200""></p>","","","","","","","","","","","",""
"","416.5049996227026","sequential-stimulus-presentation","303","622080","0.0-56.0-1.3","SS1613100607399","trial","","40","800","1216.5049996227026","images/stimuli/spore_stims/simple_03_B_b.gif","images/stimuli/spore_stims/simple_13_B_a.gif","","","","","16","simple_dissimilar","images/stimuli/spore_stims/simple_13_B_a.gif","middle","","","","",""
"","null","html-keyboard-response","304","623141","0.0-56.0-0.4","SS1613100607399","","","null","","","","","<p><img src= images/blank.png width =""200"" height = ""200"" style = ""float:right""></p><p><img src=images/blank.png width =""800"" height = ""200""></p>","","","","","","","","","","","",""
"","535.0399999879301","sequential-stimulus-presentation","305","624481","0.0-56.0-1.4","SS1613100607399","trial","","40","800","1335.03999998793","images/stimuli/spore_stims/simple_03_B_b.gif","images/stimuli/spore_stims/simple_13_B_a.gif","","","","","16","simple_dissimilar","images/stimuli/spore_stims/simple_13_B_a.gif","middle","","","","",""
"","null","html-keyboard-response","306","625510","0.0-56.0-0.5","SS1613100607399","","","null","","","","","<p><img src= images/blank.png width =""200"" height = ""200"" style = ""float:right""></p><p><img src=images/blank.png width =""800"" height = ""200""></p>","","","","","","","","","","","",""
"","3423.814999870956","sequential-stimulus-presentation","307","629749","0.0-56.0-1.5","SS1613100607399","trial","","40","800","4223.814999870956","images/stimuli/spore_stims/simple_03_B_b.gif","images/stimuli/spore_stims/simple_13_B_a.gif","","","","","16","simple_dissimilar","images/stimuli/spore_stims/simple_03_B_b.gif","left","","","","",""
"","null","html-keyboard-response","308","630648","0.0-56.0-0.6","SS1613100607399","","","null","","","","","<p><img src= images/blank.png width =""200"" height = ""200"" style = ""float:right""></p><p><img src=images/blank.png width =""800"" height = ""200""></p>","","","","","","","","","","","",""
"","301.41999991610646","sequential-stimulus-presentation","309","631756","0.0-56.0-1.6","SS1613100607399","trial","","40","800","1101.4199999161065","images/stimuli/spore_stims/simple_03_B_b.gif","images/stimuli/spore_stims/simple_13_B_a.gif","","","","","16","simple_dissimilar","images/stimuli/spore_stims/simple_13_B_a.gif","middle","","","","",""
"","null","html-keyboard-response","310","632765","0.0-56.0-0.7","SS1613100607399","","","null","","","","","<p><img src= images/blank.png width =""200"" height = ""200"" style = ""float:right""></p><p><img src=images/blank.png width =""800"" height = ""200""></p>","","","","","","","","","","","",""
"","1399.710000026971","sequential-stimulus-presentation","311","634973","0.0-56.0-1.7","SS1613100607399","trial","","40","800","2199.710000026971","images/stimuli/spore_stims/simple_03_B_b.gif","images/stimuli/spore_stims/simple_13_B_a.gif","","","","","16","simple_dissimilar","images/stimuli/spore_stims/simple_13_B_a.gif","middle","","","","",""
"","1804.81499992311","html-keyboard-response","312","636811","0.0-57.0","SS1613100607399","pref_question","","51","","","","","<video width ='960' height = '540' style='padding-top:8%' autoplay muted><source src='images/stimuli/wall_pref.mp4' type='video/mp4'></video>","3","right","66%","16","","","","","","","",""
