"view_history","rt","trial_type","trial_index","time_elapsed","internal_node_id","subject","stimulus_type","trial_stimulus","key_press","minimum_viewing_duration","trial_looking_time","block_deviant","block_background","stimulus","wall_pref","location","location_percent","block_number","block_type","stimulus_displayed","position_displayed","stim_type_selected","responses","question_order","stimulus_left","stimulus_right"
"[{""page_index"":0,""viewing_time"":15673.489999986487}]","15674.280000006547","instructions","0","15675","0.0-0.0","SS1613140388035","","","","","","","","","","","","","","","","","","","",""
"[{""page_index"":0,""viewing_time"":9325.769999995828},{""page_index"":1,""viewing_time"":9478.930000012042}]","18804.8950000084","instructions","1","36482","0.0-1.0","SS1613140388035","instructions","","","","","","","","","","","","","","","","","","",""
"","3779.2999999946915","sequential-stimulus-presentation","2","41076","0.0-2.0","SS1613140388035","","","40","800","4579.2999999946915","null","null","","","","","","","","","","","","",""
"","1171.889999997802","sequential-stimulus-presentation","3","43051","0.0-3.0","SS1613140388035","","","40","800","1971.889999997802","null","null","","","","","","","","","","","","",""
"[{""page_index"":0,""viewing_time"":2709.8400000249967}]","2710.1200000033714","instructions","4","45762","0.0-4.0","SS1613140388035","instructions","","","","","","","","","","","","","","","","","","",""
"","7238.320000004023","html-keyboard-response","5","53003","0.0-5.0","SS1613140388035","instructions","","98","","","","","<video width ='960' height = '540' autoplay muted><source src='images/stimuli/wall_pref.mp4' type='video/mp4'></video>","2","middle","45%","","","","","","","","",""
"","787.4400000146125","sequential-stimulus-presentation","6","54594","0.0-6.0","SS1613140388035","pref_reveal","","40","800","1587.4400000146125","null","null","","","","","","","","","","","","",""
"[{""page_index"":0,""viewing_time"":7446.924999996554},{""page_index"":1,""viewing_time"":4664.034999994328},{""page_index"":2,""viewing_time"":1160.2450000063982},{""page_index"":3,""viewing_time"":943.4649999893736}]","14214.819999993779","instructions","7","68810","0.0-7.0","SS1613140388035","instructions","","","","","","","","","","","","","","","","","","",""
"","null","html-keyboard-response","8","70063","0.0-8.0-0.0","SS1613140388035","","","null","","","","","<p><img src= images/blank.png width =""200"" height = ""200"" style = ""float:right""></p><p><img src=images/blank.png width =""800"" height = ""200""></p>","","","","","","","","","","","",""
"","1654.450000001816","sequential-stimulus-presentation","9","72523","0.0-8.0-1.0","SS1613140388035","trial","","40","800","2454.450000001816","images/stimuli/spore_stims/simple_02_B_a.gif","images/stimuli/spore_stims/simple_04_B_c.gif","","","","","0","simple_dissimilar","images/stimuli/spore_stims/simple_04_B_c.gif","right","","","","",""
"","null","html-keyboard-response","10","73515","0.0-8.0-0.1","SS1613140388035","","","null","","","","","<p><img src= images/blank.png width =""200"" height = ""200"" style = ""float:right""></p><p><img src=images/blank.png width =""800"" height = ""200""></p>","","","","","","","","","","","",""
"","876.5000000130385","sequential-stimulus-presentation","11","75203","0.0-8.0-1.1","SS1613140388035","trial","","40","800","1676.5000000130385","images/stimuli/spore_stims/simple_02_B_a.gif","images/stimuli/spore_stims/simple_04_B_c.gif","","","","","0","simple_dissimilar","images/stimuli/spore_stims/simple_04_B_c.gif","right","","","","",""
"","null","html-keyboard-response","12","76425","0.0-8.0-0.2","SS1613140388035","","","null","","","","","<p><img src= images/blank.png width =""200"" height = ""200"" style = ""float:right""></p><p><img src=images/blank.png width =""800"" height = ""200""></p>","","","","","","","","","","","",""
"","953.7449999770615","sequential-stimulus-presentation","13","78187","0.0-8.0-1.2","SS1613140388035","trial","","40","800","1753.7449999770615","images/stimuli/spore_stims/simple_02_B_a.gif","images/stimuli/spore_stims/simple_04_B_c.gif","","","","","0","simple_dissimilar","images/stimuli/spore_stims/simple_04_B_c.gif","right","","","","",""
"","null","html-keyboard-response","14","79016","0.0-8.0-0.3","SS1613140388035","","","null","","","","","<p><img src= images/blank.png width =""200"" height = ""200"" style = ""float:right""></p><p><img src=images/blank.png width =""800"" height = ""200""></p>","","","","","","","","","","","",""
"","657.7800000086427","sequential-stimulus-presentation","15","80490","0.0-8.0-1.3","SS1613140388035","trial","","40","800","1457.7800000086427","images/stimuli/spore_stims/simple_02_B_a.gif","images/stimuli/spore_stims/simple_04_B_c.gif","","","","","0","simple_dissimilar","images/stimuli/spore_stims/simple_02_B_a.gif","left","","","","",""
"","null","html-keyboard-response","16","81360","0.0-8.0-0.4","SS1613140388035","","","null","","","","","<p><img src= images/blank.png width =""200"" height = ""200"" style = ""float:right""></p><p><img src=images/blank.png width =""800"" height = ""200""></p>","","","","","","","","","","","",""
"","687.6950000005309","sequential-stimulus-presentation","17","82851","0.0-8.0-1.4","SS1613140388035","trial","","40","800","1487.6950000005309","images/stimuli/spore_stims/simple_02_B_a.gif","images/stimuli/spore_stims/simple_04_B_c.gif","","","","","0","simple_dissimilar","images/stimuli/spore_stims/simple_04_B_c.gif","right","","","","",""
"","null","html-keyboard-response","18","83918","0.0-8.0-0.5","SS1613140388035","","","null","","","","","<p><img src= images/blank.png width =""200"" height = ""200"" style = ""float:right""></p><p><img src=images/blank.png width =""800"" height = ""200""></p>","","","","","","","","","","","",""
"","722.345000016503","sequential-stimulus-presentation","19","85443","0.0-8.0-1.5","SS1613140388035","trial","","40","800","1522.345000016503","images/stimuli/spore_stims/simple_02_B_a.gif","images/stimuli/spore_stims/simple_04_B_c.gif","","","","","0","simple_dissimilar","images/stimuli/spore_stims/simple_04_B_c.gif","right","","","","",""
"","null","html-keyboard-response","20","86326","0.0-8.0-0.6","SS1613140388035","","","null","","","","","<p><img src= images/blank.png width =""200"" height = ""200"" style = ""float:right""></p><p><img src=images/blank.png width =""800"" height = ""200""></p>","","","","","","","","","","","",""
"","503.404999995837","sequential-stimulus-presentation","21","87635","0.0-8.0-1.6","SS1613140388035","trial","","40","800","1303.404999995837","images/stimuli/spore_stims/simple_02_B_a.gif","images/stimuli/spore_stims/simple_04_B_c.gif","","","","","0","simple_dissimilar","images/stimuli/spore_stims/simple_04_B_c.gif","right","","","","",""
"","null","html-keyboard-response","22","88644","0.0-8.0-0.7","SS1613140388035","","","null","","","","","<p><img src= images/blank.png width =""200"" height = ""200"" style = ""float:right""></p><p><img src=images/blank.png width =""800"" height = ""200""></p>","","","","","","","","","","","",""
"","535.4300000180956","sequential-stimulus-presentation","23","89995","0.0-8.0-1.7","SS1613140388035","trial","","40","800","1335.4300000180956","images/stimuli/spore_stims/simple_02_B_a.gif","images/stimuli/spore_stims/simple_04_B_c.gif","","","","","0","simple_dissimilar","images/stimuli/spore_stims/simple_04_B_c.gif","right","","","","",""
"","2357.305000012275","html-keyboard-response","24","92355","0.0-9.0","SS1613140388035","pref_question","","97","","","","","<video width ='960' height = '540' style='padding-top:8%' autoplay muted><source src='images/stimuli/wall_pref.mp4' type='video/mp4'></video>","1","left","25%","0","","","","","","","",""
"","3115.43000000529","sequential-stimulus-presentation","25","96283","0.0-10.0","SS1613140388035","pref_reveal","","40","800","3915.43000000529","null","null","","","","","0","","","","deviant","","","",""
"","null","html-keyboard-response","26","97461","0.0-11.0-0.0","SS1613140388035","","","null","","","","","<p><img src= images/blank.png width =""200"" height = ""200"" style = ""float:right""></p><p><img src=images/blank.png width =""800"" height = ""200""></p>","","","","","","","","","","","",""
"","1.0449999826960266","sequential-stimulus-presentation","27","98266","0.0-11.0-1.0","SS1613140388035","trial","","40","800","801.044999982696","images/stimuli/spore_stims/complex_20_A_c.gif","images/stimuli/spore_stims/complex_20_B_c.gif","","","","","1","complex_similar","images/stimuli/spore_stims/complex_20_B_c.gif","right","","","","",""
"","null","html-keyboard-response","28","99539","0.0-11.0-0.1","SS1613140388035","","","null","","","","","<p><img src= images/blank.png width =""200"" height = ""200"" style = ""float:right""></p><p><img src=images/blank.png width =""800"" height = ""200""></p>","","","","","","","","","","","",""
"","766.1699999880511","sequential-stimulus-presentation","29","101108","0.0-11.0-1.1","SS1613140388035","trial","","40","800","1566.1699999880511","images/stimuli/spore_stims/complex_20_A_c.gif","images/stimuli/spore_stims/complex_20_B_c.gif","","","","","1","complex_similar","images/stimuli/spore_stims/complex_20_B_c.gif","right","","","","",""
"","null","html-keyboard-response","30","101916","0.0-11.0-0.2","SS1613140388035","","","null","","","","","<p><img src= images/blank.png width =""200"" height = ""200"" style = ""float:right""></p><p><img src=images/blank.png width =""800"" height = ""200""></p>","","","","","","","","","","","",""
"","731.0649999999441","sequential-stimulus-presentation","31","103451","0.0-11.0-1.2","SS1613140388035","trial","","40","800","1531.0649999999441","images/stimuli/spore_stims/complex_20_A_c.gif","images/stimuli/spore_stims/complex_20_B_c.gif","","","","","1","complex_similar","images/stimuli/spore_stims/complex_20_B_c.gif","right","","","","",""
"","null","html-keyboard-response","32","104375","0.0-11.0-0.3","SS1613140388035","","","null","","","","","<p><img src= images/blank.png width =""200"" height = ""200"" style = ""float:right""></p><p><img src=images/blank.png width =""800"" height = ""200""></p>","","","","","","","","","","","",""
"","623.4199999889825","sequential-stimulus-presentation","33","105803","0.0-11.0-1.3","SS1613140388035","trial","","40","800","1423.4199999889825","images/stimuli/spore_stims/complex_20_A_c.gif","images/stimuli/spore_stims/complex_20_B_c.gif","","","","","1","complex_similar","images/stimuli/spore_stims/complex_20_B_c.gif","right","","","","",""
"","null","html-keyboard-response","34","106727","0.0-11.0-0.4","SS1613140388035","","","null","","","","","<p><img src= images/blank.png width =""200"" height = ""200"" style = ""float:right""></p><p><img src=images/blank.png width =""800"" height = ""200""></p>","","","","","","","","","","","",""
"","943.4800000162795","sequential-stimulus-presentation","35","108474","0.0-11.0-1.4","SS1613140388035","trial","","40","800","1743.4800000162795","images/stimuli/spore_stims/complex_20_A_c.gif","images/stimuli/spore_stims/complex_20_B_c.gif","","","","","1","complex_similar","images/stimuli/spore_stims/complex_20_A_c.gif","middle","","","","",""
"","null","html-keyboard-response","36","109559","0.0-11.0-0.5","SS1613140388035","","","null","","","","","<p><img src= images/blank.png width =""200"" height = ""200"" style = ""float:right""></p><p><img src=images/blank.png width =""800"" height = ""200""></p>","","","","","","","","","","","",""
"","544.6450000163168","sequential-stimulus-presentation","37","110907","0.0-11.0-1.5","SS1613140388035","trial","","40","800","1344.6450000163168","images/stimuli/spore_stims/complex_20_A_c.gif","images/stimuli/spore_stims/complex_20_B_c.gif","","","","","1","complex_similar","images/stimuli/spore_stims/complex_20_B_c.gif","right","","","","",""
"","null","html-keyboard-response","38","111898","0.0-11.0-0.6","SS1613140388035","","","null","","","","","<p><img src= images/blank.png width =""200"" height = ""200"" style = ""float:right""></p><p><img src=images/blank.png width =""800"" height = ""200""></p>","","","","","","","","","","","",""
"","469.3299999926239","sequential-stimulus-presentation","39","113179","0.0-11.0-1.6","SS1613140388035","trial","","40","800","1269.329999992624","images/stimuli/spore_stims/complex_20_A_c.gif","images/stimuli/spore_stims/complex_20_B_c.gif","","","","","1","complex_similar","images/stimuli/spore_stims/complex_20_B_c.gif","right","","","","",""
"","null","html-keyboard-response","40","114060","0.0-11.0-0.7","SS1613140388035","","","null","","","","","<p><img src= images/blank.png width =""200"" height = ""200"" style = ""float:right""></p><p><img src=images/blank.png width =""800"" height = ""200""></p>","","","","","","","","","","","",""
"","506.920000014361","sequential-stimulus-presentation","41","115371","0.0-11.0-1.7","SS1613140388035","trial","","40","800","1306.920000014361","images/stimuli/spore_stims/complex_20_A_c.gif","images/stimuli/spore_stims/complex_20_B_c.gif","","","","","1","complex_similar","images/stimuli/spore_stims/complex_20_B_c.gif","right","","","","",""
"","2021.8600000080187","html-keyboard-response","42","117395","0.0-12.0","SS1613140388035","pref_question","","97","","","","","<video width ='960' height = '540' style='padding-top:8%' autoplay muted><source src='images/stimuli/wall_pref.mp4' type='video/mp4'></video>","1","left","25%","1","","","","","","","",""
"","2333.0750000022817","sequential-stimulus-presentation","43","120531","0.0-13.0","SS1613140388035","pref_reveal","","40","800","3133.0750000022817","null","null","","","","","1","","","","novel","","","",""
"","null","html-keyboard-response","44","121606","0.0-14.0-0.0","SS1613140388035","","","null","","","","","<p><img src= images/blank.png width =""200"" height = ""200"" style = ""float:right""></p><p><img src=images/blank.png width =""800"" height = ""200""></p>","","","","","","","","","","","",""
"","2217.174999997951","sequential-stimulus-presentation","45","124627","0.0-14.0-1.0","SS1613140388035","trial","","40","800","3017.174999997951","images/stimuli/spore_stims/complex_16_A_d.gif","images/stimuli/spore_stims/complex_06_A_c.gif","","","","","2","complex_dissimilar","images/stimuli/spore_stims/complex_06_A_c.gif","left","","","","",""
"","null","html-keyboard-response","46","125744","0.0-14.0-0.1","SS1613140388035","","","null","","","","","<p><img src= images/blank.png width =""200"" height = ""200"" style = ""float:right""></p><p><img src=images/blank.png width =""800"" height = ""200""></p>","","","","","","","","","","","",""
"","678.8099999830592","sequential-stimulus-presentation","47","127226","0.0-14.0-1.1","SS1613140388035","trial","","40","800","1478.8099999830592","images/stimuli/spore_stims/complex_16_A_d.gif","images/stimuli/spore_stims/complex_06_A_c.gif","","","","","2","complex_dissimilar","images/stimuli/spore_stims/complex_06_A_c.gif","left","","","","",""
"","null","html-keyboard-response","48","128295","0.0-14.0-0.2","SS1613140388035","","","null","","","","","<p><img src= images/blank.png width =""200"" height = ""200"" style = ""float:right""></p><p><img src=images/blank.png width =""800"" height = ""200""></p>","","","","","","","","","","","",""
"","847.3400000075344","sequential-stimulus-presentation","49","129955","0.0-14.0-1.2","SS1613140388035","trial","","40","800","1647.3400000075344","images/stimuli/spore_stims/complex_16_A_d.gif","images/stimuli/spore_stims/complex_06_A_c.gif","","","","","2","complex_dissimilar","images/stimuli/spore_stims/complex_06_A_c.gif","left","","","","",""
"","null","html-keyboard-response","50","130994","0.0-14.0-0.3","SS1613140388035","","","null","","","","","<p><img src= images/blank.png width =""200"" height = ""200"" style = ""float:right""></p><p><img src=images/blank.png width =""800"" height = ""200""></p>","","","","","","","","","","","",""
"","525.4999999888241","sequential-stimulus-presentation","51","132322","0.0-14.0-1.3","SS1613140388035","trial","","40","800","1325.4999999888241","images/stimuli/spore_stims/complex_16_A_d.gif","images/stimuli/spore_stims/complex_06_A_c.gif","","","","","2","complex_dissimilar","images/stimuli/spore_stims/complex_06_A_c.gif","left","","","","",""
"","null","html-keyboard-response","52","133193","0.0-14.0-0.4","SS1613140388035","","","null","","","","","<p><img src= images/blank.png width =""200"" height = ""200"" style = ""float:right""></p><p><img src=images/blank.png width =""800"" height = ""200""></p>","","","","","","","","","","","",""
"","500.93000000924803","sequential-stimulus-presentation","53","134499","0.0-14.0-1.4","SS1613140388035","trial","","40","800","1300.930000009248","images/stimuli/spore_stims/complex_16_A_d.gif","images/stimuli/spore_stims/complex_06_A_c.gif","","","","","2","complex_dissimilar","images/stimuli/spore_stims/complex_06_A_c.gif","left","","","","",""
"","null","html-keyboard-response","54","135657","0.0-14.0-0.5","SS1613140388035","","","null","","","","","<p><img src= images/blank.png width =""200"" height = ""200"" style = ""float:right""></p><p><img src=images/blank.png width =""800"" height = ""200""></p>","","","","","","","","","","","",""
"","703.9850000001024","sequential-stimulus-presentation","55","137171","0.0-14.0-1.5","SS1613140388035","trial","","40","800","1503.9850000001024","images/stimuli/spore_stims/complex_16_A_d.gif","images/stimuli/spore_stims/complex_06_A_c.gif","","","","","2","complex_dissimilar","images/stimuli/spore_stims/complex_16_A_d.gif","right","","","","",""
"","null","html-keyboard-response","56","138352","0.0-14.0-0.6","SS1613140388035","","","null","","","","","<p><img src= images/blank.png width =""200"" height = ""200"" style = ""float:right""></p><p><img src=images/blank.png width =""800"" height = ""200""></p>","","","","","","","","","","","",""
"","455.5099999997765","sequential-stimulus-presentation","57","139611","0.0-14.0-1.6","SS1613140388035","trial","","40","800","1255.5099999997765","images/stimuli/spore_stims/complex_16_A_d.gif","images/stimuli/spore_stims/complex_06_A_c.gif","","","","","2","complex_dissimilar","images/stimuli/spore_stims/complex_06_A_c.gif","left","","","","",""
"","null","html-keyboard-response","58","140484","0.0-14.0-0.7","SS1613140388035","","","null","","","","","<p><img src= images/blank.png width =""200"" height = ""200"" style = ""float:right""></p><p><img src=images/blank.png width =""800"" height = ""200""></p>","","","","","","","","","","","",""
"","610.5849999876227","sequential-stimulus-presentation","59","141899","0.0-14.0-1.7","SS1613140388035","trial","","40","800","1410.5849999876227","images/stimuli/spore_stims/complex_16_A_d.gif","images/stimuli/spore_stims/complex_06_A_c.gif","","","","","2","complex_dissimilar","images/stimuli/spore_stims/complex_06_A_c.gif","left","","","","",""
"","1765.3649999992922","html-keyboard-response","60","143667","0.0-15.0","SS1613140388035","pref_question","","98","","","","","<video width ='960' height = '540' style='padding-top:8%' autoplay muted><source src='images/stimuli/wall_pref.mp4' type='video/mp4'></video>","2","middle","45%","2","","","","","","","",""
"","2435.284999985015","sequential-stimulus-presentation","61","146906","0.0-16.0","SS1613140388035","pref_reveal","","40","800","3235.284999985015","null","null","","","","","2","","","","novel","","","",""
"","null","html-keyboard-response","62","147752","0.0-17.0-0.0","SS1613140388035","","","null","","","","","<p><img src= images/blank.png width =""200"" height = ""200"" style = ""float:right""></p><p><img src=images/blank.png width =""800"" height = ""200""></p>","","","","","","","","","","","",""
"","1142.680000019027","sequential-stimulus-presentation","63","149700","0.0-17.0-1.0","SS1613140388035","trial","","40","800","1942.680000019027","images/stimuli/spore_stims/simple_16_B_a.gif","images/stimuli/spore_stims/simple_07_A_d.gif","","","","","3","simple_dissimilar","images/stimuli/spore_stims/simple_07_A_d.gif","left","","","","",""
"","null","html-keyboard-response","64","150669","0.0-17.0-0.1","SS1613140388035","","","null","","","","","<p><img src= images/blank.png width =""200"" height = ""200"" style = ""float:right""></p><p><img src=images/blank.png width =""800"" height = ""200""></p>","","","","","","","","","","","",""
"","1555.8700000110548","sequential-stimulus-presentation","65","153043","0.0-17.0-1.1","SS1613140388035","trial","","40","800","2355.870000011055","images/stimuli/spore_stims/simple_16_B_a.gif","images/stimuli/spore_stims/simple_07_A_d.gif","","","","","3","simple_dissimilar","images/stimuli/spore_stims/simple_07_A_d.gif","left","","","","",""
"","null","html-keyboard-response","66","153912","0.0-17.0-0.2","SS1613140388035","","","null","","","","","<p><img src= images/blank.png width =""200"" height = ""200"" style = ""float:right""></p><p><img src=images/blank.png width =""800"" height = ""200""></p>","","","","","","","","","","","",""
"","1741.9499999959953","sequential-stimulus-presentation","67","156458","0.0-17.0-1.2","SS1613140388035","trial","","40","800","2541.9499999959953","images/stimuli/spore_stims/simple_16_B_a.gif","images/stimuli/spore_stims/simple_07_A_d.gif","","","","","3","simple_dissimilar","images/stimuli/spore_stims/simple_07_A_d.gif","left","","","","",""
"","null","html-keyboard-response","68","157715","0.0-17.0-0.3","SS1613140388035","","","null","","","","","<p><img src= images/blank.png width =""200"" height = ""200"" style = ""float:right""></p><p><img src=images/blank.png width =""800"" height = ""200""></p>","","","","","","","","","","","",""
"","519.3249999720138","sequential-stimulus-presentation","69","159050","0.0-17.0-1.3","SS1613140388035","trial","","40","800","1319.3249999720138","images/stimuli/spore_stims/simple_16_B_a.gif","images/stimuli/spore_stims/simple_07_A_d.gif","","","","","3","simple_dissimilar","images/stimuli/spore_stims/simple_07_A_d.gif","left","","","","",""
"","null","html-keyboard-response","70","160295","0.0-17.0-0.4","SS1613140388035","","","null","","","","","<p><img src= images/blank.png width =""200"" height = ""200"" style = ""float:right""></p><p><img src=images/blank.png width =""800"" height = ""200""></p>","","","","","","","","","","","",""
"","1304.054999985965","sequential-stimulus-presentation","71","162403","0.0-17.0-1.4","SS1613140388035","trial","","40","800","2104.054999985965","images/stimuli/spore_stims/simple_16_B_a.gif","images/stimuli/spore_stims/simple_07_A_d.gif","","","","","3","simple_dissimilar","images/stimuli/spore_stims/simple_07_A_d.gif","left","","","","",""
"","null","html-keyboard-response","72","163218","0.0-17.0-0.5","SS1613140388035","","","null","","","","","<p><img src= images/blank.png width =""200"" height = ""200"" style = ""float:right""></p><p><img src=images/blank.png width =""800"" height = ""200""></p>","","","","","","","","","","","",""
"","641.4999999979045","sequential-stimulus-presentation","73","164666","0.0-17.0-1.5","SS1613140388035","trial","","40","800","1441.4999999979045","images/stimuli/spore_stims/simple_16_B_a.gif","images/stimuli/spore_stims/simple_07_A_d.gif","","","","","3","simple_dissimilar","images/stimuli/spore_stims/simple_07_A_d.gif","left","","","","",""
"","null","html-keyboard-response","74","165695","0.0-17.0-0.6","SS1613140388035","","","null","","","","","<p><img src= images/blank.png width =""200"" height = ""200"" style = ""float:right""></p><p><img src=images/blank.png width =""800"" height = ""200""></p>","","","","","","","","","","","",""
"","664.6550000004936","sequential-stimulus-presentation","75","167163","0.0-17.0-1.6","SS1613140388035","trial","","40","800","1464.6550000004936","images/stimuli/spore_stims/simple_16_B_a.gif","images/stimuli/spore_stims/simple_07_A_d.gif","","","","","3","simple_dissimilar","images/stimuli/spore_stims/simple_16_B_a.gif","middle","","","","",""
"","null","html-keyboard-response","76","168467","0.0-17.0-0.7","SS1613140388035","","","null","","","","","<p><img src= images/blank.png width =""200"" height = ""200"" style = ""float:right""></p><p><img src=images/blank.png width =""800"" height = ""200""></p>","","","","","","","","","","","",""
"","483.82500000298023","sequential-stimulus-presentation","77","169754","0.0-17.0-1.7","SS1613140388035","trial","","40","800","1283.8250000029802","images/stimuli/spore_stims/simple_16_B_a.gif","images/stimuli/spore_stims/simple_07_A_d.gif","","","","","3","simple_dissimilar","images/stimuli/spore_stims/simple_07_A_d.gif","left","","","","",""
"","1397.529999987455","html-keyboard-response","78","171154","0.0-18.0","SS1613140388035","pref_question","","99","","","","","<video width ='960' height = '540' style='padding-top:8%' autoplay muted><source src='images/stimuli/wall_pref.mp4' type='video/mp4'></video>","3","right","66%","3","","","","","","","",""
"","812.7849999873433","sequential-stimulus-presentation","79","172771","0.0-19.0","SS1613140388035","pref_reveal","","40","800","1612.7849999873433","null","null","","","","","3","","","","novel","","","",""
"","null","html-keyboard-response","80","173967","0.0-20.0-0.0","SS1613140388035","","","null","","","","","<p><img src= images/blank.png width =""200"" height = ""200"" style = ""float:right""></p><p><img src=images/blank.png width =""800"" height = ""200""></p>","","","","","","","","","","","",""
"","536.2800000002608","sequential-stimulus-presentation","81","175307","0.0-20.0-1.0","SS1613140388035","trial","","40","800","1336.2800000002608","images/stimuli/spore_stims/complex_16_B_a.gif","images/stimuli/spore_stims/complex_04_A_a.gif","","","","","4","complex_dissimilar","images/stimuli/spore_stims/complex_04_A_a.gif","middle","","","","",""
"","null","html-keyboard-response","82","176389","0.0-20.0-0.1","SS1613140388035","","","null","","","","","<p><img src= images/blank.png width =""200"" height = ""200"" style = ""float:right""></p><p><img src=images/blank.png width =""800"" height = ""200""></p>","","","","","","","","","","","",""
"","409.5950000046287","sequential-stimulus-presentation","83","177619","0.0-20.0-1.1","SS1613140388035","trial","","40","800","1209.5950000046287","images/stimuli/spore_stims/complex_16_B_a.gif","images/stimuli/spore_stims/complex_04_A_a.gif","","","","","4","complex_dissimilar","images/stimuli/spore_stims/complex_04_A_a.gif","middle","","","","",""
"","null","html-keyboard-response","84","178586","0.0-20.0-0.2","SS1613140388035","","","null","","","","","<p><img src= images/blank.png width =""200"" height = ""200"" style = ""float:right""></p><p><img src=images/blank.png width =""800"" height = ""200""></p>","","","","","","","","","","","",""
"","484.07000000588596","sequential-stimulus-presentation","85","179875","0.0-20.0-1.2","SS1613140388035","trial","","40","800","1284.070000005886","images/stimuli/spore_stims/complex_16_B_a.gif","images/stimuli/spore_stims/complex_04_A_a.gif","","","","","4","complex_dissimilar","images/stimuli/spore_stims/complex_04_A_a.gif","middle","","","","",""
"","null","html-keyboard-response","86","181042","0.0-20.0-0.3","SS1613140388035","","","null","","","","","<p><img src= images/blank.png width =""200"" height = ""200"" style = ""float:right""></p><p><img src=images/blank.png width =""800"" height = ""200""></p>","","","","","","","","","","","",""
"","412.63000000617467","sequential-stimulus-presentation","87","182258","0.0-20.0-1.3","SS1613140388035","trial","","40","800","1212.6300000061747","images/stimuli/spore_stims/complex_16_B_a.gif","images/stimuli/spore_stims/complex_04_A_a.gif","","","","","4","complex_dissimilar","images/stimuli/spore_stims/complex_04_A_a.gif","middle","","","","",""
"","null","html-keyboard-response","88","183400","0.0-20.0-0.4","SS1613140388035","","","null","","","","","<p><img src= images/blank.png width =""200"" height = ""200"" style = ""float:right""></p><p><img src=images/blank.png width =""800"" height = ""200""></p>","","","","","","","","","","","",""
"","383.1300000019837","sequential-stimulus-presentation","89","184593","0.0-20.0-1.4","SS1613140388035","trial","","40","800","1183.1300000019837","images/stimuli/spore_stims/complex_16_B_a.gif","images/stimuli/spore_stims/complex_04_A_a.gif","","","","","4","complex_dissimilar","images/stimuli/spore_stims/complex_04_A_a.gif","middle","","","","",""
"","null","html-keyboard-response","90","185741","0.0-20.0-0.5","SS1613140388035","","","null","","","","","<p><img src= images/blank.png width =""200"" height = ""200"" style = ""float:right""></p><p><img src=images/blank.png width =""800"" height = ""200""></p>","","","","","","","","","","","",""
"","431.4799999992829","sequential-stimulus-presentation","91","186979","0.0-20.0-1.5","SS1613140388035","trial","","40","800","1231.4799999992829","images/stimuli/spore_stims/complex_16_B_a.gif","images/stimuli/spore_stims/complex_04_A_a.gif","","","","","4","complex_dissimilar","images/stimuli/spore_stims/complex_16_B_a.gif","left","","","","",""
"","null","html-keyboard-response","92","188133","0.0-20.0-0.6","SS1613140388035","","","null","","","","","<p><img src= images/blank.png width =""200"" height = ""200"" style = ""float:right""></p><p><img src=images/blank.png width =""800"" height = ""200""></p>","","","","","","","","","","","",""
"","528.889999986859","sequential-stimulus-presentation","93","189466","0.0-20.0-1.6","SS1613140388035","trial","","40","800","1328.889999986859","images/stimuli/spore_stims/complex_16_B_a.gif","images/stimuli/spore_stims/complex_04_A_a.gif","","","","","4","complex_dissimilar","images/stimuli/spore_stims/complex_04_A_a.gif","middle","","","","",""
"","null","html-keyboard-response","94","190651","0.0-20.0-0.7","SS1613140388035","","","null","","","","","<p><img src= images/blank.png width =""200"" height = ""200"" style = ""float:right""></p><p><img src=images/blank.png width =""800"" height = ""200""></p>","","","","","","","","","","","",""
"","410.86500001256354","sequential-stimulus-presentation","95","191867","0.0-20.0-1.7","SS1613140388035","trial","","40","800","1210.8650000125635","images/stimuli/spore_stims/complex_16_B_a.gif","images/stimuli/spore_stims/complex_04_A_a.gif","","","","","4","complex_dissimilar","images/stimuli/spore_stims/complex_04_A_a.gif","middle","","","","",""
"","1195.2750000054948","html-keyboard-response","96","193066","0.0-21.0","SS1613140388035","pref_question","","99","","","","","<video width ='960' height = '540' style='padding-top:8%' autoplay muted><source src='images/stimuli/wall_pref.mp4' type='video/mp4'></video>","3","right","66%","4","","","","","","","",""
"","810.7849999796599","sequential-stimulus-presentation","97","194683","0.0-22.0","SS1613140388035","pref_reveal","","40","800","1610.78499997966","null","null","","","","","4","","","","novel","","","",""
"","null","html-keyboard-response","98","195820","0.0-23.0-0.0","SS1613140388035","","","null","","","","","<p><img src= images/blank.png width =""200"" height = ""200"" style = ""float:right""></p><p><img src=images/blank.png width =""800"" height = ""200""></p>","","","","","","","","","","","",""
"","509.1600000159815","sequential-stimulus-presentation","99","197138","0.0-23.0-1.0","SS1613140388035","trial","","40","800","1309.1600000159815","images/stimuli/spore_stims/complex_13_A_b.gif","images/stimuli/spore_stims/complex_13_B_b.gif","","","","","5","complex_similar","images/stimuli/spore_stims/complex_13_B_b.gif","left","","","","",""
"","null","html-keyboard-response","100","198395","0.0-23.0-0.1","SS1613140388035","","","null","","","","","<p><img src= images/blank.png width =""200"" height = ""200"" style = ""float:right""></p><p><img src=images/blank.png width =""800"" height = ""200""></p>","","","","","","","","","","","",""
"","371.39500002376735","sequential-stimulus-presentation","101","199571","0.0-23.0-1.1","SS1613140388035","trial","","40","800","1171.3950000237674","images/stimuli/spore_stims/complex_13_A_b.gif","images/stimuli/spore_stims/complex_13_B_b.gif","","","","","5","complex_similar","images/stimuli/spore_stims/complex_13_B_b.gif","left","","","","",""
"","null","html-keyboard-response","102","200666","0.0-23.0-0.2","SS1613140388035","","","null","","","","","<p><img src= images/blank.png width =""200"" height = ""200"" style = ""float:right""></p><p><img src=images/blank.png width =""800"" height = ""200""></p>","","","","","","","","","","","",""
"","451.6200000070967","sequential-stimulus-presentation","103","201922","0.0-23.0-1.2","SS1613140388035","trial","","40","800","1251.6200000070967","images/stimuli/spore_stims/complex_13_A_b.gif","images/stimuli/spore_stims/complex_13_B_b.gif","","","","","5","complex_similar","images/stimuli/spore_stims/complex_13_B_b.gif","left","","","","",""
"","null","html-keyboard-response","104","202967","0.0-23.0-0.3","SS1613140388035","","","null","","","","","<p><img src= images/blank.png width =""200"" height = ""200"" style = ""float:right""></p><p><img src=images/blank.png width =""800"" height = ""200""></p>","","","","","","","","","","","",""
"","422.80999998911284","sequential-stimulus-presentation","105","204194","0.0-23.0-1.3","SS1613140388035","trial","","40","800","1222.8099999891128","images/stimuli/spore_stims/complex_13_A_b.gif","images/stimuli/spore_stims/complex_13_B_b.gif","","","","","5","complex_similar","images/stimuli/spore_stims/complex_13_A_b.gif","right","","","","",""
"","null","html-keyboard-response","106","205058","0.0-23.0-0.4","SS1613140388035","","","null","","","","","<p><img src= images/blank.png width =""200"" height = ""200"" style = ""float:right""></p><p><img src=images/blank.png width =""800"" height = ""200""></p>","","","","","","","","","","","",""
"","429.3199999956414","sequential-stimulus-presentation","107","206291","0.0-23.0-1.4","SS1613140388035","trial","","40","800","1229.3199999956414","images/stimuli/spore_stims/complex_13_A_b.gif","images/stimuli/spore_stims/complex_13_B_b.gif","","","","","5","complex_similar","images/stimuli/spore_stims/complex_13_B_b.gif","left","","","","",""
"","null","html-keyboard-response","108","207326","0.0-23.0-0.5","SS1613140388035","","","null","","","","","<p><img src= images/blank.png width =""200"" height = ""200"" style = ""float:right""></p><p><img src=images/blank.png width =""800"" height = ""200""></p>","","","","","","","","","","","",""
"","424.6800000255462","sequential-stimulus-presentation","109","208555","0.0-23.0-1.5","SS1613140388035","trial","","40","800","1224.6800000255462","images/stimuli/spore_stims/complex_13_A_b.gif","images/stimuli/spore_stims/complex_13_B_b.gif","","","","","5","complex_similar","images/stimuli/spore_stims/complex_13_B_b.gif","left","","","","",""
"","null","html-keyboard-response","110","209825","0.0-23.0-0.6","SS1613140388035","","","null","","","","","<p><img src= images/blank.png width =""200"" height = ""200"" style = ""float:right""></p><p><img src=images/blank.png width =""800"" height = ""200""></p>","","","","","","","","","","","",""
"","397.8249999927357","sequential-stimulus-presentation","111","211027","0.0-23.0-1.6","SS1613140388035","trial","","40","800","1197.8249999927357","images/stimuli/spore_stims/complex_13_A_b.gif","images/stimuli/spore_stims/complex_13_B_b.gif","","","","","5","complex_similar","images/stimuli/spore_stims/complex_13_B_b.gif","left","","","","",""
"","null","html-keyboard-response","112","212080","0.0-23.0-0.7","SS1613140388035","","","null","","","","","<p><img src= images/blank.png width =""200"" height = ""200"" style = ""float:right""></p><p><img src=images/blank.png width =""800"" height = ""200""></p>","","","","","","","","","","","",""
"","348.55499997502193","sequential-stimulus-presentation","113","213235","0.0-23.0-1.7","SS1613140388035","trial","","40","800","1148.554999975022","images/stimuli/spore_stims/complex_13_A_b.gif","images/stimuli/spore_stims/complex_13_B_b.gif","","","","","5","complex_similar","images/stimuli/spore_stims/complex_13_B_b.gif","left","","","","",""
"","1621.225000009872","html-keyboard-response","114","214859","0.0-24.0","SS1613140388035","pref_question","","98","","","","","<video width ='960' height = '540' style='padding-top:8%' autoplay muted><source src='images/stimuli/wall_pref.mp4' type='video/mp4'></video>","2","middle","45%","5","","","","","","","",""
"","731.9550000247546","sequential-stimulus-presentation","115","216395","0.0-25.0","SS1613140388035","pref_reveal","","40","800","1531.9550000247546","null","null","","","","","5","","","","novel","","","",""
"","null","html-keyboard-response","116","217517","0.0-26.0-0.0","SS1613140388035","","","null","","","","","<p><img src= images/blank.png width =""200"" height = ""200"" style = ""float:right""></p><p><img src=images/blank.png width =""800"" height = ""200""></p>","","","","","","","","","","","",""
"","331.39000000664964","sequential-stimulus-presentation","117","218666","0.0-26.0-1.0","SS1613140388035","trial","","40","800","1131.3900000066496","images/stimuli/spore_stims/simple_14_B_d.gif","images/stimuli/spore_stims/simple_14_A_d.gif","","","","","6","simple_similar","images/stimuli/spore_stims/simple_14_A_d.gif","left","","","","",""
"","null","html-keyboard-response","118","219624","0.0-26.0-0.1","SS1613140388035","","","null","","","","","<p><img src= images/blank.png width =""200"" height = ""200"" style = ""float:right""></p><p><img src=images/blank.png width =""800"" height = ""200""></p>","","","","","","","","","","","",""
"","300.649999990128","sequential-stimulus-presentation","119","220738","0.0-26.0-1.1","SS1613140388035","trial","","40","800","1100.649999990128","images/stimuli/spore_stims/simple_14_B_d.gif","images/stimuli/spore_stims/simple_14_A_d.gif","","","","","6","simple_similar","images/stimuli/spore_stims/simple_14_A_d.gif","left","","","","",""
"","null","html-keyboard-response","120","221868","0.0-26.0-0.2","SS1613140388035","","","null","","","","","<p><img src= images/blank.png width =""200"" height = ""200"" style = ""float:right""></p><p><img src=images/blank.png width =""800"" height = ""200""></p>","","","","","","","","","","","",""
"","378.4950000117533","sequential-stimulus-presentation","121","223051","0.0-26.0-1.2","SS1613140388035","trial","","40","800","1178.4950000117533","images/stimuli/spore_stims/simple_14_B_d.gif","images/stimuli/spore_stims/simple_14_A_d.gif","","","","","6","simple_similar","images/stimuli/spore_stims/simple_14_A_d.gif","left","","","","",""
"","null","html-keyboard-response","122","224322","0.0-26.0-0.3","SS1613140388035","","","null","","","","","<p><img src= images/blank.png width =""200"" height = ""200"" style = ""float:right""></p><p><img src=images/blank.png width =""800"" height = ""200""></p>","","","","","","","","","","","",""
"","389.1050000092946","sequential-stimulus-presentation","123","225515","0.0-26.0-1.3","SS1613140388035","trial","","40","800","1189.1050000092946","images/stimuli/spore_stims/simple_14_B_d.gif","images/stimuli/spore_stims/simple_14_A_d.gif","","","","","6","simple_similar","images/stimuli/spore_stims/simple_14_A_d.gif","left","","","","",""
"","null","html-keyboard-response","124","226642","0.0-26.0-0.4","SS1613140388035","","","null","","","","","<p><img src= images/blank.png width =""200"" height = ""200"" style = ""float:right""></p><p><img src=images/blank.png width =""800"" height = ""200""></p>","","","","","","","","","","","",""
"","367.4100000062026","sequential-stimulus-presentation","125","227827","0.0-26.0-1.4","SS1613140388035","trial","","40","800","1167.4100000062026","images/stimuli/spore_stims/simple_14_B_d.gif","images/stimuli/spore_stims/simple_14_A_d.gif","","","","","6","simple_similar","images/stimuli/spore_stims/simple_14_B_d.gif","middle","","","","",""
"","null","html-keyboard-response","126","228940","0.0-26.0-0.5","SS1613140388035","","","null","","","","","<p><img src= images/blank.png width =""200"" height = ""200"" style = ""float:right""></p><p><img src=images/blank.png width =""800"" height = ""200""></p>","","","","","","","","","","","",""
"","313.56499998946674","sequential-stimulus-presentation","127","230059","0.0-26.0-1.5","SS1613140388035","trial","","40","800","1113.5649999894667","images/stimuli/spore_stims/simple_14_B_d.gif","images/stimuli/spore_stims/simple_14_A_d.gif","","","","","6","simple_similar","images/stimuli/spore_stims/simple_14_A_d.gif","left","","","","",""
"","null","html-keyboard-response","128","231026","0.0-26.0-0.6","SS1613140388035","","","null","","","","","<p><img src= images/blank.png width =""200"" height = ""200"" style = ""float:right""></p><p><img src=images/blank.png width =""800"" height = ""200""></p>","","","","","","","","","","","",""
"","324.23499997821636","sequential-stimulus-presentation","129","232155","0.0-26.0-1.6","SS1613140388035","trial","","40","800","1124.2349999782164","images/stimuli/spore_stims/simple_14_B_d.gif","images/stimuli/spore_stims/simple_14_A_d.gif","","","","","6","simple_similar","images/stimuli/spore_stims/simple_14_A_d.gif","left","","","","",""
"","null","html-keyboard-response","130","233321","0.0-26.0-0.7","SS1613140388035","","","null","","","","","<p><img src= images/blank.png width =""200"" height = ""200"" style = ""float:right""></p><p><img src=images/blank.png width =""800"" height = ""200""></p>","","","","","","","","","","","",""
"","187.99000000581145","sequential-stimulus-presentation","131","234315","0.0-26.0-1.7","SS1613140388035","trial","","40","800","987.9900000058115","images/stimuli/spore_stims/simple_14_B_d.gif","images/stimuli/spore_stims/simple_14_A_d.gif","","","","","6","simple_similar","images/stimuli/spore_stims/simple_14_A_d.gif","left","","","","",""
"","1309.5099999918602","html-keyboard-response","132","235634","0.0-27.0","SS1613140388035","pref_question","","99","","","","","<video width ='960' height = '540' style='padding-top:8%' autoplay muted><source src='images/stimuli/wall_pref.mp4' type='video/mp4'></video>","3","right","66%","6","","","","","","","",""
"","1300.4800000053365","sequential-stimulus-presentation","133","237739","0.0-28.0","SS1613140388035","pref_reveal","","40","800","2100.4800000053365","null","null","","","","","6","","","","novel","","","",""
"","null","html-keyboard-response","134","238874","0.0-29.0-0.0","SS1613140388035","","","null","","","","","<p><img src= images/blank.png width =""200"" height = ""200"" style = ""float:right""></p><p><img src=images/blank.png width =""800"" height = ""200""></p>","","","","","","","","","","","",""
"","484.94499997468665","sequential-stimulus-presentation","135","240163","0.0-29.0-1.0","SS1613140388035","trial","","40","800","1284.9449999746867","images/stimuli/spore_stims/simple_08_B_a.gif","images/stimuli/spore_stims/simple_15_A_b.gif","","","","","7","simple_dissimilar","images/stimuli/spore_stims/simple_15_A_b.gif","right","","","","",""
"","null","html-keyboard-response","136","241187","0.0-29.0-0.1","SS1613140388035","","","null","","","","","<p><img src= images/blank.png width =""200"" height = ""200"" style = ""float:right""></p><p><img src=images/blank.png width =""800"" height = ""200""></p>","","","","","","","","","","","",""
"","186.7050000000745","sequential-stimulus-presentation","137","242179","0.0-29.0-1.1","SS1613140388035","trial","","40","800","986.7050000000745","images/stimuli/spore_stims/simple_08_B_a.gif","images/stimuli/spore_stims/simple_15_A_b.gif","","","","","7","simple_dissimilar","images/stimuli/spore_stims/simple_15_A_b.gif","right","","","","",""
"","null","html-keyboard-response","138","243481","0.0-29.0-0.2","SS1613140388035","","","null","","","","","<p><img src= images/blank.png width =""200"" height = ""200"" style = ""float:right""></p><p><img src=images/blank.png width =""800"" height = ""200""></p>","","","","","","","","","","","",""
"","331.09500000136904","sequential-stimulus-presentation","139","244627","0.0-29.0-1.2","SS1613140388035","trial","","40","800","1131.095000001369","images/stimuli/spore_stims/simple_08_B_a.gif","images/stimuli/spore_stims/simple_15_A_b.gif","","","","","7","simple_dissimilar","images/stimuli/spore_stims/simple_15_A_b.gif","right","","","","",""
"","null","html-keyboard-response","140","245557","0.0-29.0-0.3","SS1613140388035","","","null","","","","","<p><img src= images/blank.png width =""200"" height = ""200"" style = ""float:right""></p><p><img src=images/blank.png width =""800"" height = ""200""></p>","","","","","","","","","","","",""
"","352.7300000132527","sequential-stimulus-presentation","141","246715","0.0-29.0-1.3","SS1613140388035","trial","","40","800","1152.7300000132527","images/stimuli/spore_stims/simple_08_B_a.gif","images/stimuli/spore_stims/simple_15_A_b.gif","","","","","7","simple_dissimilar","images/stimuli/spore_stims/simple_15_A_b.gif","right","","","","",""
"","null","html-keyboard-response","142","247788","0.0-29.0-0.4","SS1613140388035","","","null","","","","","<p><img src= images/blank.png width =""200"" height = ""200"" style = ""float:right""></p><p><img src=images/blank.png width =""800"" height = ""200""></p>","","","","","","","","","","","",""
"","361.7599999997765","sequential-stimulus-presentation","143","248955","0.0-29.0-1.4","SS1613140388035","trial","","40","800","1161.7599999997765","images/stimuli/spore_stims/simple_08_B_a.gif","images/stimuli/spore_stims/simple_15_A_b.gif","","","","","7","simple_dissimilar","images/stimuli/spore_stims/simple_15_A_b.gif","right","","","","",""
"","null","html-keyboard-response","144","249825","0.0-29.0-0.5","SS1613140388035","","","null","","","","","<p><img src= images/blank.png width =""200"" height = ""200"" style = ""float:right""></p><p><img src=images/blank.png width =""800"" height = ""200""></p>","","","","","","","","","","","",""
"","581.8200000212528","sequential-stimulus-presentation","145","251211","0.0-29.0-1.5","SS1613140388035","trial","","40","800","1381.8200000212528","images/stimuli/spore_stims/simple_08_B_a.gif","images/stimuli/spore_stims/simple_15_A_b.gif","","","","","7","simple_dissimilar","images/stimuli/spore_stims/simple_08_B_a.gif","left","","","","",""
"","null","html-keyboard-response","146","252231","0.0-29.0-0.6","SS1613140388035","","","null","","","","","<p><img src= images/blank.png width =""200"" height = ""200"" style = ""float:right""></p><p><img src=images/blank.png width =""800"" height = ""200""></p>","","","","","","","","","","","",""
"","286.49999998742715","sequential-stimulus-presentation","147","253322","0.0-29.0-1.6","SS1613140388035","trial","","40","800","1086.4999999874271","images/stimuli/spore_stims/simple_08_B_a.gif","images/stimuli/spore_stims/simple_15_A_b.gif","","","","","7","simple_dissimilar","images/stimuli/spore_stims/simple_15_A_b.gif","right","","","","",""
"","null","html-keyboard-response","148","254198","0.0-29.0-0.7","SS1613140388035","","","null","","","","","<p><img src= images/blank.png width =""200"" height = ""200"" style = ""float:right""></p><p><img src=images/blank.png width =""800"" height = ""200""></p>","","","","","","","","","","","",""
"","335.3300000017043","sequential-stimulus-presentation","149","255339","0.0-29.0-1.7","SS1613140388035","trial","","40","800","1135.3300000017043","images/stimuli/spore_stims/simple_08_B_a.gif","images/stimuli/spore_stims/simple_15_A_b.gif","","","","","7","simple_dissimilar","images/stimuli/spore_stims/simple_15_A_b.gif","right","","","","",""
"","2029.0149999782443","html-keyboard-response","150","257370","0.0-30.0","SS1613140388035","pref_question","","98","","","","","<video width ='960' height = '540' style='padding-top:8%' autoplay muted><source src='images/stimuli/wall_pref.mp4' type='video/mp4'></video>","2","middle","45%","7","","","","","","","",""
"","539.2299999948591","sequential-stimulus-presentation","151","258714","0.0-31.0","SS1613140388035","pref_reveal","","40","800","1339.229999994859","null","null","","","","","7","","","","novel","","","",""
"","null","html-keyboard-response","152","259761","0.0-32.0-0.0","SS1613140388035","","","null","","","","","<p><img src= images/blank.png width =""200"" height = ""200"" style = ""float:right""></p><p><img src=images/blank.png width =""800"" height = ""200""></p>","","","","","","","","","","","",""
"","359.4250000023749","sequential-stimulus-presentation","153","260930","0.0-32.0-1.0","SS1613140388035","trial","","40","800","1159.4250000023749","images/stimuli/spore_stims/simple_19_A_d.gif","images/stimuli/spore_stims/simple_19_B_d.gif","","","","","8","simple_similar","images/stimuli/spore_stims/simple_19_B_d.gif","right","","","","",""
"","null","html-keyboard-response","154","262192","0.0-32.0-0.1","SS1613140388035","","","null","","","","","<p><img src= images/blank.png width =""200"" height = ""200"" style = ""float:right""></p><p><img src=images/blank.png width =""800"" height = ""200""></p>","","","","","","","","","","","",""
"","284.97500001685694","sequential-stimulus-presentation","155","263291","0.0-32.0-1.1","SS1613140388035","trial","","40","800","1084.975000016857","images/stimuli/spore_stims/simple_19_A_d.gif","images/stimuli/spore_stims/simple_19_B_d.gif","","","","","8","simple_similar","images/stimuli/spore_stims/simple_19_B_d.gif","right","","","","",""
"","null","html-keyboard-response","156","264452","0.0-32.0-0.2","SS1613140388035","","","null","","","","","<p><img src= images/blank.png width =""200"" height = ""200"" style = ""float:right""></p><p><img src=images/blank.png width =""800"" height = ""200""></p>","","","","","","","","","","","",""
"","354.43999999552034","sequential-stimulus-presentation","157","265611","0.0-32.0-1.2","SS1613140388035","trial","","40","800","1154.4399999955203","images/stimuli/spore_stims/simple_19_A_d.gif","images/stimuli/spore_stims/simple_19_B_d.gif","","","","","8","simple_similar","images/stimuli/spore_stims/simple_19_A_d.gif","middle","","","","",""
"","null","html-keyboard-response","158","266466","0.0-32.0-0.3","SS1613140388035","","","null","","","","","<p><img src= images/blank.png width =""200"" height = ""200"" style = ""float:right""></p><p><img src=images/blank.png width =""800"" height = ""200""></p>","","","","","","","","","","","",""
"","387.6499999896623","sequential-stimulus-presentation","159","267658","0.0-32.0-1.3","SS1613140388035","trial","","40","800","1187.6499999896623","images/stimuli/spore_stims/simple_19_A_d.gif","images/stimuli/spore_stims/simple_19_B_d.gif","","","","","8","simple_similar","images/stimuli/spore_stims/simple_19_B_d.gif","right","","","","",""
"","null","html-keyboard-response","160","268472","0.0-32.0-0.4","SS1613140388035","","","null","","","","","<p><img src= images/blank.png width =""200"" height = ""200"" style = ""float:right""></p><p><img src=images/blank.png width =""800"" height = ""200""></p>","","","","","","","","","","","",""
"","325.33999998122454","sequential-stimulus-presentation","161","269611","0.0-32.0-1.4","SS1613140388035","trial","","40","800","1125.3399999812245","images/stimuli/spore_stims/simple_19_A_d.gif","images/stimuli/spore_stims/simple_19_B_d.gif","","","","","8","simple_similar","images/stimuli/spore_stims/simple_19_B_d.gif","right","","","","",""
"","null","html-keyboard-response","162","270463","0.0-32.0-0.5","SS1613140388035","","","null","","","","","<p><img src= images/blank.png width =""200"" height = ""200"" style = ""float:right""></p><p><img src=images/blank.png width =""800"" height = ""200""></p>","","","","","","","","","","","",""
"","254.83499999972992","sequential-stimulus-presentation","163","271522","0.0-32.0-1.5","SS1613140388035","trial","","40","800","1054.83499999973","images/stimuli/spore_stims/simple_19_A_d.gif","images/stimuli/spore_stims/simple_19_B_d.gif","","","","","8","simple_similar","images/stimuli/spore_stims/simple_19_B_d.gif","right","","","","",""
"","null","html-keyboard-response","164","272706","0.0-32.0-0.6","SS1613140388035","","","null","","","","","<p><img src= images/blank.png width =""200"" height = ""200"" style = ""float:right""></p><p><img src=images/blank.png width =""800"" height = ""200""></p>","","","","","","","","","","","",""
"","364.0749999904074","sequential-stimulus-presentation","165","273875","0.0-32.0-1.6","SS1613140388035","trial","","40","800","1164.0749999904074","images/stimuli/spore_stims/simple_19_A_d.gif","images/stimuli/spore_stims/simple_19_B_d.gif","","","","","8","simple_similar","images/stimuli/spore_stims/simple_19_B_d.gif","right","","","","",""
"","null","html-keyboard-response","166","274855","0.0-32.0-0.7","SS1613140388035","","","null","","","","","<p><img src= images/blank.png width =""200"" height = ""200"" style = ""float:right""></p><p><img src=images/blank.png width =""800"" height = ""200""></p>","","","","","","","","","","","",""
"","350.5200000072364","sequential-stimulus-presentation","167","276011","0.0-32.0-1.7","SS1613140388035","trial","","40","800","1150.5200000072364","images/stimuli/spore_stims/simple_19_A_d.gif","images/stimuli/spore_stims/simple_19_B_d.gif","","","","","8","simple_similar","images/stimuli/spore_stims/simple_19_B_d.gif","right","","","","",""
"","1596.4200000162236","html-keyboard-response","168","277611","0.0-33.0","SS1613140388035","pref_question","","99","","","","","<video width ='960' height = '540' style='padding-top:8%' autoplay muted><source src='images/stimuli/wall_pref.mp4' type='video/mp4'></video>","3","right","66%","8","","","","","","","",""
"","539.9749999924097","sequential-stimulus-presentation","169","278955","0.0-34.0","SS1613140388035","pref_reveal","","40","800","1339.9749999924097","null","null","","","","","8","","","","background","","","",""
"","null","html-keyboard-response","170","279862","0.0-35.0-0.0","SS1613140388035","","","null","","","","","<p><img src= images/blank.png width =""200"" height = ""200"" style = ""float:right""></p><p><img src=images/blank.png width =""800"" height = ""200""></p>","","","","","","","","","","","",""
"","213.87500001583248","sequential-stimulus-presentation","171","280890","0.0-35.0-1.0","SS1613140388035","trial","","40","800","1013.8750000158325","images/stimuli/spore_stims/simple_20_A_c.gif","images/stimuli/spore_stims/simple_20_B_c.gif","","","","","9","simple_similar","images/stimuli/spore_stims/simple_20_B_c.gif","right","","","","",""
"","null","html-keyboard-response","172","281999","0.0-35.0-0.1","SS1613140388035","","","null","","","","","<p><img src= images/blank.png width =""200"" height = ""200"" style = ""float:right""></p><p><img src=images/blank.png width =""800"" height = ""200""></p>","","","","","","","","","","","",""
"","134.69000000623055","sequential-stimulus-presentation","173","282938","0.0-35.0-1.1","SS1613140388035","trial","","40","800","934.6900000062305","images/stimuli/spore_stims/simple_20_A_c.gif","images/stimuli/spore_stims/simple_20_B_c.gif","","","","","9","simple_similar","images/stimuli/spore_stims/simple_20_B_c.gif","right","","","","",""
"","null","html-keyboard-response","174","284015","0.0-35.0-0.2","SS1613140388035","","","null","","","","","<p><img src= images/blank.png width =""200"" height = ""200"" style = ""float:right""></p><p><img src=images/blank.png width =""800"" height = ""200""></p>","","","","","","","","","","","",""
"","375.6649999995716","sequential-stimulus-presentation","175","285195","0.0-35.0-1.2","SS1613140388035","trial","","40","800","1175.6649999995716","images/stimuli/spore_stims/simple_20_A_c.gif","images/stimuli/spore_stims/simple_20_B_c.gif","","","","","9","simple_similar","images/stimuli/spore_stims/simple_20_B_c.gif","right","","","","",""
"","null","html-keyboard-response","176","286053","0.0-35.0-0.3","SS1613140388035","","","null","","","","","<p><img src= images/blank.png width =""200"" height = ""200"" style = ""float:right""></p><p><img src=images/blank.png width =""800"" height = ""200""></p>","","","","","","","","","","","",""
"","328.9749999821652","sequential-stimulus-presentation","177","287186","0.0-35.0-1.3","SS1613140388035","trial","","40","800","1128.9749999821652","images/stimuli/spore_stims/simple_20_A_c.gif","images/stimuli/spore_stims/simple_20_B_c.gif","","","","","9","simple_similar","images/stimuli/spore_stims/simple_20_B_c.gif","right","","","","",""
"","null","html-keyboard-response","178","288307","0.0-35.0-0.4","SS1613140388035","","","null","","","","","<p><img src= images/blank.png width =""200"" height = ""200"" style = ""float:right""></p><p><img src=images/blank.png width =""800"" height = ""200""></p>","","","","","","","","","","","",""
"","392.2000000020489","sequential-stimulus-presentation","179","289507","0.0-35.0-1.4","SS1613140388035","trial","","40","800","1192.200000002049","images/stimuli/spore_stims/simple_20_A_c.gif","images/stimuli/spore_stims/simple_20_B_c.gif","","","","","9","simple_similar","images/stimuli/spore_stims/simple_20_B_c.gif","right","","","","",""
"","null","html-keyboard-response","180","290804","0.0-35.0-0.5","SS1613140388035","","","null","","","","","<p><img src= images/blank.png width =""200"" height = ""200"" style = ""float:right""></p><p><img src=images/blank.png width =""800"" height = ""200""></p>","","","","","","","","","","","",""
"","393.7549999973271","sequential-stimulus-presentation","181","292003","0.0-35.0-1.5","SS1613140388035","trial","","40","800","1193.754999997327","images/stimuli/spore_stims/simple_20_A_c.gif","images/stimuli/spore_stims/simple_20_B_c.gif","","","","","9","simple_similar","images/stimuli/spore_stims/simple_20_B_c.gif","right","","","","",""
"","null","html-keyboard-response","182","293163","0.0-35.0-0.6","SS1613140388035","","","null","","","","","<p><img src= images/blank.png width =""200"" height = ""200"" style = ""float:right""></p><p><img src=images/blank.png width =""800"" height = ""200""></p>","","","","","","","","","","","",""
"","330.4199999838602","sequential-stimulus-presentation","183","294298","0.0-35.0-1.6","SS1613140388035","trial","","40","800","1130.4199999838602","images/stimuli/spore_stims/simple_20_A_c.gif","images/stimuli/spore_stims/simple_20_B_c.gif","","","","","9","simple_similar","images/stimuli/spore_stims/simple_20_B_c.gif","right","","","","",""
"","null","html-keyboard-response","184","295153","0.0-35.0-0.7","SS1613140388035","","","null","","","","","<p><img src= images/blank.png width =""200"" height = ""200"" style = ""float:right""></p><p><img src=images/blank.png width =""800"" height = ""200""></p>","","","","","","","","","","","",""
"","557.1599999966566","sequential-stimulus-presentation","185","296515","0.0-35.0-1.7","SS1613140388035","trial","","40","800","1357.1599999966566","images/stimuli/spore_stims/simple_20_A_c.gif","images/stimuli/spore_stims/simple_20_B_c.gif","","","","","9","simple_similar","images/stimuli/spore_stims/simple_20_A_c.gif","left","","","","",""
"","1482.9400000162423","html-keyboard-response","186","298002","0.0-36.0","SS1613140388035","pref_question","","98","","","","","<video width ='960' height = '540' style='padding-top:8%' autoplay muted><source src='images/stimuli/wall_pref.mp4' type='video/mp4'></video>","2","middle","45%","9","","","","","","","",""
"","918.6050000134856","sequential-stimulus-presentation","187","299738","0.0-37.0","SS1613140388035","pref_reveal","","40","800","1718.6050000134856","null","null","","","","","9","","","","novel","","","",""
"","null","html-keyboard-response","188","300955","0.0-38.0-0.0","SS1613140388035","","","null","","","","","<p><img src= images/blank.png width =""200"" height = ""200"" style = ""float:right""></p><p><img src=images/blank.png width =""800"" height = ""200""></p>","","","","","","","","","","","",""
"","2010.920000000624","sequential-stimulus-presentation","189","303771","0.0-38.0-1.0","SS1613140388035","trial","","40","800","2810.920000000624","images/stimuli/spore_stims/simple_15_B_b.gif","images/stimuli/spore_stims/simple_05_B_a.gif","","","","","10","simple_dissimilar","images/stimuli/spore_stims/simple_05_B_a.gif","middle","","","","",""
"","null","html-keyboard-response","190","304879","0.0-38.0-0.1","SS1613140388035","","","null","","","","","<p><img src= images/blank.png width =""200"" height = ""200"" style = ""float:right""></p><p><img src=images/blank.png width =""800"" height = ""200""></p>","","","","","","","","","","","",""
"","205.309999990277","sequential-stimulus-presentation","191","305890","0.0-38.0-1.1","SS1613140388035","trial","","40","800","1005.309999990277","images/stimuli/spore_stims/simple_15_B_b.gif","images/stimuli/spore_stims/simple_05_B_a.gif","","","","","10","simple_dissimilar","images/stimuli/spore_stims/simple_05_B_a.gif","middle","","","","",""
"","null","html-keyboard-response","192","307004","0.0-38.0-0.2","SS1613140388035","","","null","","","","","<p><img src= images/blank.png width =""200"" height = ""200"" style = ""float:right""></p><p><img src=images/blank.png width =""800"" height = ""200""></p>","","","","","","","","","","","",""
"","155.20500001730397","sequential-stimulus-presentation","193","307963","0.0-38.0-1.2","SS1613140388035","trial","","40","800","955.205000017304","images/stimuli/spore_stims/simple_15_B_b.gif","images/stimuli/spore_stims/simple_05_B_a.gif","","","","","10","simple_dissimilar","images/stimuli/spore_stims/simple_05_B_a.gif","middle","","","","",""
"","null","html-keyboard-response","194","309028","0.0-38.0-0.3","SS1613140388035","","","null","","","","","<p><img src= images/blank.png width =""200"" height = ""200"" style = ""float:right""></p><p><img src=images/blank.png width =""800"" height = ""200""></p>","","","","","","","","","","","",""
"","208.76000000862405","sequential-stimulus-presentation","195","310042","0.0-38.0-1.3","SS1613140388035","trial","","40","800","1008.760000008624","images/stimuli/spore_stims/simple_15_B_b.gif","images/stimuli/spore_stims/simple_05_B_a.gif","","","","","10","simple_dissimilar","images/stimuli/spore_stims/simple_05_B_a.gif","middle","","","","",""
"","null","html-keyboard-response","196","311336","0.0-38.0-0.4","SS1613140388035","","","null","","","","","<p><img src= images/blank.png width =""200"" height = ""200"" style = ""float:right""></p><p><img src=images/blank.png width =""800"" height = ""200""></p>","","","","","","","","","","","",""
"","586.0549999924842","sequential-stimulus-presentation","197","312730","0.0-38.0-1.4","SS1613140388035","trial","","40","800","1386.0549999924842","images/stimuli/spore_stims/simple_15_B_b.gif","images/stimuli/spore_stims/simple_05_B_a.gif","","","","","10","simple_dissimilar","images/stimuli/spore_stims/simple_15_B_b.gif","left","","","","",""
"","null","html-keyboard-response","198","313876","0.0-38.0-0.5","SS1613140388035","","","null","","","","","<p><img src= images/blank.png width =""200"" height = ""200"" style = ""float:right""></p><p><img src=images/blank.png width =""800"" height = ""200""></p>","","","","","","","","","","","",""
"","846.9200000108685","sequential-stimulus-presentation","199","315530","0.0-38.0-1.5","SS1613140388035","trial","","40","800","1646.9200000108685","images/stimuli/spore_stims/simple_15_B_b.gif","images/stimuli/spore_stims/simple_05_B_a.gif","","","","","10","simple_dissimilar","images/stimuli/spore_stims/simple_05_B_a.gif","middle","","","","",""
"","null","html-keyboard-response","200","316503","0.0-38.0-0.6","SS1613140388035","","","null","","","","","<p><img src= images/blank.png width =""200"" height = ""200"" style = ""float:right""></p><p><img src=images/blank.png width =""800"" height = ""200""></p>","","","","","","","","","","","",""
"","238.27999999048188","sequential-stimulus-presentation","201","317547","0.0-38.0-1.6","SS1613140388035","trial","","40","800","1038.2799999904819","images/stimuli/spore_stims/simple_15_B_b.gif","images/stimuli/spore_stims/simple_05_B_a.gif","","","","","10","simple_dissimilar","images/stimuli/spore_stims/simple_05_B_a.gif","middle","","","","",""
"","null","html-keyboard-response","202","318764","0.0-38.0-0.7","SS1613140388035","","","null","","","","","<p><img src= images/blank.png width =""200"" height = ""200"" style = ""float:right""></p><p><img src=images/blank.png width =""800"" height = ""200""></p>","","","","","","","","","","","",""
"","122.3500000196509","sequential-stimulus-presentation","203","319691","0.0-38.0-1.7","SS1613140388035","trial","","40","800","922.3500000196509","images/stimuli/spore_stims/simple_15_B_b.gif","images/stimuli/spore_stims/simple_05_B_a.gif","","","","","10","simple_dissimilar","images/stimuli/spore_stims/simple_05_B_a.gif","middle","","","","",""
"","1123.1249999837019","html-keyboard-response","204","320818","0.0-39.0","SS1613140388035","pref_question","","99","","","","","<video width ='960' height = '540' style='padding-top:8%' autoplay muted><source src='images/stimuli/wall_pref.mp4' type='video/mp4'></video>","3","right","66%","10","","","","","","","",""
"","986.1850000161212","sequential-stimulus-presentation","205","322610","0.0-40.0","SS1613140388035","pref_reveal","","40","800","1786.1850000161212","null","null","","","","","10","","","","novel","","","",""
"","null","html-keyboard-response","206","323636","0.0-41.0-0.0","SS1613140388035","","","null","","","","","<p><img src= images/blank.png width =""200"" height = ""200"" style = ""float:right""></p><p><img src=images/blank.png width =""800"" height = ""200""></p>","","","","","","","","","","","",""
"","345.1900000218302","sequential-stimulus-presentation","207","324787","0.0-41.0-1.0","SS1613140388035","trial","","40","800","1145.1900000218302","images/stimuli/spore_stims/complex_07_B_b.gif","images/stimuli/spore_stims/complex_18_B_b.gif","","","","","11","complex_dissimilar","images/stimuli/spore_stims/complex_18_B_b.gif","left","","","","",""
"","null","html-keyboard-response","208","325956","0.0-41.0-0.1","SS1613140388035","","","null","","","","","<p><img src= images/blank.png width =""200"" height = ""200"" style = ""float:right""></p><p><img src=images/blank.png width =""800"" height = ""200""></p>","","","","","","","","","","","",""
"","208.24500001617707","sequential-stimulus-presentation","209","326970","0.0-41.0-1.1","SS1613140388035","trial","","40","800","1008.2450000161771","images/stimuli/spore_stims/complex_07_B_b.gif","images/stimuli/spore_stims/complex_18_B_b.gif","","","","","11","complex_dissimilar","images/stimuli/spore_stims/complex_18_B_b.gif","left","","","","",""
"","null","html-keyboard-response","210","328140","0.0-41.0-0.2","SS1613140388035","","","null","","","","","<p><img src= images/blank.png width =""200"" height = ""200"" style = ""float:right""></p><p><img src=images/blank.png width =""800"" height = ""200""></p>","","","","","","","","","","","",""
"","337.31500001158565","sequential-stimulus-presentation","211","329282","0.0-41.0-1.2","SS1613140388035","trial","","40","800","1137.3150000115857","images/stimuli/spore_stims/complex_07_B_b.gif","images/stimuli/spore_stims/complex_18_B_b.gif","","","","","11","complex_dissimilar","images/stimuli/spore_stims/complex_18_B_b.gif","left","","","","",""
"","null","html-keyboard-response","212","330162","0.0-41.0-0.3","SS1613140388035","","","null","","","","","<p><img src= images/blank.png width =""200"" height = ""200"" style = ""float:right""></p><p><img src=images/blank.png width =""800"" height = ""200""></p>","","","","","","","","","","","",""
"","259.93000000016764","sequential-stimulus-presentation","213","331228","0.0-41.0-1.3","SS1613140388035","trial","","40","800","1059.9300000001676","images/stimuli/spore_stims/complex_07_B_b.gif","images/stimuli/spore_stims/complex_18_B_b.gif","","","","","11","complex_dissimilar","images/stimuli/spore_stims/complex_07_B_b.gif","middle","","","","",""
"","null","html-keyboard-response","214","332090","0.0-41.0-0.4","SS1613140388035","","","null","","","","","<p><img src= images/blank.png width =""200"" height = ""200"" style = ""float:right""></p><p><img src=images/blank.png width =""800"" height = ""200""></p>","","","","","","","","","","","",""
"","184.50500001199543","sequential-stimulus-presentation","215","333083","0.0-41.0-1.4","SS1613140388035","trial","","40","800","984.5050000119954","images/stimuli/spore_stims/complex_07_B_b.gif","images/stimuli/spore_stims/complex_18_B_b.gif","","","","","11","complex_dissimilar","images/stimuli/spore_stims/complex_18_B_b.gif","left","","","","",""
"","null","html-keyboard-response","216","334370","0.0-41.0-0.5","SS1613140388035","","","null","","","","","<p><img src= images/blank.png width =""200"" height = ""200"" style = ""float:right""></p><p><img src=images/blank.png width =""800"" height = ""200""></p>","","","","","","","","","","","",""
"","194.64499998139217","sequential-stimulus-presentation","217","335370","0.0-41.0-1.5","SS1613140388035","trial","","40","800","994.6449999813922","images/stimuli/spore_stims/complex_07_B_b.gif","images/stimuli/spore_stims/complex_18_B_b.gif","","","","","11","complex_dissimilar","images/stimuli/spore_stims/complex_18_B_b.gif","left","","","","",""
"","null","html-keyboard-response","218","336198","0.0-41.0-0.6","SS1613140388035","","","null","","","","","<p><img src= images/blank.png width =""200"" height = ""200"" style = ""float:right""></p><p><img src=images/blank.png width =""800"" height = ""200""></p>","","","","","","","","","","","",""
"","334.67499999096617","sequential-stimulus-presentation","219","337338","0.0-41.0-1.6","SS1613140388035","trial","","40","800","1134.6749999909662","images/stimuli/spore_stims/complex_07_B_b.gif","images/stimuli/spore_stims/complex_18_B_b.gif","","","","","11","complex_dissimilar","images/stimuli/spore_stims/complex_18_B_b.gif","left","","","","",""
"","null","html-keyboard-response","220","338288","0.0-41.0-0.7","SS1613140388035","","","null","","","","","<p><img src= images/blank.png width =""200"" height = ""200"" style = ""float:right""></p><p><img src=images/blank.png width =""800"" height = ""200""></p>","","","","","","","","","","","",""
"","339.94500001426786","sequential-stimulus-presentation","221","339434","0.0-41.0-1.7","SS1613140388035","trial","","40","800","1139.9450000142679","images/stimuli/spore_stims/complex_07_B_b.gif","images/stimuli/spore_stims/complex_18_B_b.gif","","","","","11","complex_dissimilar","images/stimuli/spore_stims/complex_18_B_b.gif","left","","","","",""
"","1491.9649999937974","html-keyboard-response","222","340931","0.0-42.0","SS1613140388035","pref_question","","99","","","","","<video width ='960' height = '540' style='padding-top:8%' autoplay muted><source src='images/stimuli/wall_pref.mp4' type='video/mp4'></video>","3","right","66%","11","","","","","","","",""
"","498.7900000123773","sequential-stimulus-presentation","223","342236","0.0-43.0","SS1613140388035","pref_reveal","","40","800","1298.7900000123773","null","null","","","","","11","","","","novel","","","",""
"","null","html-keyboard-response","224","343513","0.0-44.0-0.0","SS1613140388035","","","null","","","","","<p><img src= images/blank.png width =""200"" height = ""200"" style = ""float:right""></p><p><img src=images/blank.png width =""800"" height = ""200""></p>","","","","","","","","","","","",""
"","452.00499999918975","sequential-stimulus-presentation","225","344771","0.0-44.0-1.0","SS1613140388035","trial","","40","800","1252.0049999991897","images/stimuli/spore_stims/complex_12_B_b.gif","images/stimuli/spore_stims/complex_12_A_b.gif","","","","","12","complex_similar","images/stimuli/spore_stims/complex_12_A_b.gif","left","","","","",""
"","null","html-keyboard-response","226","345641","0.0-44.0-0.1","SS1613140388035","","","null","","","","","<p><img src= images/blank.png width =""200"" height = ""200"" style = ""float:right""></p><p><img src=images/blank.png width =""800"" height = ""200""></p>","","","","","","","","","","","",""
"","322.96999997925013","sequential-stimulus-presentation","227","346770","0.0-44.0-1.1","SS1613140388035","trial","","40","800","1122.9699999792501","images/stimuli/spore_stims/complex_12_B_b.gif","images/stimuli/spore_stims/complex_12_A_b.gif","","","","","12","complex_similar","images/stimuli/spore_stims/complex_12_A_b.gif","left","","","","",""
"","null","html-keyboard-response","228","347798","0.0-44.0-0.2","SS1613140388035","","","null","","","","","<p><img src= images/blank.png width =""200"" height = ""200"" style = ""float:right""></p><p><img src=images/blank.png width =""800"" height = ""200""></p>","","","","","","","","","","","",""
"","325.0300000072457","sequential-stimulus-presentation","229","348930","0.0-44.0-1.2","SS1613140388035","trial","","40","800","1125.0300000072457","images/stimuli/spore_stims/complex_12_B_b.gif","images/stimuli/spore_stims/complex_12_A_b.gif","","","","","12","complex_similar","images/stimuli/spore_stims/complex_12_A_b.gif","left","","","","",""
"","null","html-keyboard-response","230","349832","0.0-44.0-0.3","SS1613140388035","","","null","","","","","<p><img src= images/blank.png width =""200"" height = ""200"" style = ""float:right""></p><p><img src=images/blank.png width =""800"" height = ""200""></p>","","","","","","","","","","","",""
"","293.75499999150634","sequential-stimulus-presentation","231","350930","0.0-44.0-1.3","SS1613140388035","trial","","40","800","1093.7549999915063","images/stimuli/spore_stims/complex_12_B_b.gif","images/stimuli/spore_stims/complex_12_A_b.gif","","","","","12","complex_similar","images/stimuli/spore_stims/complex_12_A_b.gif","left","","","","",""
"","null","html-keyboard-response","232","351759","0.0-44.0-0.4","SS1613140388035","","","null","","","","","<p><img src= images/blank.png width =""200"" height = ""200"" style = ""float:right""></p><p><img src=images/blank.png width =""800"" height = ""200""></p>","","","","","","","","","","","",""
"","302.9650000098627","sequential-stimulus-presentation","233","352867","0.0-44.0-1.4","SS1613140388035","trial","","40","800","1102.9650000098627","images/stimuli/spore_stims/complex_12_B_b.gif","images/stimuli/spore_stims/complex_12_A_b.gif","","","","","12","complex_similar","images/stimuli/spore_stims/complex_12_A_b.gif","left","","","","",""
"","null","html-keyboard-response","234","353779","0.0-44.0-0.5","SS1613140388035","","","null","","","","","<p><img src= images/blank.png width =""200"" height = ""200"" style = ""float:right""></p><p><img src=images/blank.png width =""800"" height = ""200""></p>","","","","","","","","","","","",""
"","342.6599999947939","sequential-stimulus-presentation","235","354930","0.0-44.0-1.5","SS1613140388035","trial","","40","800","1142.659999994794","images/stimuli/spore_stims/complex_12_B_b.gif","images/stimuli/spore_stims/complex_12_A_b.gif","","","","","12","complex_similar","images/stimuli/spore_stims/complex_12_A_b.gif","left","","","","",""
"","null","html-keyboard-response","236","355857","0.0-44.0-0.6","SS1613140388035","","","null","","","","","<p><img src= images/blank.png width =""200"" height = ""200"" style = ""float:right""></p><p><img src=images/blank.png width =""800"" height = ""200""></p>","","","","","","","","","","","",""
"","300.09000000427477","sequential-stimulus-presentation","237","356963","0.0-44.0-1.6","SS1613140388035","trial","","40","800","1100.0900000042748","images/stimuli/spore_stims/complex_12_B_b.gif","images/stimuli/spore_stims/complex_12_A_b.gif","","","","","12","complex_similar","images/stimuli/spore_stims/complex_12_A_b.gif","left","","","","",""
"","null","html-keyboard-response","238","358063","0.0-44.0-0.7","SS1613140388035","","","null","","","","","<p><img src= images/blank.png width =""200"" height = ""200"" style = ""float:right""></p><p><img src=images/blank.png width =""800"" height = ""200""></p>","","","","","","","","","","","",""
"","247.95499999891035","sequential-stimulus-presentation","239","359131","0.0-44.0-1.7","SS1613140388035","trial","","40","800","1047.9549999989104","images/stimuli/spore_stims/complex_12_B_b.gif","images/stimuli/spore_stims/complex_12_A_b.gif","","","","","12","complex_similar","images/stimuli/spore_stims/complex_12_B_b.gif","right","","","","",""
"","1635.1699999941047","html-keyboard-response","240","360771","0.0-45.0","SS1613140388035","pref_question","","98","","","","","<video width ='960' height = '540' style='padding-top:8%' autoplay muted><source src='images/stimuli/wall_pref.mp4' type='video/mp4'></video>","2","middle","45%","12","","","","","","","",""
"","738.4749999910127","sequential-stimulus-presentation","241","362315","0.0-46.0","SS1613140388035","pref_reveal","","40","800","1538.4749999910127","null","null","","","","","12","","","","novel","","","",""
"","null","html-keyboard-response","242","363540","0.0-47.0-0.0","SS1613140388035","","","null","","","","","<p><img src= images/blank.png width =""200"" height = ""200"" style = ""float:right""></p><p><img src=images/blank.png width =""800"" height = ""200""></p>","","","","","","","","","","","",""
"","16.804999992018566","sequential-stimulus-presentation","243","364379","0.0-47.0-1.0","SS1613140388035","trial","","40","800","816.8049999920186","images/stimuli/spore_stims/simple_03_A_a.gif","images/stimuli/spore_stims/simple_03_B_a.gif","","","","","13","simple_similar","images/stimuli/spore_stims/simple_03_B_a.gif","right","","","","",""
"","null","html-keyboard-response","244","365207","0.0-47.0-0.1","SS1613140388035","","","null","","","","","<p><img src= images/blank.png width =""200"" height = ""200"" style = ""float:right""></p><p><img src=images/blank.png width =""800"" height = ""200""></p>","","","","","","","","","","","",""
"","1029.7849999915343","sequential-stimulus-presentation","245","367042","0.0-47.0-1.1","SS1613140388035","trial","","40","800","1829.7849999915343","images/stimuli/spore_stims/simple_03_A_a.gif","images/stimuli/spore_stims/simple_03_B_a.gif","","","","","13","simple_similar","images/stimuli/spore_stims/simple_03_B_a.gif","right","","","","",""
"","null","html-keyboard-response","246","368036","0.0-47.0-0.2","SS1613140388035","","","null","","","","","<p><img src= images/blank.png width =""200"" height = ""200"" style = ""float:right""></p><p><img src=images/blank.png width =""800"" height = ""200""></p>","","","","","","","","","","","",""
"","633.815000008326","sequential-stimulus-presentation","247","369475","0.0-47.0-1.2","SS1613140388035","trial","","40","800","1433.815000008326","images/stimuli/spore_stims/simple_03_A_a.gif","images/stimuli/spore_stims/simple_03_B_a.gif","","","","","13","simple_similar","images/stimuli/spore_stims/simple_03_B_a.gif","right","","","","",""
"","null","html-keyboard-response","248","370591","0.0-47.0-0.3","SS1613140388035","","","null","","","","","<p><img src= images/blank.png width =""200"" height = ""200"" style = ""float:right""></p><p><img src=images/blank.png width =""800"" height = ""200""></p>","","","","","","","","","","","",""
"","307.46999999973923","sequential-stimulus-presentation","249","371707","0.0-47.0-1.3","SS1613140388035","trial","","40","800","1107.4699999997392","images/stimuli/spore_stims/simple_03_A_a.gif","images/stimuli/spore_stims/simple_03_B_a.gif","","","","","13","simple_similar","images/stimuli/spore_stims/simple_03_B_a.gif","right","","","","",""
"","null","html-keyboard-response","250","372606","0.0-47.0-0.4","SS1613140388035","","","null","","","","","<p><img src= images/blank.png width =""200"" height = ""200"" style = ""float:right""></p><p><img src=images/blank.png width =""800"" height = ""200""></p>","","","","","","","","","","","",""
"","629.5749999990221","sequential-stimulus-presentation","251","374042","0.0-47.0-1.4","SS1613140388035","trial","","40","800","1429.574999999022","images/stimuli/spore_stims/simple_03_A_a.gif","images/stimuli/spore_stims/simple_03_B_a.gif","","","","","13","simple_similar","images/stimuli/spore_stims/simple_03_B_a.gif","right","","","","",""
"","null","html-keyboard-response","252","375220","0.0-47.0-0.5","SS1613140388035","","","null","","","","","<p><img src= images/blank.png width =""200"" height = ""200"" style = ""float:right""></p><p><img src=images/blank.png width =""800"" height = ""200""></p>","","","","","","","","","","","",""
"","201.39000000199303","sequential-stimulus-presentation","253","376227","0.0-47.0-1.5","SS1613140388035","trial","","40","800","1001.390000001993","images/stimuli/spore_stims/simple_03_A_a.gif","images/stimuli/spore_stims/simple_03_B_a.gif","","","","","13","simple_similar","images/stimuli/spore_stims/simple_03_A_a.gif","left","","","","",""
"","null","html-keyboard-response","254","377261","0.0-47.0-0.6","SS1613140388035","","","null","","","","","<p><img src= images/blank.png width =""200"" height = ""200"" style = ""float:right""></p><p><img src=images/blank.png width =""800"" height = ""200""></p>","","","","","","","","","","","",""
"","824.8550000134856","sequential-stimulus-presentation","255","378890","0.0-47.0-1.6","SS1613140388035","trial","","40","800","1624.8550000134856","images/stimuli/spore_stims/simple_03_A_a.gif","images/stimuli/spore_stims/simple_03_B_a.gif","","","","","13","simple_similar","images/stimuli/spore_stims/simple_03_B_a.gif","right","","","","",""
"","null","html-keyboard-response","256","379919","0.0-47.0-0.7","SS1613140388035","","","null","","","","","<p><img src= images/blank.png width =""200"" height = ""200"" style = ""float:right""></p><p><img src=images/blank.png width =""800"" height = ""200""></p>","","","","","","","","","","","",""
"","503.26500000664964","sequential-stimulus-presentation","257","381251","0.0-47.0-1.7","SS1613140388035","trial","","40","800","1303.2650000066496","images/stimuli/spore_stims/simple_03_A_a.gif","images/stimuli/spore_stims/simple_03_B_a.gif","","","","","13","simple_similar","images/stimuli/spore_stims/simple_03_B_a.gif","right","","","","",""
"","1323.309999977937","html-keyboard-response","258","382579","0.0-48.0","SS1613140388035","pref_question","","98","","","","","<video width ='960' height = '540' style='padding-top:8%' autoplay muted><source src='images/stimuli/wall_pref.mp4' type='video/mp4'></video>","2","middle","45%","13","","","","","","","",""
"","402.3600000073202","sequential-stimulus-presentation","259","383787","0.0-49.0","SS1613140388035","pref_reveal","","40","800","1202.3600000073202","null","null","","","","","13","","","","novel","","","",""
"","null","html-keyboard-response","260","384765","0.0-50.0-0.0","SS1613140388035","","","null","","","","","<p><img src= images/blank.png width =""200"" height = ""200"" style = ""float:right""></p><p><img src=images/blank.png width =""800"" height = ""200""></p>","","","","","","","","","","","",""
"","159.03999999864027","sequential-stimulus-presentation","261","385731","0.0-50.0-1.0","SS1613140388035","trial","","40","800","959.0399999986403","images/stimuli/spore_stims/complex_15_A_b.gif","images/stimuli/spore_stims/complex_15_B_b.gif","","","","","14","complex_similar","images/stimuli/spore_stims/complex_15_B_b.gif","right","","","","",""
"","null","html-keyboard-response","262","386911","0.0-50.0-0.1","SS1613140388035","","","null","","","","","<p><img src= images/blank.png width =""200"" height = ""200"" style = ""float:right""></p><p><img src=images/blank.png width =""800"" height = ""200""></p>","","","","","","","","","","","",""
"","494.0800000040326","sequential-stimulus-presentation","263","388211","0.0-50.0-1.1","SS1613140388035","trial","","40","800","1294.0800000040326","images/stimuli/spore_stims/complex_15_A_b.gif","images/stimuli/spore_stims/complex_15_B_b.gif","","","","","14","complex_similar","images/stimuli/spore_stims/complex_15_B_b.gif","right","","","","",""
"","null","html-keyboard-response","264","389224","0.0-50.0-0.2","SS1613140388035","","","null","","","","","<p><img src= images/blank.png width =""200"" height = ""200"" style = ""float:right""></p><p><img src=images/blank.png width =""800"" height = ""200""></p>","","","","","","","","","","","",""
"","315.9950000117533","sequential-stimulus-presentation","265","390347","0.0-50.0-1.2","SS1613140388035","trial","","40","800","1115.9950000117533","images/stimuli/spore_stims/complex_15_A_b.gif","images/stimuli/spore_stims/complex_15_B_b.gif","","","","","14","complex_similar","images/stimuli/spore_stims/complex_15_B_b.gif","right","","","","",""
"","null","html-keyboard-response","266","391328","0.0-50.0-0.3","SS1613140388035","","","null","","","","","<p><img src= images/blank.png width =""200"" height = ""200"" style = ""float:right""></p><p><img src=images/blank.png width =""800"" height = ""200""></p>","","","","","","","","","","","",""
"","221.17999999318272","sequential-stimulus-presentation","267","392355","0.0-50.0-1.3","SS1613140388035","trial","","40","800","1021.1799999931827","images/stimuli/spore_stims/complex_15_A_b.gif","images/stimuli/spore_stims/complex_15_B_b.gif","","","","","14","complex_similar","images/stimuli/spore_stims/complex_15_B_b.gif","right","","","","",""
"","null","html-keyboard-response","268","393266","0.0-50.0-0.4","SS1613140388035","","","null","","","","","<p><img src= images/blank.png width =""200"" height = ""200"" style = ""float:right""></p><p><img src=images/blank.png width =""800"" height = ""200""></p>","","","","","","","","","","","",""
"","275.2000000036787","sequential-stimulus-presentation","269","394346","0.0-50.0-1.4","SS1613140388035","trial","","40","800","1075.2000000036787","images/stimuli/spore_stims/complex_15_A_b.gif","images/stimuli/spore_stims/complex_15_B_b.gif","","","","","14","complex_similar","images/stimuli/spore_stims/complex_15_B_b.gif","right","","","","",""
"","null","html-keyboard-response","270","395470","0.0-50.0-0.5","SS1613140388035","","","null","","","","","<p><img src= images/blank.png width =""200"" height = ""200"" style = ""float:right""></p><p><img src=images/blank.png width =""800"" height = ""200""></p>","","","","","","","","","","","",""
"","191.0349999961909","sequential-stimulus-presentation","271","396467","0.0-50.0-1.5","SS1613140388035","trial","","40","800","991.0349999961909","images/stimuli/spore_stims/complex_15_A_b.gif","images/stimuli/spore_stims/complex_15_B_b.gif","","","","","14","complex_similar","images/stimuli/spore_stims/complex_15_B_b.gif","right","","","","",""
"","null","html-keyboard-response","272","397277","0.0-50.0-0.6","SS1613140388035","","","null","","","","","<p><img src= images/blank.png width =""200"" height = ""200"" style = ""float:right""></p><p><img src=images/blank.png width =""800"" height = ""200""></p>","","","","","","","","","","","",""
"","272.37500000046566","sequential-stimulus-presentation","273","398355","0.0-50.0-1.6","SS1613140388035","trial","","40","800","1072.3750000004657","images/stimuli/spore_stims/complex_15_A_b.gif","images/stimuli/spore_stims/complex_15_B_b.gif","","","","","14","complex_similar","images/stimuli/spore_stims/complex_15_A_b.gif","left","","","","",""
"","null","html-keyboard-response","274","399509","0.0-50.0-0.7","SS1613140388035","","","null","","","","","<p><img src= images/blank.png width =""200"" height = ""200"" style = ""float:right""></p><p><img src=images/blank.png width =""800"" height = ""200""></p>","","","","","","","","","","","",""
"","232.4149999767542","sequential-stimulus-presentation","275","400547","0.0-50.0-1.7","SS1613140388035","trial","","40","800","1032.4149999767542","images/stimuli/spore_stims/complex_15_A_b.gif","images/stimuli/spore_stims/complex_15_B_b.gif","","","","","14","complex_similar","images/stimuli/spore_stims/complex_15_B_b.gif","right","","","","",""
"","1555.1099999865983","html-keyboard-response","276","402106","0.0-51.0","SS1613140388035","pref_question","","98","","","","","<video width ='960' height = '540' style='padding-top:8%' autoplay muted><source src='images/stimuli/wall_pref.mp4' type='video/mp4'></video>","2","middle","45%","14","","","","","","","",""
"","682.9999999899883","sequential-stimulus-presentation","277","403594","0.0-52.0","SS1613140388035","pref_reveal","","40","800","1482.9999999899883","null","null","","","","","14","","","","novel","","","",""
"","null","html-keyboard-response","278","404836","0.0-53.0-0.0","SS1613140388035","","","null","","","","","<p><img src= images/blank.png width =""200"" height = ""200"" style = ""float:right""></p><p><img src=images/blank.png width =""800"" height = ""200""></p>","","","","","","","","","","","",""
"","479.14000001037493","sequential-stimulus-presentation","279","406122","0.0-53.0-1.0","SS1613140388035","trial","","40","800","1279.140000010375","images/stimuli/spore_stims/complex_19_A_a.gif","images/stimuli/spore_stims/complex_08_A_a.gif","","","","","15","complex_dissimilar","images/stimuli/spore_stims/complex_08_A_a.gif","left","","","","",""
"","null","html-keyboard-response","280","407130","0.0-53.0-0.1","SS1613140388035","","","null","","","","","<p><img src= images/blank.png width =""200"" height = ""200"" style = ""float:right""></p><p><img src=images/blank.png width =""800"" height = ""200""></p>","","","","","","","","","","","",""
"","263.4449999895878","sequential-stimulus-presentation","281","408202","0.0-53.0-1.1","SS1613140388035","trial","","40","800","1063.4449999895878","images/stimuli/spore_stims/complex_19_A_a.gif","images/stimuli/spore_stims/complex_08_A_a.gif","","","","","15","complex_dissimilar","images/stimuli/spore_stims/complex_08_A_a.gif","left","","","","",""
"","null","html-keyboard-response","282","409401","0.0-53.0-0.2","SS1613140388035","","","null","","","","","<p><img src= images/blank.png width =""200"" height = ""200"" style = ""float:right""></p><p><img src=images/blank.png width =""800"" height = ""200""></p>","","","","","","","","","","","",""
"","286.29999997792765","sequential-stimulus-presentation","283","410515","0.0-53.0-1.2","SS1613140388035","trial","","40","800","1086.2999999779277","images/stimuli/spore_stims/complex_19_A_a.gif","images/stimuli/spore_stims/complex_08_A_a.gif","","","","","15","complex_dissimilar","images/stimuli/spore_stims/complex_08_A_a.gif","left","","","","",""
"","null","html-keyboard-response","284","411666","0.0-53.0-0.3","SS1613140388035","","","null","","","","","<p><img src= images/blank.png width =""200"" height = ""200"" style = ""float:right""></p><p><img src=images/blank.png width =""800"" height = ""200""></p>","","","","","","","","","","","",""
"","337.1200000110548","sequential-stimulus-presentation","285","412810","0.0-53.0-1.3","SS1613140388035","trial","","40","800","1137.1200000110548","images/stimuli/spore_stims/complex_19_A_a.gif","images/stimuli/spore_stims/complex_08_A_a.gif","","","","","15","complex_dissimilar","images/stimuli/spore_stims/complex_08_A_a.gif","left","","","","",""
"","null","html-keyboard-response","286","413806","0.0-53.0-0.4","SS1613140388035","","","null","","","","","<p><img src= images/blank.png width =""200"" height = ""200"" style = ""float:right""></p><p><img src=images/blank.png width =""800"" height = ""200""></p>","","","","","","","","","","","",""
"","261.6050000069663","sequential-stimulus-presentation","287","414874","0.0-53.0-1.4","SS1613140388035","trial","","40","800","1061.6050000069663","images/stimuli/spore_stims/complex_19_A_a.gif","images/stimuli/spore_stims/complex_08_A_a.gif","","","","","15","complex_dissimilar","images/stimuli/spore_stims/complex_08_A_a.gif","left","","","","",""
"","null","html-keyboard-response","288","416017","0.0-53.0-0.5","SS1613140388035","","","null","","","","","<p><img src= images/blank.png width =""200"" height = ""200"" style = ""float:right""></p><p><img src=images/blank.png width =""800"" height = ""200""></p>","","","","","","","","","","","",""
"","272.690000012517","sequential-stimulus-presentation","289","417099","0.0-53.0-1.5","SS1613140388035","trial","","40","800","1072.690000012517","images/stimuli/spore_stims/complex_19_A_a.gif","images/stimuli/spore_stims/complex_08_A_a.gif","","","","","15","complex_dissimilar","images/stimuli/spore_stims/complex_19_A_a.gif","middle","","","","",""
"","null","html-keyboard-response","290","418276","0.0-53.0-0.6","SS1613140388035","","","null","","","","","<p><img src= images/blank.png width =""200"" height = ""200"" style = ""float:right""></p><p><img src=images/blank.png width =""800"" height = ""200""></p>","","","","","","","","","","","",""
"","304.38999997568317","sequential-stimulus-presentation","291","419386","0.0-53.0-1.6","SS1613140388035","trial","","40","800","1104.3899999756832","images/stimuli/spore_stims/complex_19_A_a.gif","images/stimuli/spore_stims/complex_08_A_a.gif","","","","","15","complex_dissimilar","images/stimuli/spore_stims/complex_08_A_a.gif","left","","","","",""
"","null","html-keyboard-response","292","420389","0.0-53.0-0.7","SS1613140388035","","","null","","","","","<p><img src= images/blank.png width =""200"" height = ""200"" style = ""float:right""></p><p><img src=images/blank.png width =""800"" height = ""200""></p>","","","","","","","","","","","",""
"","240.0049999996554","sequential-stimulus-presentation","293","421435","0.0-53.0-1.7","SS1613140388035","trial","","40","800","1040.0049999996554","images/stimuli/spore_stims/complex_19_A_a.gif","images/stimuli/spore_stims/complex_08_A_a.gif","","","","","15","complex_dissimilar","images/stimuli/spore_stims/complex_08_A_a.gif","left","","","","",""
"","1707.3849999869708","html-keyboard-response","294","423146","0.0-54.0","SS1613140388035","pref_question","","98","","","","","<video width ='960' height = '540' style='padding-top:8%' autoplay muted><source src='images/stimuli/wall_pref.mp4' type='video/mp4'></video>","2","middle","45%","15","","","","","","","",""
"","738.0500000144821","sequential-stimulus-presentation","295","424690","0.0-55.0","SS1613140388035","pref_reveal","","40","800","1538.050000014482","null","null","","","","","15","","","","deviant","","","",""
"","null","html-keyboard-response","296","425688","0.0-56.0-0.0","SS1613140388035","","","null","","","","","<p><img src= images/blank.png width =""200"" height = ""200"" style = ""float:right""></p><p><img src=images/blank.png width =""800"" height = ""200""></p>","","","","","","","","","","","",""
"","296.5900000126567","sequential-stimulus-presentation","297","426794","0.0-56.0-1.0","SS1613140388035","trial","","40","800","1096.5900000126567","images/stimuli/spore_stims/complex_09_B_b.gif","images/stimuli/spore_stims/complex_09_A_b.gif","","","","","16","complex_similar","images/stimuli/spore_stims/complex_09_A_b.gif","left","","","","",""
"","null","html-keyboard-response","298","427827","0.0-56.0-0.1","SS1613140388035","","","null","","","","","<p><img src= images/blank.png width =""200"" height = ""200"" style = ""float:right""></p><p><img src=images/blank.png width =""800"" height = ""200""></p>","","","","","","","","","","","",""
"","282.2699999960605","sequential-stimulus-presentation","299","428915","0.0-56.0-1.1","SS1613140388035","trial","","40","800","1082.2699999960605","images/stimuli/spore_stims/complex_09_B_b.gif","images/stimuli/spore_stims/complex_09_A_b.gif","","","","","16","complex_similar","images/stimuli/spore_stims/complex_09_A_b.gif","left","","","","",""
"","null","html-keyboard-response","300","430048","0.0-56.0-0.2","SS1613140388035","","","null","","","","","<p><img src= images/blank.png width =""200"" height = ""200"" style = ""float:right""></p><p><img src=images/blank.png width =""800"" height = ""200""></p>","","","","","","","","","","","",""
"","228.3750000060536","sequential-stimulus-presentation","301","431082","0.0-56.0-1.2","SS1613140388035","trial","","40","800","1028.3750000060536","images/stimuli/spore_stims/complex_09_B_b.gif","images/stimuli/spore_stims/complex_09_A_b.gif","","","","","16","complex_similar","images/stimuli/spore_stims/complex_09_B_b.gif","middle","","","","",""
"","null","html-keyboard-response","302","432112","0.0-56.0-0.3","SS1613140388035","","","null","","","","","<p><img src= images/blank.png width =""200"" height = ""200"" style = ""float:right""></p><p><img src=images/blank.png width =""800"" height = ""200""></p>","","","","","","","","","","","",""
"","354.5649999869056","sequential-stimulus-presentation","303","433275","0.0-56.0-1.3","SS1613140388035","trial","","40","800","1154.5649999869056","images/stimuli/spore_stims/complex_09_B_b.gif","images/stimuli/spore_stims/complex_09_A_b.gif","","","","","16","complex_similar","images/stimuli/spore_stims/complex_09_A_b.gif","left","","","","",""
"","null","html-keyboard-response","304","434282","0.0-56.0-0.4","SS1613140388035","","","null","","","","","<p><img src= images/blank.png width =""200"" height = ""200"" style = ""float:right""></p><p><img src=images/blank.png width =""800"" height = ""200""></p>","","","","","","","","","","","",""
"","184.11500001093373","sequential-stimulus-presentation","305","435283","0.0-56.0-1.4","SS1613140388035","trial","","40","800","984.1150000109337","images/stimuli/spore_stims/complex_09_B_b.gif","images/stimuli/spore_stims/complex_09_A_b.gif","","","","","16","complex_similar","images/stimuli/spore_stims/complex_09_A_b.gif","left","","","","",""
"","null","html-keyboard-response","306","436156","0.0-56.0-0.5","SS1613140388035","","","null","","","","","<p><img src= images/blank.png width =""200"" height = ""200"" style = ""float:right""></p><p><img src=images/blank.png width =""800"" height = ""200""></p>","","","","","","","","","","","",""
"","307.88000000757165","sequential-stimulus-presentation","307","437274","0.0-56.0-1.5","SS1613140388035","trial","","40","800","1107.8800000075717","images/stimuli/spore_stims/complex_09_B_b.gif","images/stimuli/spore_stims/complex_09_A_b.gif","","","","","16","complex_similar","images/stimuli/spore_stims/complex_09_A_b.gif","left","","","","",""
"","null","html-keyboard-response","308","438156","0.0-56.0-0.6","SS1613140388035","","","null","","","","","<p><img src= images/blank.png width =""200"" height = ""200"" style = ""float:right""></p><p><img src=images/blank.png width =""800"" height = ""200""></p>","","","","","","","","","","","",""
"","199.9399999913294","sequential-stimulus-presentation","309","439162","0.0-56.0-1.6","SS1613140388035","trial","","40","800","999.9399999913294","images/stimuli/spore_stims/complex_09_B_b.gif","images/stimuli/spore_stims/complex_09_A_b.gif","","","","","16","complex_similar","images/stimuli/spore_stims/complex_09_A_b.gif","left","","","","",""
"","null","html-keyboard-response","310","440163","0.0-56.0-0.7","SS1613140388035","","","null","","","","","<p><img src= images/blank.png width =""200"" height = ""200"" style = ""float:right""></p><p><img src=images/blank.png width =""800"" height = ""200""></p>","","","","","","","","","","","",""
"","199.61999999941327","sequential-stimulus-presentation","311","441178","0.0-56.0-1.7","SS1613140388035","trial","","40","800","999.6199999994133","images/stimuli/spore_stims/complex_09_B_b.gif","images/stimuli/spore_stims/complex_09_A_b.gif","","","","","16","complex_similar","images/stimuli/spore_stims/complex_09_A_b.gif","left","","","","",""
"","1579.8800000047777","html-keyboard-response","312","442762","0.0-57.0","SS1613140388035","pref_question","","99","","","","","<video width ='960' height = '540' style='padding-top:8%' autoplay muted><source src='images/stimuli/wall_pref.mp4' type='video/mp4'></video>","3","right","66%","16","","","","","","","",""
