"view_history","rt","trial_type","trial_index","time_elapsed","internal_node_id","subject","stimulus_type","trial_stimulus","key_press","minimum_viewing_duration","trial_looking_time","block_deviant","block_background","stimulus","wall_pref","location","location_percent","block_number","block_type","stimulus_displayed","position_displayed","stim_type_selected","responses","question_order","stimulus_left","stimulus_right"
"[{""page_index"":0,""viewing_time"":37785.979999927804}]","37786.48999996949","instructions","0","37787","0.0-0.0","SS1613138350062","","","","","","","","","","","","","","","","","","","",""
"[{""page_index"":0,""viewing_time"":12929.499999969266},{""page_index"":1,""viewing_time"":5084.135000011884}]","18013.804999995045","instructions","1","57803","0.0-1.0","SS1613138350062","instructions","","","","","","","","","","","","","","","","","","",""
"","6501.294999965467","sequential-stimulus-presentation","2","65108","0.0-2.0","SS1613138350062","","","40","800","7301.294999965467","null","null","","","","","","","","","","","","",""
"","2025.6400000071153","sequential-stimulus-presentation","3","67935","0.0-3.0","SS1613138350062","","","40","800","2825.6400000071153","null","null","","","","","","","","","","","","",""
"[{""page_index"":0,""viewing_time"":4751.124999951571}]","4751.289999927394","instructions","4","72687","0.0-4.0","SS1613138350062","instructions","","","","","","","","","","","","","","","","","","",""
"","13246.745000011288","html-keyboard-response","5","85935","0.0-5.0","SS1613138350062","instructions","","49","","","","","<video width ='960' height = '540' autoplay muted><source src='images/stimuli/wall_pref.mp4' type='video/mp4'></video>","1","left","25%","","","","","","","","",""
"","2528.4899999387562","sequential-stimulus-presentation","6","89266","0.0-6.0","SS1613138350062","pref_reveal","","40","800","3328.4899999387562","null","null","","","","","","","","","","","","",""
"[{""page_index"":0,""viewing_time"":13047.429999918677},{""page_index"":1,""viewing_time"":14727.584999985993},{""page_index"":2,""viewing_time"":1228.579999995418},{""page_index"":3,""viewing_time"":972.4000000860542}]","29976.244999910705","instructions","7","119243","0.0-7.0","SS1613138350062","instructions","","","","","","","","","","","","","","","","","","",""
"","null","html-keyboard-response","8","120450","0.0-8.0-0.0","SS1613138350062","","","null","","","","","<p><img src= images/blank.png width =""200"" height = ""200"" style = ""float:right""></p><p><img src=images/blank.png width =""800"" height = ""200""></p>","","","","","","","","","","","",""
"","1626.7249999800697","sequential-stimulus-presentation","9","122883","0.0-8.0-1.0","SS1613138350062","trial","","40","800","2426.7249999800697","images/stimuli/spore_stims/simple_09_B_b.gif","images/stimuli/spore_stims/simple_01_A_b.gif","","","","","0","simple_dissimilar","images/stimuli/spore_stims/simple_01_A_b.gif","middle","","","","",""
"","null","html-keyboard-response","10","123891","0.0-8.0-0.1","SS1613138350062","","","null","","","","","<p><img src= images/blank.png width =""200"" height = ""200"" style = ""float:right""></p><p><img src=images/blank.png width =""800"" height = ""200""></p>","","","","","","","","","","","",""
"","1544.5750000653788","sequential-stimulus-presentation","11","126243","0.0-8.0-1.1","SS1613138350062","trial","","40","800","2344.575000065379","images/stimuli/spore_stims/simple_09_B_b.gif","images/stimuli/spore_stims/simple_01_A_b.gif","","","","","0","simple_dissimilar","images/stimuli/spore_stims/simple_01_A_b.gif","middle","","","","",""
"","null","html-keyboard-response","12","127360","0.0-8.0-0.2","SS1613138350062","","","null","","","","","<p><img src= images/blank.png width =""200"" height = ""200"" style = ""float:right""></p><p><img src=images/blank.png width =""800"" height = ""200""></p>","","","","","","","","","","","",""
"","533.2000000635162","sequential-stimulus-presentation","13","128701","0.0-8.0-1.2","SS1613138350062","trial","","40","800","1333.2000000635162","images/stimuli/spore_stims/simple_09_B_b.gif","images/stimuli/spore_stims/simple_01_A_b.gif","","","","","0","simple_dissimilar","images/stimuli/spore_stims/simple_01_A_b.gif","middle","","","","",""
"","null","html-keyboard-response","14","129791","0.0-8.0-0.3","SS1613138350062","","","null","","","","","<p><img src= images/blank.png width =""200"" height = ""200"" style = ""float:right""></p><p><img src=images/blank.png width =""800"" height = ""200""></p>","","","","","","","","","","","",""
"","433.7200000882149","sequential-stimulus-presentation","15","131028","0.0-8.0-1.3","SS1613138350062","trial","","40","800","1233.7200000882149","images/stimuli/spore_stims/simple_09_B_b.gif","images/stimuli/spore_stims/simple_01_A_b.gif","","","","","0","simple_dissimilar","images/stimuli/spore_stims/simple_01_A_b.gif","middle","","","","",""
"","null","html-keyboard-response","16","132050","0.0-8.0-0.4","SS1613138350062","","","null","","","","","<p><img src= images/blank.png width =""200"" height = ""200"" style = ""float:right""></p><p><img src=images/blank.png width =""800"" height = ""200""></p>","","","","","","","","","","","",""
"","1434.3499999959022","sequential-stimulus-presentation","17","134305","0.0-8.0-1.4","SS1613138350062","trial","","40","800","2234.349999995902","images/stimuli/spore_stims/simple_09_B_b.gif","images/stimuli/spore_stims/simple_01_A_b.gif","","","","","0","simple_dissimilar","images/stimuli/spore_stims/simple_09_B_b.gif","right","","","","",""
"","null","html-keyboard-response","18","135254","0.0-8.0-0.5","SS1613138350062","","","null","","","","","<p><img src= images/blank.png width =""200"" height = ""200"" style = ""float:right""></p><p><img src=images/blank.png width =""800"" height = ""200""></p>","","","","","","","","","","","",""
"","496.2400000076741","sequential-stimulus-presentation","19","136557","0.0-8.0-1.5","SS1613138350062","trial","","40","800","1296.240000007674","images/stimuli/spore_stims/simple_09_B_b.gif","images/stimuli/spore_stims/simple_01_A_b.gif","","","","","0","simple_dissimilar","images/stimuli/spore_stims/simple_01_A_b.gif","middle","","","","",""
"","null","html-keyboard-response","20","137670","0.0-8.0-0.6","SS1613138350062","","","null","","","","","<p><img src= images/blank.png width =""200"" height = ""200"" style = ""float:right""></p><p><img src=images/blank.png width =""800"" height = ""200""></p>","","","","","","","","","","","",""
"","513.829999952577","sequential-stimulus-presentation","21","138991","0.0-8.0-1.6","SS1613138350062","trial","","40","800","1313.829999952577","images/stimuli/spore_stims/simple_09_B_b.gif","images/stimuli/spore_stims/simple_01_A_b.gif","","","","","0","simple_dissimilar","images/stimuli/spore_stims/simple_01_A_b.gif","middle","","","","",""
"","null","html-keyboard-response","22","140128","0.0-8.0-0.7","SS1613138350062","","","null","","","","","<p><img src= images/blank.png width =""200"" height = ""200"" style = ""float:right""></p><p><img src=images/blank.png width =""800"" height = ""200""></p>","","","","","","","","","","","",""
"","1217.6800000015646","sequential-stimulus-presentation","23","142152","0.0-8.0-1.7","SS1613138350062","trial","","40","800","2017.6800000015646","images/stimuli/spore_stims/simple_09_B_b.gif","images/stimuli/spore_stims/simple_01_A_b.gif","","","","","0","simple_dissimilar","images/stimuli/spore_stims/simple_01_A_b.gif","middle","","","","",""
"","1734.1049999231473","html-keyboard-response","24","143896","0.0-9.0","SS1613138350062","pref_question","","49","","","","","<video width ='960' height = '540' style='padding-top:8%' autoplay muted><source src='images/stimuli/wall_pref.mp4' type='video/mp4'></video>","1","left","25%","0","","","","","","","",""
"","1738.2249999791384","sequential-stimulus-presentation","25","146437","0.0-10.0","SS1613138350062","pref_reveal","","40","800","2538.2249999791384","null","null","","","","","0","","","","novel","","","",""
"","null","html-keyboard-response","26","147627","0.0-11.0-0.0","SS1613138350062","","","null","","","","","<p><img src= images/blank.png width =""200"" height = ""200"" style = ""float:right""></p><p><img src=images/blank.png width =""800"" height = ""200""></p>","","","","","","","","","","","",""
"","134.2350000049919","sequential-stimulus-presentation","27","148565","0.0-11.0-1.0","SS1613138350062","trial","","40","800","934.2350000049919","images/stimuli/spore_stims/complex_14_A_a.gif","images/stimuli/spore_stims/complex_14_B_a.gif","","","","","1","complex_similar","images/stimuli/spore_stims/complex_14_B_a.gif","right","","","","",""
"","null","html-keyboard-response","28","149446","0.0-11.0-0.1","SS1613138350062","","","null","","","","","<p><img src= images/blank.png width =""200"" height = ""200"" style = ""float:right""></p><p><img src=images/blank.png width =""800"" height = ""200""></p>","","","","","","","","","","","",""
"","1406.7000000504777","sequential-stimulus-presentation","29","151656","0.0-11.0-1.1","SS1613138350062","trial","","40","800","2206.7000000504777","images/stimuli/spore_stims/complex_14_A_a.gif","images/stimuli/spore_stims/complex_14_B_a.gif","","","","","1","complex_similar","images/stimuli/spore_stims/complex_14_B_a.gif","right","","","","",""
"","null","html-keyboard-response","30","152925","0.0-11.0-0.2","SS1613138350062","","","null","","","","","<p><img src= images/blank.png width =""200"" height = ""200"" style = ""float:right""></p><p><img src=images/blank.png width =""800"" height = ""200""></p>","","","","","","","","","","","",""
"","1212.6550000393763","sequential-stimulus-presentation","31","154944","0.0-11.0-1.2","SS1613138350062","trial","","40","800","2012.6550000393763","images/stimuli/spore_stims/complex_14_A_a.gif","images/stimuli/spore_stims/complex_14_B_a.gif","","","","","1","complex_similar","images/stimuli/spore_stims/complex_14_B_a.gif","right","","","","",""
"","null","html-keyboard-response","32","155962","0.0-11.0-0.3","SS1613138350062","","","null","","","","","<p><img src= images/blank.png width =""200"" height = ""200"" style = ""float:right""></p><p><img src=images/blank.png width =""800"" height = ""200""></p>","","","","","","","","","","","",""
"","2618.6000000452623","sequential-stimulus-presentation","33","159390","0.0-11.0-1.3","SS1613138350062","trial","","40","800","3418.6000000452623","images/stimuli/spore_stims/complex_14_A_a.gif","images/stimuli/spore_stims/complex_14_B_a.gif","","","","","1","complex_similar","images/stimuli/spore_stims/complex_14_B_a.gif","right","","","","",""
"","null","html-keyboard-response","34","160216","0.0-11.0-0.4","SS1613138350062","","","null","","","","","<p><img src= images/blank.png width =""200"" height = ""200"" style = ""float:right""></p><p><img src=images/blank.png width =""800"" height = ""200""></p>","","","","","","","","","","","",""
"","2353.1300000613555","sequential-stimulus-presentation","35","163373","0.0-11.0-1.4","SS1613138350062","trial","","40","800","3153.1300000613555","images/stimuli/spore_stims/complex_14_A_a.gif","images/stimuli/spore_stims/complex_14_B_a.gif","","","","","1","complex_similar","images/stimuli/spore_stims/complex_14_B_a.gif","right","","","","",""
"","null","html-keyboard-response","36","164400","0.0-11.0-0.5","SS1613138350062","","","null","","","","","<p><img src= images/blank.png width =""200"" height = ""200"" style = ""float:right""></p><p><img src=images/blank.png width =""800"" height = ""200""></p>","","","","","","","","","","","",""
"","2347.554999985732","sequential-stimulus-presentation","37","167555","0.0-11.0-1.5","SS1613138350062","trial","","40","800","3147.554999985732","images/stimuli/spore_stims/complex_14_A_a.gif","images/stimuli/spore_stims/complex_14_B_a.gif","","","","","1","complex_similar","images/stimuli/spore_stims/complex_14_B_a.gif","right","","","","",""
"","null","html-keyboard-response","38","168809","0.0-11.0-0.6","SS1613138350062","","","null","","","","","<p><img src= images/blank.png width =""200"" height = ""200"" style = ""float:right""></p><p><img src=images/blank.png width =""800"" height = ""200""></p>","","","","","","","","","","","",""
"","2387.73499999661","sequential-stimulus-presentation","39","172006","0.0-11.0-1.6","SS1613138350062","trial","","40","800","3187.73499999661","images/stimuli/spore_stims/complex_14_A_a.gif","images/stimuli/spore_stims/complex_14_B_a.gif","","","","","1","complex_similar","images/stimuli/spore_stims/complex_14_A_a.gif","left","","","","",""
"","null","html-keyboard-response","40","172960","0.0-11.0-0.7","SS1613138350062","","","null","","","","","<p><img src= images/blank.png width =""200"" height = ""200"" style = ""float:right""></p><p><img src=images/blank.png width =""800"" height = ""200""></p>","","","","","","","","","","","",""
"","1678.1450000125915","sequential-stimulus-presentation","41","175444","0.0-11.0-1.7","SS1613138350062","trial","","40","800","2478.1450000125915","images/stimuli/spore_stims/complex_14_A_a.gif","images/stimuli/spore_stims/complex_14_B_a.gif","","","","","1","complex_similar","images/stimuli/spore_stims/complex_14_B_a.gif","right","","","","",""
"","1738.1599999498576","html-keyboard-response","42","177184","0.0-12.0","SS1613138350062","pref_question","","50","","","","","<video width ='960' height = '540' style='padding-top:8%' autoplay muted><source src='images/stimuli/wall_pref.mp4' type='video/mp4'></video>","2","middle","45%","1","","","","","","","",""
"","3468.29499991145","sequential-stimulus-presentation","43","181457","0.0-13.0","SS1613138350062","pref_reveal","","40","800","4268.29499991145","null","null","","","","","1","","","","novel","","","",""
"","null","html-keyboard-response","44","182622","0.0-14.0-0.0","SS1613138350062","","","null","","","","","<p><img src= images/blank.png width =""200"" height = ""200"" style = ""float:right""></p><p><img src=images/blank.png width =""800"" height = ""200""></p>","","","","","","","","","","","",""
"","1878.5599999828264","sequential-stimulus-presentation","45","185307","0.0-14.0-1.0","SS1613138350062","trial","","40","800","2678.5599999828264","images/stimuli/spore_stims/simple_13_A_c.gif","images/stimuli/spore_stims/simple_13_B_c.gif","","","","","2","simple_similar","images/stimuli/spore_stims/simple_13_B_c.gif","middle","","","","",""
"","null","html-keyboard-response","46","186469","0.0-14.0-0.1","SS1613138350062","","","null","","","","","<p><img src= images/blank.png width =""200"" height = ""200"" style = ""float:right""></p><p><img src=images/blank.png width =""800"" height = ""200""></p>","","","","","","","","","","","",""
"","936.5400000242516","sequential-stimulus-presentation","47","188222","0.0-14.0-1.1","SS1613138350062","trial","","40","800","1736.5400000242516","images/stimuli/spore_stims/simple_13_A_c.gif","images/stimuli/spore_stims/simple_13_B_c.gif","","","","","2","simple_similar","images/stimuli/spore_stims/simple_13_B_c.gif","middle","","","","",""
"","null","html-keyboard-response","48","189457","0.0-14.0-0.2","SS1613138350062","","","null","","","","","<p><img src= images/blank.png width =""200"" height = ""200"" style = ""float:right""></p><p><img src=images/blank.png width =""800"" height = ""200""></p>","","","","","","","","","","","",""
"","1774.9549999134615","sequential-stimulus-presentation","49","192036","0.0-14.0-1.2","SS1613138350062","trial","","40","800","2574.9549999134615","images/stimuli/spore_stims/simple_13_A_c.gif","images/stimuli/spore_stims/simple_13_B_c.gif","","","","","2","simple_similar","images/stimuli/spore_stims/simple_13_A_c.gif","left","","","","",""
"","null","html-keyboard-response","50","192953","0.0-14.0-0.3","SS1613138350062","","","null","","","","","<p><img src= images/blank.png width =""200"" height = ""200"" style = ""float:right""></p><p><img src=images/blank.png width =""800"" height = ""200""></p>","","","","","","","","","","","",""
"","3459.8149999510497","sequential-stimulus-presentation","51","197221","0.0-14.0-1.3","SS1613138350062","trial","","40","800","4259.81499995105","images/stimuli/spore_stims/simple_13_A_c.gif","images/stimuli/spore_stims/simple_13_B_c.gif","","","","","2","simple_similar","images/stimuli/spore_stims/simple_13_B_c.gif","middle","","","","",""
"","null","html-keyboard-response","52","198284","0.0-14.0-0.4","SS1613138350062","","","null","","","","","<p><img src= images/blank.png width =""200"" height = ""200"" style = ""float:right""></p><p><img src=images/blank.png width =""800"" height = ""200""></p>","","","","","","","","","","","",""
"","1205.6200000224635","sequential-stimulus-presentation","53","200299","0.0-14.0-1.4","SS1613138350062","trial","","40","800","2005.6200000224635","images/stimuli/spore_stims/simple_13_A_c.gif","images/stimuli/spore_stims/simple_13_B_c.gif","","","","","2","simple_similar","images/stimuli/spore_stims/simple_13_B_c.gif","middle","","","","",""
"","null","html-keyboard-response","54","201536","0.0-14.0-0.5","SS1613138350062","","","null","","","","","<p><img src= images/blank.png width =""200"" height = ""200"" style = ""float:right""></p><p><img src=images/blank.png width =""800"" height = ""200""></p>","","","","","","","","","","","",""
"","4201.645000022836","sequential-stimulus-presentation","55","206552","0.0-14.0-1.5","SS1613138350062","trial","","40","800","5001.645000022836","images/stimuli/spore_stims/simple_13_A_c.gif","images/stimuli/spore_stims/simple_13_B_c.gif","","","","","2","simple_similar","images/stimuli/spore_stims/simple_13_B_c.gif","middle","","","","",""
"","null","html-keyboard-response","56","207690","0.0-14.0-0.6","SS1613138350062","","","null","","","","","<p><img src= images/blank.png width =""200"" height = ""200"" style = ""float:right""></p><p><img src=images/blank.png width =""800"" height = ""200""></p>","","","","","","","","","","","",""
"","608.6600000271574","sequential-stimulus-presentation","57","209106","0.0-14.0-1.6","SS1613138350062","trial","","40","800","1408.6600000271574","images/stimuli/spore_stims/simple_13_A_c.gif","images/stimuli/spore_stims/simple_13_B_c.gif","","","","","2","simple_similar","images/stimuli/spore_stims/simple_13_B_c.gif","middle","","","","",""
"","null","html-keyboard-response","58","210036","0.0-14.0-0.7","SS1613138350062","","","null","","","","","<p><img src= images/blank.png width =""200"" height = ""200"" style = ""float:right""></p><p><img src=images/blank.png width =""800"" height = ""200""></p>","","","","","","","","","","","",""
"","208.6199999321252","sequential-stimulus-presentation","59","211052","0.0-14.0-1.7","SS1613138350062","trial","","40","800","1008.6199999321252","images/stimuli/spore_stims/simple_13_A_c.gif","images/stimuli/spore_stims/simple_13_B_c.gif","","","","","2","simple_similar","images/stimuli/spore_stims/simple_13_B_c.gif","middle","","","","",""
"","1312.8400000277907","html-keyboard-response","60","212367","0.0-15.0","SS1613138350062","pref_question","","51","","","","","<video width ='960' height = '540' style='padding-top:8%' autoplay muted><source src='images/stimuli/wall_pref.mp4' type='video/mp4'></video>","3","right","66%","2","","","","","","","",""
"","1663.7649999465793","sequential-stimulus-presentation","61","214844","0.0-16.0","SS1613138350062","pref_reveal","","40","800","2463.7649999465793","null","null","","","","","2","","","","novel","","","",""
"","null","html-keyboard-response","62","215692","0.0-17.0-0.0","SS1613138350062","","","null","","","","","<p><img src= images/blank.png width =""200"" height = ""200"" style = ""float:right""></p><p><img src=images/blank.png width =""800"" height = ""200""></p>","","","","","","","","","","","",""
"","2564.4399999873713","sequential-stimulus-presentation","63","219063","0.0-17.0-1.0","SS1613138350062","trial","","40","800","3364.4399999873713","images/stimuli/spore_stims/simple_01_B_a.gif","images/stimuli/spore_stims/simple_14_B_d.gif","","","","","3","simple_dissimilar","images/stimuli/spore_stims/simple_14_B_d.gif","middle","","","","",""
"","null","html-keyboard-response","64","219954","0.0-17.0-0.1","SS1613138350062","","","null","","","","","<p><img src= images/blank.png width =""200"" height = ""200"" style = ""float:right""></p><p><img src=images/blank.png width =""800"" height = ""200""></p>","","","","","","","","","","","",""
"","1376.894999993965","sequential-stimulus-presentation","65","222142","0.0-17.0-1.1","SS1613138350062","trial","","40","800","2176.894999993965","images/stimuli/spore_stims/simple_01_B_a.gif","images/stimuli/spore_stims/simple_14_B_d.gif","","","","","3","simple_dissimilar","images/stimuli/spore_stims/simple_14_B_d.gif","middle","","","","",""
"","null","html-keyboard-response","66","223326","0.0-17.0-0.2","SS1613138350062","","","null","","","","","<p><img src= images/blank.png width =""200"" height = ""200"" style = ""float:right""></p><p><img src=images/blank.png width =""800"" height = ""200""></p>","","","","","","","","","","","",""
"","1636.640000040643","sequential-stimulus-presentation","67","225770","0.0-17.0-1.2","SS1613138350062","trial","","40","800","2436.640000040643","images/stimuli/spore_stims/simple_01_B_a.gif","images/stimuli/spore_stims/simple_14_B_d.gif","","","","","3","simple_dissimilar","images/stimuli/spore_stims/simple_14_B_d.gif","middle","","","","",""
"","null","html-keyboard-response","68","226954","0.0-17.0-0.3","SS1613138350062","","","null","","","","","<p><img src= images/blank.png width =""200"" height = ""200"" style = ""float:right""></p><p><img src=images/blank.png width =""800"" height = ""200""></p>","","","","","","","","","","","",""
"","2511.2600000575185","sequential-stimulus-presentation","69","230279","0.0-17.0-1.3","SS1613138350062","trial","","40","800","3311.2600000575185","images/stimuli/spore_stims/simple_01_B_a.gif","images/stimuli/spore_stims/simple_14_B_d.gif","","","","","3","simple_dissimilar","images/stimuli/spore_stims/simple_14_B_d.gif","middle","","","","",""
"","null","html-keyboard-response","70","231405","0.0-17.0-0.4","SS1613138350062","","","null","","","","","<p><img src= images/blank.png width =""200"" height = ""200"" style = ""float:right""></p><p><img src=images/blank.png width =""800"" height = ""200""></p>","","","","","","","","","","","",""
"","1101.2099999934435","sequential-stimulus-presentation","71","233315","0.0-17.0-1.4","SS1613138350062","trial","","40","800","1901.2099999934435","images/stimuli/spore_stims/simple_01_B_a.gif","images/stimuli/spore_stims/simple_14_B_d.gif","","","","","3","simple_dissimilar","images/stimuli/spore_stims/simple_14_B_d.gif","middle","","","","",""
"","null","html-keyboard-response","72","234461","0.0-17.0-0.5","SS1613138350062","","","null","","","","","<p><img src= images/blank.png width =""200"" height = ""200"" style = ""float:right""></p><p><img src=images/blank.png width =""800"" height = ""200""></p>","","","","","","","","","","","",""
"","2853.4099999815226","sequential-stimulus-presentation","73","238119","0.0-17.0-1.5","SS1613138350062","trial","","40","800","3653.4099999815226","images/stimuli/spore_stims/simple_01_B_a.gif","images/stimuli/spore_stims/simple_14_B_d.gif","","","","","3","simple_dissimilar","images/stimuli/spore_stims/simple_14_B_d.gif","middle","","","","",""
"","null","html-keyboard-response","74","239072","0.0-17.0-0.6","SS1613138350062","","","null","","","","","<p><img src= images/blank.png width =""200"" height = ""200"" style = ""float:right""></p><p><img src=images/blank.png width =""800"" height = ""200""></p>","","","","","","","","","","","",""
"","1449.2099999915808","sequential-stimulus-presentation","75","241328","0.0-17.0-1.6","SS1613138350062","trial","","40","800","2249.209999991581","images/stimuli/spore_stims/simple_01_B_a.gif","images/stimuli/spore_stims/simple_14_B_d.gif","","","","","3","simple_dissimilar","images/stimuli/spore_stims/simple_14_B_d.gif","middle","","","","",""
"","null","html-keyboard-response","76","242231","0.0-17.0-0.7","SS1613138350062","","","null","","","","","<p><img src= images/blank.png width =""200"" height = ""200"" style = ""float:right""></p><p><img src=images/blank.png width =""800"" height = ""200""></p>","","","","","","","","","","","",""
"","2270.985000068322","sequential-stimulus-presentation","77","245307","0.0-17.0-1.7","SS1613138350062","trial","","40","800","3070.985000068322","images/stimuli/spore_stims/simple_01_B_a.gif","images/stimuli/spore_stims/simple_14_B_d.gif","","","","","3","simple_dissimilar","images/stimuli/spore_stims/simple_01_B_a.gif","right","","","","",""
"","1287.514999974519","html-keyboard-response","78","246597","0.0-18.0","SS1613138350062","pref_question","","49","","","","","<video width ='960' height = '540' style='padding-top:8%' autoplay muted><source src='images/stimuli/wall_pref.mp4' type='video/mp4'></video>","1","left","25%","3","","","","","","","",""
"","7038.350000046194","sequential-stimulus-presentation","79","254439","0.0-19.0","SS1613138350062","pref_reveal","","40","800","7838.350000046194","null","null","","","","","3","","","","novel","","","",""
"","null","html-keyboard-response","80","255422","0.0-20.0-0.0","SS1613138350062","","","null","","","","","<p><img src= images/blank.png width =""200"" height = ""200"" style = ""float:right""></p><p><img src=images/blank.png width =""800"" height = ""200""></p>","","","","","","","","","","","",""
"","2061.710000038147","sequential-stimulus-presentation","81","258293","0.0-20.0-1.0","SS1613138350062","trial","","40","800","2861.710000038147","images/stimuli/spore_stims/simple_20_B_d.gif","images/stimuli/spore_stims/simple_20_A_d.gif","","","","","4","simple_similar","images/stimuli/spore_stims/simple_20_A_d.gif","middle","","","","",""
"","null","html-keyboard-response","82","259157","0.0-20.0-0.1","SS1613138350062","","","null","","","","","<p><img src= images/blank.png width =""200"" height = ""200"" style = ""float:right""></p><p><img src=images/blank.png width =""800"" height = ""200""></p>","","","","","","","","","","","",""
"","1097.6550000486895","sequential-stimulus-presentation","83","261064","0.0-20.0-1.1","SS1613138350062","trial","","40","800","1897.6550000486895","images/stimuli/spore_stims/simple_20_B_d.gif","images/stimuli/spore_stims/simple_20_A_d.gif","","","","","4","simple_similar","images/stimuli/spore_stims/simple_20_A_d.gif","middle","","","","",""
"","null","html-keyboard-response","84","262162","0.0-20.0-0.2","SS1613138350062","","","null","","","","","<p><img src= images/blank.png width =""200"" height = ""200"" style = ""float:right""></p><p><img src=images/blank.png width =""800"" height = ""200""></p>","","","","","","","","","","","",""
"","1284.0699999360368","sequential-stimulus-presentation","85","264253","0.0-20.0-1.2","SS1613138350062","trial","","40","800","2084.0699999360368","images/stimuli/spore_stims/simple_20_B_d.gif","images/stimuli/spore_stims/simple_20_A_d.gif","","","","","4","simple_similar","images/stimuli/spore_stims/simple_20_A_d.gif","middle","","","","",""
"","null","html-keyboard-response","86","265318","0.0-20.0-0.3","SS1613138350062","","","null","","","","","<p><img src= images/blank.png width =""200"" height = ""200"" style = ""float:right""></p><p><img src=images/blank.png width =""800"" height = ""200""></p>","","","","","","","","","","","",""
"","1294.7149999672547","sequential-stimulus-presentation","87","267418","0.0-20.0-1.3","SS1613138350062","trial","","40","800","2094.7149999672547","images/stimuli/spore_stims/simple_20_B_d.gif","images/stimuli/spore_stims/simple_20_A_d.gif","","","","","4","simple_similar","images/stimuli/spore_stims/simple_20_A_d.gif","middle","","","","",""
"","null","html-keyboard-response","88","268295","0.0-20.0-0.4","SS1613138350062","","","null","","","","","<p><img src= images/blank.png width =""200"" height = ""200"" style = ""float:right""></p><p><img src=images/blank.png width =""800"" height = ""200""></p>","","","","","","","","","","","",""
"","2179.0599999949336","sequential-stimulus-presentation","89","271290","0.0-20.0-1.4","SS1613138350062","trial","","40","800","2979.0599999949336","images/stimuli/spore_stims/simple_20_B_d.gif","images/stimuli/spore_stims/simple_20_A_d.gif","","","","","4","simple_similar","images/stimuli/spore_stims/simple_20_A_d.gif","middle","","","","",""
"","null","html-keyboard-response","90","272102","0.0-20.0-0.5","SS1613138350062","","","null","","","","","<p><img src= images/blank.png width =""200"" height = ""200"" style = ""float:right""></p><p><img src=images/blank.png width =""800"" height = ""200""></p>","","","","","","","","","","","",""
"","1955.019999993965","sequential-stimulus-presentation","91","274865","0.0-20.0-1.5","SS1613138350062","trial","","40","800","2755.019999993965","images/stimuli/spore_stims/simple_20_B_d.gif","images/stimuli/spore_stims/simple_20_A_d.gif","","","","","4","simple_similar","images/stimuli/spore_stims/simple_20_B_d.gif","right","","","","",""
"","null","html-keyboard-response","92","276161","0.0-20.0-0.6","SS1613138350062","","","null","","","","","<p><img src= images/blank.png width =""200"" height = ""200"" style = ""float:right""></p><p><img src=images/blank.png width =""800"" height = ""200""></p>","","","","","","","","","","","",""
"","1071.4399999706075","sequential-stimulus-presentation","93","278036","0.0-20.0-1.6","SS1613138350062","trial","","40","800","1871.4399999706075","images/stimuli/spore_stims/simple_20_B_d.gif","images/stimuli/spore_stims/simple_20_A_d.gif","","","","","4","simple_similar","images/stimuli/spore_stims/simple_20_A_d.gif","middle","","","","",""
"","null","html-keyboard-response","94","278942","0.0-20.0-0.7","SS1613138350062","","","null","","","","","<p><img src= images/blank.png width =""200"" height = ""200"" style = ""float:right""></p><p><img src=images/blank.png width =""800"" height = ""200""></p>","","","","","","","","","","","",""
"","609.044999931939","sequential-stimulus-presentation","95","280359","0.0-20.0-1.7","SS1613138350062","trial","","40","800","1409.044999931939","images/stimuli/spore_stims/simple_20_B_d.gif","images/stimuli/spore_stims/simple_20_A_d.gif","","","","","4","simple_similar","images/stimuli/spore_stims/simple_20_A_d.gif","middle","","","","",""
"","1554.8450000351295","html-keyboard-response","96","281925","0.0-21.0","SS1613138350062","pref_question","","49","","","","","<video width ='960' height = '540' style='padding-top:8%' autoplay muted><source src='images/stimuli/wall_pref.mp4' type='video/mp4'></video>","1","left","25%","4","","","","","","","",""
"","2269.3900000303984","sequential-stimulus-presentation","97","285004","0.0-22.0","SS1613138350062","pref_reveal","","40","800","3069.3900000303984","null","null","","","","","4","","","","novel","","","",""
"","null","html-keyboard-response","98","286122","0.0-23.0-0.0","SS1613138350062","","","null","","","","","<p><img src= images/blank.png width =""200"" height = ""200"" style = ""float:right""></p><p><img src=images/blank.png width =""800"" height = ""200""></p>","","","","","","","","","","","",""
"","1943.4100000653416","sequential-stimulus-presentation","99","288875","0.0-23.0-1.0","SS1613138350062","trial","","40","800","2743.4100000653416","images/stimuli/spore_stims/simple_10_A_a.gif","images/stimuli/spore_stims/simple_10_B_a.gif","","","","","5","simple_similar","images/stimuli/spore_stims/simple_10_B_a.gif","left","","","","",""
"","null","html-keyboard-response","100","289868","0.0-23.0-0.1","SS1613138350062","","","null","","","","","<p><img src= images/blank.png width =""200"" height = ""200"" style = ""float:right""></p><p><img src=images/blank.png width =""800"" height = ""200""></p>","","","","","","","","","","","",""
"","946.8999999808148","sequential-stimulus-presentation","101","291619","0.0-23.0-1.1","SS1613138350062","trial","","40","800","1746.8999999808148","images/stimuli/spore_stims/simple_10_A_a.gif","images/stimuli/spore_stims/simple_10_B_a.gif","","","","","5","simple_similar","images/stimuli/spore_stims/simple_10_B_a.gif","left","","","","",""
"","null","html-keyboard-response","102","292903","0.0-23.0-0.2","SS1613138350062","","","null","","","","","<p><img src= images/blank.png width =""200"" height = ""200"" style = ""float:right""></p><p><img src=images/blank.png width =""800"" height = ""200""></p>","","","","","","","","","","","",""
"","2007.895000046119","sequential-stimulus-presentation","103","295720","0.0-23.0-1.2","SS1613138350062","trial","","40","800","2807.895000046119","images/stimuli/spore_stims/simple_10_A_a.gif","images/stimuli/spore_stims/simple_10_B_a.gif","","","","","5","simple_similar","images/stimuli/spore_stims/simple_10_A_a.gif","right","","","","",""
"","null","html-keyboard-response","104","296655","0.0-23.0-0.3","SS1613138350062","","","null","","","","","<p><img src= images/blank.png width =""200"" height = ""200"" style = ""float:right""></p><p><img src=images/blank.png width =""800"" height = ""200""></p>","","","","","","","","","","","",""
"","2298.32499998156","sequential-stimulus-presentation","105","299764","0.0-23.0-1.3","SS1613138350062","trial","","40","800","3098.32499998156","images/stimuli/spore_stims/simple_10_A_a.gif","images/stimuli/spore_stims/simple_10_B_a.gif","","","","","5","simple_similar","images/stimuli/spore_stims/simple_10_B_a.gif","left","","","","",""
"","null","html-keyboard-response","106","300627","0.0-23.0-0.4","SS1613138350062","","","null","","","","","<p><img src= images/blank.png width =""200"" height = ""200"" style = ""float:right""></p><p><img src=images/blank.png width =""800"" height = ""200""></p>","","","","","","","","","","","",""
"","1496.9500000588596","sequential-stimulus-presentation","107","302934","0.0-23.0-1.4","SS1613138350062","trial","","40","800","2296.9500000588596","images/stimuli/spore_stims/simple_10_A_a.gif","images/stimuli/spore_stims/simple_10_B_a.gif","","","","","5","simple_similar","images/stimuli/spore_stims/simple_10_B_a.gif","left","","","","",""
"","null","html-keyboard-response","108","303840","0.0-23.0-0.5","SS1613138350062","","","null","","","","","<p><img src= images/blank.png width =""200"" height = ""200"" style = ""float:right""></p><p><img src=images/blank.png width =""800"" height = ""200""></p>","","","","","","","","","","","",""
"","463.60499993897974","sequential-stimulus-presentation","109","305109","0.0-23.0-1.5","SS1613138350062","trial","","40","800","1263.6049999389797","images/stimuli/spore_stims/simple_10_A_a.gif","images/stimuli/spore_stims/simple_10_B_a.gif","","","","","5","simple_similar","images/stimuli/spore_stims/simple_10_B_a.gif","left","","","","",""
"","null","html-keyboard-response","110","306169","0.0-23.0-0.6","SS1613138350062","","","null","","","","","<p><img src= images/blank.png width =""200"" height = ""200"" style = ""float:right""></p><p><img src=images/blank.png width =""800"" height = ""200""></p>","","","","","","","","","","","",""
"","283.12999999616295","sequential-stimulus-presentation","111","307256","0.0-23.0-1.6","SS1613138350062","trial","","40","800","1083.129999996163","images/stimuli/spore_stims/simple_10_A_a.gif","images/stimuli/spore_stims/simple_10_B_a.gif","","","","","5","simple_similar","images/stimuli/spore_stims/simple_10_B_a.gif","left","","","","",""
"","null","html-keyboard-response","112","308382","0.0-23.0-0.7","SS1613138350062","","","null","","","","","<p><img src= images/blank.png width =""200"" height = ""200"" style = ""float:right""></p><p><img src=images/blank.png width =""800"" height = ""200""></p>","","","","","","","","","","","",""
"","312.71500000730157","sequential-stimulus-presentation","113","309507","0.0-23.0-1.7","SS1613138350062","trial","","40","800","1112.7150000073016","images/stimuli/spore_stims/simple_10_A_a.gif","images/stimuli/spore_stims/simple_10_B_a.gif","","","","","5","simple_similar","images/stimuli/spore_stims/simple_10_B_a.gif","left","","","","",""
"","1860.370000009425","html-keyboard-response","114","311370","0.0-24.0","SS1613138350062","pref_question","","50","","","","","<video width ='960' height = '540' style='padding-top:8%' autoplay muted><source src='images/stimuli/wall_pref.mp4' type='video/mp4'></video>","2","middle","45%","5","","","","","","","",""
"","2913.1199999246746","sequential-stimulus-presentation","115","315090","0.0-25.0","SS1613138350062","pref_reveal","","40","800","3713.1199999246746","null","null","","","","","5","","","","novel","","","",""
"","null","html-keyboard-response","116","316151","0.0-26.0-0.0","SS1613138350062","","","null","","","","","<p><img src= images/blank.png width =""200"" height = ""200"" style = ""float:right""></p><p><img src=images/blank.png width =""800"" height = ""200""></p>","","","","","","","","","","","",""
"","3795.0150000397116","sequential-stimulus-presentation","117","320765","0.0-26.0-1.0","SS1613138350062","trial","","40","800","4595.015000039712","images/stimuli/spore_stims/complex_15_A_b.gif","images/stimuli/spore_stims/complex_15_B_b.gif","","","","","6","complex_similar","images/stimuli/spore_stims/complex_15_B_b.gif","left","","","","",""
"","null","html-keyboard-response","118","321966","0.0-26.0-0.1","SS1613138350062","","","null","","","","","<p><img src= images/blank.png width =""200"" height = ""200"" style = ""float:right""></p><p><img src=images/blank.png width =""800"" height = ""200""></p>","","","","","","","","","","","",""
"","1379.5949999475852","sequential-stimulus-presentation","119","324154","0.0-26.0-1.1","SS1613138350062","trial","","40","800","2179.594999947585","images/stimuli/spore_stims/complex_15_A_b.gif","images/stimuli/spore_stims/complex_15_B_b.gif","","","","","6","complex_similar","images/stimuli/spore_stims/complex_15_B_b.gif","left","","","","",""
"","null","html-keyboard-response","120","325394","0.0-26.0-0.2","SS1613138350062","","","null","","","","","<p><img src= images/blank.png width =""200"" height = ""200"" style = ""float:right""></p><p><img src=images/blank.png width =""800"" height = ""200""></p>","","","","","","","","","","","",""
"","1069.0600000089034","sequential-stimulus-presentation","121","327274","0.0-26.0-1.2","SS1613138350062","trial","","40","800","1869.0600000089034","images/stimuli/spore_stims/complex_15_A_b.gif","images/stimuli/spore_stims/complex_15_B_b.gif","","","","","6","complex_similar","images/stimuli/spore_stims/complex_15_B_b.gif","left","","","","",""
"","null","html-keyboard-response","122","328144","0.0-26.0-0.3","SS1613138350062","","","null","","","","","<p><img src= images/blank.png width =""200"" height = ""200"" style = ""float:right""></p><p><img src=images/blank.png width =""800"" height = ""200""></p>","","","","","","","","","","","",""
"","9450.15000004787","sequential-stimulus-presentation","123","338405","0.0-26.0-1.3","SS1613138350062","trial","","40","800","10250.15000004787","images/stimuli/spore_stims/complex_15_A_b.gif","images/stimuli/spore_stims/complex_15_B_b.gif","","","","","6","complex_similar","images/stimuli/spore_stims/complex_15_B_b.gif","left","","","","",""
"","null","html-keyboard-response","124","339254","0.0-26.0-0.4","SS1613138350062","","","null","","","","","<p><img src= images/blank.png width =""200"" height = ""200"" style = ""float:right""></p><p><img src=images/blank.png width =""800"" height = ""200""></p>","","","","","","","","","","","",""
"","35170.44000001624","sequential-stimulus-presentation","125","375230","0.0-26.0-1.4","SS1613138350062","trial","","40","800","35970.44000001624","images/stimuli/spore_stims/complex_15_A_b.gif","images/stimuli/spore_stims/complex_15_B_b.gif","","","","","6","complex_similar","images/stimuli/spore_stims/complex_15_A_b.gif","middle","","","","",""
"","null","html-keyboard-response","126","376501","0.0-26.0-0.5","SS1613138350062","","","null","","","","","<p><img src= images/blank.png width =""200"" height = ""200"" style = ""float:right""></p><p><img src=images/blank.png width =""800"" height = ""200""></p>","","","","","","","","","","","",""
"","24334.12000001408","sequential-stimulus-presentation","127","401641","0.0-26.0-1.5","SS1613138350062","trial","","40","800","25134.12000001408","images/stimuli/spore_stims/complex_15_A_b.gif","images/stimuli/spore_stims/complex_15_B_b.gif","","","","","6","complex_similar","images/stimuli/spore_stims/complex_15_B_b.gif","left","","","","",""
"","null","html-keyboard-response","128","402598","0.0-26.0-0.6","SS1613138350062","","","null","","","","","<p><img src= images/blank.png width =""200"" height = ""200"" style = ""float:right""></p><p><img src=images/blank.png width =""800"" height = ""200""></p>","","","","","","","","","","","",""
"","541.1350000649691","sequential-stimulus-presentation","129","403951","0.0-26.0-1.6","SS1613138350062","trial","","40","800","1341.135000064969","images/stimuli/spore_stims/complex_15_A_b.gif","images/stimuli/spore_stims/complex_15_B_b.gif","","","","","6","complex_similar","images/stimuli/spore_stims/complex_15_B_b.gif","left","","","","",""
"","null","html-keyboard-response","130","405010","0.0-26.0-0.7","SS1613138350062","","","null","","","","","<p><img src= images/blank.png width =""200"" height = ""200"" style = ""float:right""></p><p><img src=images/blank.png width =""800"" height = ""200""></p>","","","","","","","","","","","",""
"","286.1750000156462","sequential-stimulus-presentation","131","406107","0.0-26.0-1.7","SS1613138350062","trial","","40","800","1086.1750000156462","images/stimuli/spore_stims/complex_15_A_b.gif","images/stimuli/spore_stims/complex_15_B_b.gif","","","","","6","complex_similar","images/stimuli/spore_stims/complex_15_B_b.gif","left","","","","",""
"","1243.4499999508262","html-keyboard-response","132","407355","0.0-27.0","SS1613138350062","pref_question","","51","","","","","<video width ='960' height = '540' style='padding-top:8%' autoplay muted><source src='images/stimuli/wall_pref.mp4' type='video/mp4'></video>","3","right","66%","6","","","","","","","",""
"","1628.110000048764","sequential-stimulus-presentation","133","409793","0.0-28.0","SS1613138350062","pref_reveal","","40","800","2428.110000048764","null","null","","","","","6","","","","novel","","","",""
"","null","html-keyboard-response","134","410889","0.0-29.0-0.0","SS1613138350062","","","null","","","","","<p><img src= images/blank.png width =""200"" height = ""200"" style = ""float:right""></p><p><img src=images/blank.png width =""800"" height = ""200""></p>","","","","","","","","","","","",""
"","4440.945000038482","sequential-stimulus-presentation","135","416140","0.0-29.0-1.0","SS1613138350062","trial","","40","800","5240.945000038482","images/stimuli/spore_stims/complex_07_A_c.gif","images/stimuli/spore_stims/complex_04_B_c.gif","","","","","7","complex_dissimilar","images/stimuli/spore_stims/complex_04_B_c.gif","middle","","","","",""
"","null","html-keyboard-response","136","416952","0.0-29.0-0.1","SS1613138350062","","","null","","","","","<p><img src= images/blank.png width =""200"" height = ""200"" style = ""float:right""></p><p><img src=images/blank.png width =""800"" height = ""200""></p>","","","","","","","","","","","",""
"","739.0350000932813","sequential-stimulus-presentation","137","418498","0.0-29.0-1.1","SS1613138350062","trial","","40","800","1539.0350000932813","images/stimuli/spore_stims/complex_07_A_c.gif","images/stimuli/spore_stims/complex_04_B_c.gif","","","","","7","complex_dissimilar","images/stimuli/spore_stims/complex_04_B_c.gif","middle","","","","",""
"","null","html-keyboard-response","138","419400","0.0-29.0-0.2","SS1613138350062","","","null","","","","","<p><img src= images/blank.png width =""200"" height = ""200"" style = ""float:right""></p><p><img src=images/blank.png width =""800"" height = ""200""></p>","","","","","","","","","","","",""
"","320.5799999414012","sequential-stimulus-presentation","139","420524","0.0-29.0-1.2","SS1613138350062","trial","","40","800","1120.5799999414012","images/stimuli/spore_stims/complex_07_A_c.gif","images/stimuli/spore_stims/complex_04_B_c.gif","","","","","7","complex_dissimilar","images/stimuli/spore_stims/complex_04_B_c.gif","middle","","","","",""
"","null","html-keyboard-response","140","421490","0.0-29.0-0.3","SS1613138350062","","","null","","","","","<p><img src= images/blank.png width =""200"" height = ""200"" style = ""float:right""></p><p><img src=images/blank.png width =""800"" height = ""200""></p>","","","","","","","","","","","",""
"","523.4499999787658","sequential-stimulus-presentation","141","422819","0.0-29.0-1.3","SS1613138350062","trial","","40","800","1323.4499999787658","images/stimuli/spore_stims/complex_07_A_c.gif","images/stimuli/spore_stims/complex_04_B_c.gif","","","","","7","complex_dissimilar","images/stimuli/spore_stims/complex_07_A_c.gif","right","","","","",""
"","null","html-keyboard-response","142","423697","0.0-29.0-0.4","SS1613138350062","","","null","","","","","<p><img src= images/blank.png width =""200"" height = ""200"" style = ""float:right""></p><p><img src=images/blank.png width =""800"" height = ""200""></p>","","","","","","","","","","","",""
"","408.10500003863126","sequential-stimulus-presentation","143","424914","0.0-29.0-1.4","SS1613138350062","trial","","40","800","1208.1050000386313","images/stimuli/spore_stims/complex_07_A_c.gif","images/stimuli/spore_stims/complex_04_B_c.gif","","","","","7","complex_dissimilar","images/stimuli/spore_stims/complex_04_B_c.gif","middle","","","","",""
"","null","html-keyboard-response","144","426120","0.0-29.0-0.5","SS1613138350062","","","null","","","","","<p><img src= images/blank.png width =""200"" height = ""200"" style = ""float:right""></p><p><img src=images/blank.png width =""800"" height = ""200""></p>","","","","","","","","","","","",""
"","356.3500000163913","sequential-stimulus-presentation","145","427284","0.0-29.0-1.5","SS1613138350062","trial","","40","800","1156.3500000163913","images/stimuli/spore_stims/complex_07_A_c.gif","images/stimuli/spore_stims/complex_04_B_c.gif","","","","","7","complex_dissimilar","images/stimuli/spore_stims/complex_04_B_c.gif","middle","","","","",""
"","null","html-keyboard-response","146","428436","0.0-29.0-0.6","SS1613138350062","","","null","","","","","<p><img src= images/blank.png width =""200"" height = ""200"" style = ""float:right""></p><p><img src=images/blank.png width =""800"" height = ""200""></p>","","","","","","","","","","","",""
"","324.96500003617257","sequential-stimulus-presentation","147","429571","0.0-29.0-1.6","SS1613138350062","trial","","40","800","1124.9650000361726","images/stimuli/spore_stims/complex_07_A_c.gif","images/stimuli/spore_stims/complex_04_B_c.gif","","","","","7","complex_dissimilar","images/stimuli/spore_stims/complex_04_B_c.gif","middle","","","","",""
"","null","html-keyboard-response","148","430634","0.0-29.0-0.7","SS1613138350062","","","null","","","","","<p><img src= images/blank.png width =""200"" height = ""200"" style = ""float:right""></p><p><img src=images/blank.png width =""800"" height = ""200""></p>","","","","","","","","","","","",""
"","641.9199999654666","sequential-stimulus-presentation","149","432085","0.0-29.0-1.7","SS1613138350062","trial","","40","800","1441.9199999654666","images/stimuli/spore_stims/complex_07_A_c.gif","images/stimuli/spore_stims/complex_04_B_c.gif","","","","","7","complex_dissimilar","images/stimuli/spore_stims/complex_04_B_c.gif","middle","","","","",""
"","2564.460000023246","html-keyboard-response","150","434654","0.0-30.0","SS1613138350062","pref_question","","49","","","","","<video width ='960' height = '540' style='padding-top:8%' autoplay muted><source src='images/stimuli/wall_pref.mp4' type='video/mp4'></video>","1","left","25%","7","","","","","","","",""
"","1750.6399999838322","sequential-stimulus-presentation","151","437217","0.0-31.0","SS1613138350062","pref_reveal","","40","800","2550.6399999838322","null","null","","","","","7","","","","novel","","","",""
"","null","html-keyboard-response","152","438486","0.0-32.0-0.0","SS1613138350062","","","null","","","","","<p><img src= images/blank.png width =""200"" height = ""200"" style = ""float:right""></p><p><img src=images/blank.png width =""800"" height = ""200""></p>","","","","","","","","","","","",""
"","745.3700000187382","sequential-stimulus-presentation","153","440035","0.0-32.0-1.0","SS1613138350062","trial","","40","800","1545.3700000187382","images/stimuli/spore_stims/complex_03_A_d.gif","images/stimuli/spore_stims/complex_05_B_a.gif","","","","","8","complex_dissimilar","images/stimuli/spore_stims/complex_05_B_a.gif","left","","","","",""
"","null","html-keyboard-response","154","441003","0.0-32.0-0.1","SS1613138350062","","","null","","","","","<p><img src= images/blank.png width =""200"" height = ""200"" style = ""float:right""></p><p><img src=images/blank.png width =""800"" height = ""200""></p>","","","","","","","","","","","",""
"","189.29000000935048","sequential-stimulus-presentation","155","442004","0.0-32.0-1.1","SS1613138350062","trial","","40","800","989.2900000093505","images/stimuli/spore_stims/complex_03_A_d.gif","images/stimuli/spore_stims/complex_05_B_a.gif","","","","","8","complex_dissimilar","images/stimuli/spore_stims/complex_05_B_a.gif","left","","","","",""
"","null","html-keyboard-response","156","443051","0.0-32.0-0.2","SS1613138350062","","","null","","","","","<p><img src= images/blank.png width =""200"" height = ""200"" style = ""float:right""></p><p><img src=images/blank.png width =""800"" height = ""200""></p>","","","","","","","","","","","",""
"","544.4249999709427","sequential-stimulus-presentation","157","444408","0.0-32.0-1.2","SS1613138350062","trial","","40","800","1344.4249999709427","images/stimuli/spore_stims/complex_03_A_d.gif","images/stimuli/spore_stims/complex_05_B_a.gif","","","","","8","complex_dissimilar","images/stimuli/spore_stims/complex_05_B_a.gif","left","","","","",""
"","null","html-keyboard-response","158","445422","0.0-32.0-0.3","SS1613138350062","","","null","","","","","<p><img src= images/blank.png width =""200"" height = ""200"" style = ""float:right""></p><p><img src=images/blank.png width =""800"" height = ""200""></p>","","","","","","","","","","","",""
"","327.10999995470047","sequential-stimulus-presentation","159","446563","0.0-32.0-1.3","SS1613138350062","trial","","40","800","1127.1099999547005","images/stimuli/spore_stims/complex_03_A_d.gif","images/stimuli/spore_stims/complex_05_B_a.gif","","","","","8","complex_dissimilar","images/stimuli/spore_stims/complex_05_B_a.gif","left","","","","",""
"","null","html-keyboard-response","160","447636","0.0-32.0-0.4","SS1613138350062","","","null","","","","","<p><img src= images/blank.png width =""200"" height = ""200"" style = ""float:right""></p><p><img src=images/blank.png width =""800"" height = ""200""></p>","","","","","","","","","","","",""
"","1215.7749999314547","sequential-stimulus-presentation","161","449662","0.0-32.0-1.4","SS1613138350062","trial","","40","800","2015.7749999314547","images/stimuli/spore_stims/complex_03_A_d.gif","images/stimuli/spore_stims/complex_05_B_a.gif","","","","","8","complex_dissimilar","images/stimuli/spore_stims/complex_03_A_d.gif","right","","","","",""
"","null","html-keyboard-response","162","450810","0.0-32.0-0.5","SS1613138350062","","","null","","","","","<p><img src= images/blank.png width =""200"" height = ""200"" style = ""float:right""></p><p><img src=images/blank.png width =""800"" height = ""200""></p>","","","","","","","","","","","",""
"","1741.124999942258","sequential-stimulus-presentation","163","453363","0.0-32.0-1.5","SS1613138350062","trial","","40","800","2541.124999942258","images/stimuli/spore_stims/complex_03_A_d.gif","images/stimuli/spore_stims/complex_05_B_a.gif","","","","","8","complex_dissimilar","images/stimuli/spore_stims/complex_05_B_a.gif","left","","","","",""
"","null","html-keyboard-response","164","454439","0.0-32.0-0.6","SS1613138350062","","","null","","","","","<p><img src= images/blank.png width =""200"" height = ""200"" style = ""float:right""></p><p><img src=images/blank.png width =""800"" height = ""200""></p>","","","","","","","","","","","",""
"","984.7849999787286","sequential-stimulus-presentation","165","456230","0.0-32.0-1.6","SS1613138350062","trial","","40","800","1784.7849999787286","images/stimuli/spore_stims/complex_03_A_d.gif","images/stimuli/spore_stims/complex_05_B_a.gif","","","","","8","complex_dissimilar","images/stimuli/spore_stims/complex_05_B_a.gif","left","","","","",""
"","null","html-keyboard-response","166","457425","0.0-32.0-0.7","SS1613138350062","","","null","","","","","<p><img src= images/blank.png width =""200"" height = ""200"" style = ""float:right""></p><p><img src=images/blank.png width =""800"" height = ""200""></p>","","","","","","","","","","","",""
"","383.475000038743","sequential-stimulus-presentation","167","458621","0.0-32.0-1.7","SS1613138350062","trial","","40","800","1183.475000038743","images/stimuli/spore_stims/complex_03_A_d.gif","images/stimuli/spore_stims/complex_05_B_a.gif","","","","","8","complex_dissimilar","images/stimuli/spore_stims/complex_05_B_a.gif","left","","","","",""
"","1512.0200000237674","html-keyboard-response","168","460142","0.0-33.0","SS1613138350062","pref_question","","51","","","","","<video width ='960' height = '540' style='padding-top:8%' autoplay muted><source src='images/stimuli/wall_pref.mp4' type='video/mp4'></video>","3","right","66%","8","","","","","","","",""
"","1636.4949999842793","sequential-stimulus-presentation","169","462589","0.0-34.0","SS1613138350062","pref_reveal","","40","800","2436.4949999842793","null","null","","","","","8","","","","deviant","","","",""
"","null","html-keyboard-response","170","463803","0.0-35.0-0.0","SS1613138350062","","","null","","","","","<p><img src= images/blank.png width =""200"" height = ""200"" style = ""float:right""></p><p><img src=images/blank.png width =""800"" height = ""200""></p>","","","","","","","","","","","",""
"","1223.63000002224","sequential-stimulus-presentation","171","465834","0.0-35.0-1.0","SS1613138350062","trial","","40","800","2023.63000002224","images/stimuli/spore_stims/complex_20_A_a.gif","images/stimuli/spore_stims/complex_20_B_a.gif","","","","","9","complex_similar","images/stimuli/spore_stims/complex_20_B_a.gif","right","","","","",""
"","null","html-keyboard-response","172","466769","0.0-35.0-0.1","SS1613138350062","","","null","","","","","<p><img src= images/blank.png width =""200"" height = ""200"" style = ""float:right""></p><p><img src=images/blank.png width =""800"" height = ""200""></p>","","","","","","","","","","","",""
"","622.9599999496713","sequential-stimulus-presentation","173","468202","0.0-35.0-1.1","SS1613138350062","trial","","40","800","1422.9599999496713","images/stimuli/spore_stims/complex_20_A_a.gif","images/stimuli/spore_stims/complex_20_B_a.gif","","","","","9","complex_similar","images/stimuli/spore_stims/complex_20_B_a.gif","right","","","","",""
"","null","html-keyboard-response","174","469262","0.0-35.0-0.2","SS1613138350062","","","null","","","","","<p><img src= images/blank.png width =""200"" height = ""200"" style = ""float:right""></p><p><img src=images/blank.png width =""800"" height = ""200""></p>","","","","","","","","","","","",""
"","1336.7999999318272","sequential-stimulus-presentation","175","471408","0.0-35.0-1.2","SS1613138350062","trial","","40","800","2136.799999931827","images/stimuli/spore_stims/complex_20_A_a.gif","images/stimuli/spore_stims/complex_20_B_a.gif","","","","","9","complex_similar","images/stimuli/spore_stims/complex_20_A_a.gif","middle","","","","",""
"","null","html-keyboard-response","176","472444","0.0-35.0-0.3","SS1613138350062","","","null","","","","","<p><img src= images/blank.png width =""200"" height = ""200"" style = ""float:right""></p><p><img src=images/blank.png width =""800"" height = ""200""></p>","","","","","","","","","","","",""
"","585.4299999773502","sequential-stimulus-presentation","177","473843","0.0-35.0-1.3","SS1613138350062","trial","","40","800","1385.4299999773502","images/stimuli/spore_stims/complex_20_A_a.gif","images/stimuli/spore_stims/complex_20_B_a.gif","","","","","9","complex_similar","images/stimuli/spore_stims/complex_20_B_a.gif","right","","","","",""
"","null","html-keyboard-response","178","474927","0.0-35.0-0.4","SS1613138350062","","","null","","","","","<p><img src= images/blank.png width =""200"" height = ""200"" style = ""float:right""></p><p><img src=images/blank.png width =""800"" height = ""200""></p>","","","","","","","","","","","",""
"","1001.9500000635162","sequential-stimulus-presentation","179","476737","0.0-35.0-1.4","SS1613138350062","trial","","40","800","1801.9500000635162","images/stimuli/spore_stims/complex_20_A_a.gif","images/stimuli/spore_stims/complex_20_B_a.gif","","","","","9","complex_similar","images/stimuli/spore_stims/complex_20_B_a.gif","right","","","","",""
"","null","html-keyboard-response","180","477820","0.0-35.0-0.5","SS1613138350062","","","null","","","","","<p><img src= images/blank.png width =""200"" height = ""200"" style = ""float:right""></p><p><img src=images/blank.png width =""800"" height = ""200""></p>","","","","","","","","","","","",""
"","1173.339999979362","sequential-stimulus-presentation","181","479800","0.0-35.0-1.5","SS1613138350062","trial","","40","800","1973.339999979362","images/stimuli/spore_stims/complex_20_A_a.gif","images/stimuli/spore_stims/complex_20_B_a.gif","","","","","9","complex_similar","images/stimuli/spore_stims/complex_20_B_a.gif","right","","","","",""
"","null","html-keyboard-response","182","480670","0.0-35.0-0.6","SS1613138350062","","","null","","","","","<p><img src= images/blank.png width =""200"" height = ""200"" style = ""float:right""></p><p><img src=images/blank.png width =""800"" height = ""200""></p>","","","","","","","","","","","",""
"","817.5950000295416","sequential-stimulus-presentation","183","482298","0.0-35.0-1.6","SS1613138350062","trial","","40","800","1617.5950000295416","images/stimuli/spore_stims/complex_20_A_a.gif","images/stimuli/spore_stims/complex_20_B_a.gif","","","","","9","complex_similar","images/stimuli/spore_stims/complex_20_B_a.gif","right","","","","",""
"","null","html-keyboard-response","184","483315","0.0-35.0-0.7","SS1613138350062","","","null","","","","","<p><img src= images/blank.png width =""200"" height = ""200"" style = ""float:right""></p><p><img src=images/blank.png width =""800"" height = ""200""></p>","","","","","","","","","","","",""
"","429.98499993700534","sequential-stimulus-presentation","185","484553","0.0-35.0-1.7","SS1613138350062","trial","","40","800","1229.9849999370053","images/stimuli/spore_stims/complex_20_A_a.gif","images/stimuli/spore_stims/complex_20_B_a.gif","","","","","9","complex_similar","images/stimuli/spore_stims/complex_20_B_a.gif","right","","","","",""
"","1767.5449999514967","html-keyboard-response","186","486326","0.0-36.0","SS1613138350062","pref_question","","50","","","","","<video width ='960' height = '540' style='padding-top:8%' autoplay muted><source src='images/stimuli/wall_pref.mp4' type='video/mp4'></video>","2","middle","45%","9","","","","","","","",""
"","1304.2650000425056","sequential-stimulus-presentation","187","488435","0.0-37.0","SS1613138350062","pref_reveal","","40","800","2104.2650000425056","null","null","","","","","9","","","","deviant","","","",""
"","null","html-keyboard-response","188","489709","0.0-38.0-0.0","SS1613138350062","","","null","","","","","<p><img src= images/blank.png width =""200"" height = ""200"" style = ""float:right""></p><p><img src=images/blank.png width =""800"" height = ""200""></p>","","","","","","","","","","","",""
"","3390.8900000387803","sequential-stimulus-presentation","189","493912","0.0-38.0-1.0","SS1613138350062","trial","","40","800","4190.89000003878","images/stimuli/spore_stims/simple_16_A_a.gif","images/stimuli/spore_stims/simple_16_B_a.gif","","","","","10","simple_similar","images/stimuli/spore_stims/simple_16_B_a.gif","left","","","","",""
"","null","html-keyboard-response","190","495142","0.0-38.0-0.1","SS1613138350062","","","null","","","","","<p><img src= images/blank.png width =""200"" height = ""200"" style = ""float:right""></p><p><img src=images/blank.png width =""800"" height = ""200""></p>","","","","","","","","","","","",""
"","761.7999999783933","sequential-stimulus-presentation","191","496714","0.0-38.0-1.1","SS1613138350062","trial","","40","800","1561.7999999783933","images/stimuli/spore_stims/simple_16_A_a.gif","images/stimuli/spore_stims/simple_16_B_a.gif","","","","","10","simple_similar","images/stimuli/spore_stims/simple_16_B_a.gif","left","","","","",""
"","null","html-keyboard-response","192","497854","0.0-38.0-0.2","SS1613138350062","","","null","","","","","<p><img src= images/blank.png width =""200"" height = ""200"" style = ""float:right""></p><p><img src=images/blank.png width =""800"" height = ""200""></p>","","","","","","","","","","","",""
"","2775.7249999558553","sequential-stimulus-presentation","193","501442","0.0-38.0-1.2","SS1613138350062","trial","","40","800","3575.7249999558553","images/stimuli/spore_stims/simple_16_A_a.gif","images/stimuli/spore_stims/simple_16_B_a.gif","","","","","10","simple_similar","images/stimuli/spore_stims/simple_16_A_a.gif","right","","","","",""
"","null","html-keyboard-response","194","502719","0.0-38.0-0.3","SS1613138350062","","","null","","","","","<p><img src= images/blank.png width =""200"" height = ""200"" style = ""float:right""></p><p><img src=images/blank.png width =""800"" height = ""200""></p>","","","","","","","","","","","",""
"","920.5950000323355","sequential-stimulus-presentation","195","504444","0.0-38.0-1.3","SS1613138350062","trial","","40","800","1720.5950000323355","images/stimuli/spore_stims/simple_16_A_a.gif","images/stimuli/spore_stims/simple_16_B_a.gif","","","","","10","simple_similar","images/stimuli/spore_stims/simple_16_B_a.gif","left","","","","",""
"","null","html-keyboard-response","196","505453","0.0-38.0-0.4","SS1613138350062","","","null","","","","","<p><img src= images/blank.png width =""200"" height = ""200"" style = ""float:right""></p><p><img src=images/blank.png width =""800"" height = ""200""></p>","","","","","","","","","","","",""
"","259.9899999331683","sequential-stimulus-presentation","197","506526","0.0-38.0-1.4","SS1613138350062","trial","","40","800","1059.9899999331683","images/stimuli/spore_stims/simple_16_A_a.gif","images/stimuli/spore_stims/simple_16_B_a.gif","","","","","10","simple_similar","images/stimuli/spore_stims/simple_16_B_a.gif","left","","","","",""
"","null","html-keyboard-response","198","507447","0.0-38.0-0.5","SS1613138350062","","","null","","","","","<p><img src= images/blank.png width =""200"" height = ""200"" style = ""float:right""></p><p><img src=images/blank.png width =""800"" height = ""200""></p>","","","","","","","","","","","",""
"","328.97499995306134","sequential-stimulus-presentation","199","508582","0.0-38.0-1.5","SS1613138350062","trial","","40","800","1128.9749999530613","images/stimuli/spore_stims/simple_16_A_a.gif","images/stimuli/spore_stims/simple_16_B_a.gif","","","","","10","simple_similar","images/stimuli/spore_stims/simple_16_B_a.gif","left","","","","",""
"","null","html-keyboard-response","200","509668","0.0-38.0-0.6","SS1613138350062","","","null","","","","","<p><img src= images/blank.png width =""200"" height = ""200"" style = ""float:right""></p><p><img src=images/blank.png width =""800"" height = ""200""></p>","","","","","","","","","","","",""
"","487.4050000216812","sequential-stimulus-presentation","201","510960","0.0-38.0-1.6","SS1613138350062","trial","","40","800","1287.4050000216812","images/stimuli/spore_stims/simple_16_A_a.gif","images/stimuli/spore_stims/simple_16_B_a.gif","","","","","10","simple_similar","images/stimuli/spore_stims/simple_16_B_a.gif","left","","","","",""
"","null","html-keyboard-response","202","512089","0.0-38.0-0.7","SS1613138350062","","","null","","","","","<p><img src= images/blank.png width =""200"" height = ""200"" style = ""float:right""></p><p><img src=images/blank.png width =""800"" height = ""200""></p>","","","","","","","","","","","",""
"","735.7349999947473","sequential-stimulus-presentation","203","513634","0.0-38.0-1.7","SS1613138350062","trial","","40","800","1535.7349999947473","images/stimuli/spore_stims/simple_16_A_a.gif","images/stimuli/spore_stims/simple_16_B_a.gif","","","","","10","simple_similar","images/stimuli/spore_stims/simple_16_B_a.gif","left","","","","",""
"","1843.280000030063","html-keyboard-response","204","515481","0.0-39.0","SS1613138350062","pref_question","","50","","","","","<video width ='960' height = '540' style='padding-top:8%' autoplay muted><source src='images/stimuli/wall_pref.mp4' type='video/mp4'></video>","2","middle","45%","10","","","","","","","",""
"","2104.5650000451133","sequential-stimulus-presentation","205","518393","0.0-40.0","SS1613138350062","pref_reveal","","40","800","2904.5650000451133","null","null","","","","","10","","","","novel","","","",""
"","null","html-keyboard-response","206","519611","0.0-41.0-0.0","SS1613138350062","","","null","","","","","<p><img src= images/blank.png width =""200"" height = ""200"" style = ""float:right""></p><p><img src=images/blank.png width =""800"" height = ""200""></p>","","","","","","","","","","","",""
"","144210.0400000345","sequential-stimulus-presentation","207","664627","0.0-41.0-1.0","SS1613138350062","trial","","40","800","145010.0400000345","images/stimuli/spore_stims/complex_03_B_a.gif","images/stimuli/spore_stims/complex_19_B_b.gif","","","","","11","complex_dissimilar","images/stimuli/spore_stims/complex_19_B_b.gif","middle","","","","",""
"","null","html-keyboard-response","208","665813","0.0-41.0-0.1","SS1613138350062","","","null","","","","","<p><img src= images/blank.png width =""200"" height = ""200"" style = ""float:right""></p><p><img src=images/blank.png width =""800"" height = ""200""></p>","","","","","","","","","","","",""
"","11980.590000050142","sequential-stimulus-presentation","209","678609","0.0-41.0-1.1","SS1613138350062","trial","","40","800","12780.590000050142","images/stimuli/spore_stims/complex_03_B_a.gif","images/stimuli/spore_stims/complex_19_B_b.gif","","","","","11","complex_dissimilar","images/stimuli/spore_stims/complex_19_B_b.gif","middle","","","","",""
"","null","html-keyboard-response","210","679571","0.0-41.0-0.2","SS1613138350062","","","null","","","","","<p><img src= images/blank.png width =""200"" height = ""200"" style = ""float:right""></p><p><img src=images/blank.png width =""800"" height = ""200""></p>","","","","","","","","","","","",""
"","49769.42999998573","sequential-stimulus-presentation","211","730148","0.0-41.0-1.2","SS1613138350062","trial","","40","800","50569.42999998573","images/stimuli/spore_stims/complex_03_B_a.gif","images/stimuli/spore_stims/complex_19_B_b.gif","","","","","11","complex_dissimilar","images/stimuli/spore_stims/complex_19_B_b.gif","middle","","","","",""
"","null","html-keyboard-response","212","731160","0.0-41.0-0.3","SS1613138350062","","","null","","","","","<p><img src= images/blank.png width =""200"" height = ""200"" style = ""float:right""></p><p><img src=images/blank.png width =""800"" height = ""200""></p>","","","","","","","","","","","",""
"","2879.2350000003353","sequential-stimulus-presentation","213","734855","0.0-41.0-1.3","SS1613138350062","trial","","40","800","3679.2350000003353","images/stimuli/spore_stims/complex_03_B_a.gif","images/stimuli/spore_stims/complex_19_B_b.gif","","","","","11","complex_dissimilar","images/stimuli/spore_stims/complex_03_B_a.gif","left","","","","",""
"","null","html-keyboard-response","214","735824","0.0-41.0-0.4","SS1613138350062","","","null","","","","","<p><img src= images/blank.png width =""200"" height = ""200"" style = ""float:right""></p><p><img src=images/blank.png width =""800"" height = ""200""></p>","","","","","","","","","","","",""
"","766.6700000409037","sequential-stimulus-presentation","215","737400","0.0-41.0-1.4","SS1613138350062","trial","","40","800","1566.6700000409037","images/stimuli/spore_stims/complex_03_B_a.gif","images/stimuli/spore_stims/complex_19_B_b.gif","","","","","11","complex_dissimilar","images/stimuli/spore_stims/complex_19_B_b.gif","middle","","","","",""
"","null","html-keyboard-response","216","738689","0.0-41.0-0.5","SS1613138350062","","","null","","","","","<p><img src= images/blank.png width =""200"" height = ""200"" style = ""float:right""></p><p><img src=images/blank.png width =""800"" height = ""200""></p>","","","","","","","","","","","",""
"","1891.9699999969453","sequential-stimulus-presentation","217","741395","0.0-41.0-1.5","SS1613138350062","trial","","40","800","2691.9699999969453","images/stimuli/spore_stims/complex_03_B_a.gif","images/stimuli/spore_stims/complex_19_B_b.gif","","","","","11","complex_dissimilar","images/stimuli/spore_stims/complex_19_B_b.gif","middle","","","","",""
"","null","html-keyboard-response","218","742373","0.0-41.0-0.6","SS1613138350062","","","null","","","","","<p><img src= images/blank.png width =""200"" height = ""200"" style = ""float:right""></p><p><img src=images/blank.png width =""800"" height = ""200""></p>","","","","","","","","","","","",""
"","19248.529999982566","sequential-stimulus-presentation","219","762433","0.0-41.0-1.6","SS1613138350062","trial","","40","800","20048.529999982566","images/stimuli/spore_stims/complex_03_B_a.gif","images/stimuli/spore_stims/complex_19_B_b.gif","","","","","11","complex_dissimilar","images/stimuli/spore_stims/complex_19_B_b.gif","middle","","","","",""
"","null","html-keyboard-response","220","763621","0.0-41.0-0.7","SS1613138350062","","","null","","","","","<p><img src= images/blank.png width =""200"" height = ""200"" style = ""float:right""></p><p><img src=images/blank.png width =""800"" height = ""200""></p>","","","","","","","","","","","",""
"","579.7699999529868","sequential-stimulus-presentation","221","765006","0.0-41.0-1.7","SS1613138350062","trial","","40","800","1379.7699999529868","images/stimuli/spore_stims/complex_03_B_a.gif","images/stimuli/spore_stims/complex_19_B_b.gif","","","","","11","complex_dissimilar","images/stimuli/spore_stims/complex_19_B_b.gif","middle","","","","",""
"","1241.455000010319","html-keyboard-response","222","766253","0.0-42.0","SS1613138350062","pref_question","","51","","","","","<video width ='960' height = '540' style='padding-top:8%' autoplay muted><source src='images/stimuli/wall_pref.mp4' type='video/mp4'></video>","3","right","66%","11","","","","","","","",""
"","1523.0049999663606","sequential-stimulus-presentation","223","768582","0.0-43.0","SS1613138350062","pref_reveal","","40","800","2323.0049999663606","null","null","","","","","11","","","","novel","","","",""
"","null","html-keyboard-response","224","769469","0.0-44.0-0.0","SS1613138350062","","","null","","","","","<p><img src= images/blank.png width =""200"" height = ""200"" style = ""float:right""></p><p><img src=images/blank.png width =""800"" height = ""200""></p>","","","","","","","","","","","",""
"","1695.3649999340996","sequential-stimulus-presentation","225","771969","0.0-44.0-1.0","SS1613138350062","trial","","40","800","2495.3649999340996","images/stimuli/spore_stims/simple_14_A_a.gif","images/stimuli/spore_stims/simple_18_B_c.gif","","","","","12","simple_dissimilar","images/stimuli/spore_stims/simple_18_B_c.gif","left","","","","",""
"","null","html-keyboard-response","226","773057","0.0-44.0-0.1","SS1613138350062","","","null","","","","","<p><img src= images/blank.png width =""200"" height = ""200"" style = ""float:right""></p><p><img src=images/blank.png width =""800"" height = ""200""></p>","","","","","","","","","","","",""
"","403.9799999445677","sequential-stimulus-presentation","227","774277","0.0-44.0-1.1","SS1613138350062","trial","","40","800","1203.9799999445677","images/stimuli/spore_stims/simple_14_A_a.gif","images/stimuli/spore_stims/simple_18_B_c.gif","","","","","12","simple_dissimilar","images/stimuli/spore_stims/simple_18_B_c.gif","left","","","","",""
"","null","html-keyboard-response","228","775422","0.0-44.0-0.2","SS1613138350062","","","null","","","","","<p><img src= images/blank.png width =""200"" height = ""200"" style = ""float:right""></p><p><img src=images/blank.png width =""800"" height = ""200""></p>","","","","","","","","","","","",""
"","528.2100000185892","sequential-stimulus-presentation","229","776759","0.0-44.0-1.2","SS1613138350062","trial","","40","800","1328.2100000185892","images/stimuli/spore_stims/simple_14_A_a.gif","images/stimuli/spore_stims/simple_18_B_c.gif","","","","","12","simple_dissimilar","images/stimuli/spore_stims/simple_18_B_c.gif","left","","","","",""
"","null","html-keyboard-response","230","777881","0.0-44.0-0.3","SS1613138350062","","","null","","","","","<p><img src= images/blank.png width =""200"" height = ""200"" style = ""float:right""></p><p><img src=images/blank.png width =""800"" height = ""200""></p>","","","","","","","","","","","",""
"","1267.3599999397993","sequential-stimulus-presentation","231","779956","0.0-44.0-1.3","SS1613138350062","trial","","40","800","2067.3599999397993","images/stimuli/spore_stims/simple_14_A_a.gif","images/stimuli/spore_stims/simple_18_B_c.gif","","","","","12","simple_dissimilar","images/stimuli/spore_stims/simple_18_B_c.gif","left","","","","",""
"","null","html-keyboard-response","232","780864","0.0-44.0-0.4","SS1613138350062","","","null","","","","","<p><img src= images/blank.png width =""200"" height = ""200"" style = ""float:right""></p><p><img src=images/blank.png width =""800"" height = ""200""></p>","","","","","","","","","","","",""
"","548.7399999983609","sequential-stimulus-presentation","233","782228","0.0-44.0-1.4","SS1613138350062","trial","","40","800","1348.7399999983609","images/stimuli/spore_stims/simple_14_A_a.gif","images/stimuli/spore_stims/simple_18_B_c.gif","","","","","12","simple_dissimilar","images/stimuli/spore_stims/simple_18_B_c.gif","left","","","","",""
"","null","html-keyboard-response","234","783451","0.0-44.0-0.5","SS1613138350062","","","null","","","","","<p><img src= images/blank.png width =""200"" height = ""200"" style = ""float:right""></p><p><img src=images/blank.png width =""800"" height = ""200""></p>","","","","","","","","","","","",""
"","1395.6400000024587","sequential-stimulus-presentation","235","785655","0.0-44.0-1.5","SS1613138350062","trial","","40","800","2195.6400000024587","images/stimuli/spore_stims/simple_14_A_a.gif","images/stimuli/spore_stims/simple_18_B_c.gif","","","","","12","simple_dissimilar","images/stimuli/spore_stims/simple_18_B_c.gif","left","","","","",""
"","null","html-keyboard-response","236","786761","0.0-44.0-0.6","SS1613138350062","","","null","","","","","<p><img src= images/blank.png width =""200"" height = ""200"" style = ""float:right""></p><p><img src=images/blank.png width =""800"" height = ""200""></p>","","","","","","","","","","","",""
"","1180.5000000167638","sequential-stimulus-presentation","237","788757","0.0-44.0-1.6","SS1613138350062","trial","","40","800","1980.5000000167638","images/stimuli/spore_stims/simple_14_A_a.gif","images/stimuli/spore_stims/simple_18_B_c.gif","","","","","12","simple_dissimilar","images/stimuli/spore_stims/simple_18_B_c.gif","left","","","","",""
"","null","html-keyboard-response","238","789976","0.0-44.0-0.7","SS1613138350062","","","null","","","","","<p><img src= images/blank.png width =""200"" height = ""200"" style = ""float:right""></p><p><img src=images/blank.png width =""800"" height = ""200""></p>","","","","","","","","","","","",""
"","2734.3150000087917","sequential-stimulus-presentation","239","793523","0.0-44.0-1.7","SS1613138350062","trial","","40","800","3534.3150000087917","images/stimuli/spore_stims/simple_14_A_a.gif","images/stimuli/spore_stims/simple_18_B_c.gif","","","","","12","simple_dissimilar","images/stimuli/spore_stims/simple_14_A_a.gif","middle","","","","",""
"","1210.469999932684","html-keyboard-response","240","794749","0.0-45.0","SS1613138350062","pref_question","","51","","","","","<video width ='960' height = '540' style='padding-top:8%' autoplay muted><source src='images/stimuli/wall_pref.mp4' type='video/mp4'></video>","3","right","66%","12","","","","","","","",""
"","2120.7649999996647","sequential-stimulus-presentation","241","797674","0.0-46.0","SS1613138350062","pref_reveal","","40","800","2920.7649999996647","null","null","","","","","12","","","","novel","","","",""
"","null","html-keyboard-response","242","798886","0.0-47.0-0.0","SS1613138350062","","","null","","","","","<p><img src= images/blank.png width =""200"" height = ""200"" style = ""float:right""></p><p><img src=images/blank.png width =""800"" height = ""200""></p>","","","","","","","","","","","",""
"","1905.4950000718236","sequential-stimulus-presentation","243","801602","0.0-47.0-1.0","SS1613138350062","trial","","40","800","2705.4950000718236","images/stimuli/spore_stims/complex_12_A_a.gif","images/stimuli/spore_stims/complex_12_B_a.gif","","","","","13","complex_similar","images/stimuli/spore_stims/complex_12_B_a.gif","middle","","","","",""
"","null","html-keyboard-response","244","802764","0.0-47.0-0.1","SS1613138350062","","","null","","","","","<p><img src= images/blank.png width =""200"" height = ""200"" style = ""float:right""></p><p><img src=images/blank.png width =""800"" height = ""200""></p>","","","","","","","","","","","",""
"","965.7550000119954","sequential-stimulus-presentation","245","804538","0.0-47.0-1.1","SS1613138350062","trial","","40","800","1765.7550000119954","images/stimuli/spore_stims/complex_12_A_a.gif","images/stimuli/spore_stims/complex_12_B_a.gif","","","","","13","complex_similar","images/stimuli/spore_stims/complex_12_B_a.gif","middle","","","","",""
"","null","html-keyboard-response","246","805734","0.0-47.0-0.2","SS1613138350062","","","null","","","","","<p><img src= images/blank.png width =""200"" height = ""200"" style = ""float:right""></p><p><img src=images/blank.png width =""800"" height = ""200""></p>","","","","","","","","","","","",""
"","898.39500002563","sequential-stimulus-presentation","247","807444","0.0-47.0-1.2","SS1613138350062","trial","","40","800","1698.39500002563","images/stimuli/spore_stims/complex_12_A_a.gif","images/stimuli/spore_stims/complex_12_B_a.gif","","","","","13","complex_similar","images/stimuli/spore_stims/complex_12_B_a.gif","middle","","","","",""
"","null","html-keyboard-response","248","808725","0.0-47.0-0.3","SS1613138350062","","","null","","","","","<p><img src= images/blank.png width =""200"" height = ""200"" style = ""float:right""></p><p><img src=images/blank.png width =""800"" height = ""200""></p>","","","","","","","","","","","",""
"","1506.6899999510497","sequential-stimulus-presentation","249","811051","0.0-47.0-1.3","SS1613138350062","trial","","40","800","2306.6899999510497","images/stimuli/spore_stims/complex_12_A_a.gif","images/stimuli/spore_stims/complex_12_B_a.gif","","","","","13","complex_similar","images/stimuli/spore_stims/complex_12_A_a.gif","left","","","","",""
"","null","html-keyboard-response","250","812151","0.0-47.0-0.4","SS1613138350062","","","null","","","","","<p><img src= images/blank.png width =""200"" height = ""200"" style = ""float:right""></p><p><img src=images/blank.png width =""800"" height = ""200""></p>","","","","","","","","","","","",""
"","970.6399999558926","sequential-stimulus-presentation","251","813929","0.0-47.0-1.4","SS1613138350062","trial","","40","800","1770.6399999558926","images/stimuli/spore_stims/complex_12_A_a.gif","images/stimuli/spore_stims/complex_12_B_a.gif","","","","","13","complex_similar","images/stimuli/spore_stims/complex_12_B_a.gif","middle","","","","",""
"","null","html-keyboard-response","252","815137","0.0-47.0-0.5","SS1613138350062","","","null","","","","","<p><img src= images/blank.png width =""200"" height = ""200"" style = ""float:right""></p><p><img src=images/blank.png width =""800"" height = ""200""></p>","","","","","","","","","","","",""
"","751.5099999727681","sequential-stimulus-presentation","253","816695","0.0-47.0-1.5","SS1613138350062","trial","","40","800","1551.5099999727681","images/stimuli/spore_stims/complex_12_A_a.gif","images/stimuli/spore_stims/complex_12_B_a.gif","","","","","13","complex_similar","images/stimuli/spore_stims/complex_12_B_a.gif","middle","","","","",""
"","null","html-keyboard-response","254","817797","0.0-47.0-0.6","SS1613138350062","","","null","","","","","<p><img src= images/blank.png width =""200"" height = ""200"" style = ""float:right""></p><p><img src=images/blank.png width =""800"" height = ""200""></p>","","","","","","","","","","","",""
"","1050.6100000347942","sequential-stimulus-presentation","255","819655","0.0-47.0-1.6","SS1613138350062","trial","","40","800","1850.6100000347942","images/stimuli/spore_stims/complex_12_A_a.gif","images/stimuli/spore_stims/complex_12_B_a.gif","","","","","13","complex_similar","images/stimuli/spore_stims/complex_12_B_a.gif","middle","","","","",""
"","null","html-keyboard-response","256","820702","0.0-47.0-0.7","SS1613138350062","","","null","","","","","<p><img src= images/blank.png width =""200"" height = ""200"" style = ""float:right""></p><p><img src=images/blank.png width =""800"" height = ""200""></p>","","","","","","","","","","","",""
"","858.5800000000745","sequential-stimulus-presentation","257","822376","0.0-47.0-1.7","SS1613138350062","trial","","40","800","1658.5800000000745","images/stimuli/spore_stims/complex_12_A_a.gif","images/stimuli/spore_stims/complex_12_B_a.gif","","","","","13","complex_similar","images/stimuli/spore_stims/complex_12_B_a.gif","middle","","","","",""
"","1007.6899999985471","html-keyboard-response","258","823399","0.0-48.0","SS1613138350062","pref_question","","51","","","","","<video width ='960' height = '540' style='padding-top:8%' autoplay muted><source src='images/stimuli/wall_pref.mp4' type='video/mp4'></video>","3","right","66%","13","","","","","","","",""
"","2060.8899999642745","sequential-stimulus-presentation","259","826267","0.0-49.0","SS1613138350062","pref_reveal","","40","800","2860.8899999642745","null","null","","","","","13","","","","novel","","","",""
"","null","html-keyboard-response","260","827448","0.0-50.0-0.0","SS1613138350062","","","null","","","","","<p><img src= images/blank.png width =""200"" height = ""200"" style = ""float:right""></p><p><img src=images/blank.png width =""800"" height = ""200""></p>","","","","","","","","","","","",""
"","634.0049999998882","sequential-stimulus-presentation","261","828887","0.0-50.0-1.0","SS1613138350062","trial","","40","800","1434.0049999998882","images/stimuli/spore_stims/simple_15_A_c.gif","images/stimuli/spore_stims/simple_15_B_c.gif","","","","","14","simple_similar","images/stimuli/spore_stims/simple_15_B_c.gif","left","","","","",""
"","null","html-keyboard-response","262","830087","0.0-50.0-0.1","SS1613138350062","","","null","","","","","<p><img src= images/blank.png width =""200"" height = ""200"" style = ""float:right""></p><p><img src=images/blank.png width =""800"" height = ""200""></p>","","","","","","","","","","","",""
"","391.5800000540912","sequential-stimulus-presentation","263","831288","0.0-50.0-1.1","SS1613138350062","trial","","40","800","1191.5800000540912","images/stimuli/spore_stims/simple_15_A_c.gif","images/stimuli/spore_stims/simple_15_B_c.gif","","","","","14","simple_similar","images/stimuli/spore_stims/simple_15_B_c.gif","left","","","","",""
"","null","html-keyboard-response","264","832566","0.0-50.0-0.2","SS1613138350062","","","null","","","","","<p><img src= images/blank.png width =""200"" height = ""200"" style = ""float:right""></p><p><img src=images/blank.png width =""800"" height = ""200""></p>","","","","","","","","","","","",""
"","645.7700000610203","sequential-stimulus-presentation","265","834024","0.0-50.0-1.2","SS1613138350062","trial","","40","800","1445.7700000610203","images/stimuli/spore_stims/simple_15_A_c.gif","images/stimuli/spore_stims/simple_15_B_c.gif","","","","","14","simple_similar","images/stimuli/spore_stims/simple_15_B_c.gif","left","","","","",""
"","null","html-keyboard-response","266","835244","0.0-50.0-0.3","SS1613138350062","","","null","","","","","<p><img src= images/blank.png width =""200"" height = ""200"" style = ""float:right""></p><p><img src=images/blank.png width =""800"" height = ""200""></p>","","","","","","","","","","","",""
"","873.9300000015646","sequential-stimulus-presentation","267","836928","0.0-50.0-1.3","SS1613138350062","trial","","40","800","1673.9300000015646","images/stimuli/spore_stims/simple_15_A_c.gif","images/stimuli/spore_stims/simple_15_B_c.gif","","","","","14","simple_similar","images/stimuli/spore_stims/simple_15_B_c.gif","left","","","","",""
"","null","html-keyboard-response","268","838007","0.0-50.0-0.4","SS1613138350062","","","null","","","","","<p><img src= images/blank.png width =""200"" height = ""200"" style = ""float:right""></p><p><img src=images/blank.png width =""800"" height = ""200""></p>","","","","","","","","","","","",""
"","1539.9599999655038","sequential-stimulus-presentation","269","840363","0.0-50.0-1.4","SS1613138350062","trial","","40","800","2339.959999965504","images/stimuli/spore_stims/simple_15_A_c.gif","images/stimuli/spore_stims/simple_15_B_c.gif","","","","","14","simple_similar","images/stimuli/spore_stims/simple_15_B_c.gif","left","","","","",""
"","null","html-keyboard-response","270","841481","0.0-50.0-0.5","SS1613138350062","","","null","","","","","<p><img src= images/blank.png width =""200"" height = ""200"" style = ""float:right""></p><p><img src=images/blank.png width =""800"" height = ""200""></p>","","","","","","","","","","","",""
"","1360.3600000496954","sequential-stimulus-presentation","271","843647","0.0-50.0-1.5","SS1613138350062","trial","","40","800","2160.3600000496954","images/stimuli/spore_stims/simple_15_A_c.gif","images/stimuli/spore_stims/simple_15_B_c.gif","","","","","14","simple_similar","images/stimuli/spore_stims/simple_15_A_c.gif","right","","","","",""
"","null","html-keyboard-response","272","844557","0.0-50.0-0.6","SS1613138350062","","","null","","","","","<p><img src= images/blank.png width =""200"" height = ""200"" style = ""float:right""></p><p><img src=images/blank.png width =""800"" height = ""200""></p>","","","","","","","","","","","",""
"","339.52499995939434","sequential-stimulus-presentation","273","845702","0.0-50.0-1.6","SS1613138350062","trial","","40","800","1139.5249999593943","images/stimuli/spore_stims/simple_15_A_c.gif","images/stimuli/spore_stims/simple_15_B_c.gif","","","","","14","simple_similar","images/stimuli/spore_stims/simple_15_B_c.gif","left","","","","",""
"","null","html-keyboard-response","274","846558","0.0-50.0-0.7","SS1613138350062","","","null","","","","","<p><img src= images/blank.png width =""200"" height = ""200"" style = ""float:right""></p><p><img src=images/blank.png width =""800"" height = ""200""></p>","","","","","","","","","","","",""
"","3656.5899999113753","sequential-stimulus-presentation","275","851025","0.0-50.0-1.7","SS1613138350062","trial","","40","800","4456.589999911375","images/stimuli/spore_stims/simple_15_A_c.gif","images/stimuli/spore_stims/simple_15_B_c.gif","","","","","14","simple_similar","images/stimuli/spore_stims/simple_15_B_c.gif","left","","","","",""
"","2249.64000005275","html-keyboard-response","276","853284","0.0-51.0","SS1613138350062","pref_question","","50","","","","","<video width ='960' height = '540' style='padding-top:8%' autoplay muted><source src='images/stimuli/wall_pref.mp4' type='video/mp4'></video>","2","middle","45%","14","","","","","","","",""
"","2087.6050000078976","sequential-stimulus-presentation","277","856180","0.0-52.0","SS1613138350062","pref_reveal","","40","800","2887.6050000078976","null","null","","","","","14","","","","novel","","","",""
"","null","html-keyboard-response","278","857359","0.0-53.0-0.0","SS1613138350062","","","null","","","","","<p><img src= images/blank.png width =""200"" height = ""200"" style = ""float:right""></p><p><img src=images/blank.png width =""800"" height = ""200""></p>","","","","","","","","","","","",""
"","1906.9349999772385","sequential-stimulus-presentation","279","860082","0.0-53.0-1.0","SS1613138350062","trial","","40","800","2706.9349999772385","images/stimuli/spore_stims/complex_11_A_d.gif","images/stimuli/spore_stims/complex_09_A_b.gif","","","","","15","complex_dissimilar","images/stimuli/spore_stims/complex_09_A_b.gif","left","","","","",""
"","null","html-keyboard-response","280","861238","0.0-53.0-0.1","SS1613138350062","","","null","","","","","<p><img src= images/blank.png width =""200"" height = ""200"" style = ""float:right""></p><p><img src=images/blank.png width =""800"" height = ""200""></p>","","","","","","","","","","","",""
"","1133.1800000043586","sequential-stimulus-presentation","281","863189","0.0-53.0-1.1","SS1613138350062","trial","","40","800","1933.1800000043586","images/stimuli/spore_stims/complex_11_A_d.gif","images/stimuli/spore_stims/complex_09_A_b.gif","","","","","15","complex_dissimilar","images/stimuli/spore_stims/complex_09_A_b.gif","left","","","","",""
"","null","html-keyboard-response","282","864040","0.0-53.0-0.2","SS1613138350062","","","null","","","","","<p><img src= images/blank.png width =""200"" height = ""200"" style = ""float:right""></p><p><img src=images/blank.png width =""800"" height = ""200""></p>","","","","","","","","","","","",""
"","1658.0250000115484","sequential-stimulus-presentation","283","866508","0.0-53.0-1.2","SS1613138350062","trial","","40","800","2458.0250000115484","images/stimuli/spore_stims/complex_11_A_d.gif","images/stimuli/spore_stims/complex_09_A_b.gif","","","","","15","complex_dissimilar","images/stimuli/spore_stims/complex_11_A_d.gif","middle","","","","",""
"","null","html-keyboard-response","284","867323","0.0-53.0-0.3","SS1613138350062","","","null","","","","","<p><img src= images/blank.png width =""200"" height = ""200"" style = ""float:right""></p><p><img src=images/blank.png width =""800"" height = ""200""></p>","","","","","","","","","","","",""
"","949.6550000039861","sequential-stimulus-presentation","285","869080","0.0-53.0-1.3","SS1613138350062","trial","","40","800","1749.655000003986","images/stimuli/spore_stims/complex_11_A_d.gif","images/stimuli/spore_stims/complex_09_A_b.gif","","","","","15","complex_dissimilar","images/stimuli/spore_stims/complex_09_A_b.gif","left","","","","",""
"","null","html-keyboard-response","286","870119","0.0-53.0-0.4","SS1613138350062","","","null","","","","","<p><img src= images/blank.png width =""200"" height = ""200"" style = ""float:right""></p><p><img src=images/blank.png width =""800"" height = ""200""></p>","","","","","","","","","","","",""
"","813.8549999566749","sequential-stimulus-presentation","287","871745","0.0-53.0-1.4","SS1613138350062","trial","","40","800","1613.8549999566749","images/stimuli/spore_stims/complex_11_A_d.gif","images/stimuli/spore_stims/complex_09_A_b.gif","","","","","15","complex_dissimilar","images/stimuli/spore_stims/complex_09_A_b.gif","left","","","","",""
"","null","html-keyboard-response","288","872692","0.0-53.0-0.5","SS1613138350062","","","null","","","","","<p><img src= images/blank.png width =""200"" height = ""200"" style = ""float:right""></p><p><img src=images/blank.png width =""800"" height = ""200""></p>","","","","","","","","","","","",""
"","913.5000000242144","sequential-stimulus-presentation","289","874413","0.0-53.0-1.5","SS1613138350062","trial","","40","800","1713.5000000242144","images/stimuli/spore_stims/complex_11_A_d.gif","images/stimuli/spore_stims/complex_09_A_b.gif","","","","","15","complex_dissimilar","images/stimuli/spore_stims/complex_09_A_b.gif","left","","","","",""
"","null","html-keyboard-response","290","875361","0.0-53.0-0.6","SS1613138350062","","","null","","","","","<p><img src= images/blank.png width =""200"" height = ""200"" style = ""float:right""></p><p><img src=images/blank.png width =""800"" height = ""200""></p>","","","","","","","","","","","",""
"","1201.850000070408","sequential-stimulus-presentation","291","877376","0.0-53.0-1.6","SS1613138350062","trial","","40","800","2001.850000070408","images/stimuli/spore_stims/complex_11_A_d.gif","images/stimuli/spore_stims/complex_09_A_b.gif","","","","","15","complex_dissimilar","images/stimuli/spore_stims/complex_09_A_b.gif","left","","","","",""
"","null","html-keyboard-response","292","878541","0.0-53.0-0.7","SS1613138350062","","","null","","","","","<p><img src= images/blank.png width =""200"" height = ""200"" style = ""float:right""></p><p><img src=images/blank.png width =""800"" height = ""200""></p>","","","","","","","","","","","",""
"","688.3950000628829","sequential-stimulus-presentation","293","880035","0.0-53.0-1.7","SS1613138350062","trial","","40","800","1488.395000062883","images/stimuli/spore_stims/complex_11_A_d.gif","images/stimuli/spore_stims/complex_09_A_b.gif","","","","","15","complex_dissimilar","images/stimuli/spore_stims/complex_09_A_b.gif","left","","","","",""
"","1276.880000019446","html-keyboard-response","294","881319","0.0-54.0","SS1613138350062","pref_question","","50","","","","","<video width ='960' height = '540' style='padding-top:8%' autoplay muted><source src='images/stimuli/wall_pref.mp4' type='video/mp4'></video>","2","middle","45%","15","","","","","","","",""
"","2388.0300000309944","sequential-stimulus-presentation","295","884520","0.0-55.0","SS1613138350062","pref_reveal","","40","800","3188.0300000309944","null","null","","","","","15","","","","deviant","","","",""
"","null","html-keyboard-response","296","885473","0.0-56.0-0.0","SS1613138350062","","","null","","","","","<p><img src= images/blank.png width =""200"" height = ""200"" style = ""float:right""></p><p><img src=images/blank.png width =""800"" height = ""200""></p>","","","","","","","","","","","",""
"","2313.6250000679865","sequential-stimulus-presentation","297","888604","0.0-56.0-1.0","SS1613138350062","trial","","40","800","3113.6250000679865","images/stimuli/spore_stims/complex_01_A_b.gif","images/stimuli/spore_stims/complex_01_B_b.gif","","","","","16","complex_similar","images/stimuli/spore_stims/complex_01_B_b.gif","left","","","","",""
"","null","html-keyboard-response","298","889462","0.0-56.0-0.1","SS1613138350062","","","null","","","","","<p><img src= images/blank.png width =""200"" height = ""200"" style = ""float:right""></p><p><img src=images/blank.png width =""800"" height = ""200""></p>","","","","","","","","","","","",""
"","1221.6199999675155","sequential-stimulus-presentation","299","891494","0.0-56.0-1.1","SS1613138350062","trial","","40","800","2021.6199999675155","images/stimuli/spore_stims/complex_01_A_b.gif","images/stimuli/spore_stims/complex_01_B_b.gif","","","","","16","complex_similar","images/stimuli/spore_stims/complex_01_B_b.gif","left","","","","",""
"","null","html-keyboard-response","300","892723","0.0-56.0-0.2","SS1613138350062","","","null","","","","","<p><img src= images/blank.png width =""200"" height = ""200"" style = ""float:right""></p><p><img src=images/blank.png width =""800"" height = ""200""></p>","","","","","","","","","","","",""
"","371.38500006403774","sequential-stimulus-presentation","301","893913","0.0-56.0-1.2","SS1613138350062","trial","","40","800","1171.3850000640377","images/stimuli/spore_stims/complex_01_A_b.gif","images/stimuli/spore_stims/complex_01_B_b.gif","","","","","16","complex_similar","images/stimuli/spore_stims/complex_01_B_b.gif","left","","","","",""
"","null","html-keyboard-response","302","894957","0.0-56.0-0.3","SS1613138350062","","","null","","","","","<p><img src= images/blank.png width =""200"" height = ""200"" style = ""float:right""></p><p><img src=images/blank.png width =""800"" height = ""200""></p>","","","","","","","","","","","",""
"","348.14999997615814","sequential-stimulus-presentation","303","896120","0.0-56.0-1.3","SS1613138350062","trial","","40","800","1148.1499999761581","images/stimuli/spore_stims/complex_01_A_b.gif","images/stimuli/spore_stims/complex_01_B_b.gif","","","","","16","complex_similar","images/stimuli/spore_stims/complex_01_B_b.gif","left","","","","",""
"","null","html-keyboard-response","304","897072","0.0-56.0-0.4","SS1613138350062","","","null","","","","","<p><img src= images/blank.png width =""200"" height = ""200"" style = ""float:right""></p><p><img src=images/blank.png width =""800"" height = ""200""></p>","","","","","","","","","","","",""
"","383.049999945797","sequential-stimulus-presentation","305","898263","0.0-56.0-1.4","SS1613138350062","trial","","40","800","1183.049999945797","images/stimuli/spore_stims/complex_01_A_b.gif","images/stimuli/spore_stims/complex_01_B_b.gif","","","","","16","complex_similar","images/stimuli/spore_stims/complex_01_B_b.gif","left","","","","",""
"","null","html-keyboard-response","306","899171","0.0-56.0-0.5","SS1613138350062","","","null","","","","","<p><img src= images/blank.png width =""200"" height = ""200"" style = ""float:right""></p><p><img src=images/blank.png width =""800"" height = ""200""></p>","","","","","","","","","","","",""
"","402.4249999783933","sequential-stimulus-presentation","307","900383","0.0-56.0-1.5","SS1613138350062","trial","","40","800","1202.4249999783933","images/stimuli/spore_stims/complex_01_A_b.gif","images/stimuli/spore_stims/complex_01_B_b.gif","","","","","16","complex_similar","images/stimuli/spore_stims/complex_01_B_b.gif","left","","","","",""
"","null","html-keyboard-response","308","901290","0.0-56.0-0.6","SS1613138350062","","","null","","","","","<p><img src= images/blank.png width =""200"" height = ""200"" style = ""float:right""></p><p><img src=images/blank.png width =""800"" height = ""200""></p>","","","","","","","","","","","",""
"","1243.3999999193475","sequential-stimulus-presentation","309","903343","0.0-56.0-1.6","SS1613138350062","trial","","40","800","2043.3999999193475","images/stimuli/spore_stims/complex_01_A_b.gif","images/stimuli/spore_stims/complex_01_B_b.gif","","","","","16","complex_similar","images/stimuli/spore_stims/complex_01_A_b.gif","middle","","","","",""
"","null","html-keyboard-response","310","904242","0.0-56.0-0.7","SS1613138350062","","","null","","","","","<p><img src= images/blank.png width =""200"" height = ""200"" style = ""float:right""></p><p><img src=images/blank.png width =""800"" height = ""200""></p>","","","","","","","","","","","",""
"","875.0149999978021","sequential-stimulus-presentation","311","905924","0.0-56.0-1.7","SS1613138350062","trial","","40","800","1675.014999997802","images/stimuli/spore_stims/complex_01_A_b.gif","images/stimuli/spore_stims/complex_01_B_b.gif","","","","","16","complex_similar","images/stimuli/spore_stims/complex_01_B_b.gif","left","","","","",""
"","1576.630000025034","html-keyboard-response","312","907510","0.0-57.0","SS1613138350062","pref_question","","51","","","","","<video width ='960' height = '540' style='padding-top:8%' autoplay muted><source src='images/stimuli/wall_pref.mp4' type='video/mp4'></video>","3","right","66%","16","","","","","","","",""
