"view_history","rt","trial_type","trial_index","time_elapsed","internal_node_id","subject","stimulus_type","trial_stimulus","key_press","minimum_viewing_duration","trial_looking_time","block_deviant","block_background","stimulus","wall_pref","location","location_percent","block_number","block_type","stimulus_displayed","position_displayed","stim_type_selected","responses","question_order","stimulus_left","stimulus_right"
"[{""page_index"":0,""viewing_time"":9822.610000148416}]","9823.440000414848","instructions","0","9825","0.0-0.0","SS1613098720356","","","","","","","","","","","","","","","","","","","",""
"[{""page_index"":0,""viewing_time"":14886.590000241995},{""page_index"":1,""viewing_time"":6878.899999894202}]","21765.79500036314","instructions","1","33594","0.0-1.0","SS1613098720356","instructions","","","","","","","","","","","","","","","","","","",""
"","15657.235000282526","sequential-stimulus-presentation","2","50058","0.0-2.0","SS1613098720356","","","40","800","16457.235000282526","null","null","","","","","","","","","","","","",""
"","3801.794999744743","sequential-stimulus-presentation","3","54665","0.0-3.0","SS1613098720356","","","40","800","4601.794999744743","null","null","","","","","","","","","","","","",""
"[{""page_index"":0,""viewing_time"":4098.4649998135865}]","4098.764999769628","instructions","4","58765","0.0-4.0","SS1613098720356","instructions","","","","","","","","","","","","","","","","","","",""
"","11610.26499979198","html-keyboard-response","5","70378","0.0-5.0","SS1613098720356","instructions","","49","","","","","<video width ='960' height = '540' autoplay muted><source src='images/stimuli/wall_pref.mp4' type='video/mp4'></video>","1","left","25%","","","","","","","","",""
"","4530.094999819994","sequential-stimulus-presentation","6","75714","0.0-6.0","SS1613098720356","pref_reveal","","40","800","5330.094999819994","null","null","","","","","","","","","","","","",""
"[{""page_index"":0,""viewing_time"":10476.85999982059},{""page_index"":1,""viewing_time"":5273.610000032932},{""page_index"":2,""viewing_time"":1374.7900002636015},{""page_index"":3,""viewing_time"":1155.4799997247756}]","18281.074999831617","instructions","7","93996","0.0-7.0","SS1613098720356","instructions","","","","","","","","","","","","","","","","","","",""
"","null","html-keyboard-response","8","95082","0.0-8.0-0.0","SS1613098720356","","","null","","","","","<p><img src= images/blank.png width =""200"" height = ""200"" style = ""float:right""></p><p><img src=images/blank.png width =""800"" height = ""200""></p>","","","","","","","","","","","",""
"","8006.095000077039","sequential-stimulus-presentation","9","103896","0.0-8.0-1.0","SS1613098720356","trial","","40","800","8806.095000077039","images/stimuli/spore_stims/simple_13_A_b.gif","images/stimuli/spore_stims/simple_06_B_b.gif","","","","","0","simple_dissimilar","images/stimuli/spore_stims/simple_06_B_b.gif","middle","","","","",""
"","null","html-keyboard-response","10","104971","0.0-8.0-0.1","SS1613098720356","","","null","","","","","<p><img src= images/blank.png width =""200"" height = ""200"" style = ""float:right""></p><p><img src=images/blank.png width =""800"" height = ""200""></p>","","","","","","","","","","","",""
"","5886.320000048727","sequential-stimulus-presentation","11","111664","0.0-8.0-1.1","SS1613098720356","trial","","40","800","6686.320000048727","images/stimuli/spore_stims/simple_13_A_b.gif","images/stimuli/spore_stims/simple_06_B_b.gif","","","","","0","simple_dissimilar","images/stimuli/spore_stims/simple_06_B_b.gif","middle","","","","",""
"","null","html-keyboard-response","12","112808","0.0-8.0-0.2","SS1613098720356","","","null","","","","","<p><img src= images/blank.png width =""200"" height = ""200"" style = ""float:right""></p><p><img src=images/blank.png width =""800"" height = ""200""></p>","","","","","","","","","","","",""
"","5651.709999889135","sequential-stimulus-presentation","13","119265","0.0-8.0-1.2","SS1613098720356","trial","","40","800","6451.709999889135","images/stimuli/spore_stims/simple_13_A_b.gif","images/stimuli/spore_stims/simple_06_B_b.gif","","","","","0","simple_dissimilar","images/stimuli/spore_stims/simple_06_B_b.gif","middle","","","","",""
"","null","html-keyboard-response","14","120177","0.0-8.0-0.3","SS1613098720356","","","null","","","","","<p><img src= images/blank.png width =""200"" height = ""200"" style = ""float:right""></p><p><img src=images/blank.png width =""800"" height = ""200""></p>","","","","","","","","","","","",""
"","6017.489999998361","sequential-stimulus-presentation","15","127000","0.0-8.0-1.3","SS1613098720356","trial","","40","800","6817.489999998361","images/stimuli/spore_stims/simple_13_A_b.gif","images/stimuli/spore_stims/simple_06_B_b.gif","","","","","0","simple_dissimilar","images/stimuli/spore_stims/simple_06_B_b.gif","middle","","","","",""
"","null","html-keyboard-response","16","128085","0.0-8.0-0.4","SS1613098720356","","","null","","","","","<p><img src= images/blank.png width =""200"" height = ""200"" style = ""float:right""></p><p><img src=images/blank.png width =""800"" height = ""200""></p>","","","","","","","","","","","",""
"","4095.540000125766","sequential-stimulus-presentation","17","132995","0.0-8.0-1.4","SS1613098720356","trial","","40","800","4895.540000125766","images/stimuli/spore_stims/simple_13_A_b.gif","images/stimuli/spore_stims/simple_06_B_b.gif","","","","","0","simple_dissimilar","images/stimuli/spore_stims/simple_06_B_b.gif","middle","","","","",""
"","null","html-keyboard-response","18","134249","0.0-8.0-0.5","SS1613098720356","","","null","","","","","<p><img src= images/blank.png width =""200"" height = ""200"" style = ""float:right""></p><p><img src=images/blank.png width =""800"" height = ""200""></p>","","","","","","","","","","","",""
"","4305.2599998191","sequential-stimulus-presentation","19","139360","0.0-8.0-1.5","SS1613098720356","trial","","40","800","5105.2599998191","images/stimuli/spore_stims/simple_13_A_b.gif","images/stimuli/spore_stims/simple_06_B_b.gif","","","","","0","simple_dissimilar","images/stimuli/spore_stims/simple_06_B_b.gif","middle","","","","",""
"","null","html-keyboard-response","20","140512","0.0-8.0-0.6","SS1613098720356","","","null","","","","","<p><img src= images/blank.png width =""200"" height = ""200"" style = ""float:right""></p><p><img src=images/blank.png width =""800"" height = ""200""></p>","","","","","","","","","","","",""
"","5860.075000207871","sequential-stimulus-presentation","21","147177","0.0-8.0-1.6","SS1613098720356","trial","","40","800","6660.075000207871","images/stimuli/spore_stims/simple_13_A_b.gif","images/stimuli/spore_stims/simple_06_B_b.gif","","","","","0","simple_dissimilar","images/stimuli/spore_stims/simple_06_B_b.gif","middle","","","","",""
"","null","html-keyboard-response","22","148040","0.0-8.0-0.7","SS1613098720356","","","null","","","","","<p><img src= images/blank.png width =""200"" height = ""200"" style = ""float:right""></p><p><img src=images/blank.png width =""800"" height = ""200""></p>","","","","","","","","","","","",""
"","3562.334999907762","sequential-stimulus-presentation","23","152408","0.0-8.0-1.7","SS1613098720356","trial","","40","800","4362.334999907762","images/stimuli/spore_stims/simple_13_A_b.gif","images/stimuli/spore_stims/simple_06_B_b.gif","","","","","0","simple_dissimilar","images/stimuli/spore_stims/simple_13_A_b.gif","left","","","","",""
"","1930.519999936223","html-keyboard-response","24","154344","0.0-9.0","SS1613098720356","pref_question","","51","","","","","<video width ='960' height = '540' style='padding-top:8%' autoplay muted><source src='images/stimuli/wall_pref.mp4' type='video/mp4'></video>","3","right","66%","0","","","","","","","",""
"","6418.2849996723235","sequential-stimulus-presentation","25","161569","0.0-10.0","SS1613098720356","pref_reveal","","40","800","7218.2849996723235","null","null","","","","","0","","","","novel","","","",""
"","null","html-keyboard-response","26","162665","0.0-11.0-0.0","SS1613098720356","","","null","","","","","<p><img src= images/blank.png width =""200"" height = ""200"" style = ""float:right""></p><p><img src=images/blank.png width =""800"" height = ""200""></p>","","","","","","","","","","","",""
"","6146.229999605566","sequential-stimulus-presentation","27","169616","0.0-11.0-1.0","SS1613098720356","trial","","40","800","6946.229999605566","images/stimuli/spore_stims/complex_06_A_b.gif","images/stimuli/spore_stims/complex_06_B_b.gif","","","","","1","complex_similar","images/stimuli/spore_stims/complex_06_B_b.gif","middle","","","","",""
"","null","html-keyboard-response","28","170890","0.0-11.0-0.1","SS1613098720356","","","null","","","","","<p><img src= images/blank.png width =""200"" height = ""200"" style = ""float:right""></p><p><img src=images/blank.png width =""800"" height = ""200""></p>","","","","","","","","","","","",""
"","2738.63000003621","sequential-stimulus-presentation","29","174441","0.0-11.0-1.1","SS1613098720356","trial","","40","800","3538.63000003621","images/stimuli/spore_stims/complex_06_A_b.gif","images/stimuli/spore_stims/complex_06_B_b.gif","","","","","1","complex_similar","images/stimuli/spore_stims/complex_06_B_b.gif","middle","","","","",""
"","null","html-keyboard-response","30","175660","0.0-11.0-0.2","SS1613098720356","","","null","","","","","<p><img src= images/blank.png width =""200"" height = ""200"" style = ""float:right""></p><p><img src=images/blank.png width =""800"" height = ""200""></p>","","","","","","","","","","","",""
"","3924.1949999704957","sequential-stimulus-presentation","31","180400","0.0-11.0-1.2","SS1613098720356","trial","","40","800","4724.194999970496","images/stimuli/spore_stims/complex_06_A_b.gif","images/stimuli/spore_stims/complex_06_B_b.gif","","","","","1","complex_similar","images/stimuli/spore_stims/complex_06_B_b.gif","middle","","","","",""
"","null","html-keyboard-response","32","181506","0.0-11.0-0.3","SS1613098720356","","","null","","","","","<p><img src= images/blank.png width =""200"" height = ""200"" style = ""float:right""></p><p><img src=images/blank.png width =""800"" height = ""200""></p>","","","","","","","","","","","",""
"","5903.165000025183","sequential-stimulus-presentation","33","188217","0.0-11.0-1.3","SS1613098720356","trial","","40","800","6703.165000025183","images/stimuli/spore_stims/complex_06_A_b.gif","images/stimuli/spore_stims/complex_06_B_b.gif","","","","","1","complex_similar","images/stimuli/spore_stims/complex_06_A_b.gif","left","","","","",""
"","null","html-keyboard-response","34","189507","0.0-11.0-0.4","SS1613098720356","","","null","","","","","<p><img src= images/blank.png width =""200"" height = ""200"" style = ""float:right""></p><p><img src=images/blank.png width =""800"" height = ""200""></p>","","","","","","","","","","","",""
"","4455.254999920726","sequential-stimulus-presentation","35","194784","0.0-11.0-1.4","SS1613098720356","trial","","40","800","5255.254999920726","images/stimuli/spore_stims/complex_06_A_b.gif","images/stimuli/spore_stims/complex_06_B_b.gif","","","","","1","complex_similar","images/stimuli/spore_stims/complex_06_B_b.gif","middle","","","","",""
"","null","html-keyboard-response","36","196082","0.0-11.0-0.5","SS1613098720356","","","null","","","","","<p><img src= images/blank.png width =""200"" height = ""200"" style = ""float:right""></p><p><img src=images/blank.png width =""800"" height = ""200""></p>","","","","","","","","","","","",""
"","898.4150001779199","sequential-stimulus-presentation","37","197799","0.0-11.0-1.5","SS1613098720356","trial","","40","800","1698.4150001779199","images/stimuli/spore_stims/complex_06_A_b.gif","images/stimuli/spore_stims/complex_06_B_b.gif","","","","","1","complex_similar","images/stimuli/spore_stims/complex_06_B_b.gif","middle","","","","",""
"","null","html-keyboard-response","38","198919","0.0-11.0-0.6","SS1613098720356","","","null","","","","","<p><img src= images/blank.png width =""200"" height = ""200"" style = ""float:right""></p><p><img src=images/blank.png width =""800"" height = ""200""></p>","","","","","","","","","","","",""
"","529.2800003662705","sequential-stimulus-presentation","39","200258","0.0-11.0-1.6","SS1613098720356","trial","","40","800","1329.2800003662705","images/stimuli/spore_stims/complex_06_A_b.gif","images/stimuli/spore_stims/complex_06_B_b.gif","","","","","1","complex_similar","images/stimuli/spore_stims/complex_06_B_b.gif","middle","","","","",""
"","null","html-keyboard-response","40","201280","0.0-11.0-0.7","SS1613098720356","","","null","","","","","<p><img src= images/blank.png width =""200"" height = ""200"" style = ""float:right""></p><p><img src=images/blank.png width =""800"" height = ""200""></p>","","","","","","","","","","","",""
"","422.9399999603629","sequential-stimulus-presentation","41","202512","0.0-11.0-1.7","SS1613098720356","trial","","40","800","1222.939999960363","images/stimuli/spore_stims/complex_06_A_b.gif","images/stimuli/spore_stims/complex_06_B_b.gif","","","","","1","complex_similar","images/stimuli/spore_stims/complex_06_B_b.gif","middle","","","","",""
"","1954.450000077486","html-keyboard-response","42","204473","0.0-12.0","SS1613098720356","pref_question","","51","","","","","<video width ='960' height = '540' style='padding-top:8%' autoplay muted><source src='images/stimuli/wall_pref.mp4' type='video/mp4'></video>","3","right","66%","1","","","","","","","",""
"","6331.34499983862","sequential-stimulus-presentation","43","211625","0.0-13.0","SS1613098720356","pref_reveal","","40","800","7131.34499983862","null","null","","","","","1","","","","novel","","","",""
"","null","html-keyboard-response","44","212510","0.0-14.0-0.0","SS1613098720356","","","null","","","","","<p><img src= images/blank.png width =""200"" height = ""200"" style = ""float:right""></p><p><img src=images/blank.png width =""800"" height = ""200""></p>","","","","","","","","","","","",""
"","3819.645000156015","sequential-stimulus-presentation","45","217135","0.0-14.0-1.0","SS1613098720356","trial","","40","800","4619.645000156015","images/stimuli/spore_stims/simple_03_A_b.gif","images/stimuli/spore_stims/simple_15_A_d.gif","","","","","2","simple_dissimilar","images/stimuli/spore_stims/simple_15_A_d.gif","middle","","","","",""
"","null","html-keyboard-response","46","218217","0.0-14.0-0.1","SS1613098720356","","","null","","","","","<p><img src= images/blank.png width =""200"" height = ""200"" style = ""float:right""></p><p><img src=images/blank.png width =""800"" height = ""200""></p>","","","","","","","","","","","",""
"","3320.285000372678","sequential-stimulus-presentation","47","222345","0.0-14.0-1.1","SS1613098720356","trial","","40","800","4120.285000372678","images/stimuli/spore_stims/simple_03_A_b.gif","images/stimuli/spore_stims/simple_15_A_d.gif","","","","","2","simple_dissimilar","images/stimuli/spore_stims/simple_15_A_d.gif","middle","","","","",""
"","null","html-keyboard-response","48","223342","0.0-14.0-0.2","SS1613098720356","","","null","","","","","<p><img src= images/blank.png width =""200"" height = ""200"" style = ""float:right""></p><p><img src=images/blank.png width =""800"" height = ""200""></p>","","","","","","","","","","","",""
"","4083.214999642223","sequential-stimulus-presentation","49","228231","0.0-14.0-1.2","SS1613098720356","trial","","40","800","4883.214999642223","images/stimuli/spore_stims/simple_03_A_b.gif","images/stimuli/spore_stims/simple_15_A_d.gif","","","","","2","simple_dissimilar","images/stimuli/spore_stims/simple_03_A_b.gif","left","","","","",""
"","null","html-keyboard-response","50","229510","0.0-14.0-0.3","SS1613098720356","","","null","","","","","<p><img src= images/blank.png width =""200"" height = ""200"" style = ""float:right""></p><p><img src=images/blank.png width =""800"" height = ""200""></p>","","","","","","","","","","","",""
"","2637.085000053048","sequential-stimulus-presentation","51","232954","0.0-14.0-1.3","SS1613098720356","trial","","40","800","3437.085000053048","images/stimuli/spore_stims/simple_03_A_b.gif","images/stimuli/spore_stims/simple_15_A_d.gif","","","","","2","simple_dissimilar","images/stimuli/spore_stims/simple_15_A_d.gif","middle","","","","",""
"","null","html-keyboard-response","52","233829","0.0-14.0-0.4","SS1613098720356","","","null","","","","","<p><img src= images/blank.png width =""200"" height = ""200"" style = ""float:right""></p><p><img src=images/blank.png width =""800"" height = ""200""></p>","","","","","","","","","","","",""
"","829.6850002370775","sequential-stimulus-presentation","53","235464","0.0-14.0-1.4","SS1613098720356","trial","","40","800","1629.6850002370775","images/stimuli/spore_stims/simple_03_A_b.gif","images/stimuli/spore_stims/simple_15_A_d.gif","","","","","2","simple_dissimilar","images/stimuli/spore_stims/simple_15_A_d.gif","middle","","","","",""
"","null","html-keyboard-response","54","236725","0.0-14.0-0.5","SS1613098720356","","","null","","","","","<p><img src= images/blank.png width =""200"" height = ""200"" style = ""float:right""></p><p><img src=images/blank.png width =""800"" height = ""200""></p>","","","","","","","","","","","",""
"","2525.159999728203","sequential-stimulus-presentation","55","240056","0.0-14.0-1.5","SS1613098720356","trial","","40","800","3325.159999728203","images/stimuli/spore_stims/simple_03_A_b.gif","images/stimuli/spore_stims/simple_15_A_d.gif","","","","","2","simple_dissimilar","images/stimuli/spore_stims/simple_15_A_d.gif","middle","","","","",""
"","null","html-keyboard-response","56","240990","0.0-14.0-0.6","SS1613098720356","","","null","","","","","<p><img src= images/blank.png width =""200"" height = ""200"" style = ""float:right""></p><p><img src=images/blank.png width =""800"" height = ""200""></p>","","","","","","","","","","","",""
"","2692.195000126958","sequential-stimulus-presentation","57","244488","0.0-14.0-1.6","SS1613098720356","trial","","40","800","3492.195000126958","images/stimuli/spore_stims/simple_03_A_b.gif","images/stimuli/spore_stims/simple_15_A_d.gif","","","","","2","simple_dissimilar","images/stimuli/spore_stims/simple_15_A_d.gif","middle","","","","",""
"","null","html-keyboard-response","58","245303","0.0-14.0-0.7","SS1613098720356","","","null","","","","","<p><img src= images/blank.png width =""200"" height = ""200"" style = ""float:right""></p><p><img src=images/blank.png width =""800"" height = ""200""></p>","","","","","","","","","","","",""
"","4137.019999790937","sequential-stimulus-presentation","59","250255","0.0-14.0-1.7","SS1613098720356","trial","","40","800","4937.019999790937","images/stimuli/spore_stims/simple_03_A_b.gif","images/stimuli/spore_stims/simple_15_A_d.gif","","","","","2","simple_dissimilar","images/stimuli/spore_stims/simple_15_A_d.gif","middle","","","","",""
"","1500.8600000292063","html-keyboard-response","60","251760","0.0-15.0","SS1613098720356","pref_question","","51","","","","","<video width ='960' height = '540' style='padding-top:8%' autoplay muted><source src='images/stimuli/wall_pref.mp4' type='video/mp4'></video>","3","right","66%","2","","","","","","","",""
"","4922.23499994725","sequential-stimulus-presentation","61","257489","0.0-16.0","SS1613098720356","pref_reveal","","40","800","5722.23499994725","null","null","","","","","2","","","","novel","","","",""
"","null","html-keyboard-response","62","258396","0.0-17.0-0.0","SS1613098720356","","","null","","","","","<p><img src= images/blank.png width =""200"" height = ""200"" style = ""float:right""></p><p><img src=images/blank.png width =""800"" height = ""200""></p>","","","","","","","","","","","",""
"","3150.2950000576675","sequential-stimulus-presentation","63","262352","0.0-17.0-1.0","SS1613098720356","trial","","40","800","3950.2950000576675","images/stimuli/spore_stims/complex_01_A_a.gif","images/stimuli/spore_stims/complex_08_A_c.gif","","","","","3","complex_dissimilar","images/stimuli/spore_stims/complex_08_A_c.gif","middle","","","","",""
"","null","html-keyboard-response","64","263334","0.0-17.0-0.1","SS1613098720356","","","null","","","","","<p><img src= images/blank.png width =""200"" height = ""200"" style = ""float:right""></p><p><img src=images/blank.png width =""800"" height = ""200""></p>","","","","","","","","","","","",""
"","2341.705000028014","sequential-stimulus-presentation","65","266488","0.0-17.0-1.1","SS1613098720356","trial","","40","800","3141.705000028014","images/stimuli/spore_stims/complex_01_A_a.gif","images/stimuli/spore_stims/complex_08_A_c.gif","","","","","3","complex_dissimilar","images/stimuli/spore_stims/complex_08_A_c.gif","middle","","","","",""
"","null","html-keyboard-response","66","267463","0.0-17.0-0.2","SS1613098720356","","","null","","","","","<p><img src= images/blank.png width =""200"" height = ""200"" style = ""float:right""></p><p><img src=images/blank.png width =""800"" height = ""200""></p>","","","","","","","","","","","",""
"","1802.3049999028444","sequential-stimulus-presentation","67","270073","0.0-17.0-1.2","SS1613098720356","trial","","40","800","2602.3049999028444","images/stimuli/spore_stims/complex_01_A_a.gif","images/stimuli/spore_stims/complex_08_A_c.gif","","","","","3","complex_dissimilar","images/stimuli/spore_stims/complex_08_A_c.gif","middle","","","","",""
"","null","html-keyboard-response","68","271217","0.0-17.0-0.3","SS1613098720356","","","null","","","","","<p><img src= images/blank.png width =""200"" height = ""200"" style = ""float:right""></p><p><img src=images/blank.png width =""800"" height = ""200""></p>","","","","","","","","","","","",""
"","4974.935000296682","sequential-stimulus-presentation","69","277000","0.0-17.0-1.3","SS1613098720356","trial","","40","800","5774.935000296682","images/stimuli/spore_stims/complex_01_A_a.gif","images/stimuli/spore_stims/complex_08_A_c.gif","","","","","3","complex_dissimilar","images/stimuli/spore_stims/complex_01_A_a.gif","right","","","","",""
"","null","html-keyboard-response","70","277890","0.0-17.0-0.4","SS1613098720356","","","null","","","","","<p><img src= images/blank.png width =""200"" height = ""200"" style = ""float:right""></p><p><img src=images/blank.png width =""800"" height = ""200""></p>","","","","","","","","","","","",""
"","1429.9400001764297","sequential-stimulus-presentation","71","280128","0.0-17.0-1.4","SS1613098720356","trial","","40","800","2229.9400001764297","images/stimuli/spore_stims/complex_01_A_a.gif","images/stimuli/spore_stims/complex_08_A_c.gif","","","","","3","complex_dissimilar","images/stimuli/spore_stims/complex_08_A_c.gif","middle","","","","",""
"","null","html-keyboard-response","72","281413","0.0-17.0-0.5","SS1613098720356","","","null","","","","","<p><img src= images/blank.png width =""200"" height = ""200"" style = ""float:right""></p><p><img src=images/blank.png width =""800"" height = ""200""></p>","","","","","","","","","","","",""
"","990.5950003303587","sequential-stimulus-presentation","73","283207","0.0-17.0-1.5","SS1613098720356","trial","","40","800","1790.5950003303587","images/stimuli/spore_stims/complex_01_A_a.gif","images/stimuli/spore_stims/complex_08_A_c.gif","","","","","3","complex_dissimilar","images/stimuli/spore_stims/complex_08_A_c.gif","middle","","","","",""
"","null","html-keyboard-response","74","284093","0.0-17.0-0.6","SS1613098720356","","","null","","","","","<p><img src= images/blank.png width =""200"" height = ""200"" style = ""float:right""></p><p><img src=images/blank.png width =""800"" height = ""200""></p>","","","","","","","","","","","",""
"","3094.2150000482798","sequential-stimulus-presentation","75","287992","0.0-17.0-1.6","SS1613098720356","trial","","40","800","3894.2150000482798","images/stimuli/spore_stims/complex_01_A_a.gif","images/stimuli/spore_stims/complex_08_A_c.gif","","","","","3","complex_dissimilar","images/stimuli/spore_stims/complex_08_A_c.gif","middle","","","","",""
"","null","html-keyboard-response","76","289259","0.0-17.0-0.7","SS1613098720356","","","null","","","","","<p><img src= images/blank.png width =""200"" height = ""200"" style = ""float:right""></p><p><img src=images/blank.png width =""800"" height = ""200""></p>","","","","","","","","","","","",""
"","3316.9550001621246","sequential-stimulus-presentation","77","293385","0.0-17.0-1.7","SS1613098720356","trial","","40","800","4116.955000162125","images/stimuli/spore_stims/complex_01_A_a.gif","images/stimuli/spore_stims/complex_08_A_c.gif","","","","","3","complex_dissimilar","images/stimuli/spore_stims/complex_08_A_c.gif","middle","","","","",""
"","1662.5549998134375","html-keyboard-response","78","295056","0.0-18.0","SS1613098720356","pref_question","","49","","","","","<video width ='960' height = '540' style='padding-top:8%' autoplay muted><source src='images/stimuli/wall_pref.mp4' type='video/mp4'></video>","1","left","25%","3","","","","","","","",""
"","3721.7850000597537","sequential-stimulus-presentation","79","299583","0.0-19.0","SS1613098720356","pref_reveal","","40","800","4521.785000059754","null","null","","","","","3","","","","novel","","","",""
"","null","html-keyboard-response","80","300575","0.0-20.0-0.0","SS1613098720356","","","null","","","","","<p><img src= images/blank.png width =""200"" height = ""200"" style = ""float:right""></p><p><img src=images/blank.png width =""800"" height = ""200""></p>","","","","","","","","","","","",""
"","3384.3950000591576","sequential-stimulus-presentation","81","304769","0.0-20.0-1.0","SS1613098720356","trial","","40","800","4184.395000059158","images/stimuli/spore_stims/complex_16_A_c.gif","images/stimuli/spore_stims/complex_16_B_c.gif","","","","","4","complex_similar","images/stimuli/spore_stims/complex_16_B_c.gif","right","","","","",""
"","null","html-keyboard-response","82","305636","0.0-20.0-0.1","SS1613098720356","","","null","","","","","<p><img src= images/blank.png width =""200"" height = ""200"" style = ""float:right""></p><p><img src=images/blank.png width =""800"" height = ""200""></p>","","","","","","","","","","","",""
"","1770.4750001430511","sequential-stimulus-presentation","83","308216","0.0-20.0-1.1","SS1613098720356","trial","","40","800","2570.475000143051","images/stimuli/spore_stims/complex_16_A_c.gif","images/stimuli/spore_stims/complex_16_B_c.gif","","","","","4","complex_similar","images/stimuli/spore_stims/complex_16_B_c.gif","right","","","","",""
"","null","html-keyboard-response","84","309490","0.0-20.0-0.2","SS1613098720356","","","null","","","","","<p><img src= images/blank.png width =""200"" height = ""200"" style = ""float:right""></p><p><img src=images/blank.png width =""800"" height = ""200""></p>","","","","","","","","","","","",""
"","1990.6649999320507","sequential-stimulus-presentation","85","312288","0.0-20.0-1.2","SS1613098720356","trial","","40","800","2790.6649999320507","images/stimuli/spore_stims/complex_16_A_c.gif","images/stimuli/spore_stims/complex_16_B_c.gif","","","","","4","complex_similar","images/stimuli/spore_stims/complex_16_B_c.gif","right","","","","",""
"","null","html-keyboard-response","86","313298","0.0-20.0-0.3","SS1613098720356","","","null","","","","","<p><img src= images/blank.png width =""200"" height = ""200"" style = ""float:right""></p><p><img src=images/blank.png width =""800"" height = ""200""></p>","","","","","","","","","","","",""
"","2021.8699998222291","sequential-stimulus-presentation","87","316129","0.0-20.0-1.3","SS1613098720356","trial","","40","800","2821.869999822229","images/stimuli/spore_stims/complex_16_A_c.gif","images/stimuli/spore_stims/complex_16_B_c.gif","","","","","4","complex_similar","images/stimuli/spore_stims/complex_16_B_c.gif","right","","","","",""
"","null","html-keyboard-response","88","316970","0.0-20.0-0.4","SS1613098720356","","","null","","","","","<p><img src= images/blank.png width =""200"" height = ""200"" style = ""float:right""></p><p><img src=images/blank.png width =""800"" height = ""200""></p>","","","","","","","","","","","",""
"","2046.9300001859665","sequential-stimulus-presentation","89","319831","0.0-20.0-1.4","SS1613098720356","trial","","40","800","2846.9300001859665","images/stimuli/spore_stims/complex_16_A_c.gif","images/stimuli/spore_stims/complex_16_B_c.gif","","","","","4","complex_similar","images/stimuli/spore_stims/complex_16_B_c.gif","right","","","","",""
"","null","html-keyboard-response","90","321028","0.0-20.0-0.5","SS1613098720356","","","null","","","","","<p><img src= images/blank.png width =""200"" height = ""200"" style = ""float:right""></p><p><img src=images/blank.png width =""800"" height = ""200""></p>","","","","","","","","","","","",""
"","2213.074999861419","sequential-stimulus-presentation","91","324048","0.0-20.0-1.5","SS1613098720356","trial","","40","800","3013.074999861419","images/stimuli/spore_stims/complex_16_A_c.gif","images/stimuli/spore_stims/complex_16_B_c.gif","","","","","4","complex_similar","images/stimuli/spore_stims/complex_16_B_c.gif","right","","","","",""
"","null","html-keyboard-response","92","325177","0.0-20.0-0.6","SS1613098720356","","","null","","","","","<p><img src= images/blank.png width =""200"" height = ""200"" style = ""float:right""></p><p><img src=images/blank.png width =""800"" height = ""200""></p>","","","","","","","","","","","",""
"","4307.519999798387","sequential-stimulus-presentation","93","330297","0.0-20.0-1.6","SS1613098720356","trial","","40","800","5107.519999798387","images/stimuli/spore_stims/complex_16_A_c.gif","images/stimuli/spore_stims/complex_16_B_c.gif","","","","","4","complex_similar","images/stimuli/spore_stims/complex_16_B_c.gif","right","","","","",""
"","null","html-keyboard-response","94","331244","0.0-20.0-0.7","SS1613098720356","","","null","","","","","<p><img src= images/blank.png width =""200"" height = ""200"" style = ""float:right""></p><p><img src=images/blank.png width =""800"" height = ""200""></p>","","","","","","","","","","","",""
"","12603.355000261217","sequential-stimulus-presentation","95","344657","0.0-20.0-1.7","SS1613098720356","trial","","40","800","13403.355000261217","images/stimuli/spore_stims/complex_16_A_c.gif","images/stimuli/spore_stims/complex_16_B_c.gif","","","","","4","complex_similar","images/stimuli/spore_stims/complex_16_A_c.gif","middle","","","","",""
"","7202.335000038147","html-keyboard-response","96","351864","0.0-21.0","SS1613098720356","pref_question","","50","","","","","<video width ='960' height = '540' style='padding-top:8%' autoplay muted><source src='images/stimuli/wall_pref.mp4' type='video/mp4'></video>","2","middle","45%","4","","","","","","","",""
"","2905.46500030905","sequential-stimulus-presentation","97","355577","0.0-22.0","SS1613098720356","pref_reveal","","40","800","3705.46500030905","null","null","","","","","4","","","","deviant","","","",""
"","null","html-keyboard-response","98","356778","0.0-23.0-0.0","SS1613098720356","","","null","","","","","<p><img src= images/blank.png width =""200"" height = ""200"" style = ""float:right""></p><p><img src=images/blank.png width =""800"" height = ""200""></p>","","","","","","","","","","","",""
"","5079.694999847561","sequential-stimulus-presentation","99","362695","0.0-23.0-1.0","SS1613098720356","trial","","40","800","5879.694999847561","images/stimuli/spore_stims/simple_12_B_b.gif","images/stimuli/spore_stims/simple_12_A_b.gif","","","","","5","simple_similar","images/stimuli/spore_stims/simple_12_A_b.gif","middle","","","","",""
"","null","html-keyboard-response","100","363807","0.0-23.0-0.1","SS1613098720356","","","null","","","","","<p><img src= images/blank.png width =""200"" height = ""200"" style = ""float:right""></p><p><img src=images/blank.png width =""800"" height = ""200""></p>","","","","","","","","","","","",""
"","2531.4549999311566","sequential-stimulus-presentation","101","367145","0.0-23.0-1.1","SS1613098720356","trial","","40","800","3331.4549999311566","images/stimuli/spore_stims/simple_12_B_b.gif","images/stimuli/spore_stims/simple_12_A_b.gif","","","","","5","simple_similar","images/stimuli/spore_stims/simple_12_A_b.gif","middle","","","","",""
"","null","html-keyboard-response","102","367981","0.0-23.0-0.2","SS1613098720356","","","null","","","","","<p><img src= images/blank.png width =""200"" height = ""200"" style = ""float:right""></p><p><img src=images/blank.png width =""800"" height = ""200""></p>","","","","","","","","","","","",""
"","2603.444999549538","sequential-stimulus-presentation","103","371399","0.0-23.0-1.2","SS1613098720356","trial","","40","800","3403.444999549538","images/stimuli/spore_stims/simple_12_B_b.gif","images/stimuli/spore_stims/simple_12_A_b.gif","","","","","5","simple_similar","images/stimuli/spore_stims/simple_12_A_b.gif","middle","","","","",""
"","null","html-keyboard-response","104","372265","0.0-23.0-0.3","SS1613098720356","","","null","","","","","<p><img src= images/blank.png width =""200"" height = ""200"" style = ""float:right""></p><p><img src=images/blank.png width =""800"" height = ""200""></p>","","","","","","","","","","","",""
"","1431.8099999800324","sequential-stimulus-presentation","105","374504","0.0-23.0-1.3","SS1613098720356","trial","","40","800","2231.8099999800324","images/stimuli/spore_stims/simple_12_B_b.gif","images/stimuli/spore_stims/simple_12_A_b.gif","","","","","5","simple_similar","images/stimuli/spore_stims/simple_12_A_b.gif","middle","","","","",""
"","null","html-keyboard-response","106","375666","0.0-23.0-0.4","SS1613098720356","","","null","","","","","<p><img src= images/blank.png width =""200"" height = ""200"" style = ""float:right""></p><p><img src=images/blank.png width =""800"" height = ""200""></p>","","","","","","","","","","","",""
"","20895.66500019282","sequential-stimulus-presentation","107","397368","0.0-23.0-1.4","SS1613098720356","trial","","40","800","21695.66500019282","images/stimuli/spore_stims/simple_12_B_b.gif","images/stimuli/spore_stims/simple_12_A_b.gif","","","","","5","simple_similar","images/stimuli/spore_stims/simple_12_B_b.gif","right","","","","",""
"","null","html-keyboard-response","108","398210","0.0-23.0-0.5","SS1613098720356","","","null","","","","","<p><img src= images/blank.png width =""200"" height = ""200"" style = ""float:right""></p><p><img src=images/blank.png width =""800"" height = ""200""></p>","","","","","","","","","","","",""
"","1357.4049999006093","sequential-stimulus-presentation","109","400375","0.0-23.0-1.5","SS1613098720356","trial","","40","800","2157.4049999006093","images/stimuli/spore_stims/simple_12_B_b.gif","images/stimuli/spore_stims/simple_12_A_b.gif","","","","","5","simple_similar","images/stimuli/spore_stims/simple_12_A_b.gif","middle","","","","",""
"","null","html-keyboard-response","110","401231","0.0-23.0-0.6","SS1613098720356","","","null","","","","","<p><img src= images/blank.png width =""200"" height = ""200"" style = ""float:right""></p><p><img src=images/blank.png width =""800"" height = ""200""></p>","","","","","","","","","","","",""
"","1578.7449995987117","sequential-stimulus-presentation","111","403615","0.0-23.0-1.6","SS1613098720356","trial","","40","800","2378.7449995987117","images/stimuli/spore_stims/simple_12_B_b.gif","images/stimuli/spore_stims/simple_12_A_b.gif","","","","","5","simple_similar","images/stimuli/spore_stims/simple_12_A_b.gif","middle","","","","",""
"","null","html-keyboard-response","112","404680","0.0-23.0-0.7","SS1613098720356","","","null","","","","","<p><img src= images/blank.png width =""200"" height = ""200"" style = ""float:right""></p><p><img src=images/blank.png width =""800"" height = ""200""></p>","","","","","","","","","","","",""
"","2169.9749999679625","sequential-stimulus-presentation","113","407656","0.0-23.0-1.7","SS1613098720356","trial","","40","800","2969.9749999679625","images/stimuli/spore_stims/simple_12_B_b.gif","images/stimuli/spore_stims/simple_12_A_b.gif","","","","","5","simple_similar","images/stimuli/spore_stims/simple_12_A_b.gif","middle","","","","",""
"","1816.3149999454618","html-keyboard-response","114","409479","0.0-24.0","SS1613098720356","pref_question","","49","","","","","<video width ='960' height = '540' style='padding-top:8%' autoplay muted><source src='images/stimuli/wall_pref.mp4' type='video/mp4'></video>","1","left","25%","5","","","","","","","",""
"","3749.1399999707937","sequential-stimulus-presentation","115","414039","0.0-25.0","SS1613098720356","pref_reveal","","40","800","4549.139999970794","null","null","","","","","5","","","","novel","","","",""
"","null","html-keyboard-response","116","414854","0.0-26.0-0.0","SS1613098720356","","","null","","","","","<p><img src= images/blank.png width =""200"" height = ""200"" style = ""float:right""></p><p><img src=images/blank.png width =""800"" height = ""200""></p>","","","","","","","","","","","",""
"","4648.77500012517","sequential-stimulus-presentation","117","420313","0.0-26.0-1.0","SS1613098720356","trial","","40","800","5448.77500012517","images/stimuli/spore_stims/complex_05_A_a.gif","images/stimuli/spore_stims/complex_07_A_a.gif","","","","","6","complex_dissimilar","images/stimuli/spore_stims/complex_07_A_a.gif","right","","","","",""
"","null","html-keyboard-response","118","421191","0.0-26.0-0.1","SS1613098720356","","","null","","","","","<p><img src= images/blank.png width =""200"" height = ""200"" style = ""float:right""></p><p><img src=images/blank.png width =""800"" height = ""200""></p>","","","","","","","","","","","",""
"","5450.410000048578","sequential-stimulus-presentation","119","427447","0.0-26.0-1.1","SS1613098720356","trial","","40","800","6250.410000048578","images/stimuli/spore_stims/complex_05_A_a.gif","images/stimuli/spore_stims/complex_07_A_a.gif","","","","","6","complex_dissimilar","images/stimuli/spore_stims/complex_07_A_a.gif","right","","","","",""
"","null","html-keyboard-response","120","428537","0.0-26.0-0.2","SS1613098720356","","","null","","","","","<p><img src= images/blank.png width =""200"" height = ""200"" style = ""float:right""></p><p><img src=images/blank.png width =""800"" height = ""200""></p>","","","","","","","","","","","",""
"","2751.040000002831","sequential-stimulus-presentation","121","432096","0.0-26.0-1.2","SS1613098720356","trial","","40","800","3551.040000002831","images/stimuli/spore_stims/complex_05_A_a.gif","images/stimuli/spore_stims/complex_07_A_a.gif","","","","","6","complex_dissimilar","images/stimuli/spore_stims/complex_07_A_a.gif","right","","","","",""
"","null","html-keyboard-response","122","433046","0.0-26.0-0.3","SS1613098720356","","","null","","","","","<p><img src= images/blank.png width =""200"" height = ""200"" style = ""float:right""></p><p><img src=images/blank.png width =""800"" height = ""200""></p>","","","","","","","","","","","",""
"","4481.399999931455","sequential-stimulus-presentation","123","438335","0.0-26.0-1.3","SS1613098720356","trial","","40","800","5281.399999931455","images/stimuli/spore_stims/complex_05_A_a.gif","images/stimuli/spore_stims/complex_07_A_a.gif","","","","","6","complex_dissimilar","images/stimuli/spore_stims/complex_05_A_a.gif","middle","","","","",""
"","null","html-keyboard-response","124","439465","0.0-26.0-0.4","SS1613098720356","","","null","","","","","<p><img src= images/blank.png width =""200"" height = ""200"" style = ""float:right""></p><p><img src=images/blank.png width =""800"" height = ""200""></p>","","","","","","","","","","","",""
"","3423.6949998885393","sequential-stimulus-presentation","125","443696","0.0-26.0-1.4","SS1613098720356","trial","","40","800","4223.694999888539","images/stimuli/spore_stims/complex_05_A_a.gif","images/stimuli/spore_stims/complex_07_A_a.gif","","","","","6","complex_dissimilar","images/stimuli/spore_stims/complex_07_A_a.gif","right","","","","",""
"","null","html-keyboard-response","126","444836","0.0-26.0-0.5","SS1613098720356","","","null","","","","","<p><img src= images/blank.png width =""200"" height = ""200"" style = ""float:right""></p><p><img src=images/blank.png width =""800"" height = ""200""></p>","","","","","","","","","","","",""
"","459.34499986469746","sequential-stimulus-presentation","127","446103","0.0-26.0-1.5","SS1613098720356","trial","","40","800","1259.3449998646975","images/stimuli/spore_stims/complex_05_A_a.gif","images/stimuli/spore_stims/complex_07_A_a.gif","","","","","6","complex_dissimilar","images/stimuli/spore_stims/complex_07_A_a.gif","right","","","","",""
"","null","html-keyboard-response","128","447342","0.0-26.0-0.6","SS1613098720356","","","null","","","","","<p><img src= images/blank.png width =""200"" height = ""200"" style = ""float:right""></p><p><img src=images/blank.png width =""800"" height = ""200""></p>","","","","","","","","","","","",""
"","1122.260000091046","sequential-stimulus-presentation","129","449271","0.0-26.0-1.6","SS1613098720356","trial","","40","800","1922.260000091046","images/stimuli/spore_stims/complex_05_A_a.gif","images/stimuli/spore_stims/complex_07_A_a.gif","","","","","6","complex_dissimilar","images/stimuli/spore_stims/complex_07_A_a.gif","right","","","","",""
"","null","html-keyboard-response","130","450148","0.0-26.0-0.7","SS1613098720356","","","null","","","","","<p><img src= images/blank.png width =""200"" height = ""200"" style = ""float:right""></p><p><img src=images/blank.png width =""800"" height = ""200""></p>","","","","","","","","","","","",""
"","403.5400003194809","sequential-stimulus-presentation","131","451359","0.0-26.0-1.7","SS1613098720356","trial","","40","800","1203.540000319481","images/stimuli/spore_stims/complex_05_A_a.gif","images/stimuli/spore_stims/complex_07_A_a.gif","","","","","6","complex_dissimilar","images/stimuli/spore_stims/complex_07_A_a.gif","right","","","","",""
"","1562.515000347048","html-keyboard-response","132","452927","0.0-27.0","SS1613098720356","pref_question","","49","","","","","<video width ='960' height = '540' style='padding-top:8%' autoplay muted><source src='images/stimuli/wall_pref.mp4' type='video/mp4'></video>","1","left","25%","6","","","","","","","",""
"","5591.900000348687","sequential-stimulus-presentation","133","459328","0.0-28.0","SS1613098720356","pref_reveal","","40","800","6391.900000348687","null","null","","","","","6","","","","novel","","","",""
"","null","html-keyboard-response","134","460147","0.0-29.0-0.0","SS1613098720356","","","null","","","","","<p><img src= images/blank.png width =""200"" height = ""200"" style = ""float:right""></p><p><img src=images/blank.png width =""800"" height = ""200""></p>","","","","","","","","","","","",""
"","4765.249999705702","sequential-stimulus-presentation","135","465719","0.0-29.0-1.0","SS1613098720356","trial","","40","800","5565.249999705702","images/stimuli/spore_stims/simple_13_B_d.gif","images/stimuli/spore_stims/simple_04_B_d.gif","","","","","7","simple_dissimilar","images/stimuli/spore_stims/simple_04_B_d.gif","left","","","","",""
"","null","html-keyboard-response","136","466620","0.0-29.0-0.1","SS1613098720356","","","null","","","","","<p><img src= images/blank.png width =""200"" height = ""200"" style = ""float:right""></p><p><img src=images/blank.png width =""800"" height = ""200""></p>","","","","","","","","","","","",""
"","1355.5549997836351","sequential-stimulus-presentation","137","468784","0.0-29.0-1.1","SS1613098720356","trial","","40","800","2155.554999783635","images/stimuli/spore_stims/simple_13_B_d.gif","images/stimuli/spore_stims/simple_04_B_d.gif","","","","","7","simple_dissimilar","images/stimuli/spore_stims/simple_04_B_d.gif","left","","","","",""
"","null","html-keyboard-response","138","469813","0.0-29.0-0.2","SS1613098720356","","","null","","","","","<p><img src= images/blank.png width =""200"" height = ""200"" style = ""float:right""></p><p><img src=images/blank.png width =""800"" height = ""200""></p>","","","","","","","","","","","",""
"","1894.065000116825","sequential-stimulus-presentation","139","472553","0.0-29.0-1.2","SS1613098720356","trial","","40","800","2694.065000116825","images/stimuli/spore_stims/simple_13_B_d.gif","images/stimuli/spore_stims/simple_04_B_d.gif","","","","","7","simple_dissimilar","images/stimuli/spore_stims/simple_04_B_d.gif","left","","","","",""
"","null","html-keyboard-response","140","473652","0.0-29.0-0.3","SS1613098720356","","","null","","","","","<p><img src= images/blank.png width =""200"" height = ""200"" style = ""float:right""></p><p><img src=images/blank.png width =""800"" height = ""200""></p>","","","","","","","","","","","",""
"","1427.8250001370907","sequential-stimulus-presentation","141","475887","0.0-29.0-1.3","SS1613098720356","trial","","40","800","2227.8250001370907","images/stimuli/spore_stims/simple_13_B_d.gif","images/stimuli/spore_stims/simple_04_B_d.gif","","","","","7","simple_dissimilar","images/stimuli/spore_stims/simple_04_B_d.gif","left","","","","",""
"","null","html-keyboard-response","142","476702","0.0-29.0-0.4","SS1613098720356","","","null","","","","","<p><img src= images/blank.png width =""200"" height = ""200"" style = ""float:right""></p><p><img src=images/blank.png width =""800"" height = ""200""></p>","","","","","","","","","","","",""
"","1402.1350000984967","sequential-stimulus-presentation","143","478911","0.0-29.0-1.4","SS1613098720356","trial","","40","800","2202.1350000984967","images/stimuli/spore_stims/simple_13_B_d.gif","images/stimuli/spore_stims/simple_04_B_d.gif","","","","","7","simple_dissimilar","images/stimuli/spore_stims/simple_04_B_d.gif","left","","","","",""
"","null","html-keyboard-response","144","480088","0.0-29.0-0.5","SS1613098720356","","","null","","","","","<p><img src= images/blank.png width =""200"" height = ""200"" style = ""float:right""></p><p><img src=images/blank.png width =""800"" height = ""200""></p>","","","","","","","","","","","",""
"","334.5800000242889","sequential-stimulus-presentation","145","481232","0.0-29.0-1.5","SS1613098720356","trial","","40","800","1134.580000024289","images/stimuli/spore_stims/simple_13_B_d.gif","images/stimuli/spore_stims/simple_04_B_d.gif","","","","","7","simple_dissimilar","images/stimuli/spore_stims/simple_04_B_d.gif","left","","","","",""
"","null","html-keyboard-response","146","482119","0.0-29.0-0.6","SS1613098720356","","","null","","","","","<p><img src= images/blank.png width =""200"" height = ""200"" style = ""float:right""></p><p><img src=images/blank.png width =""800"" height = ""200""></p>","","","","","","","","","","","",""
"","4427.960000000894","sequential-stimulus-presentation","147","487353","0.0-29.0-1.6","SS1613098720356","trial","","40","800","5227.960000000894","images/stimuli/spore_stims/simple_13_B_d.gif","images/stimuli/spore_stims/simple_04_B_d.gif","","","","","7","simple_dissimilar","images/stimuli/spore_stims/simple_13_B_d.gif","middle","","","","",""
"","null","html-keyboard-response","148","488230","0.0-29.0-0.7","SS1613098720356","","","null","","","","","<p><img src= images/blank.png width =""200"" height = ""200"" style = ""float:right""></p><p><img src=images/blank.png width =""800"" height = ""200""></p>","","","","","","","","","","","",""
"","1696.9050001353025","sequential-stimulus-presentation","149","490735","0.0-29.0-1.7","SS1613098720356","trial","","40","800","2496.9050001353025","images/stimuli/spore_stims/simple_13_B_d.gif","images/stimuli/spore_stims/simple_04_B_d.gif","","","","","7","simple_dissimilar","images/stimuli/spore_stims/simple_04_B_d.gif","left","","","","",""
"","1491.4099997840822","html-keyboard-response","150","492232","0.0-30.0","SS1613098720356","pref_question","","51","","","","","<video width ='960' height = '540' style='padding-top:8%' autoplay muted><source src='images/stimuli/wall_pref.mp4' type='video/mp4'></video>","3","right","66%","7","","","","","","","",""
"","3766.605000011623","sequential-stimulus-presentation","151","496807","0.0-31.0","SS1613098720356","pref_reveal","","40","800","4566.605000011623","null","null","","","","","7","","","","novel","","","",""
"","null","html-keyboard-response","152","497681","0.0-32.0-0.0","SS1613098720356","","","null","","","","","<p><img src= images/blank.png width =""200"" height = ""200"" style = ""float:right""></p><p><img src=images/blank.png width =""800"" height = ""200""></p>","","","","","","","","","","","",""
"","2858.130000066012","sequential-stimulus-presentation","153","501345","0.0-32.0-1.0","SS1613098720356","trial","","40","800","3658.130000066012","images/stimuli/spore_stims/complex_12_A_d.gif","images/stimuli/spore_stims/complex_19_A_d.gif","","","","","8","complex_dissimilar","images/stimuli/spore_stims/complex_19_A_d.gif","left","","","","",""
"","null","html-keyboard-response","154","502168","0.0-32.0-0.1","SS1613098720356","","","null","","","","","<p><img src= images/blank.png width =""200"" height = ""200"" style = ""float:right""></p><p><img src=images/blank.png width =""800"" height = ""200""></p>","","","","","","","","","","","",""
"","2223.4700000844896","sequential-stimulus-presentation","155","505207","0.0-32.0-1.1","SS1613098720356","trial","","40","800","3023.4700000844896","images/stimuli/spore_stims/complex_12_A_d.gif","images/stimuli/spore_stims/complex_19_A_d.gif","","","","","8","complex_dissimilar","images/stimuli/spore_stims/complex_19_A_d.gif","left","","","","",""
"","null","html-keyboard-response","156","506059","0.0-32.0-0.2","SS1613098720356","","","null","","","","","<p><img src= images/blank.png width =""200"" height = ""200"" style = ""float:right""></p><p><img src=images/blank.png width =""800"" height = ""200""></p>","","","","","","","","","","","",""
"","1068.960000295192","sequential-stimulus-presentation","157","507936","0.0-32.0-1.2","SS1613098720356","trial","","40","800","1868.960000295192","images/stimuli/spore_stims/complex_12_A_d.gif","images/stimuli/spore_stims/complex_19_A_d.gif","","","","","8","complex_dissimilar","images/stimuli/spore_stims/complex_19_A_d.gif","left","","","","",""
"","null","html-keyboard-response","158","509164","0.0-32.0-0.3","SS1613098720356","","","null","","","","","<p><img src= images/blank.png width =""200"" height = ""200"" style = ""float:right""></p><p><img src=images/blank.png width =""800"" height = ""200""></p>","","","","","","","","","","","",""
"","2221.92500019446","sequential-stimulus-presentation","159","512201","0.0-32.0-1.3","SS1613098720356","trial","","40","800","3021.92500019446","images/stimuli/spore_stims/complex_12_A_d.gif","images/stimuli/spore_stims/complex_19_A_d.gif","","","","","8","complex_dissimilar","images/stimuli/spore_stims/complex_19_A_d.gif","left","","","","",""
"","null","html-keyboard-response","160","513110","0.0-32.0-0.4","SS1613098720356","","","null","","","","","<p><img src= images/blank.png width =""200"" height = ""200"" style = ""float:right""></p><p><img src=images/blank.png width =""800"" height = ""200""></p>","","","","","","","","","","","",""
"","698.439999949187","sequential-stimulus-presentation","161","514616","0.0-32.0-1.4","SS1613098720356","trial","","40","800","1498.439999949187","images/stimuli/spore_stims/complex_12_A_d.gif","images/stimuli/spore_stims/complex_19_A_d.gif","","","","","8","complex_dissimilar","images/stimuli/spore_stims/complex_19_A_d.gif","left","","","","",""
"","null","html-keyboard-response","162","515705","0.0-32.0-0.5","SS1613098720356","","","null","","","","","<p><img src= images/blank.png width =""200"" height = ""200"" style = ""float:right""></p><p><img src=images/blank.png width =""800"" height = ""200""></p>","","","","","","","","","","","",""
"","279.99999979510903","sequential-stimulus-presentation","163","516791","0.0-32.0-1.5","SS1613098720356","trial","","40","800","1079.999999795109","images/stimuli/spore_stims/complex_12_A_d.gif","images/stimuli/spore_stims/complex_19_A_d.gif","","","","","8","complex_dissimilar","images/stimuli/spore_stims/complex_19_A_d.gif","left","","","","",""
"","null","html-keyboard-response","164","518082","0.0-32.0-0.6","SS1613098720356","","","null","","","","","<p><img src= images/blank.png width =""200"" height = ""200"" style = ""float:right""></p><p><img src=images/blank.png width =""800"" height = ""200""></p>","","","","","","","","","","","",""
"","5888.455000240356","sequential-stimulus-presentation","165","524776","0.0-32.0-1.6","SS1613098720356","trial","","40","800","6688.455000240356","images/stimuli/spore_stims/complex_12_A_d.gif","images/stimuli/spore_stims/complex_19_A_d.gif","","","","","8","complex_dissimilar","images/stimuli/spore_stims/complex_12_A_d.gif","middle","","","","",""
"","null","html-keyboard-response","166","525700","0.0-32.0-0.7","SS1613098720356","","","null","","","","","<p><img src= images/blank.png width =""200"" height = ""200"" style = ""float:right""></p><p><img src=images/blank.png width =""800"" height = ""200""></p>","","","","","","","","","","","",""
"","769.0449999645352","sequential-stimulus-presentation","167","527288","0.0-32.0-1.7","SS1613098720356","trial","","40","800","1569.0449999645352","images/stimuli/spore_stims/complex_12_A_d.gif","images/stimuli/spore_stims/complex_19_A_d.gif","","","","","8","complex_dissimilar","images/stimuli/spore_stims/complex_19_A_d.gif","left","","","","",""
"","1522.1550003625453","html-keyboard-response","168","528815","0.0-33.0","SS1613098720356","pref_question","","51","","","","","<video width ='960' height = '540' style='padding-top:8%' autoplay muted><source src='images/stimuli/wall_pref.mp4' type='video/mp4'></video>","3","right","66%","8","","","","","","","",""
"","4519.714999943972","sequential-stimulus-presentation","169","534144","0.0-34.0","SS1613098720356","pref_reveal","","40","800","5319.714999943972","null","null","","","","","8","","","","novel","","","",""
"","null","html-keyboard-response","170","535426","0.0-35.0-0.0","SS1613098720356","","","null","","","","","<p><img src= images/blank.png width =""200"" height = ""200"" style = ""float:right""></p><p><img src=images/blank.png width =""800"" height = ""200""></p>","","","","","","","","","","","",""
"","2296.4900000952184","sequential-stimulus-presentation","171","538528","0.0-35.0-1.0","SS1613098720356","trial","","40","800","3096.4900000952184","images/stimuli/spore_stims/simple_19_B_d.gif","images/stimuli/spore_stims/simple_19_A_d.gif","","","","","9","simple_similar","images/stimuli/spore_stims/simple_19_A_d.gif","right","","","","",""
"","null","html-keyboard-response","172","539474","0.0-35.0-0.1","SS1613098720356","","","null","","","","","<p><img src= images/blank.png width =""200"" height = ""200"" style = ""float:right""></p><p><img src=images/blank.png width =""800"" height = ""200""></p>","","","","","","","","","","","",""
"","359.0450002811849","sequential-stimulus-presentation","173","540639","0.0-35.0-1.1","SS1613098720356","trial","","40","800","1159.045000281185","images/stimuli/spore_stims/simple_19_B_d.gif","images/stimuli/spore_stims/simple_19_A_d.gif","","","","","9","simple_similar","images/stimuli/spore_stims/simple_19_A_d.gif","right","","","","",""
"","null","html-keyboard-response","174","541797","0.0-35.0-0.2","SS1613098720356","","","null","","","","","<p><img src= images/blank.png width =""200"" height = ""200"" style = ""float:right""></p><p><img src=images/blank.png width =""800"" height = ""200""></p>","","","","","","","","","","","",""
"","3417.1750000678003","sequential-stimulus-presentation","175","546023","0.0-35.0-1.2","SS1613098720356","trial","","40","800","4217.1750000678","images/stimuli/spore_stims/simple_19_B_d.gif","images/stimuli/spore_stims/simple_19_A_d.gif","","","","","9","simple_similar","images/stimuli/spore_stims/simple_19_B_d.gif","middle","","","","",""
"","null","html-keyboard-response","176","547228","0.0-35.0-0.3","SS1613098720356","","","null","","","","","<p><img src= images/blank.png width =""200"" height = ""200"" style = ""float:right""></p><p><img src=images/blank.png width =""800"" height = ""200""></p>","","","","","","","","","","","",""
"","1595.7750002853572","sequential-stimulus-presentation","177","549632","0.0-35.0-1.3","SS1613098720356","trial","","40","800","2395.7750002853572","images/stimuli/spore_stims/simple_19_B_d.gif","images/stimuli/spore_stims/simple_19_A_d.gif","","","","","9","simple_similar","images/stimuli/spore_stims/simple_19_A_d.gif","right","","","","",""
"","null","html-keyboard-response","178","550689","0.0-35.0-0.4","SS1613098720356","","","null","","","","","<p><img src= images/blank.png width =""200"" height = ""200"" style = ""float:right""></p><p><img src=images/blank.png width =""800"" height = ""200""></p>","","","","","","","","","","","",""
"","573.4599996358156","sequential-stimulus-presentation","179","552103","0.0-35.0-1.4","SS1613098720356","trial","","40","800","1373.4599996358156","images/stimuli/spore_stims/simple_19_B_d.gif","images/stimuli/spore_stims/simple_19_A_d.gif","","","","","9","simple_similar","images/stimuli/spore_stims/simple_19_A_d.gif","right","","","","",""
"","null","html-keyboard-response","180","553081","0.0-35.0-0.5","SS1613098720356","","","null","","","","","<p><img src= images/blank.png width =""200"" height = ""200"" style = ""float:right""></p><p><img src=images/blank.png width =""800"" height = ""200""></p>","","","","","","","","","","","",""
"","355.0450000911951","sequential-stimulus-presentation","181","554255","0.0-35.0-1.5","SS1613098720356","trial","","40","800","1155.045000091195","images/stimuli/spore_stims/simple_19_B_d.gif","images/stimuli/spore_stims/simple_19_A_d.gif","","","","","9","simple_similar","images/stimuli/spore_stims/simple_19_A_d.gif","right","","","","",""
"","null","html-keyboard-response","182","555062","0.0-35.0-0.6","SS1613098720356","","","null","","","","","<p><img src= images/blank.png width =""200"" height = ""200"" style = ""float:right""></p><p><img src=images/blank.png width =""800"" height = ""200""></p>","","","","","","","","","","","",""
"","377.91499961167574","sequential-stimulus-presentation","183","556247","0.0-35.0-1.6","SS1613098720356","trial","","40","800","1177.9149996116757","images/stimuli/spore_stims/simple_19_B_d.gif","images/stimuli/spore_stims/simple_19_A_d.gif","","","","","9","simple_similar","images/stimuli/spore_stims/simple_19_A_d.gif","right","","","","",""
"","null","html-keyboard-response","184","557392","0.0-35.0-0.7","SS1613098720356","","","null","","","","","<p><img src= images/blank.png width =""200"" height = ""200"" style = ""float:right""></p><p><img src=images/blank.png width =""800"" height = ""200""></p>","","","","","","","","","","","",""
"","359.8750000819564","sequential-stimulus-presentation","185","558559","0.0-35.0-1.7","SS1613098720356","trial","","40","800","1159.8750000819564","images/stimuli/spore_stims/simple_19_B_d.gif","images/stimuli/spore_stims/simple_19_A_d.gif","","","","","9","simple_similar","images/stimuli/spore_stims/simple_19_A_d.gif","right","","","","",""
"","1418.9550001174212","html-keyboard-response","186","559984","0.0-36.0","SS1613098720356","pref_question","","49","","","","","<video width ='960' height = '540' style='padding-top:8%' autoplay muted><source src='images/stimuli/wall_pref.mp4' type='video/mp4'></video>","1","left","25%","9","","","","","","","",""
"","4310.484999790788","sequential-stimulus-presentation","187","565103","0.0-37.0","SS1613098720356","pref_reveal","","40","800","5110.484999790788","null","null","","","","","9","","","","novel","","","",""
"","null","html-keyboard-response","188","566368","0.0-38.0-0.0","SS1613098720356","","","null","","","","","<p><img src= images/blank.png width =""200"" height = ""200"" style = ""float:right""></p><p><img src=images/blank.png width =""800"" height = ""200""></p>","","","","","","","","","","","",""
"","3438.0499999970198","sequential-stimulus-presentation","189","570656","0.0-38.0-1.0","SS1613098720356","trial","","40","800","4238.04999999702","images/stimuli/spore_stims/complex_17_A_d.gif","images/stimuli/spore_stims/complex_10_A_d.gif","","","","","10","complex_dissimilar","images/stimuli/spore_stims/complex_10_A_d.gif","left","","","","",""
"","null","html-keyboard-response","190","571935","0.0-38.0-0.1","SS1613098720356","","","null","","","","","<p><img src= images/blank.png width =""200"" height = ""200"" style = ""float:right""></p><p><img src=images/blank.png width =""800"" height = ""200""></p>","","","","","","","","","","","",""
"","301.4050000347197","sequential-stimulus-presentation","191","573048","0.0-38.0-1.1","SS1613098720356","trial","","40","800","1101.4050000347197","images/stimuli/spore_stims/complex_17_A_d.gif","images/stimuli/spore_stims/complex_10_A_d.gif","","","","","10","complex_dissimilar","images/stimuli/spore_stims/complex_10_A_d.gif","left","","","","",""
"","null","html-keyboard-response","192","573972","0.0-38.0-0.2","SS1613098720356","","","null","","","","","<p><img src= images/blank.png width =""200"" height = ""200"" style = ""float:right""></p><p><img src=images/blank.png width =""800"" height = ""200""></p>","","","","","","","","","","","",""
"","3868.474999908358","sequential-stimulus-presentation","193","578648","0.0-38.0-1.2","SS1613098720356","trial","","40","800","4668.474999908358","images/stimuli/spore_stims/complex_17_A_d.gif","images/stimuli/spore_stims/complex_10_A_d.gif","","","","","10","complex_dissimilar","images/stimuli/spore_stims/complex_17_A_d.gif","right","","","","",""
"","null","html-keyboard-response","194","579563","0.0-38.0-0.3","SS1613098720356","","","null","","","","","<p><img src= images/blank.png width =""200"" height = ""200"" style = ""float:right""></p><p><img src=images/blank.png width =""800"" height = ""200""></p>","","","","","","","","","","","",""
"","589.9300002492964","sequential-stimulus-presentation","195","580976","0.0-38.0-1.3","SS1613098720356","trial","","40","800","1389.9300002492964","images/stimuli/spore_stims/complex_17_A_d.gif","images/stimuli/spore_stims/complex_10_A_d.gif","","","","","10","complex_dissimilar","images/stimuli/spore_stims/complex_10_A_d.gif","left","","","","",""
"","null","html-keyboard-response","196","581888","0.0-38.0-0.4","SS1613098720356","","","null","","","","","<p><img src= images/blank.png width =""200"" height = ""200"" style = ""float:right""></p><p><img src=images/blank.png width =""800"" height = ""200""></p>","","","","","","","","","","","",""
"","296.5349997393787","sequential-stimulus-presentation","197","582991","0.0-38.0-1.4","SS1613098720356","trial","","40","800","1096.5349997393787","images/stimuli/spore_stims/complex_17_A_d.gif","images/stimuli/spore_stims/complex_10_A_d.gif","","","","","10","complex_dissimilar","images/stimuli/spore_stims/complex_10_A_d.gif","left","","","","",""
"","null","html-keyboard-response","198","583950","0.0-38.0-0.5","SS1613098720356","","","null","","","","","<p><img src= images/blank.png width =""200"" height = ""200"" style = ""float:right""></p><p><img src=images/blank.png width =""800"" height = ""200""></p>","","","","","","","","","","","",""
"","1050.554999615997","sequential-stimulus-presentation","199","585816","0.0-38.0-1.5","SS1613098720356","trial","","40","800","1850.554999615997","images/stimuli/spore_stims/complex_17_A_d.gif","images/stimuli/spore_stims/complex_10_A_d.gif","","","","","10","complex_dissimilar","images/stimuli/spore_stims/complex_10_A_d.gif","left","","","","",""
"","null","html-keyboard-response","200","587066","0.0-38.0-0.6","SS1613098720356","","","null","","","","","<p><img src= images/blank.png width =""200"" height = ""200"" style = ""float:right""></p><p><img src=images/blank.png width =""800"" height = ""200""></p>","","","","","","","","","","","",""
"","446.09500002115965","sequential-stimulus-presentation","201","588335","0.0-38.0-1.6","SS1613098720356","trial","","40","800","1246.0950000211596","images/stimuli/spore_stims/complex_17_A_d.gif","images/stimuli/spore_stims/complex_10_A_d.gif","","","","","10","complex_dissimilar","images/stimuli/spore_stims/complex_10_A_d.gif","left","","","","",""
"","null","html-keyboard-response","202","589600","0.0-38.0-0.7","SS1613098720356","","","null","","","","","<p><img src= images/blank.png width =""200"" height = ""200"" style = ""float:right""></p><p><img src=images/blank.png width =""800"" height = ""200""></p>","","","","","","","","","","","",""
"","414.36500009149313","sequential-stimulus-presentation","203","590823","0.0-38.0-1.7","SS1613098720356","trial","","40","800","1214.3650000914931","images/stimuli/spore_stims/complex_17_A_d.gif","images/stimuli/spore_stims/complex_10_A_d.gif","","","","","10","complex_dissimilar","images/stimuli/spore_stims/complex_10_A_d.gif","left","","","","",""
"","1448.629999998957","html-keyboard-response","204","592280","0.0-39.0","SS1613098720356","pref_question","","50","","","","","<video width ='960' height = '540' style='padding-top:8%' autoplay muted><source src='images/stimuli/wall_pref.mp4' type='video/mp4'></video>","2","middle","45%","10","","","","","","","",""
"","3478.5150000825524","sequential-stimulus-presentation","205","596567","0.0-40.0","SS1613098720356","pref_reveal","","40","800","4278.515000082552","null","null","","","","","10","","","","novel","","","",""
"","null","html-keyboard-response","206","597554","0.0-41.0-0.0","SS1613098720356","","","null","","","","","<p><img src= images/blank.png width =""200"" height = ""200"" style = ""float:right""></p><p><img src=images/blank.png width =""800"" height = ""200""></p>","","","","","","","","","","","",""
"","1080.7500001974404","sequential-stimulus-presentation","207","599463","0.0-41.0-1.0","SS1613098720356","trial","","40","800","1880.7500001974404","images/stimuli/spore_stims/complex_14_A_a.gif","images/stimuli/spore_stims/complex_08_B_d.gif","","","","","11","complex_dissimilar","images/stimuli/spore_stims/complex_08_B_d.gif","right","","","","",""
"","null","html-keyboard-response","208","600714","0.0-41.0-0.1","SS1613098720356","","","null","","","","","<p><img src= images/blank.png width =""200"" height = ""200"" style = ""float:right""></p><p><img src=images/blank.png width =""800"" height = ""200""></p>","","","","","","","","","","","",""
"","244.53000025823712","sequential-stimulus-presentation","209","601767","0.0-41.0-1.1","SS1613098720356","trial","","40","800","1044.5300002582371","images/stimuli/spore_stims/complex_14_A_a.gif","images/stimuli/spore_stims/complex_08_B_d.gif","","","","","11","complex_dissimilar","images/stimuli/spore_stims/complex_08_B_d.gif","right","","","","",""
"","null","html-keyboard-response","210","603028","0.0-41.0-0.2","SS1613098720356","","","null","","","","","<p><img src= images/blank.png width =""200"" height = ""200"" style = ""float:right""></p><p><img src=images/blank.png width =""800"" height = ""200""></p>","","","","","","","","","","","",""
"","220.8449998870492","sequential-stimulus-presentation","211","604056","0.0-41.0-1.2","SS1613098720356","trial","","40","800","1020.8449998870492","images/stimuli/spore_stims/complex_14_A_a.gif","images/stimuli/spore_stims/complex_08_B_d.gif","","","","","11","complex_dissimilar","images/stimuli/spore_stims/complex_08_B_d.gif","right","","","","",""
"","null","html-keyboard-response","212","605073","0.0-41.0-0.3","SS1613098720356","","","null","","","","","<p><img src= images/blank.png width =""200"" height = ""200"" style = ""float:right""></p><p><img src=images/blank.png width =""800"" height = ""200""></p>","","","","","","","","","","","",""
"","643.7049997039139","sequential-stimulus-presentation","213","606527","0.0-41.0-1.3","SS1613098720356","trial","","40","800","1443.704999703914","images/stimuli/spore_stims/complex_14_A_a.gif","images/stimuli/spore_stims/complex_08_B_d.gif","","","","","11","complex_dissimilar","images/stimuli/spore_stims/complex_08_B_d.gif","right","","","","",""
"","null","html-keyboard-response","214","607723","0.0-41.0-0.4","SS1613098720356","","","null","","","","","<p><img src= images/blank.png width =""200"" height = ""200"" style = ""float:right""></p><p><img src=images/blank.png width =""800"" height = ""200""></p>","","","","","","","","","","","",""
"","1652.0899999886751","sequential-stimulus-presentation","215","610183","0.0-41.0-1.4","SS1613098720356","trial","","40","800","2452.089999988675","images/stimuli/spore_stims/complex_14_A_a.gif","images/stimuli/spore_stims/complex_08_B_d.gif","","","","","11","complex_dissimilar","images/stimuli/spore_stims/complex_08_B_d.gif","right","","","","",""
"","null","html-keyboard-response","216","611426","0.0-41.0-0.5","SS1613098720356","","","null","","","","","<p><img src= images/blank.png width =""200"" height = ""200"" style = ""float:right""></p><p><img src=images/blank.png width =""800"" height = ""200""></p>","","","","","","","","","","","",""
"","2636.1650000326335","sequential-stimulus-presentation","217","614872","0.0-41.0-1.5","SS1613098720356","trial","","40","800","3436.1650000326335","images/stimuli/spore_stims/complex_14_A_a.gif","images/stimuli/spore_stims/complex_08_B_d.gif","","","","","11","complex_dissimilar","images/stimuli/spore_stims/complex_14_A_a.gif","left","","","","",""
"","null","html-keyboard-response","218","615820","0.0-41.0-0.6","SS1613098720356","","","null","","","","","<p><img src= images/blank.png width =""200"" height = ""200"" style = ""float:right""></p><p><img src=images/blank.png width =""800"" height = ""200""></p>","","","","","","","","","","","",""
"","1586.8349997326732","sequential-stimulus-presentation","219","618215","0.0-41.0-1.6","SS1613098720356","trial","","40","800","2386.834999732673","images/stimuli/spore_stims/complex_14_A_a.gif","images/stimuli/spore_stims/complex_08_B_d.gif","","","","","11","complex_dissimilar","images/stimuli/spore_stims/complex_08_B_d.gif","right","","","","",""
"","null","html-keyboard-response","220","619344","0.0-41.0-0.7","SS1613098720356","","","null","","","","","<p><img src= images/blank.png width =""200"" height = ""200"" style = ""float:right""></p><p><img src=images/blank.png width =""800"" height = ""200""></p>","","","","","","","","","","","",""
"","319.02999989688396","sequential-stimulus-presentation","221","620494","0.0-41.0-1.7","SS1613098720356","trial","","40","800","1119.029999896884","images/stimuli/spore_stims/complex_14_A_a.gif","images/stimuli/spore_stims/complex_08_B_d.gif","","","","","11","complex_dissimilar","images/stimuli/spore_stims/complex_08_B_d.gif","right","","","","",""
"","1168.9050002023578","html-keyboard-response","222","621671","0.0-42.0","SS1613098720356","pref_question","","50","","","","","<video width ='960' height = '540' style='padding-top:8%' autoplay muted><source src='images/stimuli/wall_pref.mp4' type='video/mp4'></video>","2","middle","45%","11","","","","","","","",""
"","3648.67000002414","sequential-stimulus-presentation","223","626128","0.0-43.0","SS1613098720356","pref_reveal","","40","800","4448.67000002414","null","null","","","","","11","","","","novel","","","",""
"","null","html-keyboard-response","224","627028","0.0-44.0-0.0","SS1613098720356","","","null","","","","","<p><img src= images/blank.png width =""200"" height = ""200"" style = ""float:right""></p><p><img src=images/blank.png width =""800"" height = ""200""></p>","","","","","","","","","","","",""
"","3602.849999908358","sequential-stimulus-presentation","225","631439","0.0-44.0-1.0","SS1613098720356","trial","","40","800","4402.849999908358","images/stimuli/spore_stims/simple_20_A_a.gif","images/stimuli/spore_stims/simple_20_B_a.gif","","","","","12","simple_similar","images/stimuli/spore_stims/simple_20_B_a.gif","right","","","","",""
"","null","html-keyboard-response","226","632483","0.0-44.0-0.1","SS1613098720356","","","null","","","","","<p><img src= images/blank.png width =""200"" height = ""200"" style = ""float:right""></p><p><img src=images/blank.png width =""800"" height = ""200""></p>","","","","","","","","","","","",""
"","1434.235000051558","sequential-stimulus-presentation","227","634727","0.0-44.0-1.1","SS1613098720356","trial","","40","800","2234.235000051558","images/stimuli/spore_stims/simple_20_A_a.gif","images/stimuli/spore_stims/simple_20_B_a.gif","","","","","12","simple_similar","images/stimuli/spore_stims/simple_20_B_a.gif","right","","","","",""
"","null","html-keyboard-response","228","635997","0.0-44.0-0.2","SS1613098720356","","","null","","","","","<p><img src= images/blank.png width =""200"" height = ""200"" style = ""float:right""></p><p><img src=images/blank.png width =""800"" height = ""200""></p>","","","","","","","","","","","",""
"","354.9649999476969","sequential-stimulus-presentation","229","637160","0.0-44.0-1.2","SS1613098720356","trial","","40","800","1154.964999947697","images/stimuli/spore_stims/simple_20_A_a.gif","images/stimuli/spore_stims/simple_20_B_a.gif","","","","","12","simple_similar","images/stimuli/spore_stims/simple_20_B_a.gif","right","","","","",""
"","null","html-keyboard-response","230","638193","0.0-44.0-0.3","SS1613098720356","","","null","","","","","<p><img src= images/blank.png width =""200"" height = ""200"" style = ""float:right""></p><p><img src=images/blank.png width =""800"" height = ""200""></p>","","","","","","","","","","","",""
"","1565.515000373125","sequential-stimulus-presentation","231","640567","0.0-44.0-1.3","SS1613098720356","trial","","40","800","2365.515000373125","images/stimuli/spore_stims/simple_20_A_a.gif","images/stimuli/spore_stims/simple_20_B_a.gif","","","","","12","simple_similar","images/stimuli/spore_stims/simple_20_B_a.gif","right","","","","",""
"","null","html-keyboard-response","232","641653","0.0-44.0-0.4","SS1613098720356","","","null","","","","","<p><img src= images/blank.png width =""200"" height = ""200"" style = ""float:right""></p><p><img src=images/blank.png width =""800"" height = ""200""></p>","","","","","","","","","","","",""
"","2903.150000143796","sequential-stimulus-presentation","233","645367","0.0-44.0-1.4","SS1613098720356","trial","","40","800","3703.150000143796","images/stimuli/spore_stims/simple_20_A_a.gif","images/stimuli/spore_stims/simple_20_B_a.gif","","","","","12","simple_similar","images/stimuli/spore_stims/simple_20_A_a.gif","left","","","","",""
"","null","html-keyboard-response","234","646610","0.0-44.0-0.5","SS1613098720356","","","null","","","","","<p><img src= images/blank.png width =""200"" height = ""200"" style = ""float:right""></p><p><img src=images/blank.png width =""800"" height = ""200""></p>","","","","","","","","","","","",""
"","2055.424999911338","sequential-stimulus-presentation","235","649480","0.0-44.0-1.5","SS1613098720356","trial","","40","800","2855.424999911338","images/stimuli/spore_stims/simple_20_A_a.gif","images/stimuli/spore_stims/simple_20_B_a.gif","","","","","12","simple_similar","images/stimuli/spore_stims/simple_20_B_a.gif","right","","","","",""
"","null","html-keyboard-response","236","650361","0.0-44.0-0.6","SS1613098720356","","","null","","","","","<p><img src= images/blank.png width =""200"" height = ""200"" style = ""float:right""></p><p><img src=images/blank.png width =""800"" height = ""200""></p>","","","","","","","","","","","",""
"","346.70000011101365","sequential-stimulus-presentation","237","651519","0.0-44.0-1.6","SS1613098720356","trial","","40","800","1146.7000001110137","images/stimuli/spore_stims/simple_20_A_a.gif","images/stimuli/spore_stims/simple_20_B_a.gif","","","","","12","simple_similar","images/stimuli/spore_stims/simple_20_B_a.gif","right","","","","",""
"","null","html-keyboard-response","238","652533","0.0-44.0-0.7","SS1613098720356","","","null","","","","","<p><img src= images/blank.png width =""200"" height = ""200"" style = ""float:right""></p><p><img src=images/blank.png width =""800"" height = ""200""></p>","","","","","","","","","","","",""
"","226.34499985724688","sequential-stimulus-presentation","239","653575","0.0-44.0-1.7","SS1613098720356","trial","","40","800","1026.3449998572469","images/stimuli/spore_stims/simple_20_A_a.gif","images/stimuli/spore_stims/simple_20_B_a.gif","","","","","12","simple_similar","images/stimuli/spore_stims/simple_20_B_a.gif","right","","","","",""
"","1296.8350001610816","html-keyboard-response","240","654879","0.0-45.0","SS1613098720356","pref_question","","50","","","","","<video width ='960' height = '540' style='padding-top:8%' autoplay muted><source src='images/stimuli/wall_pref.mp4' type='video/mp4'></video>","2","middle","45%","12","","","","","","","",""
"","3510.1300003007054","sequential-stimulus-presentation","241","659200","0.0-46.0","SS1613098720356","pref_reveal","","40","800","4310.130000300705","null","null","","","","","12","","","","novel","","","",""
"","null","html-keyboard-response","242","660377","0.0-47.0-0.0","SS1613098720356","","","null","","","","","<p><img src= images/blank.png width =""200"" height = ""200"" style = ""float:right""></p><p><img src=images/blank.png width =""800"" height = ""200""></p>","","","","","","","","","","","",""
"","2078.3649999648333","sequential-stimulus-presentation","243","663271","0.0-47.0-1.0","SS1613098720356","trial","","40","800","2878.3649999648333","images/stimuli/spore_stims/simple_16_B_b.gif","images/stimuli/spore_stims/simple_09_A_d.gif","","","","","13","simple_dissimilar","images/stimuli/spore_stims/simple_09_A_d.gif","middle","","","","",""
"","null","html-keyboard-response","244","664274","0.0-47.0-0.1","SS1613098720356","","","null","","","","","<p><img src= images/blank.png width =""200"" height = ""200"" style = ""float:right""></p><p><img src=images/blank.png width =""800"" height = ""200""></p>","","","","","","","","","","","",""
"","356.3899998553097","sequential-stimulus-presentation","245","665463","0.0-47.0-1.1","SS1613098720356","trial","","40","800","1156.3899998553097","images/stimuli/spore_stims/simple_16_B_b.gif","images/stimuli/spore_stims/simple_09_A_d.gif","","","","","13","simple_dissimilar","images/stimuli/spore_stims/simple_09_A_d.gif","middle","","","","",""
"","null","html-keyboard-response","246","666360","0.0-47.0-0.2","SS1613098720356","","","null","","","","","<p><img src= images/blank.png width =""200"" height = ""200"" style = ""float:right""></p><p><img src=images/blank.png width =""800"" height = ""200""></p>","","","","","","","","","","","",""
"","238.89000015333295","sequential-stimulus-presentation","247","667407","0.0-47.0-1.2","SS1613098720356","trial","","40","800","1038.890000153333","images/stimuli/spore_stims/simple_16_B_b.gif","images/stimuli/spore_stims/simple_09_A_d.gif","","","","","13","simple_dissimilar","images/stimuli/spore_stims/simple_09_A_d.gif","middle","","","","",""
"","null","html-keyboard-response","248","668623","0.0-47.0-0.3","SS1613098720356","","","null","","","","","<p><img src= images/blank.png width =""200"" height = ""200"" style = ""float:right""></p><p><img src=images/blank.png width =""800"" height = ""200""></p>","","","","","","","","","","","",""
"","359.6199997700751","sequential-stimulus-presentation","249","669791","0.0-47.0-1.3","SS1613098720356","trial","","40","800","1159.619999770075","images/stimuli/spore_stims/simple_16_B_b.gif","images/stimuli/spore_stims/simple_09_A_d.gif","","","","","13","simple_dissimilar","images/stimuli/spore_stims/simple_09_A_d.gif","middle","","","","",""
"","null","html-keyboard-response","250","670900","0.0-47.0-0.4","SS1613098720356","","","null","","","","","<p><img src= images/blank.png width =""200"" height = ""200"" style = ""float:right""></p><p><img src=images/blank.png width =""800"" height = ""200""></p>","","","","","","","","","","","",""
"","326.1150000616908","sequential-stimulus-presentation","251","672039","0.0-47.0-1.4","SS1613098720356","trial","","40","800","1126.1150000616908","images/stimuli/spore_stims/simple_16_B_b.gif","images/stimuli/spore_stims/simple_09_A_d.gif","","","","","13","simple_dissimilar","images/stimuli/spore_stims/simple_09_A_d.gif","middle","","","","",""
"","null","html-keyboard-response","252","673146","0.0-47.0-0.5","SS1613098720356","","","null","","","","","<p><img src= images/blank.png width =""200"" height = ""200"" style = ""float:right""></p><p><img src=images/blank.png width =""800"" height = ""200""></p>","","","","","","","","","","","",""
"","5210.8399998396635","sequential-stimulus-presentation","253","679168","0.0-47.0-1.5","SS1613098720356","trial","","40","800","6010.8399998396635","images/stimuli/spore_stims/simple_16_B_b.gif","images/stimuli/spore_stims/simple_09_A_d.gif","","","","","13","simple_dissimilar","images/stimuli/spore_stims/simple_16_B_b.gif","left","","","","",""
"","null","html-keyboard-response","254","680321","0.0-47.0-0.6","SS1613098720356","","","null","","","","","<p><img src= images/blank.png width =""200"" height = ""200"" style = ""float:right""></p><p><img src=images/blank.png width =""800"" height = ""200""></p>","","","","","","","","","","","",""
"","1966.7149996384978","sequential-stimulus-presentation","255","683095","0.0-47.0-1.6","SS1613098720356","trial","","40","800","2766.714999638498","images/stimuli/spore_stims/simple_16_B_b.gif","images/stimuli/spore_stims/simple_09_A_d.gif","","","","","13","simple_dissimilar","images/stimuli/spore_stims/simple_09_A_d.gif","middle","","","","",""
"","null","html-keyboard-response","256","684367","0.0-47.0-0.7","SS1613098720356","","","null","","","","","<p><img src= images/blank.png width =""200"" height = ""200"" style = ""float:right""></p><p><img src=images/blank.png width =""800"" height = ""200""></p>","","","","","","","","","","","",""
"","430.180000141263","sequential-stimulus-presentation","257","685607","0.0-47.0-1.7","SS1613098720356","trial","","40","800","1230.180000141263","images/stimuli/spore_stims/simple_16_B_b.gif","images/stimuli/spore_stims/simple_09_A_d.gif","","","","","13","simple_dissimilar","images/stimuli/spore_stims/simple_09_A_d.gif","middle","","","","",""
"","1537.8049998544157","html-keyboard-response","258","687151","0.0-48.0","SS1613098720356","pref_question","","51","","","","","<video width ='960' height = '540' style='padding-top:8%' autoplay muted><source src='images/stimuli/wall_pref.mp4' type='video/mp4'></video>","3","right","66%","13","","","","","","","",""
"","4248.205000068992","sequential-stimulus-presentation","259","692208","0.0-49.0","SS1613098720356","pref_reveal","","40","800","5048.205000068992","null","null","","","","","13","","","","novel","","","",""
"","null","html-keyboard-response","260","693095","0.0-50.0-0.0","SS1613098720356","","","null","","","","","<p><img src= images/blank.png width =""200"" height = ""200"" style = ""float:right""></p><p><img src=images/blank.png width =""800"" height = ""200""></p>","","","","","","","","","","","",""
"","1604.599999729544","sequential-stimulus-presentation","261","695511","0.0-50.0-1.0","SS1613098720356","trial","","40","800","2404.599999729544","images/stimuli/spore_stims/simple_08_A_c.gif","images/stimuli/spore_stims/simple_08_B_c.gif","","","","","14","simple_similar","images/stimuli/spore_stims/simple_08_B_c.gif","middle","","","","",""
"","null","html-keyboard-response","262","696323","0.0-50.0-0.1","SS1613098720356","","","null","","","","","<p><img src= images/blank.png width =""200"" height = ""200"" style = ""float:right""></p><p><img src=images/blank.png width =""800"" height = ""200""></p>","","","","","","","","","","","",""
"","1196.6249998658895","sequential-stimulus-presentation","263","698328","0.0-50.0-1.1","SS1613098720356","trial","","40","800","1996.6249998658895","images/stimuli/spore_stims/simple_08_A_c.gif","images/stimuli/spore_stims/simple_08_B_c.gif","","","","","14","simple_similar","images/stimuli/spore_stims/simple_08_B_c.gif","middle","","","","",""
"","null","html-keyboard-response","264","699201","0.0-50.0-0.2","SS1613098720356","","","null","","","","","<p><img src= images/blank.png width =""200"" height = ""200"" style = ""float:right""></p><p><img src=images/blank.png width =""800"" height = ""200""></p>","","","","","","","","","","","",""
"","763.7849999591708","sequential-stimulus-presentation","265","700775","0.0-50.0-1.2","SS1613098720356","trial","","40","800","1563.7849999591708","images/stimuli/spore_stims/simple_08_A_c.gif","images/stimuli/spore_stims/simple_08_B_c.gif","","","","","14","simple_similar","images/stimuli/spore_stims/simple_08_B_c.gif","middle","","","","",""
"","null","html-keyboard-response","266","701856","0.0-50.0-0.3","SS1613098720356","","","null","","","","","<p><img src= images/blank.png width =""200"" height = ""200"" style = ""float:right""></p><p><img src=images/blank.png width =""800"" height = ""200""></p>","","","","","","","","","","","",""
"","3059.829999692738","sequential-stimulus-presentation","267","705728","0.0-50.0-1.3","SS1613098720356","trial","","40","800","3859.829999692738","images/stimuli/spore_stims/simple_08_A_c.gif","images/stimuli/spore_stims/simple_08_B_c.gif","","","","","14","simple_similar","images/stimuli/spore_stims/simple_08_A_c.gif","left","","","","",""
"","null","html-keyboard-response","268","706922","0.0-50.0-0.4","SS1613098720356","","","null","","","","","<p><img src= images/blank.png width =""200"" height = ""200"" style = ""float:right""></p><p><img src=images/blank.png width =""800"" height = ""200""></p>","","","","","","","","","","","",""
"","2170.189999975264","sequential-stimulus-presentation","269","709903","0.0-50.0-1.4","SS1613098720356","trial","","40","800","2970.189999975264","images/stimuli/spore_stims/simple_08_A_c.gif","images/stimuli/spore_stims/simple_08_B_c.gif","","","","","14","simple_similar","images/stimuli/spore_stims/simple_08_B_c.gif","middle","","","","",""
"","null","html-keyboard-response","270","710875","0.0-50.0-0.5","SS1613098720356","","","null","","","","","<p><img src= images/blank.png width =""200"" height = ""200"" style = ""float:right""></p><p><img src=images/blank.png width =""800"" height = ""200""></p>","","","","","","","","","","","",""
"","1974.420000333339","sequential-stimulus-presentation","271","713695","0.0-50.0-1.5","SS1613098720356","trial","","40","800","2774.420000333339","images/stimuli/spore_stims/simple_08_A_c.gif","images/stimuli/spore_stims/simple_08_B_c.gif","","","","","14","simple_similar","images/stimuli/spore_stims/simple_08_B_c.gif","middle","","","","",""
"","null","html-keyboard-response","272","714911","0.0-50.0-0.6","SS1613098720356","","","null","","","","","<p><img src= images/blank.png width =""200"" height = ""200"" style = ""float:right""></p><p><img src=images/blank.png width =""800"" height = ""200""></p>","","","","","","","","","","","",""
"","1312.4649999663234","sequential-stimulus-presentation","273","717032","0.0-50.0-1.6","SS1613098720356","trial","","40","800","2112.4649999663234","images/stimuli/spore_stims/simple_08_A_c.gif","images/stimuli/spore_stims/simple_08_B_c.gif","","","","","14","simple_similar","images/stimuli/spore_stims/simple_08_B_c.gif","middle","","","","",""
"","null","html-keyboard-response","274","718185","0.0-50.0-0.7","SS1613098720356","","","null","","","","","<p><img src= images/blank.png width =""200"" height = ""200"" style = ""float:right""></p><p><img src=images/blank.png width =""800"" height = ""200""></p>","","","","","","","","","","","",""
"","885.329999960959","sequential-stimulus-presentation","275","719879","0.0-50.0-1.7","SS1613098720356","trial","","40","800","1685.329999960959","images/stimuli/spore_stims/simple_08_A_c.gif","images/stimuli/spore_stims/simple_08_B_c.gif","","","","","14","simple_similar","images/stimuli/spore_stims/simple_08_B_c.gif","middle","","","","",""
"","2549.8999999836087","html-keyboard-response","276","722463","0.0-51.0","SS1613098720356","pref_question","","51","","","","","<video width ='960' height = '540' style='padding-top:8%' autoplay muted><source src='images/stimuli/wall_pref.mp4' type='video/mp4'></video>","3","right","66%","14","","","","","","","",""
"","4262.8650004044175","sequential-stimulus-presentation","277","727536","0.0-52.0","SS1613098720356","pref_reveal","","40","800","5062.8650004044175","null","null","","","","","14","","","","novel","","","",""
"","null","html-keyboard-response","278","728375","0.0-53.0-0.0","SS1613098720356","","","null","","","","","<p><img src= images/blank.png width =""200"" height = ""200"" style = ""float:right""></p><p><img src=images/blank.png width =""800"" height = ""200""></p>","","","","","","","","","","","",""
"","1133.2849999889731","sequential-stimulus-presentation","279","730319","0.0-53.0-1.0","SS1613098720356","trial","","40","800","1933.2849999889731","images/stimuli/spore_stims/complex_03_A_b.gif","images/stimuli/spore_stims/complex_03_B_b.gif","","","","","15","complex_similar","images/stimuli/spore_stims/complex_03_B_b.gif","right","","","","",""
"","null","html-keyboard-response","280","731332","0.0-53.0-0.1","SS1613098720356","","","null","","","","","<p><img src= images/blank.png width =""200"" height = ""200"" style = ""float:right""></p><p><img src=images/blank.png width =""800"" height = ""200""></p>","","","","","","","","","","","",""
"","2090.40499990806","sequential-stimulus-presentation","281","734232","0.0-53.0-1.1","SS1613098720356","trial","","40","800","2890.40499990806","images/stimuli/spore_stims/complex_03_A_b.gif","images/stimuli/spore_stims/complex_03_B_b.gif","","","","","15","complex_similar","images/stimuli/spore_stims/complex_03_B_b.gif","right","","","","",""
"","null","html-keyboard-response","282","735393","0.0-53.0-0.2","SS1613098720356","","","null","","","","","<p><img src= images/blank.png width =""200"" height = ""200"" style = ""float:right""></p><p><img src=images/blank.png width =""800"" height = ""200""></p>","","","","","","","","","","","",""
"","325.5199999548495","sequential-stimulus-presentation","283","736527","0.0-53.0-1.2","SS1613098720356","trial","","40","800","1125.5199999548495","images/stimuli/spore_stims/complex_03_A_b.gif","images/stimuli/spore_stims/complex_03_B_b.gif","","","","","15","complex_similar","images/stimuli/spore_stims/complex_03_B_b.gif","right","","","","",""
"","null","html-keyboard-response","284","737472","0.0-53.0-0.3","SS1613098720356","","","null","","","","","<p><img src= images/blank.png width =""200"" height = ""200"" style = ""float:right""></p><p><img src=images/blank.png width =""800"" height = ""200""></p>","","","","","","","","","","","",""
"","204.78500006720424","sequential-stimulus-presentation","285","738488","0.0-53.0-1.3","SS1613098720356","trial","","40","800","1004.7850000672042","images/stimuli/spore_stims/complex_03_A_b.gif","images/stimuli/spore_stims/complex_03_B_b.gif","","","","","15","complex_similar","images/stimuli/spore_stims/complex_03_B_b.gif","right","","","","",""
"","null","html-keyboard-response","286","739535","0.0-53.0-0.4","SS1613098720356","","","null","","","","","<p><img src= images/blank.png width =""200"" height = ""200"" style = ""float:right""></p><p><img src=images/blank.png width =""800"" height = ""200""></p>","","","","","","","","","","","",""
"","342.6049998961389","sequential-stimulus-presentation","287","740687","0.0-53.0-1.4","SS1613098720356","trial","","40","800","1142.604999896139","images/stimuli/spore_stims/complex_03_A_b.gif","images/stimuli/spore_stims/complex_03_B_b.gif","","","","","15","complex_similar","images/stimuli/spore_stims/complex_03_B_b.gif","right","","","","",""
"","null","html-keyboard-response","288","741966","0.0-53.0-0.5","SS1613098720356","","","null","","","","","<p><img src= images/blank.png width =""200"" height = ""200"" style = ""float:right""></p><p><img src=images/blank.png width =""800"" height = ""200""></p>","","","","","","","","","","","",""
"","215.66999983042479","sequential-stimulus-presentation","289","742991","0.0-53.0-1.5","SS1613098720356","trial","","40","800","1015.6699998304248","images/stimuli/spore_stims/complex_03_A_b.gif","images/stimuli/spore_stims/complex_03_B_b.gif","","","","","15","complex_similar","images/stimuli/spore_stims/complex_03_B_b.gif","right","","","","",""
"","null","html-keyboard-response","290","743972","0.0-53.0-0.6","SS1613098720356","","","null","","","","","<p><img src= images/blank.png width =""200"" height = ""200"" style = ""float:right""></p><p><img src=images/blank.png width =""800"" height = ""200""></p>","","","","","","","","","","","",""
"","2226.3599997386336","sequential-stimulus-presentation","291","747007","0.0-53.0-1.6","SS1613098720356","trial","","40","800","3026.3599997386336","images/stimuli/spore_stims/complex_03_A_b.gif","images/stimuli/spore_stims/complex_03_B_b.gif","","","","","15","complex_similar","images/stimuli/spore_stims/complex_03_A_b.gif","middle","","","","",""
"","null","html-keyboard-response","292","747856","0.0-53.0-0.7","SS1613098720356","","","null","","","","","<p><img src= images/blank.png width =""200"" height = ""200"" style = ""float:right""></p><p><img src=images/blank.png width =""800"" height = ""200""></p>","","","","","","","","","","","",""
"","1482.6199999079108","sequential-stimulus-presentation","293","750184","0.0-53.0-1.7","SS1613098720356","trial","","40","800","2282.619999907911","images/stimuli/spore_stims/complex_03_A_b.gif","images/stimuli/spore_stims/complex_03_B_b.gif","","","","","15","complex_similar","images/stimuli/spore_stims/complex_03_B_b.gif","right","","","","",""
"","1535.5500001460314","html-keyboard-response","294","751727","0.0-54.0","SS1613098720356","pref_question","","49","","","","","<video width ='960' height = '540' style='padding-top:8%' autoplay muted><source src='images/stimuli/wall_pref.mp4' type='video/mp4'></video>","1","left","25%","15","","","","","","","",""
"","4204.330000095069","sequential-stimulus-presentation","295","756743","0.0-55.0","SS1613098720356","pref_reveal","","40","800","5004.330000095069","null","null","","","","","15","","","","novel","","","",""
"","null","html-keyboard-response","296","757876","0.0-56.0-0.0","SS1613098720356","","","null","","","","","<p><img src= images/blank.png width =""200"" height = ""200"" style = ""float:right""></p><p><img src=images/blank.png width =""800"" height = ""200""></p>","","","","","","","","","","","",""
"","1405.4849999956787","sequential-stimulus-presentation","297","760095","0.0-56.0-1.0","SS1613098720356","trial","","40","800","2205.4849999956787","images/stimuli/spore_stims/complex_12_A_a.gif","images/stimuli/spore_stims/complex_12_B_a.gif","","","","","16","complex_similar","images/stimuli/spore_stims/complex_12_B_a.gif","middle","","","","",""
"","null","html-keyboard-response","298","761046","0.0-56.0-0.1","SS1613098720356","","","null","","","","","<p><img src= images/blank.png width =""200"" height = ""200"" style = ""float:right""></p><p><img src=images/blank.png width =""800"" height = ""200""></p>","","","","","","","","","","","",""
"","289.7700001485646","sequential-stimulus-presentation","299","762144","0.0-56.0-1.1","SS1613098720356","trial","","40","800","1089.7700001485646","images/stimuli/spore_stims/complex_12_A_a.gif","images/stimuli/spore_stims/complex_12_B_a.gif","","","","","16","complex_similar","images/stimuli/spore_stims/complex_12_B_a.gif","middle","","","","",""
"","null","html-keyboard-response","300","763002","0.0-56.0-0.2","SS1613098720356","","","null","","","","","<p><img src= images/blank.png width =""200"" height = ""200"" style = ""float:right""></p><p><img src=images/blank.png width =""800"" height = ""200""></p>","","","","","","","","","","","",""
"","260.0099998526275","sequential-stimulus-presentation","301","764079","0.0-56.0-1.2","SS1613098720356","trial","","40","800","1060.0099998526275","images/stimuli/spore_stims/complex_12_A_a.gif","images/stimuli/spore_stims/complex_12_B_a.gif","","","","","16","complex_similar","images/stimuli/spore_stims/complex_12_B_a.gif","middle","","","","",""
"","null","html-keyboard-response","302","765188","0.0-56.0-0.3","SS1613098720356","","","null","","","","","<p><img src= images/blank.png width =""200"" height = ""200"" style = ""float:right""></p><p><img src=images/blank.png width =""800"" height = ""200""></p>","","","","","","","","","","","",""
"","266.8500002473593","sequential-stimulus-presentation","303","766264","0.0-56.0-1.3","SS1613098720356","trial","","40","800","1066.8500002473593","images/stimuli/spore_stims/complex_12_A_a.gif","images/stimuli/spore_stims/complex_12_B_a.gif","","","","","16","complex_similar","images/stimuli/spore_stims/complex_12_B_a.gif","middle","","","","",""
"","null","html-keyboard-response","304","767480","0.0-56.0-0.4","SS1613098720356","","","null","","","","","<p><img src= images/blank.png width =""200"" height = ""200"" style = ""float:right""></p><p><img src=images/blank.png width =""800"" height = ""200""></p>","","","","","","","","","","","",""
"","310.009999666363","sequential-stimulus-presentation","305","768599","0.0-56.0-1.4","SS1613098720356","trial","","40","800","1110.009999666363","images/stimuli/spore_stims/complex_12_A_a.gif","images/stimuli/spore_stims/complex_12_B_a.gif","","","","","16","complex_similar","images/stimuli/spore_stims/complex_12_B_a.gif","middle","","","","",""
"","null","html-keyboard-response","306","769558","0.0-56.0-0.5","SS1613098720356","","","null","","","","","<p><img src= images/blank.png width =""200"" height = ""200"" style = ""float:right""></p><p><img src=images/blank.png width =""800"" height = ""200""></p>","","","","","","","","","","","",""
"","1057.8299998305738","sequential-stimulus-presentation","307","771423","0.0-56.0-1.5","SS1613098720356","trial","","40","800","1857.8299998305738","images/stimuli/spore_stims/complex_12_A_a.gif","images/stimuli/spore_stims/complex_12_B_a.gif","","","","","16","complex_similar","images/stimuli/spore_stims/complex_12_A_a.gif","left","","","","",""
"","null","html-keyboard-response","308","772488","0.0-56.0-0.6","SS1613098720356","","","null","","","","","<p><img src= images/blank.png width =""200"" height = ""200"" style = ""float:right""></p><p><img src=images/blank.png width =""800"" height = ""200""></p>","","","","","","","","","","","",""
"","214.14500009268522","sequential-stimulus-presentation","309","773512","0.0-56.0-1.6","SS1613098720356","trial","","40","800","1014.1450000926852","images/stimuli/spore_stims/complex_12_A_a.gif","images/stimuli/spore_stims/complex_12_B_a.gif","","","","","16","complex_similar","images/stimuli/spore_stims/complex_12_B_a.gif","middle","","","","",""
"","null","html-keyboard-response","310","774688","0.0-56.0-0.7","SS1613098720356","","","null","","","","","<p><img src= images/blank.png width =""200"" height = ""200"" style = ""float:right""></p><p><img src=images/blank.png width =""800"" height = ""200""></p>","","","","","","","","","","","",""
"","1224.4199998676777","sequential-stimulus-presentation","311","776721","0.0-56.0-1.7","SS1613098720356","trial","","40","800","2024.4199998676777","images/stimuli/spore_stims/complex_12_A_a.gif","images/stimuli/spore_stims/complex_12_B_a.gif","","","","","16","complex_similar","images/stimuli/spore_stims/complex_12_B_a.gif","middle","","","","",""
"","1372.949999757111","html-keyboard-response","312","778103","0.0-57.0","SS1613098720356","pref_question","","51","","","","","<video width ='960' height = '540' style='padding-top:8%' autoplay muted><source src='images/stimuli/wall_pref.mp4' type='video/mp4'></video>","3","right","66%","16","","","","","","","",""
