"view_history","rt","trial_type","trial_index","time_elapsed","internal_node_id","subject","stimulus_type","trial_stimulus","key_press","minimum_viewing_duration","trial_looking_time","block_deviant","block_background","stimulus","wall_pref","location","location_percent","block_number","block_type","stimulus_displayed","position_displayed","stim_type_selected","responses","question_order","stimulus_left","stimulus_right"
"[{""page_index"":0,""viewing_time"":2400.999999954365}]","2402.0000000018626","instructions","0","2407","0.0-0.0","SS1613170522532","","","","","","","","","","","","","","","","","","","",""
"[{""page_index"":0,""viewing_time"":939.9999999441206},{""page_index"":1,""viewing_time"":2422.000000020489}]","3361.9999999646097","instructions","1","7772","0.0-1.0","SS1613170522532","instructions","","","","","","","","","","","","","","","","","","",""
"","1649.9999999068677","sequential-stimulus-presentation","2","10234","0.0-2.0","SS1613170522532","","","40","800","2449.9999999068677","null","null","","","","","","","","","","","","",""
"","5898.0000000447035","sequential-stimulus-presentation","3","16938","0.0-3.0","SS1613170522532","","","40","800","6698.0000000447035","null","null","","","","","","","","","","","","",""
"[{""page_index"":0,""viewing_time"":1620.9999999264255}]","1621.999999973923","instructions","4","18562","0.0-4.0","SS1613170522532","instructions","","","","","","","","","","","","","","","","","","",""
"","4248.00000002142","html-keyboard-response","5","22815","0.0-5.0","SS1613170522532","instructions","","97","","","","","<video width ='960' height = '540' autoplay muted><source src='images/stimuli/wall_pref.mp4' type='video/mp4'></video>","1","left","25%","","","","","","","","",""
"","1883.0000000307336","sequential-stimulus-presentation","6","25505","0.0-6.0","SS1613170522532","pref_reveal","","40","800","2683.0000000307336","null","null","","","","","","","","","","","","",""
"[{""page_index"":0,""viewing_time"":869.9999999953434},{""page_index"":1,""viewing_time"":481.99999995995313},{""page_index"":2,""viewing_time"":1018.0000000400469},{""page_index"":3,""viewing_time"":981.9999999599531}]","3353.999999933876","instructions","7","28863","0.0-7.0","SS1613170522532","instructions","","","","","","","","","","","","","","","","","","",""
"","null","html-keyboard-response","8","30079","0.0-8.0-0.0","SS1613170522532","","","null","","","","","<p><img src= images/blank.png width =""200"" height = ""200"" style = ""float:right""></p><p><img src=images/blank.png width =""800"" height = ""200""></p>","","","","","","","","","","","",""
"","412.00000001117587","sequential-stimulus-presentation","9","31303","0.0-8.0-1.0","SS1613170522532","trial","","40","800","1212.0000000111759","images/stimuli/spore_stims/complex_17_A_d.gif","images/stimuli/spore_stims/complex_20_A_c.gif","","","","","0","complex_dissimilar","images/stimuli/spore_stims/complex_20_A_c.gif","left","","","","",""
"","null","html-keyboard-response","10","32587","0.0-8.0-0.1","SS1613170522532","","","null","","","","","<p><img src= images/blank.png width =""200"" height = ""200"" style = ""float:right""></p><p><img src=images/blank.png width =""800"" height = ""200""></p>","","","","","","","","","","","",""
"","123.00000002142042","sequential-stimulus-presentation","11","33524","0.0-8.0-1.1","SS1613170522532","trial","","40","800","923.0000000214204","images/stimuli/spore_stims/complex_17_A_d.gif","images/stimuli/spore_stims/complex_20_A_c.gif","","","","","0","complex_dissimilar","images/stimuli/spore_stims/complex_20_A_c.gif","left","","","","",""
"","null","html-keyboard-response","12","34632","0.0-8.0-0.2","SS1613170522532","","","null","","","","","<p><img src= images/blank.png width =""200"" height = ""200"" style = ""float:right""></p><p><img src=images/blank.png width =""800"" height = ""200""></p>","","","","","","","","","","","",""
"","925.0000000465661","sequential-stimulus-presentation","13","36367","0.0-8.0-1.2","SS1613170522532","trial","","40","800","1725.0000000465661","images/stimuli/spore_stims/complex_17_A_d.gif","images/stimuli/spore_stims/complex_20_A_c.gif","","","","","0","complex_dissimilar","images/stimuli/spore_stims/complex_20_A_c.gif","left","","","","",""
"","null","html-keyboard-response","14","37320","0.0-8.0-0.3","SS1613170522532","","","null","","","","","<p><img src= images/blank.png width =""200"" height = ""200"" style = ""float:right""></p><p><img src=images/blank.png width =""800"" height = ""200""></p>","","","","","","","","","","","",""
"","45.999999972991645","sequential-stimulus-presentation","15","38176","0.0-8.0-1.3","SS1613170522532","trial","","40","800","845.9999999729916","images/stimuli/spore_stims/complex_17_A_d.gif","images/stimuli/spore_stims/complex_20_A_c.gif","","","","","0","complex_dissimilar","images/stimuli/spore_stims/complex_17_A_d.gif","middle","","","","",""
"","null","html-keyboard-response","16","39151","0.0-8.0-0.4","SS1613170522532","","","null","","","","","<p><img src= images/blank.png width =""200"" height = ""200"" style = ""float:right""></p><p><img src=images/blank.png width =""800"" height = ""200""></p>","","","","","","","","","","","",""
"","27.000000001862645","sequential-stimulus-presentation","17","39995","0.0-8.0-1.4","SS1613170522532","trial","","40","800","827.0000000018626","images/stimuli/spore_stims/complex_17_A_d.gif","images/stimuli/spore_stims/complex_20_A_c.gif","","","","","0","complex_dissimilar","images/stimuli/spore_stims/complex_20_A_c.gif","left","","","","",""
"","null","html-keyboard-response","18","40916","0.0-8.0-0.5","SS1613170522532","","","null","","","","","<p><img src= images/blank.png width =""200"" height = ""200"" style = ""float:right""></p><p><img src=images/blank.png width =""800"" height = ""200""></p>","","","","","","","","","","","",""
"","241.99999996926636","sequential-stimulus-presentation","19","41973","0.0-8.0-1.5","SS1613170522532","trial","","40","800","1041.9999999692664","images/stimuli/spore_stims/complex_17_A_d.gif","images/stimuli/spore_stims/complex_20_A_c.gif","","","","","0","complex_dissimilar","images/stimuli/spore_stims/complex_20_A_c.gif","left","","","","",""
"","null","html-keyboard-response","20","43243","0.0-8.0-0.6","SS1613170522532","","","null","","","","","<p><img src= images/blank.png width =""200"" height = ""200"" style = ""float:right""></p><p><img src=images/blank.png width =""800"" height = ""200""></p>","","","","","","","","","","","",""
"","372.0000000903383","sequential-stimulus-presentation","21","44434","0.0-8.0-1.6","SS1613170522532","trial","","40","800","1172.0000000903383","images/stimuli/spore_stims/complex_17_A_d.gif","images/stimuli/spore_stims/complex_20_A_c.gif","","","","","0","complex_dissimilar","images/stimuli/spore_stims/complex_20_A_c.gif","left","","","","",""
"","null","html-keyboard-response","22","45489","0.0-8.0-0.7","SS1613170522532","","","null","","","","","<p><img src= images/blank.png width =""200"" height = ""200"" style = ""float:right""></p><p><img src=images/blank.png width =""800"" height = ""200""></p>","","","","","","","","","","","",""
"","257.0000000996515","sequential-stimulus-presentation","23","46552","0.0-8.0-1.7","SS1613170522532","trial","","40","800","1057.0000000996515","images/stimuli/spore_stims/complex_17_A_d.gif","images/stimuli/spore_stims/complex_20_A_c.gif","","","","","0","complex_dissimilar","images/stimuli/spore_stims/complex_20_A_c.gif","left","","","","",""
"","197.00000004377216","html-keyboard-response","24","46751","0.0-9.0","SS1613170522532","pref_question","","49","","","","","<video width ='960' height = '540' style='padding-top:8%' autoplay muted><source src='images/stimuli/wall_pref.mp4' type='video/mp4'></video>","1","left","25%","0","","","","","","","",""
"","216.9999999459833","sequential-stimulus-presentation","25","47778","0.0-10.0","SS1613170522532","pref_reveal","","40","800","1016.9999999459833","null","null","","","","","0","","","","background","","","",""
"","null","html-keyboard-response","26","48692","0.0-11.0-0.0","SS1613170522532","","","null","","","","","<p><img src= images/blank.png width =""200"" height = ""200"" style = ""float:right""></p><p><img src=images/blank.png width =""800"" height = ""200""></p>","","","","","","","","","","","",""
"","1962.9999999888241","sequential-stimulus-presentation","27","51461","0.0-11.0-1.0","SS1613170522532","trial","","40","800","2762.999999988824","images/stimuli/spore_stims/complex_11_A_c.gif","images/stimuli/spore_stims/complex_11_B_c.gif","","","","","1","complex_similar","images/stimuli/spore_stims/complex_11_B_c.gif","left","","","","",""
"","null","html-keyboard-response","28","52592","0.0-11.0-0.1","SS1613170522532","","","null","","","","","<p><img src= images/blank.png width =""200"" height = ""200"" style = ""float:right""></p><p><img src=images/blank.png width =""800"" height = ""200""></p>","","","","","","","","","","","",""
"","277.00000000186265","sequential-stimulus-presentation","29","53684","0.0-11.0-1.1","SS1613170522532","trial","","40","800","1077.0000000018626","images/stimuli/spore_stims/complex_11_A_c.gif","images/stimuli/spore_stims/complex_11_B_c.gif","","","","","1","complex_similar","images/stimuli/spore_stims/complex_11_B_c.gif","left","","","","",""
"","null","html-keyboard-response","30","54613","0.0-11.0-0.2","SS1613170522532","","","null","","","","","<p><img src= images/blank.png width =""200"" height = ""200"" style = ""float:right""></p><p><img src=images/blank.png width =""800"" height = ""200""></p>","","","","","","","","","","","",""
"","182.99999996088445","sequential-stimulus-presentation","31","55617","0.0-11.0-1.2","SS1613170522532","trial","","40","800","982.9999999608845","images/stimuli/spore_stims/complex_11_A_c.gif","images/stimuli/spore_stims/complex_11_B_c.gif","","","","","1","complex_similar","images/stimuli/spore_stims/complex_11_A_c.gif","right","","","","",""
"","null","html-keyboard-response","32","56448","0.0-11.0-0.3","SS1613170522532","","","null","","","","","<p><img src= images/blank.png width =""200"" height = ""200"" style = ""float:right""></p><p><img src=images/blank.png width =""800"" height = ""200""></p>","","","","","","","","","","","",""
"","92.99999999348074","sequential-stimulus-presentation","33","57355","0.0-11.0-1.3","SS1613170522532","trial","","40","800","892.9999999934807","images/stimuli/spore_stims/complex_11_A_c.gif","images/stimuli/spore_stims/complex_11_B_c.gif","","","","","1","complex_similar","images/stimuli/spore_stims/complex_11_B_c.gif","left","","","","",""
"","null","html-keyboard-response","34","58585","0.0-11.0-0.4","SS1613170522532","","","null","","","","","<p><img src= images/blank.png width =""200"" height = ""200"" style = ""float:right""></p><p><img src=images/blank.png width =""800"" height = ""200""></p>","","","","","","","","","","","",""
"","7697.999999974854","sequential-stimulus-presentation","35","67089","0.0-11.0-1.4","SS1613170522532","trial","","40","800","8497.999999974854","images/stimuli/spore_stims/complex_11_A_c.gif","images/stimuli/spore_stims/complex_11_B_c.gif","","","","","1","complex_similar","images/stimuli/spore_stims/complex_11_B_c.gif","left","","","","",""
"","null","html-keyboard-response","36","68395","0.0-11.0-0.5","SS1613170522532","","","null","","","","","<p><img src= images/blank.png width =""200"" height = ""200"" style = ""float:right""></p><p><img src=images/blank.png width =""800"" height = ""200""></p>","","","","","","","","","","","",""
"","322.9999999748543","sequential-stimulus-presentation","37","69524","0.0-11.0-1.5","SS1613170522532","trial","","40","800","1122.9999999748543","images/stimuli/spore_stims/complex_11_A_c.gif","images/stimuli/spore_stims/complex_11_B_c.gif","","","","","1","complex_similar","images/stimuli/spore_stims/complex_11_B_c.gif","left","","","","",""
"","null","html-keyboard-response","38","70672","0.0-11.0-0.6","SS1613170522532","","","null","","","","","<p><img src= images/blank.png width =""200"" height = ""200"" style = ""float:right""></p><p><img src=images/blank.png width =""800"" height = ""200""></p>","","","","","","","","","","","",""
"","51.99999990873039","sequential-stimulus-presentation","39","71533","0.0-11.0-1.6","SS1613170522532","trial","","40","800","851.9999999087304","images/stimuli/spore_stims/complex_11_A_c.gif","images/stimuli/spore_stims/complex_11_B_c.gif","","","","","1","complex_similar","images/stimuli/spore_stims/complex_11_B_c.gif","left","","","","",""
"","null","html-keyboard-response","40","72619","0.0-11.0-0.7","SS1613170522532","","","null","","","","","<p><img src= images/blank.png width =""200"" height = ""200"" style = ""float:right""></p><p><img src=images/blank.png width =""800"" height = ""200""></p>","","","","","","","","","","","",""
"","104.00000005029142","sequential-stimulus-presentation","41","73541","0.0-11.0-1.7","SS1613170522532","trial","","40","800","904.0000000502914","images/stimuli/spore_stims/complex_11_A_c.gif","images/stimuli/spore_stims/complex_11_B_c.gif","","","","","1","complex_similar","images/stimuli/spore_stims/complex_11_B_c.gif","left","","","","",""
"","143.00000004004687","html-keyboard-response","42","73694","0.0-12.0","SS1613170522532","pref_question","","49","","","","","<video width ='960' height = '540' style='padding-top:8%' autoplay muted><source src='images/stimuli/wall_pref.mp4' type='video/mp4'></video>","1","left","25%","1","","","","","","","",""
"","111.00000003352761","sequential-stimulus-presentation","43","74609","0.0-13.0","SS1613170522532","pref_reveal","","40","800","911.0000000335276","null","null","","","","","1","","","","background","","","",""
"","null","html-keyboard-response","44","75446","0.0-14.0-0.0","SS1613170522532","","","null","","","","","<p><img src= images/blank.png width =""200"" height = ""200"" style = ""float:right""></p><p><img src=images/blank.png width =""800"" height = ""200""></p>","","","","","","","","","","","",""
"","236.99999996460974","sequential-stimulus-presentation","45","76545","0.0-14.0-1.0","SS1613170522532","trial","","40","800","1036.9999999646097","images/stimuli/spore_stims/simple_18_B_d.gif","images/stimuli/spore_stims/simple_18_A_d.gif","","","","","2","simple_similar","images/stimuli/spore_stims/simple_18_A_d.gif","middle","","","","",""
"","null","html-keyboard-response","46","77559","0.0-14.0-0.1","SS1613170522532","","","null","","","","","<p><img src= images/blank.png width =""200"" height = ""200"" style = ""float:right""></p><p><img src=images/blank.png width =""800"" height = ""200""></p>","","","","","","","","","","","",""
"","46.00000008940697","sequential-stimulus-presentation","47","78426","0.0-14.0-1.1","SS1613170522532","trial","","40","800","846.000000089407","images/stimuli/spore_stims/simple_18_B_d.gif","images/stimuli/spore_stims/simple_18_A_d.gif","","","","","2","simple_similar","images/stimuli/spore_stims/simple_18_A_d.gif","middle","","","","",""
"","null","html-keyboard-response","48","79479","0.0-14.0-0.2","SS1613170522532","","","null","","","","","<p><img src= images/blank.png width =""200"" height = ""200"" style = ""float:right""></p><p><img src=images/blank.png width =""800"" height = ""200""></p>","","","","","","","","","","","",""
"","152.00000000186265","sequential-stimulus-presentation","49","80435","0.0-14.0-1.2","SS1613170522532","trial","","40","800","952.0000000018626","images/stimuli/spore_stims/simple_18_B_d.gif","images/stimuli/spore_stims/simple_18_A_d.gif","","","","","2","simple_similar","images/stimuli/spore_stims/simple_18_A_d.gif","middle","","","","",""
"","null","html-keyboard-response","50","81455","0.0-14.0-0.3","SS1613170522532","","","null","","","","","<p><img src= images/blank.png width =""200"" height = ""200"" style = ""float:right""></p><p><img src=images/blank.png width =""800"" height = ""200""></p>","","","","","","","","","","","",""
"","126.00000004749745","sequential-stimulus-presentation","51","82401","0.0-14.0-1.3","SS1613170522532","trial","","40","800","926.0000000474975","images/stimuli/spore_stims/simple_18_B_d.gif","images/stimuli/spore_stims/simple_18_A_d.gif","","","","","2","simple_similar","images/stimuli/spore_stims/simple_18_A_d.gif","middle","","","","",""
"","null","html-keyboard-response","52","83633","0.0-14.0-0.4","SS1613170522532","","","null","","","","","<p><img src= images/blank.png width =""200"" height = ""200"" style = ""float:right""></p><p><img src=images/blank.png width =""800"" height = ""200""></p>","","","","","","","","","","","",""
"","229.99999998137355","sequential-stimulus-presentation","53","84691","0.0-14.0-1.4","SS1613170522532","trial","","40","800","1029.9999999813735","images/stimuli/spore_stims/simple_18_B_d.gif","images/stimuli/spore_stims/simple_18_A_d.gif","","","","","2","simple_similar","images/stimuli/spore_stims/simple_18_A_d.gif","middle","","","","",""
"","null","html-keyboard-response","54","85772","0.0-14.0-0.5","SS1613170522532","","","null","","","","","<p><img src= images/blank.png width =""200"" height = ""200"" style = ""float:right""></p><p><img src=images/blank.png width =""800"" height = ""200""></p>","","","","","","","","","","","",""
"","38.99999998975545","sequential-stimulus-presentation","55","86618","0.0-14.0-1.5","SS1613170522532","trial","","40","800","838.9999999897555","images/stimuli/spore_stims/simple_18_B_d.gif","images/stimuli/spore_stims/simple_18_A_d.gif","","","","","2","simple_similar","images/stimuli/spore_stims/simple_18_B_d.gif","left","","","","",""
"","null","html-keyboard-response","56","87551","0.0-14.0-0.6","SS1613170522532","","","null","","","","","<p><img src= images/blank.png width =""200"" height = ""200"" style = ""float:right""></p><p><img src=images/blank.png width =""800"" height = ""200""></p>","","","","","","","","","","","",""
"","94.0000000409782","sequential-stimulus-presentation","57","88453","0.0-14.0-1.6","SS1613170522532","trial","","40","800","894.0000000409782","images/stimuli/spore_stims/simple_18_B_d.gif","images/stimuli/spore_stims/simple_18_A_d.gif","","","","","2","simple_similar","images/stimuli/spore_stims/simple_18_A_d.gif","middle","","","","",""
"","null","html-keyboard-response","58","89512","0.0-14.0-0.7","SS1613170522532","","","null","","","","","<p><img src= images/blank.png width =""200"" height = ""200"" style = ""float:right""></p><p><img src=images/blank.png width =""800"" height = ""200""></p>","","","","","","","","","","","",""
"","25.000000023283064","sequential-stimulus-presentation","59","90363","0.0-14.0-1.7","SS1613170522532","trial","","40","800","825.0000000232831","images/stimuli/spore_stims/simple_18_B_d.gif","images/stimuli/spore_stims/simple_18_A_d.gif","","","","","2","simple_similar","images/stimuli/spore_stims/simple_18_A_d.gif","middle","","","","",""
"","420.99999997299165","html-keyboard-response","60","90792","0.0-15.0","SS1613170522532","pref_question","","50","","","","","<video width ='960' height = '540' style='padding-top:8%' autoplay muted><source src='images/stimuli/wall_pref.mp4' type='video/mp4'></video>","2","middle","45%","2","","","","","","","",""
"","99.99999997671694","sequential-stimulus-presentation","61","91697","0.0-16.0","SS1613170522532","pref_reveal","","40","800","899.9999999767169","null","null","","","","","2","","","","background","","","",""
"","null","html-keyboard-response","62","92739","0.0-17.0-0.0","SS1613170522532","","","null","","","","","<p><img src= images/blank.png width =""200"" height = ""200"" style = ""float:right""></p><p><img src=images/blank.png width =""800"" height = ""200""></p>","","","","","","","","","","","",""
"","109.00000005494803","sequential-stimulus-presentation","63","93660","0.0-17.0-1.0","SS1613170522532","trial","","40","800","909.000000054948","images/stimuli/spore_stims/simple_04_B_b.gif","images/stimuli/spore_stims/simple_08_B_b.gif","","","","","3","simple_dissimilar","images/stimuli/spore_stims/simple_08_B_b.gif","right","","","","",""
"","null","html-keyboard-response","64","94934","0.0-17.0-0.1","SS1613170522532","","","null","","","","","<p><img src= images/blank.png width =""200"" height = ""200"" style = ""float:right""></p><p><img src=images/blank.png width =""800"" height = ""200""></p>","","","","","","","","","","","",""
"","172.99999995157123","sequential-stimulus-presentation","65","95915","0.0-17.0-1.1","SS1613170522532","trial","","40","800","972.9999999515712","images/stimuli/spore_stims/simple_04_B_b.gif","images/stimuli/spore_stims/simple_08_B_b.gif","","","","","3","simple_dissimilar","images/stimuli/spore_stims/simple_08_B_b.gif","right","","","","",""
"","null","html-keyboard-response","66","96805","0.0-17.0-0.2","SS1613170522532","","","null","","","","","<p><img src= images/blank.png width =""200"" height = ""200"" style = ""float:right""></p><p><img src=images/blank.png width =""800"" height = ""200""></p>","","","","","","","","","","","",""
"","65.9999999916181","sequential-stimulus-presentation","67","97724","0.0-17.0-1.2","SS1613170522532","trial","","40","800","865.9999999916181","images/stimuli/spore_stims/simple_04_B_b.gif","images/stimuli/spore_stims/simple_08_B_b.gif","","","","","3","simple_dissimilar","images/stimuli/spore_stims/simple_04_B_b.gif","left","","","","",""
"","null","html-keyboard-response","68","98619","0.0-17.0-0.3","SS1613170522532","","","null","","","","","<p><img src= images/blank.png width =""200"" height = ""200"" style = ""float:right""></p><p><img src=images/blank.png width =""800"" height = ""200""></p>","","","","","","","","","","","",""
"","165.0000000372529","sequential-stimulus-presentation","69","99595","0.0-17.0-1.3","SS1613170522532","trial","","40","800","965.0000000372529","images/stimuli/spore_stims/simple_04_B_b.gif","images/stimuli/spore_stims/simple_08_B_b.gif","","","","","3","simple_dissimilar","images/stimuli/spore_stims/simple_08_B_b.gif","right","","","","",""
"","null","html-keyboard-response","70","100810","0.0-17.0-0.4","SS1613170522532","","","null","","","","","<p><img src= images/blank.png width =""200"" height = ""200"" style = ""float:right""></p><p><img src=images/blank.png width =""800"" height = ""200""></p>","","","","","","","","","","","",""
"","79.00000002700835","sequential-stimulus-presentation","71","101723","0.0-17.0-1.4","SS1613170522532","trial","","40","800","879.0000000270084","images/stimuli/spore_stims/simple_04_B_b.gif","images/stimuli/spore_stims/simple_08_B_b.gif","","","","","3","simple_dissimilar","images/stimuli/spore_stims/simple_08_B_b.gif","right","","","","",""
"","null","html-keyboard-response","72","102980","0.0-17.0-0.5","SS1613170522532","","","null","","","","","<p><img src= images/blank.png width =""200"" height = ""200"" style = ""float:right""></p><p><img src=images/blank.png width =""800"" height = ""200""></p>","","","","","","","","","","","",""
"","207.99999998416752","sequential-stimulus-presentation","73","103991","0.0-17.0-1.5","SS1613170522532","trial","","40","800","1007.9999999841675","images/stimuli/spore_stims/simple_04_B_b.gif","images/stimuli/spore_stims/simple_08_B_b.gif","","","","","3","simple_dissimilar","images/stimuli/spore_stims/simple_08_B_b.gif","right","","","","",""
"","null","html-keyboard-response","74","104989","0.0-17.0-0.6","SS1613170522532","","","null","","","","","<p><img src= images/blank.png width =""200"" height = ""200"" style = ""float:right""></p><p><img src=images/blank.png width =""800"" height = ""200""></p>","","","","","","","","","","","",""
"","25379.000000073574","sequential-stimulus-presentation","75","131177","0.0-17.0-1.6","SS1613170522532","trial","","40","800","26179.000000073574","images/stimuli/spore_stims/simple_04_B_b.gif","images/stimuli/spore_stims/simple_08_B_b.gif","","","","","3","simple_dissimilar","images/stimuli/spore_stims/simple_08_B_b.gif","right","","","","",""
"","null","html-keyboard-response","76","132225","0.0-17.0-0.7","SS1613170522532","","","null","","","","","<p><img src= images/blank.png width =""200"" height = ""200"" style = ""float:right""></p><p><img src=images/blank.png width =""800"" height = ""200""></p>","","","","","","","","","","","",""
"","48.99999999906868","sequential-stimulus-presentation","77","133082","0.0-17.0-1.7","SS1613170522532","trial","","40","800","848.9999999990687","images/stimuli/spore_stims/simple_04_B_b.gif","images/stimuli/spore_stims/simple_08_B_b.gif","","","","","3","simple_dissimilar","images/stimuli/spore_stims/simple_08_B_b.gif","right","","","","",""
"","196.00000011269003","html-keyboard-response","78","133284","0.0-18.0","SS1613170522532","pref_question","","51","","","","","<video width ='960' height = '540' style='padding-top:8%' autoplay muted><source src='images/stimuli/wall_pref.mp4' type='video/mp4'></video>","3","right","66%","3","","","","","","","",""
"","10.000000009313226","sequential-stimulus-presentation","79","134101","0.0-19.0","SS1613170522532","pref_reveal","","40","800","810.0000000093132","null","null","","","","","3","","","","background","","","",""
"","null","html-keyboard-response","80","135241","0.0-20.0-0.0","SS1613170522532","","","null","","","","","<p><img src= images/blank.png width =""200"" height = ""200"" style = ""float:right""></p><p><img src=images/blank.png width =""800"" height = ""200""></p>","","","","","","","","","","","",""
"","213.99999991990626","sequential-stimulus-presentation","81","136289","0.0-20.0-1.0","SS1613170522532","trial","","40","800","1013.9999999199063","images/stimuli/spore_stims/simple_17_A_c.gif","images/stimuli/spore_stims/simple_17_B_c.gif","","","","","4","simple_similar","images/stimuli/spore_stims/simple_17_B_c.gif","left","","","","",""
"","null","html-keyboard-response","82","137452","0.0-20.0-0.1","SS1613170522532","","","null","","","","","<p><img src= images/blank.png width =""200"" height = ""200"" style = ""float:right""></p><p><img src=images/blank.png width =""800"" height = ""200""></p>","","","","","","","","","","","",""
"","381.9999999832362","sequential-stimulus-presentation","83","138648","0.0-20.0-1.1","SS1613170522532","trial","","40","800","1181.9999999832362","images/stimuli/spore_stims/simple_17_A_c.gif","images/stimuli/spore_stims/simple_17_B_c.gif","","","","","4","simple_similar","images/stimuli/spore_stims/simple_17_B_c.gif","left","","","","",""
"","null","html-keyboard-response","84","139531","0.0-20.0-0.2","SS1613170522532","","","null","","","","","<p><img src= images/blank.png width =""200"" height = ""200"" style = ""float:right""></p><p><img src=images/blank.png width =""800"" height = ""200""></p>","","","","","","","","","","","",""
"","57.99999996088445","sequential-stimulus-presentation","85","140399","0.0-20.0-1.2","SS1613170522532","trial","","40","800","857.9999999608845","images/stimuli/spore_stims/simple_17_A_c.gif","images/stimuli/spore_stims/simple_17_B_c.gif","","","","","4","simple_similar","images/stimuli/spore_stims/simple_17_B_c.gif","left","","","","",""
"","null","html-keyboard-response","86","141321","0.0-20.0-0.3","SS1613170522532","","","null","","","","","<p><img src= images/blank.png width =""200"" height = ""200"" style = ""float:right""></p><p><img src=images/blank.png width =""800"" height = ""200""></p>","","","","","","","","","","","",""
"","40.0000000372529","sequential-stimulus-presentation","87","142177","0.0-20.0-1.3","SS1613170522532","trial","","40","800","840.0000000372529","images/stimuli/spore_stims/simple_17_A_c.gif","images/stimuli/spore_stims/simple_17_B_c.gif","","","","","4","simple_similar","images/stimuli/spore_stims/simple_17_A_c.gif","middle","","","","",""
"","null","html-keyboard-response","88","143087","0.0-20.0-0.4","SS1613170522532","","","null","","","","","<p><img src= images/blank.png width =""200"" height = ""200"" style = ""float:right""></p><p><img src=images/blank.png width =""800"" height = ""200""></p>","","","","","","","","","","","",""
"","175.99999997764826","sequential-stimulus-presentation","89","144077","0.0-20.0-1.4","SS1613170522532","trial","","40","800","975.9999999776483","images/stimuli/spore_stims/simple_17_A_c.gif","images/stimuli/spore_stims/simple_17_B_c.gif","","","","","4","simple_similar","images/stimuli/spore_stims/simple_17_B_c.gif","left","","","","",""
"","null","html-keyboard-response","90","145185","0.0-20.0-0.5","SS1613170522532","","","null","","","","","<p><img src= images/blank.png width =""200"" height = ""200"" style = ""float:right""></p><p><img src=images/blank.png width =""800"" height = ""200""></p>","","","","","","","","","","","",""
"","231.99999995995313","sequential-stimulus-presentation","91","146229","0.0-20.0-1.5","SS1613170522532","trial","","40","800","1031.9999999599531","images/stimuli/spore_stims/simple_17_A_c.gif","images/stimuli/spore_stims/simple_17_B_c.gif","","","","","4","simple_similar","images/stimuli/spore_stims/simple_17_B_c.gif","left","","","","",""
"","null","html-keyboard-response","92","147429","0.0-20.0-0.6","SS1613170522532","","","null","","","","","<p><img src= images/blank.png width =""200"" height = ""200"" style = ""float:right""></p><p><img src=images/blank.png width =""800"" height = ""200""></p>","","","","","","","","","","","",""
"","76.00000000093132","sequential-stimulus-presentation","93","148314","0.0-20.0-1.6","SS1613170522532","trial","","40","800","876.0000000009313","images/stimuli/spore_stims/simple_17_A_c.gif","images/stimuli/spore_stims/simple_17_B_c.gif","","","","","4","simple_similar","images/stimuli/spore_stims/simple_17_B_c.gif","left","","","","",""
"","null","html-keyboard-response","94","149303","0.0-20.0-0.7","SS1613170522532","","","null","","","","","<p><img src= images/blank.png width =""200"" height = ""200"" style = ""float:right""></p><p><img src=images/blank.png width =""800"" height = ""200""></p>","","","","","","","","","","","",""
"","148.9999999757856","sequential-stimulus-presentation","95","150266","0.0-20.0-1.7","SS1613170522532","trial","","40","800","948.9999999757856","images/stimuli/spore_stims/simple_17_A_c.gif","images/stimuli/spore_stims/simple_17_B_c.gif","","","","","4","simple_similar","images/stimuli/spore_stims/simple_17_B_c.gif","left","","","","",""
"","175.00000004656613","html-keyboard-response","96","150446","0.0-21.0","SS1613170522532","pref_question","","50","","","","","<video width ='960' height = '540' style='padding-top:8%' autoplay muted><source src='images/stimuli/wall_pref.mp4' type='video/mp4'></video>","2","middle","45%","4","","","","","","","",""
"","111.00000003352761","sequential-stimulus-presentation","97","151367","0.0-22.0","SS1613170522532","pref_reveal","","40","800","911.0000000335276","null","null","","","","","4","","","","deviant","","","",""
"","null","html-keyboard-response","98","152335","0.0-23.0-0.0","SS1613170522532","","","null","","","","","<p><img src= images/blank.png width =""200"" height = ""200"" style = ""float:right""></p><p><img src=images/blank.png width =""800"" height = ""200""></p>","","","","","","","","","","","",""
"","46.00000008940697","sequential-stimulus-presentation","99","153194","0.0-23.0-1.0","SS1613170522532","trial","","40","800","846.000000089407","images/stimuli/spore_stims/simple_16_A_a.gif","images/stimuli/spore_stims/simple_16_B_a.gif","","","","","5","simple_similar","images/stimuli/spore_stims/simple_16_B_a.gif","middle","","","","",""
"","null","html-keyboard-response","100","154396","0.0-23.0-0.1","SS1613170522532","","","null","","","","","<p><img src= images/blank.png width =""200"" height = ""200"" style = ""float:right""></p><p><img src=images/blank.png width =""800"" height = ""200""></p>","","","","","","","","","","","",""
"","96.9999999506399","sequential-stimulus-presentation","101","155302","0.0-23.0-1.1","SS1613170522532","trial","","40","800","896.9999999506399","images/stimuli/spore_stims/simple_16_A_a.gif","images/stimuli/spore_stims/simple_16_B_a.gif","","","","","5","simple_similar","images/stimuli/spore_stims/simple_16_B_a.gif","middle","","","","",""
"","null","html-keyboard-response","102","156456","0.0-23.0-0.2","SS1613170522532","","","null","","","","","<p><img src= images/blank.png width =""200"" height = ""200"" style = ""float:right""></p><p><img src=images/blank.png width =""800"" height = ""200""></p>","","","","","","","","","","","",""
"","206.99999993667006","sequential-stimulus-presentation","103","157492","0.0-23.0-1.2","SS1613170522532","trial","","40","800","1006.9999999366701","images/stimuli/spore_stims/simple_16_A_a.gif","images/stimuli/spore_stims/simple_16_B_a.gif","","","","","5","simple_similar","images/stimuli/spore_stims/simple_16_B_a.gif","middle","","","","",""
"","null","html-keyboard-response","104","158322","0.0-23.0-0.3","SS1613170522532","","","null","","","","","<p><img src= images/blank.png width =""200"" height = ""200"" style = ""float:right""></p><p><img src=images/blank.png width =""800"" height = ""200""></p>","","","","","","","","","","","",""
"","152.99999993294477","sequential-stimulus-presentation","105","159285","0.0-23.0-1.3","SS1613170522532","trial","","40","800","952.9999999329448","images/stimuli/spore_stims/simple_16_A_a.gif","images/stimuli/spore_stims/simple_16_B_a.gif","","","","","5","simple_similar","images/stimuli/spore_stims/simple_16_B_a.gif","middle","","","","",""
"","null","html-keyboard-response","106","160187","0.0-23.0-0.4","SS1613170522532","","","null","","","","","<p><img src= images/blank.png width =""200"" height = ""200"" style = ""float:right""></p><p><img src=images/blank.png width =""800"" height = ""200""></p>","","","","","","","","","","","",""
"","25.000000023283064","sequential-stimulus-presentation","107","161023","0.0-23.0-1.4","SS1613170522532","trial","","40","800","825.0000000232831","images/stimuli/spore_stims/simple_16_A_a.gif","images/stimuli/spore_stims/simple_16_B_a.gif","","","","","5","simple_similar","images/stimuli/spore_stims/simple_16_B_a.gif","middle","","","","",""
"","null","html-keyboard-response","108","161841","0.0-23.0-0.5","SS1613170522532","","","null","","","","","<p><img src= images/blank.png width =""200"" height = ""200"" style = ""float:right""></p><p><img src=images/blank.png width =""800"" height = ""200""></p>","","","","","","","","","","","",""
"","123.00000002142042","sequential-stimulus-presentation","109","162775","0.0-23.0-1.5","SS1613170522532","trial","","40","800","923.0000000214204","images/stimuli/spore_stims/simple_16_A_a.gif","images/stimuli/spore_stims/simple_16_B_a.gif","","","","","5","simple_similar","images/stimuli/spore_stims/simple_16_B_a.gif","middle","","","","",""
"","null","html-keyboard-response","110","163606","0.0-23.0-0.6","SS1613170522532","","","null","","","","","<p><img src= images/blank.png width =""200"" height = ""200"" style = ""float:right""></p><p><img src=images/blank.png width =""800"" height = ""200""></p>","","","","","","","","","","","",""
"","96.9999999506399","sequential-stimulus-presentation","111","164515","0.0-23.0-1.6","SS1613170522532","trial","","40","800","896.9999999506399","images/stimuli/spore_stims/simple_16_A_a.gif","images/stimuli/spore_stims/simple_16_B_a.gif","","","","","5","simple_similar","images/stimuli/spore_stims/simple_16_A_a.gif","right","","","","",""
"","null","html-keyboard-response","112","165500","0.0-23.0-0.7","SS1613170522532","","","null","","","","","<p><img src= images/blank.png width =""200"" height = ""200"" style = ""float:right""></p><p><img src=images/blank.png width =""800"" height = ""200""></p>","","","","","","","","","","","",""
"","50.99999997764826","sequential-stimulus-presentation","113","166358","0.0-23.0-1.7","SS1613170522532","trial","","40","800","850.9999999776483","images/stimuli/spore_stims/simple_16_A_a.gif","images/stimuli/spore_stims/simple_16_B_a.gif","","","","","5","simple_similar","images/stimuli/spore_stims/simple_16_B_a.gif","middle","","","","",""
"","4180.999999982305","html-keyboard-response","114","170571","0.0-24.0","SS1613170522532","pref_question","","49","","","","","<video width ='960' height = '540' style='padding-top:8%' autoplay muted><source src='images/stimuli/wall_pref.mp4' type='video/mp4'></video>","1","left","25%","5","","","","","","","",""
"","114.00000005960464","sequential-stimulus-presentation","115","171493","0.0-25.0","SS1613170522532","pref_reveal","","40","800","914.0000000596046","null","null","","","","","5","","","","novel","","","",""
"","null","html-keyboard-response","116","172733","0.0-26.0-0.0","SS1613170522532","","","null","","","","","<p><img src= images/blank.png width =""200"" height = ""200"" style = ""float:right""></p><p><img src=images/blank.png width =""800"" height = ""200""></p>","","","","","","","","","","","",""
"","4674.999999930151","sequential-stimulus-presentation","117","178216","0.0-26.0-1.0","SS1613170522532","trial","","40","800","5474.999999930151","images/stimuli/spore_stims/complex_13_A_b.gif","images/stimuli/spore_stims/complex_07_A_d.gif","","","","","6","complex_dissimilar","images/stimuli/spore_stims/complex_07_A_d.gif","right","","","","",""
"","null","html-keyboard-response","118","179090","0.0-26.0-0.1","SS1613170522532","","","null","","","","","<p><img src= images/blank.png width =""200"" height = ""200"" style = ""float:right""></p><p><img src=images/blank.png width =""800"" height = ""200""></p>","","","","","","","","","","","",""
"","49.99999993015081","sequential-stimulus-presentation","119","179950","0.0-26.0-1.1","SS1613170522532","trial","","40","800","849.9999999301508","images/stimuli/spore_stims/complex_13_A_b.gif","images/stimuli/spore_stims/complex_07_A_d.gif","","","","","6","complex_dissimilar","images/stimuli/spore_stims/complex_07_A_d.gif","right","","","","",""
"","null","html-keyboard-response","120","181011","0.0-26.0-0.2","SS1613170522532","","","null","","","","","<p><img src= images/blank.png width =""200"" height = ""200"" style = ""float:right""></p><p><img src=images/blank.png width =""800"" height = ""200""></p>","","","","","","","","","","","",""
"","119.99999999534339","sequential-stimulus-presentation","121","181939","0.0-26.0-1.2","SS1613170522532","trial","","40","800","919.9999999953434","images/stimuli/spore_stims/complex_13_A_b.gif","images/stimuli/spore_stims/complex_07_A_d.gif","","","","","6","complex_dissimilar","images/stimuli/spore_stims/complex_07_A_d.gif","right","","","","",""
"","null","html-keyboard-response","122","183083","0.0-26.0-0.3","SS1613170522532","","","null","","","","","<p><img src= images/blank.png width =""200"" height = ""200"" style = ""float:right""></p><p><img src=images/blank.png width =""800"" height = ""200""></p>","","","","","","","","","","","",""
"","69.00000001769513","sequential-stimulus-presentation","123","183960","0.0-26.0-1.3","SS1613170522532","trial","","40","800","869.0000000176951","images/stimuli/spore_stims/complex_13_A_b.gif","images/stimuli/spore_stims/complex_07_A_d.gif","","","","","6","complex_dissimilar","images/stimuli/spore_stims/complex_07_A_d.gif","right","","","","",""
"","null","html-keyboard-response","124","184834","0.0-26.0-0.4","SS1613170522532","","","null","","","","","<p><img src= images/blank.png width =""200"" height = ""200"" style = ""float:right""></p><p><img src=images/blank.png width =""800"" height = ""200""></p>","","","","","","","","","","","",""
"","48.99999999906868","sequential-stimulus-presentation","125","185688","0.0-26.0-1.4","SS1613170522532","trial","","40","800","848.9999999990687","images/stimuli/spore_stims/complex_13_A_b.gif","images/stimuli/spore_stims/complex_07_A_d.gif","","","","","6","complex_dissimilar","images/stimuli/spore_stims/complex_07_A_d.gif","right","","","","",""
"","null","html-keyboard-response","126","186699","0.0-26.0-0.5","SS1613170522532","","","null","","","","","<p><img src= images/blank.png width =""200"" height = ""200"" style = ""float:right""></p><p><img src=images/blank.png width =""800"" height = ""200""></p>","","","","","","","","","","","",""
"","80.0000000745058","sequential-stimulus-presentation","127","187591","0.0-26.0-1.5","SS1613170522532","trial","","40","800","880.0000000745058","images/stimuli/spore_stims/complex_13_A_b.gif","images/stimuli/spore_stims/complex_07_A_d.gif","","","","","6","complex_dissimilar","images/stimuli/spore_stims/complex_13_A_b.gif","left","","","","",""
"","null","html-keyboard-response","128","188499","0.0-26.0-0.6","SS1613170522532","","","null","","","","","<p><img src= images/blank.png width =""200"" height = ""200"" style = ""float:right""></p><p><img src=images/blank.png width =""800"" height = ""200""></p>","","","","","","","","","","","",""
"","199.00000002235174","sequential-stimulus-presentation","129","189509","0.0-26.0-1.6","SS1613170522532","trial","","40","800","999.0000000223517","images/stimuli/spore_stims/complex_13_A_b.gif","images/stimuli/spore_stims/complex_07_A_d.gif","","","","","6","complex_dissimilar","images/stimuli/spore_stims/complex_07_A_d.gif","right","","","","",""
"","null","html-keyboard-response","130","190486","0.0-26.0-0.7","SS1613170522532","","","null","","","","","<p><img src= images/blank.png width =""200"" height = ""200"" style = ""float:right""></p><p><img src=images/blank.png width =""800"" height = ""200""></p>","","","","","","","","","","","",""
"","72.99999997485429","sequential-stimulus-presentation","131","191386","0.0-26.0-1.7","SS1613170522532","trial","","40","800","872.9999999748543","images/stimuli/spore_stims/complex_13_A_b.gif","images/stimuli/spore_stims/complex_07_A_d.gif","","","","","6","complex_dissimilar","images/stimuli/spore_stims/complex_07_A_d.gif","right","","","","",""
"","1739.9999999906868","html-keyboard-response","132","193130","0.0-27.0","SS1613170522532","pref_question","","49","","","","","<video width ='960' height = '540' style='padding-top:8%' autoplay muted><source src='images/stimuli/wall_pref.mp4' type='video/mp4'></video>","1","left","25%","6","","","","","","","",""
"","167.9999999469146","sequential-stimulus-presentation","133","194106","0.0-28.0","SS1613170522532","pref_reveal","","40","800","967.9999999469146","null","null","","","","","6","","","","deviant","","","",""
"","null","html-keyboard-response","134","195346","0.0-29.0-0.0","SS1613170522532","","","null","","","","","<p><img src= images/blank.png width =""200"" height = ""200"" style = ""float:right""></p><p><img src=images/blank.png width =""800"" height = ""200""></p>","","","","","","","","","","","",""
"","150.00000002328306","sequential-stimulus-presentation","135","196305","0.0-29.0-1.0","SS1613170522532","trial","","40","800","950.0000000232831","images/stimuli/spore_stims/complex_03_B_b.gif","images/stimuli/spore_stims/complex_03_A_b.gif","","","","","7","complex_similar","images/stimuli/spore_stims/complex_03_A_b.gif","middle","","","","",""
"","null","html-keyboard-response","136","197211","0.0-29.0-0.1","SS1613170522532","","","null","","","","","<p><img src= images/blank.png width =""200"" height = ""200"" style = ""float:right""></p><p><img src=images/blank.png width =""800"" height = ""200""></p>","","","","","","","","","","","",""
"","193.000000086613","sequential-stimulus-presentation","137","198215","0.0-29.0-1.1","SS1613170522532","trial","","40","800","993.000000086613","images/stimuli/spore_stims/complex_03_B_b.gif","images/stimuli/spore_stims/complex_03_A_b.gif","","","","","7","complex_similar","images/stimuli/spore_stims/complex_03_A_b.gif","middle","","","","",""
"","null","html-keyboard-response","138","199496","0.0-29.0-0.2","SS1613170522532","","","null","","","","","<p><img src= images/blank.png width =""200"" height = ""200"" style = ""float:right""></p><p><img src=images/blank.png width =""800"" height = ""200""></p>","","","","","","","","","","","",""
"","180.99999998230487","sequential-stimulus-presentation","139","200485","0.0-29.0-1.2","SS1613170522532","trial","","40","800","980.9999999823049","images/stimuli/spore_stims/complex_03_B_b.gif","images/stimuli/spore_stims/complex_03_A_b.gif","","","","","7","complex_similar","images/stimuli/spore_stims/complex_03_A_b.gif","middle","","","","",""
"","null","html-keyboard-response","140","201427","0.0-29.0-0.3","SS1613170522532","","","null","","","","","<p><img src= images/blank.png width =""200"" height = ""200"" style = ""float:right""></p><p><img src=images/blank.png width =""800"" height = ""200""></p>","","","","","","","","","","","",""
"","167.00000001583248","sequential-stimulus-presentation","141","202417","0.0-29.0-1.3","SS1613170522532","trial","","40","800","967.0000000158325","images/stimuli/spore_stims/complex_03_B_b.gif","images/stimuli/spore_stims/complex_03_A_b.gif","","","","","7","complex_similar","images/stimuli/spore_stims/complex_03_A_b.gif","middle","","","","",""
"","null","html-keyboard-response","142","203274","0.0-29.0-0.4","SS1613170522532","","","null","","","","","<p><img src= images/blank.png width =""200"" height = ""200"" style = ""float:right""></p><p><img src=images/blank.png width =""800"" height = ""200""></p>","","","","","","","","","","","",""
"","138.00000003539026","sequential-stimulus-presentation","143","204222","0.0-29.0-1.4","SS1613170522532","trial","","40","800","938.0000000353903","images/stimuli/spore_stims/complex_03_B_b.gif","images/stimuli/spore_stims/complex_03_A_b.gif","","","","","7","complex_similar","images/stimuli/spore_stims/complex_03_A_b.gif","middle","","","","",""
"","null","html-keyboard-response","144","205032","0.0-29.0-0.5","SS1613170522532","","","null","","","","","<p><img src= images/blank.png width =""200"" height = ""200"" style = ""float:right""></p><p><img src=images/blank.png width =""800"" height = ""200""></p>","","","","","","","","","","","",""
"","201.00000000093132","sequential-stimulus-presentation","145","206050","0.0-29.0-1.5","SS1613170522532","trial","","40","800","1001.0000000009313","images/stimuli/spore_stims/complex_03_B_b.gif","images/stimuli/spore_stims/complex_03_A_b.gif","","","","","7","complex_similar","images/stimuli/spore_stims/complex_03_A_b.gif","middle","","","","",""
"","null","html-keyboard-response","146","207014","0.0-29.0-0.6","SS1613170522532","","","null","","","","","<p><img src= images/blank.png width =""200"" height = ""200"" style = ""float:right""></p><p><img src=images/blank.png width =""800"" height = ""200""></p>","","","","","","","","","","","",""
"","113.99999994318932","sequential-stimulus-presentation","147","207937","0.0-29.0-1.6","SS1613170522532","trial","","40","800","913.9999999431893","images/stimuli/spore_stims/complex_03_B_b.gif","images/stimuli/spore_stims/complex_03_A_b.gif","","","","","7","complex_similar","images/stimuli/spore_stims/complex_03_B_b.gif","right","","","","",""
"","null","html-keyboard-response","148","208805","0.0-29.0-0.7","SS1613170522532","","","null","","","","","<p><img src= images/blank.png width =""200"" height = ""200"" style = ""float:right""></p><p><img src=images/blank.png width =""800"" height = ""200""></p>","","","","","","","","","","","",""
"","7.0000000996515155","sequential-stimulus-presentation","149","209633","0.0-29.0-1.7","SS1613170522532","trial","","40","800","807.0000000996515","images/stimuli/spore_stims/complex_03_B_b.gif","images/stimuli/spore_stims/complex_03_A_b.gif","","","","","7","complex_similar","images/stimuli/spore_stims/complex_03_A_b.gif","middle","","","","",""
"","32.99999993760139","html-keyboard-response","150","209674","0.0-30.0","SS1613170522532","pref_question","","49","","","","","<video width ='960' height = '540' style='padding-top:8%' autoplay muted><source src='images/stimuli/wall_pref.mp4' type='video/mp4'></video>","1","left","25%","7","","","","","","","",""
"","103.00000000279397","sequential-stimulus-presentation","151","210586","0.0-31.0","SS1613170522532","pref_reveal","","40","800","903.000000002794","null","null","","","","","7","","","","novel","","","",""
"","null","html-keyboard-response","152","211620","0.0-32.0-0.0","SS1613170522532","","","null","","","","","<p><img src= images/blank.png width =""200"" height = ""200"" style = ""float:right""></p><p><img src=images/blank.png width =""800"" height = ""200""></p>","","","","","","","","","","","",""
"","50.99999997764826","sequential-stimulus-presentation","153","212481","0.0-32.0-1.0","SS1613170522532","trial","","40","800","850.9999999776483","images/stimuli/spore_stims/complex_15_A_b.gif","images/stimuli/spore_stims/complex_15_B_b.gif","","","","","8","complex_similar","images/stimuli/spore_stims/complex_15_B_b.gif","middle","","","","",""
"","null","html-keyboard-response","154","213710","0.0-32.0-0.1","SS1613170522532","","","null","","","","","<p><img src= images/blank.png width =""200"" height = ""200"" style = ""float:right""></p><p><img src=images/blank.png width =""800"" height = ""200""></p>","","","","","","","","","","","",""
"","62.999999965541065","sequential-stimulus-presentation","155","214585","0.0-32.0-1.1","SS1613170522532","trial","","40","800","862.9999999655411","images/stimuli/spore_stims/complex_15_A_b.gif","images/stimuli/spore_stims/complex_15_B_b.gif","","","","","8","complex_similar","images/stimuli/spore_stims/complex_15_B_b.gif","middle","","","","",""
"","null","html-keyboard-response","156","215538","0.0-32.0-0.2","SS1613170522532","","","null","","","","","<p><img src= images/blank.png width =""200"" height = ""200"" style = ""float:right""></p><p><img src=images/blank.png width =""800"" height = ""200""></p>","","","","","","","","","","","",""
"","17.99999992363155","sequential-stimulus-presentation","157","216369","0.0-32.0-1.2","SS1613170522532","trial","","40","800","817.9999999236315","images/stimuli/spore_stims/complex_15_A_b.gif","images/stimuli/spore_stims/complex_15_B_b.gif","","","","","8","complex_similar","images/stimuli/spore_stims/complex_15_B_b.gif","middle","","","","",""
"","null","html-keyboard-response","158","217402","0.0-32.0-0.3","SS1613170522532","","","null","","","","","<p><img src= images/blank.png width =""200"" height = ""200"" style = ""float:right""></p><p><img src=images/blank.png width =""800"" height = ""200""></p>","","","","","","","","","","","",""
"","195.00000006519258","sequential-stimulus-presentation","159","218407","0.0-32.0-1.3","SS1613170522532","trial","","40","800","995.0000000651926","images/stimuli/spore_stims/complex_15_A_b.gif","images/stimuli/spore_stims/complex_15_B_b.gif","","","","","8","complex_similar","images/stimuli/spore_stims/complex_15_B_b.gif","middle","","","","",""
"","null","html-keyboard-response","160","219606","0.0-32.0-0.4","SS1613170522532","","","null","","","","","<p><img src= images/blank.png width =""200"" height = ""200"" style = ""float:right""></p><p><img src=images/blank.png width =""800"" height = ""200""></p>","","","","","","","","","","","",""
"","146.99999999720603","sequential-stimulus-presentation","161","220561","0.0-32.0-1.4","SS1613170522532","trial","","40","800","946.999999997206","images/stimuli/spore_stims/complex_15_A_b.gif","images/stimuli/spore_stims/complex_15_B_b.gif","","","","","8","complex_similar","images/stimuli/spore_stims/complex_15_B_b.gif","middle","","","","",""
"","null","html-keyboard-response","162","221702","0.0-32.0-0.5","SS1613170522532","","","null","","","","","<p><img src= images/blank.png width =""200"" height = ""200"" style = ""float:right""></p><p><img src=images/blank.png width =""800"" height = ""200""></p>","","","","","","","","","","","",""
"","91.00000001490116","sequential-stimulus-presentation","163","222601","0.0-32.0-1.5","SS1613170522532","trial","","40","800","891.0000000149012","images/stimuli/spore_stims/complex_15_A_b.gif","images/stimuli/spore_stims/complex_15_B_b.gif","","","","","8","complex_similar","images/stimuli/spore_stims/complex_15_B_b.gif","middle","","","","",""
"","null","html-keyboard-response","164","223667","0.0-32.0-0.6","SS1613170522532","","","null","","","","","<p><img src= images/blank.png width =""200"" height = ""200"" style = ""float:right""></p><p><img src=images/blank.png width =""800"" height = ""200""></p>","","","","","","","","","","","",""
"","65.9999999916181","sequential-stimulus-presentation","165","224545","0.0-32.0-1.6","SS1613170522532","trial","","40","800","865.9999999916181","images/stimuli/spore_stims/complex_15_A_b.gif","images/stimuli/spore_stims/complex_15_B_b.gif","","","","","8","complex_similar","images/stimuli/spore_stims/complex_15_A_b.gif","right","","","","",""
"","null","html-keyboard-response","166","225384","0.0-32.0-0.7","SS1613170522532","","","null","","","","","<p><img src= images/blank.png width =""200"" height = ""200"" style = ""float:right""></p><p><img src=images/blank.png width =""800"" height = ""200""></p>","","","","","","","","","","","",""
"","57.99999996088445","sequential-stimulus-presentation","167","226252","0.0-32.0-1.7","SS1613170522532","trial","","40","800","857.9999999608845","images/stimuli/spore_stims/complex_15_A_b.gif","images/stimuli/spore_stims/complex_15_B_b.gif","","","","","8","complex_similar","images/stimuli/spore_stims/complex_15_B_b.gif","middle","","","","",""
"","177.99999995622784","html-keyboard-response","168","226437","0.0-33.0","SS1613170522532","pref_question","","49","","","","","<video width ='960' height = '540' style='padding-top:8%' autoplay muted><source src='images/stimuli/wall_pref.mp4' type='video/mp4'></video>","1","left","25%","8","","","","","","","",""
"","89.99999996740371","sequential-stimulus-presentation","169","227342","0.0-34.0","SS1613170522532","pref_reveal","","40","800","889.9999999674037","null","null","","","","","8","","","","novel","","","",""
"","null","html-keyboard-response","170","228176","0.0-35.0-0.0","SS1613170522532","","","null","","","","","<p><img src= images/blank.png width =""200"" height = ""200"" style = ""float:right""></p><p><img src=images/blank.png width =""800"" height = ""200""></p>","","","","","","","","","","","",""
"","76.00000000093132","sequential-stimulus-presentation","171","229062","0.0-35.0-1.0","SS1613170522532","trial","","40","800","876.0000000009313","images/stimuli/spore_stims/complex_07_B_b.gif","images/stimuli/spore_stims/complex_12_A_a.gif","","","","","9","complex_dissimilar","images/stimuli/spore_stims/complex_12_A_a.gif","right","","","","",""
"","null","html-keyboard-response","172","230391","0.0-35.0-0.1","SS1613170522532","","","null","","","","","<p><img src= images/blank.png width =""200"" height = ""200"" style = ""float:right""></p><p><img src=images/blank.png width =""800"" height = ""200""></p>","","","","","","","","","","","",""
"","15.999999945051968","sequential-stimulus-presentation","173","231215","0.0-35.0-1.1","SS1613170522532","trial","","40","800","815.999999945052","images/stimuli/spore_stims/complex_07_B_b.gif","images/stimuli/spore_stims/complex_12_A_a.gif","","","","","9","complex_dissimilar","images/stimuli/spore_stims/complex_12_A_a.gif","right","","","","",""
"","null","html-keyboard-response","174","232059","0.0-35.0-0.2","SS1613170522532","","","null","","","","","<p><img src= images/blank.png width =""200"" height = ""200"" style = ""float:right""></p><p><img src=images/blank.png width =""800"" height = ""200""></p>","","","","","","","","","","","",""
"","135.99999994039536","sequential-stimulus-presentation","175","233017","0.0-35.0-1.2","SS1613170522532","trial","","40","800","935.9999999403954","images/stimuli/spore_stims/complex_07_B_b.gif","images/stimuli/spore_stims/complex_12_A_a.gif","","","","","9","complex_dissimilar","images/stimuli/spore_stims/complex_12_A_a.gif","right","","","","",""
"","null","html-keyboard-response","176","234178","0.0-35.0-0.3","SS1613170522532","","","null","","","","","<p><img src= images/blank.png width =""200"" height = ""200"" style = ""float:right""></p><p><img src=images/blank.png width =""800"" height = ""200""></p>","","","","","","","","","","","",""
"","70.99999999627471","sequential-stimulus-presentation","177","235067","0.0-35.0-1.3","SS1613170522532","trial","","40","800","870.9999999962747","images/stimuli/spore_stims/complex_07_B_b.gif","images/stimuli/spore_stims/complex_12_A_a.gif","","","","","9","complex_dissimilar","images/stimuli/spore_stims/complex_12_A_a.gif","right","","","","",""
"","null","html-keyboard-response","178","236128","0.0-35.0-0.4","SS1613170522532","","","null","","","","","<p><img src= images/blank.png width =""200"" height = ""200"" style = ""float:right""></p><p><img src=images/blank.png width =""800"" height = ""200""></p>","","","","","","","","","","","",""
"","96.9999999506399","sequential-stimulus-presentation","179","237032","0.0-35.0-1.4","SS1613170522532","trial","","40","800","896.9999999506399","images/stimuli/spore_stims/complex_07_B_b.gif","images/stimuli/spore_stims/complex_12_A_a.gif","","","","","9","complex_dissimilar","images/stimuli/spore_stims/complex_07_B_b.gif","middle","","","","",""
"","null","html-keyboard-response","180","237973","0.0-35.0-0.5","SS1613170522532","","","null","","","","","<p><img src= images/blank.png width =""200"" height = ""200"" style = ""float:right""></p><p><img src=images/blank.png width =""800"" height = ""200""></p>","","","","","","","","","","","",""
"","201.00000000093132","sequential-stimulus-presentation","181","238984","0.0-35.0-1.5","SS1613170522532","trial","","40","800","1001.0000000009313","images/stimuli/spore_stims/complex_07_B_b.gif","images/stimuli/spore_stims/complex_12_A_a.gif","","","","","9","complex_dissimilar","images/stimuli/spore_stims/complex_12_A_a.gif","right","","","","",""
"","null","html-keyboard-response","182","239965","0.0-35.0-0.6","SS1613170522532","","","null","","","","","<p><img src= images/blank.png width =""200"" height = ""200"" style = ""float:right""></p><p><img src=images/blank.png width =""800"" height = ""200""></p>","","","","","","","","","","","",""
"","149.00000009220093","sequential-stimulus-presentation","183","240927","0.0-35.0-1.6","SS1613170522532","trial","","40","800","949.0000000922009","images/stimuli/spore_stims/complex_07_B_b.gif","images/stimuli/spore_stims/complex_12_A_a.gif","","","","","9","complex_dissimilar","images/stimuli/spore_stims/complex_12_A_a.gif","right","","","","",""
"","null","html-keyboard-response","184","241852","0.0-35.0-0.7","SS1613170522532","","","null","","","","","<p><img src= images/blank.png width =""200"" height = ""200"" style = ""float:right""></p><p><img src=images/blank.png width =""800"" height = ""200""></p>","","","","","","","","","","","",""
"","162.999999942258","sequential-stimulus-presentation","185","242833","0.0-35.0-1.7","SS1613170522532","trial","","40","800","962.999999942258","images/stimuli/spore_stims/complex_07_B_b.gif","images/stimuli/spore_stims/complex_12_A_a.gif","","","","","9","complex_dissimilar","images/stimuli/spore_stims/complex_12_A_a.gif","right","","","","",""
"","148.9999999757856","html-keyboard-response","186","242999","0.0-36.0","SS1613170522532","pref_question","","50","","","","","<video width ='960' height = '540' style='padding-top:8%' autoplay muted><source src='images/stimuli/wall_pref.mp4' type='video/mp4'></video>","2","middle","45%","9","","","","","","","",""
"","38.99999998975545","sequential-stimulus-presentation","187","243865","0.0-37.0","SS1613170522532","pref_reveal","","40","800","838.9999999897555","null","null","","","","","9","","","","deviant","","","",""
"","null","html-keyboard-response","188","245045","0.0-38.0-0.0","SS1613170522532","","","null","","","","","<p><img src= images/blank.png width =""200"" height = ""200"" style = ""float:right""></p><p><img src=images/blank.png width =""800"" height = ""200""></p>","","","","","","","","","","","",""
"","33.00000005401671","sequential-stimulus-presentation","189","245887","0.0-38.0-1.0","SS1613170522532","trial","","40","800","833.0000000540167","images/stimuli/spore_stims/complex_14_A_d.gif","images/stimuli/spore_stims/complex_14_B_d.gif","","","","","10","complex_similar","images/stimuli/spore_stims/complex_14_B_d.gif","left","","","","",""
"","null","html-keyboard-response","190","246806","0.0-38.0-0.1","SS1613170522532","","","null","","","","","<p><img src= images/blank.png width =""200"" height = ""200"" style = ""float:right""></p><p><img src=images/blank.png width =""800"" height = ""200""></p>","","","","","","","","","","","",""
"","104.99999998137355","sequential-stimulus-presentation","191","247724","0.0-38.0-1.1","SS1613170522532","trial","","40","800","904.9999999813735","images/stimuli/spore_stims/complex_14_A_d.gif","images/stimuli/spore_stims/complex_14_B_d.gif","","","","","10","complex_similar","images/stimuli/spore_stims/complex_14_B_d.gif","left","","","","",""
"","null","html-keyboard-response","192","248765","0.0-38.0-0.2","SS1613170522532","","","null","","","","","<p><img src= images/blank.png width =""200"" height = ""200"" style = ""float:right""></p><p><img src=images/blank.png width =""800"" height = ""200""></p>","","","","","","","","","","","",""
"","234.00000005494803","sequential-stimulus-presentation","193","249838","0.0-38.0-1.2","SS1613170522532","trial","","40","800","1034.000000054948","images/stimuli/spore_stims/complex_14_A_d.gif","images/stimuli/spore_stims/complex_14_B_d.gif","","","","","10","complex_similar","images/stimuli/spore_stims/complex_14_B_d.gif","left","","","","",""
"","null","html-keyboard-response","194","250953","0.0-38.0-0.3","SS1613170522532","","","null","","","","","<p><img src= images/blank.png width =""200"" height = ""200"" style = ""float:right""></p><p><img src=images/blank.png width =""800"" height = ""200""></p>","","","","","","","","","","","",""
"","126.99999997857958","sequential-stimulus-presentation","195","251892","0.0-38.0-1.3","SS1613170522532","trial","","40","800","926.9999999785796","images/stimuli/spore_stims/complex_14_A_d.gif","images/stimuli/spore_stims/complex_14_B_d.gif","","","","","10","complex_similar","images/stimuli/spore_stims/complex_14_B_d.gif","left","","","","",""
"","null","html-keyboard-response","196","253119","0.0-38.0-0.4","SS1613170522532","","","null","","","","","<p><img src= images/blank.png width =""200"" height = ""200"" style = ""float:right""></p><p><img src=images/blank.png width =""800"" height = ""200""></p>","","","","","","","","","","","",""
"","101.99999995529652","sequential-stimulus-presentation","197","254030","0.0-38.0-1.4","SS1613170522532","trial","","40","800","901.9999999552965","images/stimuli/spore_stims/complex_14_A_d.gif","images/stimuli/spore_stims/complex_14_B_d.gif","","","","","10","complex_similar","images/stimuli/spore_stims/complex_14_B_d.gif","left","","","","",""
"","null","html-keyboard-response","198","255089","0.0-38.0-0.5","SS1613170522532","","","null","","","","","<p><img src= images/blank.png width =""200"" height = ""200"" style = ""float:right""></p><p><img src=images/blank.png width =""800"" height = ""200""></p>","","","","","","","","","","","",""
"","26907.00000000652","sequential-stimulus-presentation","199","282805","0.0-38.0-1.5","SS1613170522532","trial","","40","800","27707.00000000652","images/stimuli/spore_stims/complex_14_A_d.gif","images/stimuli/spore_stims/complex_14_B_d.gif","","","","","10","complex_similar","images/stimuli/spore_stims/complex_14_B_d.gif","left","","","","",""
"","null","html-keyboard-response","200","283996","0.0-38.0-0.6","SS1613170522532","","","null","","","","","<p><img src= images/blank.png width =""200"" height = ""200"" style = ""float:right""></p><p><img src=images/blank.png width =""800"" height = ""200""></p>","","","","","","","","","","","",""
"","179.99999993480742","sequential-stimulus-presentation","201","284984","0.0-38.0-1.6","SS1613170522532","trial","","40","800","979.9999999348074","images/stimuli/spore_stims/complex_14_A_d.gif","images/stimuli/spore_stims/complex_14_B_d.gif","","","","","10","complex_similar","images/stimuli/spore_stims/complex_14_A_d.gif","right","","","","",""
"","null","html-keyboard-response","202","286093","0.0-38.0-0.7","SS1613170522532","","","null","","","","","<p><img src= images/blank.png width =""200"" height = ""200"" style = ""float:right""></p><p><img src=images/blank.png width =""800"" height = ""200""></p>","","","","","","","","","","","",""
"","54.00000000372529","sequential-stimulus-presentation","203","286959","0.0-38.0-1.7","SS1613170522532","trial","","40","800","854.0000000037253","images/stimuli/spore_stims/complex_14_A_d.gif","images/stimuli/spore_stims/complex_14_B_d.gif","","","","","10","complex_similar","images/stimuli/spore_stims/complex_14_B_d.gif","left","","","","",""
"","157.9999999376014","html-keyboard-response","204","287124","0.0-39.0","SS1613170522532","pref_question","","50","","","","","<video width ='960' height = '540' style='padding-top:8%' autoplay muted><source src='images/stimuli/wall_pref.mp4' type='video/mp4'></video>","2","middle","45%","10","","","","","","","",""
"","190.9999999916181","sequential-stimulus-presentation","205","288125","0.0-40.0","SS1613170522532","pref_reveal","","40","800","990.9999999916181","null","null","","","","","10","","","","novel","","","",""
"","null","html-keyboard-response","206","289136","0.0-41.0-0.0","SS1613170522532","","","null","","","","","<p><img src= images/blank.png width =""200"" height = ""200"" style = ""float:right""></p><p><img src=images/blank.png width =""800"" height = ""200""></p>","","","","","","","","","","","",""
"","60.000000055879354","sequential-stimulus-presentation","207","290010","0.0-41.0-1.0","SS1613170522532","trial","","40","800","860.0000000558794","images/stimuli/spore_stims/simple_20_A_a.gif","images/stimuli/spore_stims/simple_20_B_a.gif","","","","","11","simple_similar","images/stimuli/spore_stims/simple_20_B_a.gif","middle","","","","",""
"","null","html-keyboard-response","208","290881","0.0-41.0-0.1","SS1613170522532","","","null","","","","","<p><img src= images/blank.png width =""200"" height = ""200"" style = ""float:right""></p><p><img src=images/blank.png width =""800"" height = ""200""></p>","","","","","","","","","","","",""
"","30.999999959021807","sequential-stimulus-presentation","209","291719","0.0-41.0-1.1","SS1613170522532","trial","","40","800","830.9999999590218","images/stimuli/spore_stims/simple_20_A_a.gif","images/stimuli/spore_stims/simple_20_B_a.gif","","","","","11","simple_similar","images/stimuli/spore_stims/simple_20_B_a.gif","middle","","","","",""
"","null","html-keyboard-response","210","292950","0.0-41.0-0.2","SS1613170522532","","","null","","","","","<p><img src= images/blank.png width =""200"" height = ""200"" style = ""float:right""></p><p><img src=images/blank.png width =""800"" height = ""200""></p>","","","","","","","","","","","",""
"","168.99999999441206","sequential-stimulus-presentation","211","293935","0.0-41.0-1.2","SS1613170522532","trial","","40","800","968.9999999944121","images/stimuli/spore_stims/simple_20_A_a.gif","images/stimuli/spore_stims/simple_20_B_a.gif","","","","","11","simple_similar","images/stimuli/spore_stims/simple_20_A_a.gif","left","","","","",""
"","null","html-keyboard-response","212","294979","0.0-41.0-0.3","SS1613170522532","","","null","","","","","<p><img src= images/blank.png width =""200"" height = ""200"" style = ""float:right""></p><p><img src=images/blank.png width =""800"" height = ""200""></p>","","","","","","","","","","","",""
"","171.99999990407377","sequential-stimulus-presentation","213","295969","0.0-41.0-1.3","SS1613170522532","trial","","40","800","971.9999999040738","images/stimuli/spore_stims/simple_20_A_a.gif","images/stimuli/spore_stims/simple_20_B_a.gif","","","","","11","simple_similar","images/stimuli/spore_stims/simple_20_B_a.gif","middle","","","","",""
"","null","html-keyboard-response","214","297095","0.0-41.0-0.4","SS1613170522532","","","null","","","","","<p><img src= images/blank.png width =""200"" height = ""200"" style = ""float:right""></p><p><img src=images/blank.png width =""800"" height = ""200""></p>","","","","","","","","","","","",""
"","94.99999997206032","sequential-stimulus-presentation","215","298047","0.0-41.0-1.4","SS1613170522532","trial","","40","800","894.9999999720603","images/stimuli/spore_stims/simple_20_A_a.gif","images/stimuli/spore_stims/simple_20_B_a.gif","","","","","11","simple_similar","images/stimuli/spore_stims/simple_20_B_a.gif","middle","","","","",""
"","null","html-keyboard-response","216","299151","0.0-41.0-0.5","SS1613170522532","","","null","","","","","<p><img src= images/blank.png width =""200"" height = ""200"" style = ""float:right""></p><p><img src=images/blank.png width =""800"" height = ""200""></p>","","","","","","","","","","","",""
"","130.0000000046566","sequential-stimulus-presentation","217","300092","0.0-41.0-1.5","SS1613170522532","trial","","40","800","930.0000000046566","images/stimuli/spore_stims/simple_20_A_a.gif","images/stimuli/spore_stims/simple_20_B_a.gif","","","","","11","simple_similar","images/stimuli/spore_stims/simple_20_B_a.gif","middle","","","","",""
"","null","html-keyboard-response","218","301105","0.0-41.0-0.6","SS1613170522532","","","null","","","","","<p><img src= images/blank.png width =""200"" height = ""200"" style = ""float:right""></p><p><img src=images/blank.png width =""800"" height = ""200""></p>","","","","","","","","","","","",""
"","20.99999994970858","sequential-stimulus-presentation","219","301932","0.0-41.0-1.6","SS1613170522532","trial","","40","800","820.9999999497086","images/stimuli/spore_stims/simple_20_A_a.gif","images/stimuli/spore_stims/simple_20_B_a.gif","","","","","11","simple_similar","images/stimuli/spore_stims/simple_20_B_a.gif","middle","","","","",""
"","null","html-keyboard-response","220","302994","0.0-41.0-0.7","SS1613170522532","","","null","","","","","<p><img src= images/blank.png width =""200"" height = ""200"" style = ""float:right""></p><p><img src=images/blank.png width =""800"" height = ""200""></p>","","","","","","","","","","","",""
"","163.99999998975545","sequential-stimulus-presentation","221","303966","0.0-41.0-1.7","SS1613170522532","trial","","40","800","963.9999999897555","images/stimuli/spore_stims/simple_20_A_a.gif","images/stimuli/spore_stims/simple_20_B_a.gif","","","","","11","simple_similar","images/stimuli/spore_stims/simple_20_B_a.gif","middle","","","","",""
"","878.000000026077","html-keyboard-response","222","304863","0.0-42.0","SS1613170522532","pref_question","","49","","","","","<video width ='960' height = '540' style='padding-top:8%' autoplay muted><source src='images/stimuli/wall_pref.mp4' type='video/mp4'></video>","1","left","25%","11","","","","","","","",""
"","155.9999999590218","sequential-stimulus-presentation","223","305824","0.0-43.0","SS1613170522532","pref_reveal","","40","800","955.9999999590218","null","null","","","","","11","","","","deviant","","","",""
"","null","html-keyboard-response","224","306989","0.0-44.0-0.0","SS1613170522532","","","null","","","","","<p><img src= images/blank.png width =""200"" height = ""200"" style = ""float:right""></p><p><img src=images/blank.png width =""800"" height = ""200""></p>","","","","","","","","","","","",""
"","67.99999997019768","sequential-stimulus-presentation","225","307873","0.0-44.0-1.0","SS1613170522532","trial","","40","800","867.9999999701977","images/stimuli/spore_stims/simple_14_B_b.gif","images/stimuli/spore_stims/simple_14_A_b.gif","","","","","12","simple_similar","images/stimuli/spore_stims/simple_14_A_b.gif","left","","","","",""
"","null","html-keyboard-response","226","309114","0.0-44.0-0.1","SS1613170522532","","","null","","","","","<p><img src= images/blank.png width =""200"" height = ""200"" style = ""float:right""></p><p><img src=images/blank.png width =""800"" height = ""200""></p>","","","","","","","","","","","",""
"","192.99999997019768","sequential-stimulus-presentation","227","310115","0.0-44.0-1.1","SS1613170522532","trial","","40","800","992.9999999701977","images/stimuli/spore_stims/simple_14_B_b.gif","images/stimuli/spore_stims/simple_14_A_b.gif","","","","","12","simple_similar","images/stimuli/spore_stims/simple_14_A_b.gif","left","","","","",""
"","null","html-keyboard-response","228","311418","0.0-44.0-0.2","SS1613170522532","","","null","","","","","<p><img src= images/blank.png width =""200"" height = ""200"" style = ""float:right""></p><p><img src=images/blank.png width =""800"" height = ""200""></p>","","","","","","","","","","","",""
"","152.00000000186265","sequential-stimulus-presentation","229","312406","0.0-44.0-1.2","SS1613170522532","trial","","40","800","952.0000000018626","images/stimuli/spore_stims/simple_14_B_b.gif","images/stimuli/spore_stims/simple_14_A_b.gif","","","","","12","simple_similar","images/stimuli/spore_stims/simple_14_A_b.gif","left","","","","",""
"","null","html-keyboard-response","230","313342","0.0-44.0-0.3","SS1613170522532","","","null","","","","","<p><img src= images/blank.png width =""200"" height = ""200"" style = ""float:right""></p><p><img src=images/blank.png width =""800"" height = ""200""></p>","","","","","","","","","","","",""
"","13.000000035390258","sequential-stimulus-presentation","231","314159","0.0-44.0-1.3","SS1613170522532","trial","","40","800","813.0000000353903","images/stimuli/spore_stims/simple_14_B_b.gif","images/stimuli/spore_stims/simple_14_A_b.gif","","","","","12","simple_similar","images/stimuli/spore_stims/simple_14_A_b.gif","left","","","","",""
"","null","html-keyboard-response","232","315347","0.0-44.0-0.4","SS1613170522532","","","null","","","","","<p><img src= images/blank.png width =""200"" height = ""200"" style = ""float:right""></p><p><img src=images/blank.png width =""800"" height = ""200""></p>","","","","","","","","","","","",""
"","115.9999999217689","sequential-stimulus-presentation","233","316273","0.0-44.0-1.4","SS1613170522532","trial","","40","800","915.9999999217689","images/stimuli/spore_stims/simple_14_B_b.gif","images/stimuli/spore_stims/simple_14_A_b.gif","","","","","12","simple_similar","images/stimuli/spore_stims/simple_14_B_b.gif","right","","","","",""
"","null","html-keyboard-response","234","317485","0.0-44.0-0.5","SS1613170522532","","","null","","","","","<p><img src= images/blank.png width =""200"" height = ""200"" style = ""float:right""></p><p><img src=images/blank.png width =""800"" height = ""200""></p>","","","","","","","","","","","",""
"","150.00000002328306","sequential-stimulus-presentation","235","318447","0.0-44.0-1.5","SS1613170522532","trial","","40","800","950.0000000232831","images/stimuli/spore_stims/simple_14_B_b.gif","images/stimuli/spore_stims/simple_14_A_b.gif","","","","","12","simple_similar","images/stimuli/spore_stims/simple_14_A_b.gif","left","","","","",""
"","null","html-keyboard-response","236","319663","0.0-44.0-0.6","SS1613170522532","","","null","","","","","<p><img src= images/blank.png width =""200"" height = ""200"" style = ""float:right""></p><p><img src=images/blank.png width =""800"" height = ""200""></p>","","","","","","","","","","","",""
"","45.000000041909516","sequential-stimulus-presentation","237","320530","0.0-44.0-1.6","SS1613170522532","trial","","40","800","845.0000000419095","images/stimuli/spore_stims/simple_14_B_b.gif","images/stimuli/spore_stims/simple_14_A_b.gif","","","","","12","simple_similar","images/stimuli/spore_stims/simple_14_A_b.gif","left","","","","",""
"","null","html-keyboard-response","238","321645","0.0-44.0-0.7","SS1613170522532","","","null","","","","","<p><img src= images/blank.png width =""200"" height = ""200"" style = ""float:right""></p><p><img src=images/blank.png width =""800"" height = ""200""></p>","","","","","","","","","","","",""
"","199.99999995343387","sequential-stimulus-presentation","239","322656","0.0-44.0-1.7","SS1613170522532","trial","","40","800","999.9999999534339","images/stimuli/spore_stims/simple_14_B_b.gif","images/stimuli/spore_stims/simple_14_A_b.gif","","","","","12","simple_similar","images/stimuli/spore_stims/simple_14_A_b.gif","left","","","","",""
"","1818.000000086613","html-keyboard-response","240","324481","0.0-45.0","SS1613170522532","pref_question","","50","","","","","<video width ='960' height = '540' style='padding-top:8%' autoplay muted><source src='images/stimuli/wall_pref.mp4' type='video/mp4'></video>","2","middle","45%","12","","","","","","","",""
"","353.00000000279397","sequential-stimulus-presentation","241","325724","0.0-46.0","SS1613170522532","pref_reveal","","40","800","1153.000000002794","null","null","","","","","12","","","","novel","","","",""
"","null","html-keyboard-response","242","326662","0.0-47.0-0.0","SS1613170522532","","","null","","","","","<p><img src= images/blank.png width =""200"" height = ""200"" style = ""float:right""></p><p><img src=images/blank.png width =""800"" height = ""200""></p>","","","","","","","","","","","",""
"","5.000000004656613","sequential-stimulus-presentation","243","327501","0.0-47.0-1.0","SS1613170522532","trial","","40","800","805.0000000046566","images/stimuli/spore_stims/simple_19_A_c.gif","images/stimuli/spore_stims/simple_08_A_a.gif","","","","","13","simple_dissimilar","images/stimuli/spore_stims/simple_08_A_a.gif","middle","","","","",""
"","null","html-keyboard-response","244","328309","0.0-47.0-0.1","SS1613170522532","","","null","","","","","<p><img src= images/blank.png width =""200"" height = ""200"" style = ""float:right""></p><p><img src=images/blank.png width =""800"" height = ""200""></p>","","","","","","","","","","","",""
"","70.99999999627471","sequential-stimulus-presentation","245","329190","0.0-47.0-1.1","SS1613170522532","trial","","40","800","870.9999999962747","images/stimuli/spore_stims/simple_19_A_c.gif","images/stimuli/spore_stims/simple_08_A_a.gif","","","","","13","simple_dissimilar","images/stimuli/spore_stims/simple_08_A_a.gif","middle","","","","",""
"","null","html-keyboard-response","246","330184","0.0-47.0-0.2","SS1613170522532","","","null","","","","","<p><img src= images/blank.png width =""200"" height = ""200"" style = ""float:right""></p><p><img src=images/blank.png width =""800"" height = ""200""></p>","","","","","","","","","","","",""
"","113.99999994318932","sequential-stimulus-presentation","247","331112","0.0-47.0-1.2","SS1613170522532","trial","","40","800","913.9999999431893","images/stimuli/spore_stims/simple_19_A_c.gif","images/stimuli/spore_stims/simple_08_A_a.gif","","","","","13","simple_dissimilar","images/stimuli/spore_stims/simple_08_A_a.gif","middle","","","","",""
"","null","html-keyboard-response","248","332122","0.0-47.0-0.3","SS1613170522532","","","null","","","","","<p><img src= images/blank.png width =""200"" height = ""200"" style = ""float:right""></p><p><img src=images/blank.png width =""800"" height = ""200""></p>","","","","","","","","","","","",""
"","180.99999998230487","sequential-stimulus-presentation","249","333110","0.0-47.0-1.3","SS1613170522532","trial","","40","800","980.9999999823049","images/stimuli/spore_stims/simple_19_A_c.gif","images/stimuli/spore_stims/simple_08_A_a.gif","","","","","13","simple_dissimilar","images/stimuli/spore_stims/simple_08_A_a.gif","middle","","","","",""
"","null","html-keyboard-response","250","334183","0.0-47.0-0.4","SS1613170522532","","","null","","","","","<p><img src= images/blank.png width =""200"" height = ""200"" style = ""float:right""></p><p><img src=images/blank.png width =""800"" height = ""200""></p>","","","","","","","","","","","",""
"","69.00000001769513","sequential-stimulus-presentation","251","335065","0.0-47.0-1.4","SS1613170522532","trial","","40","800","869.0000000176951","images/stimuli/spore_stims/simple_19_A_c.gif","images/stimuli/spore_stims/simple_08_A_a.gif","","","","","13","simple_dissimilar","images/stimuli/spore_stims/simple_19_A_c.gif","right","","","","",""
"","null","html-keyboard-response","252","336076","0.0-47.0-0.5","SS1613170522532","","","null","","","","","<p><img src= images/blank.png width =""200"" height = ""200"" style = ""float:right""></p><p><img src=images/blank.png width =""800"" height = ""200""></p>","","","","","","","","","","","",""
"","1.9999999785795808","sequential-stimulus-presentation","253","336885","0.0-47.0-1.5","SS1613170522532","trial","","40","800","801.9999999785796","images/stimuli/spore_stims/simple_19_A_c.gif","images/stimuli/spore_stims/simple_08_A_a.gif","","","","","13","simple_dissimilar","images/stimuli/spore_stims/simple_08_A_a.gif","middle","","","","",""
"","null","html-keyboard-response","254","337769","0.0-47.0-0.6","SS1613170522532","","","null","","","","","<p><img src= images/blank.png width =""200"" height = ""200"" style = ""float:right""></p><p><img src=images/blank.png width =""800"" height = ""200""></p>","","","","","","","","","","","",""
"","260.0000000093132","sequential-stimulus-presentation","255","338839","0.0-47.0-1.6","SS1613170522532","trial","","40","800","1060.0000000093132","images/stimuli/spore_stims/simple_19_A_c.gif","images/stimuli/spore_stims/simple_08_A_a.gif","","","","","13","simple_dissimilar","images/stimuli/spore_stims/simple_08_A_a.gif","middle","","","","",""
"","null","html-keyboard-response","256","339705","0.0-47.0-0.7","SS1613170522532","","","null","","","","","<p><img src= images/blank.png width =""200"" height = ""200"" style = ""float:right""></p><p><img src=images/blank.png width =""800"" height = ""200""></p>","","","","","","","","","","","",""
"","187.00000003445894","sequential-stimulus-presentation","257","340703","0.0-47.0-1.7","SS1613170522532","trial","","40","800","987.0000000344589","images/stimuli/spore_stims/simple_19_A_c.gif","images/stimuli/spore_stims/simple_08_A_a.gif","","","","","13","simple_dissimilar","images/stimuli/spore_stims/simple_08_A_a.gif","middle","","","","",""
"","35.99999996367842","html-keyboard-response","258","340750","0.0-48.0","SS1613170522532","pref_question","","51","","","","","<video width ='960' height = '540' style='padding-top:8%' autoplay muted><source src='images/stimuli/wall_pref.mp4' type='video/mp4'></video>","3","right","66%","13","","","","","","","",""
"","204.00000002700835","sequential-stimulus-presentation","259","341781","0.0-49.0","SS1613170522532","pref_reveal","","40","800","1004.0000000270084","null","null","","","","","13","","","","deviant","","","",""
"","null","html-keyboard-response","260","343071","0.0-50.0-0.0","SS1613170522532","","","null","","","","","<p><img src= images/blank.png width =""200"" height = ""200"" style = ""float:right""></p><p><img src=images/blank.png width =""800"" height = ""200""></p>","","","","","","","","","","","",""
"","190.00000006053597","sequential-stimulus-presentation","261","344083","0.0-50.0-1.0","SS1613170522532","trial","","40","800","990.000000060536","images/stimuli/spore_stims/simple_15_A_b.gif","images/stimuli/spore_stims/simple_13_A_d.gif","","","","","14","simple_dissimilar","images/stimuli/spore_stims/simple_13_A_d.gif","left","","","","",""
"","null","html-keyboard-response","262","345100","0.0-50.0-0.1","SS1613170522532","","","null","","","","","<p><img src= images/blank.png width =""200"" height = ""200"" style = ""float:right""></p><p><img src=images/blank.png width =""800"" height = ""200""></p>","","","","","","","","","","","",""
"","214.00000003632158","sequential-stimulus-presentation","263","346123","0.0-50.0-1.1","SS1613170522532","trial","","40","800","1014.0000000363216","images/stimuli/spore_stims/simple_15_A_b.gif","images/stimuli/spore_stims/simple_13_A_d.gif","","","","","14","simple_dissimilar","images/stimuli/spore_stims/simple_13_A_d.gif","left","","","","",""
"","null","html-keyboard-response","264","346944","0.0-50.0-0.2","SS1613170522532","","","null","","","","","<p><img src= images/blank.png width =""200"" height = ""200"" style = ""float:right""></p><p><img src=images/blank.png width =""800"" height = ""200""></p>","","","","","","","","","","","",""
"","11215.999999898486","sequential-stimulus-presentation","265","359001","0.0-50.0-1.2","SS1613170522532","trial","","40","800","12015.999999898486","images/stimuli/spore_stims/simple_15_A_b.gif","images/stimuli/spore_stims/simple_13_A_d.gif","","","","","14","simple_dissimilar","images/stimuli/spore_stims/simple_13_A_d.gif","left","","","","",""
"","null","html-keyboard-response","266","360302","0.0-50.0-0.3","SS1613170522532","","","null","","","","","<p><img src= images/blank.png width =""200"" height = ""200"" style = ""float:right""></p><p><img src=images/blank.png width =""800"" height = ""200""></p>","","","","","","","","","","","",""
"","23.999999975785613","sequential-stimulus-presentation","267","361144","0.0-50.0-1.3","SS1613170522532","trial","","40","800","823.9999999757856","images/stimuli/spore_stims/simple_15_A_b.gif","images/stimuli/spore_stims/simple_13_A_d.gif","","","","","14","simple_dissimilar","images/stimuli/spore_stims/simple_13_A_d.gif","left","","","","",""
"","null","html-keyboard-response","268","362441","0.0-50.0-0.4","SS1613170522532","","","null","","","","","<p><img src= images/blank.png width =""200"" height = ""200"" style = ""float:right""></p><p><img src=images/blank.png width =""800"" height = ""200""></p>","","","","","","","","","","","",""
"","64.00000001303852","sequential-stimulus-presentation","269","363319","0.0-50.0-1.4","SS1613170522532","trial","","40","800","864.0000000130385","images/stimuli/spore_stims/simple_15_A_b.gif","images/stimuli/spore_stims/simple_13_A_d.gif","","","","","14","simple_dissimilar","images/stimuli/spore_stims/simple_13_A_d.gif","left","","","","",""
"","null","html-keyboard-response","270","364189","0.0-50.0-0.5","SS1613170522532","","","null","","","","","<p><img src= images/blank.png width =""200"" height = ""200"" style = ""float:right""></p><p><img src=images/blank.png width =""800"" height = ""200""></p>","","","","","","","","","","","",""
"","99.0000000456348","sequential-stimulus-presentation","271","365112","0.0-50.0-1.5","SS1613170522532","trial","","40","800","899.0000000456348","images/stimuli/spore_stims/simple_15_A_b.gif","images/stimuli/spore_stims/simple_13_A_d.gif","","","","","14","simple_dissimilar","images/stimuli/spore_stims/simple_13_A_d.gif","left","","","","",""
"","null","html-keyboard-response","272","365979","0.0-50.0-0.6","SS1613170522532","","","null","","","","","<p><img src= images/blank.png width =""200"" height = ""200"" style = ""float:right""></p><p><img src=images/blank.png width =""800"" height = ""200""></p>","","","","","","","","","","","",""
"","155.00000002793968","sequential-stimulus-presentation","273","366956","0.0-50.0-1.6","SS1613170522532","trial","","40","800","955.0000000279397","images/stimuli/spore_stims/simple_15_A_b.gif","images/stimuli/spore_stims/simple_13_A_d.gif","","","","","14","simple_dissimilar","images/stimuli/spore_stims/simple_15_A_b.gif","middle","","","","",""
"","null","html-keyboard-response","274","368054","0.0-50.0-0.7","SS1613170522532","","","null","","","","","<p><img src= images/blank.png width =""200"" height = ""200"" style = ""float:right""></p><p><img src=images/blank.png width =""800"" height = ""200""></p>","","","","","","","","","","","",""
"","158.99999998509884","sequential-stimulus-presentation","275","369041","0.0-50.0-1.7","SS1613170522532","trial","","40","800","958.9999999850988","images/stimuli/spore_stims/simple_15_A_b.gif","images/stimuli/spore_stims/simple_13_A_d.gif","","","","","14","simple_dissimilar","images/stimuli/spore_stims/simple_13_A_d.gif","left","","","","",""
"","163.99999998975545","html-keyboard-response","276","369214","0.0-51.0","SS1613170522532","pref_question","","49","","","","","<video width ='960' height = '540' style='padding-top:8%' autoplay muted><source src='images/stimuli/wall_pref.mp4' type='video/mp4'></video>","1","left","25%","14","","","","","","","",""
"","104.99999998137355","sequential-stimulus-presentation","277","370129","0.0-52.0","SS1613170522532","pref_reveal","","40","800","904.9999999813735","null","null","","","","","14","","","","background","","","",""
"","null","html-keyboard-response","278","371014","0.0-53.0-0.0","SS1613170522532","","","null","","","","","<p><img src= images/blank.png width =""200"" height = ""200"" style = ""float:right""></p><p><img src=images/blank.png width =""800"" height = ""200""></p>","","","","","","","","","","","",""
"","62.000000034458935","sequential-stimulus-presentation","279","371889","0.0-53.0-1.0","SS1613170522532","trial","","40","800","862.0000000344589","images/stimuli/spore_stims/complex_19_A_a.gif","images/stimuli/spore_stims/complex_06_B_d.gif","","","","","15","complex_dissimilar","images/stimuli/spore_stims/complex_06_B_d.gif","left","","","","",""
"","null","html-keyboard-response","280","372813","0.0-53.0-0.1","SS1613170522532","","","null","","","","","<p><img src= images/blank.png width =""200"" height = ""200"" style = ""float:right""></p><p><img src=images/blank.png width =""800"" height = ""200""></p>","","","","","","","","","","","",""
"","190.00000006053597","sequential-stimulus-presentation","281","373820","0.0-53.0-1.1","SS1613170522532","trial","","40","800","990.000000060536","images/stimuli/spore_stims/complex_19_A_a.gif","images/stimuli/spore_stims/complex_06_B_d.gif","","","","","15","complex_dissimilar","images/stimuli/spore_stims/complex_06_B_d.gif","left","","","","",""
"","null","html-keyboard-response","282","375081","0.0-53.0-0.2","SS1613170522532","","","null","","","","","<p><img src= images/blank.png width =""200"" height = ""200"" style = ""float:right""></p><p><img src=images/blank.png width =""800"" height = ""200""></p>","","","","","","","","","","","",""
"","103.00000000279397","sequential-stimulus-presentation","283","375992","0.0-53.0-1.2","SS1613170522532","trial","","40","800","903.000000002794","images/stimuli/spore_stims/complex_19_A_a.gif","images/stimuli/spore_stims/complex_06_B_d.gif","","","","","15","complex_dissimilar","images/stimuli/spore_stims/complex_06_B_d.gif","left","","","","",""
"","null","html-keyboard-response","284","376882","0.0-53.0-0.3","SS1613170522532","","","null","","","","","<p><img src= images/blank.png width =""200"" height = ""200"" style = ""float:right""></p><p><img src=images/blank.png width =""800"" height = ""200""></p>","","","","","","","","","","","",""
"","139.0000000828877","sequential-stimulus-presentation","285","377830","0.0-53.0-1.3","SS1613170522532","trial","","40","800","939.0000000828877","images/stimuli/spore_stims/complex_19_A_a.gif","images/stimuli/spore_stims/complex_06_B_d.gif","","","","","15","complex_dissimilar","images/stimuli/spore_stims/complex_06_B_d.gif","left","","","","",""
"","null","html-keyboard-response","286","378970","0.0-53.0-0.4","SS1613170522532","","","null","","","","","<p><img src= images/blank.png width =""200"" height = ""200"" style = ""float:right""></p><p><img src=images/blank.png width =""800"" height = ""200""></p>","","","","","","","","","","","",""
"","141.0000000614673","sequential-stimulus-presentation","287","379924","0.0-53.0-1.4","SS1613170522532","trial","","40","800","941.0000000614673","images/stimuli/spore_stims/complex_19_A_a.gif","images/stimuli/spore_stims/complex_06_B_d.gif","","","","","15","complex_dissimilar","images/stimuli/spore_stims/complex_06_B_d.gif","left","","","","",""
"","null","html-keyboard-response","288","381202","0.0-53.0-0.5","SS1613170522532","","","null","","","","","<p><img src= images/blank.png width =""200"" height = ""200"" style = ""float:right""></p><p><img src=images/blank.png width =""800"" height = ""200""></p>","","","","","","","","","","","",""
"","20.00000001862645","sequential-stimulus-presentation","289","382034","0.0-53.0-1.5","SS1613170522532","trial","","40","800","820.0000000186265","images/stimuli/spore_stims/complex_19_A_a.gif","images/stimuli/spore_stims/complex_06_B_d.gif","","","","","15","complex_dissimilar","images/stimuli/spore_stims/complex_06_B_d.gif","left","","","","",""
"","null","html-keyboard-response","290","383101","0.0-53.0-0.6","SS1613170522532","","","null","","","","","<p><img src= images/blank.png width =""200"" height = ""200"" style = ""float:right""></p><p><img src=images/blank.png width =""800"" height = ""200""></p>","","","","","","","","","","","",""
"","45.000000041909516","sequential-stimulus-presentation","291","383979","0.0-53.0-1.6","SS1613170522532","trial","","40","800","845.0000000419095","images/stimuli/spore_stims/complex_19_A_a.gif","images/stimuli/spore_stims/complex_06_B_d.gif","","","","","15","complex_dissimilar","images/stimuli/spore_stims/complex_19_A_a.gif","middle","","","","",""
"","null","html-keyboard-response","292","384880","0.0-53.0-0.7","SS1613170522532","","","null","","","","","<p><img src= images/blank.png width =""200"" height = ""200"" style = ""float:right""></p><p><img src=images/blank.png width =""800"" height = ""200""></p>","","","","","","","","","","","",""
"","3918.999999994412","sequential-stimulus-presentation","293","389608","0.0-53.0-1.7","SS1613170522532","trial","","40","800","4718.999999994412","images/stimuli/spore_stims/complex_19_A_a.gif","images/stimuli/spore_stims/complex_06_B_d.gif","","","","","15","complex_dissimilar","images/stimuli/spore_stims/complex_06_B_d.gif","left","","","","",""
"","859.9999999860302","html-keyboard-response","294","390476","0.0-54.0","SS1613170522532","pref_question","","50","","","","","<video width ='960' height = '540' style='padding-top:8%' autoplay muted><source src='images/stimuli/wall_pref.mp4' type='video/mp4'></video>","2","middle","45%","15","","","","","","","",""
"","16.99999999254942","sequential-stimulus-presentation","295","391305","0.0-55.0","SS1613170522532","pref_reveal","","40","800","816.9999999925494","null","null","","","","","15","","","","deviant","","","",""
"","null","html-keyboard-response","296","392155","0.0-56.0-0.0","SS1613170522532","","","null","","","","","<p><img src= images/blank.png width =""200"" height = ""200"" style = ""float:right""></p><p><img src=images/blank.png width =""800"" height = ""200""></p>","","","","","","","","","","","",""
"","152.00000000186265","sequential-stimulus-presentation","297","393121","0.0-56.0-1.0","SS1613170522532","trial","","40","800","952.0000000018626","images/stimuli/spore_stims/complex_04_A_a.gif","images/stimuli/spore_stims/complex_04_B_a.gif","","","","","16","complex_similar","images/stimuli/spore_stims/complex_04_B_a.gif","left","","","","",""
"","null","html-keyboard-response","298","394043","0.0-56.0-0.1","SS1613170522532","","","null","","","","","<p><img src= images/blank.png width =""200"" height = ""200"" style = ""float:right""></p><p><img src=images/blank.png width =""800"" height = ""200""></p>","","","","","","","","","","","",""
"","50.00000004656613","sequential-stimulus-presentation","299","394907","0.0-56.0-1.1","SS1613170522532","trial","","40","800","850.0000000465661","images/stimuli/spore_stims/complex_04_A_a.gif","images/stimuli/spore_stims/complex_04_B_a.gif","","","","","16","complex_similar","images/stimuli/spore_stims/complex_04_B_a.gif","left","","","","",""
"","null","html-keyboard-response","300","395804","0.0-56.0-0.2","SS1613170522532","","","null","","","","","<p><img src= images/blank.png width =""200"" height = ""200"" style = ""float:right""></p><p><img src=images/blank.png width =""800"" height = ""200""></p>","","","","","","","","","","","",""
"","55.99999998230487","sequential-stimulus-presentation","301","396683","0.0-56.0-1.2","SS1613170522532","trial","","40","800","855.9999999823049","images/stimuli/spore_stims/complex_04_A_a.gif","images/stimuli/spore_stims/complex_04_B_a.gif","","","","","16","complex_similar","images/stimuli/spore_stims/complex_04_B_a.gif","left","","","","",""
"","null","html-keyboard-response","302","397933","0.0-56.0-0.3","SS1613170522532","","","null","","","","","<p><img src= images/blank.png width =""200"" height = ""200"" style = ""float:right""></p><p><img src=images/blank.png width =""800"" height = ""200""></p>","","","","","","","","","","","",""
"","185.99999998696148","sequential-stimulus-presentation","303","398930","0.0-56.0-1.3","SS1613170522532","trial","","40","800","985.9999999869615","images/stimuli/spore_stims/complex_04_A_a.gif","images/stimuli/spore_stims/complex_04_B_a.gif","","","","","16","complex_similar","images/stimuli/spore_stims/complex_04_B_a.gif","left","","","","",""
"","null","html-keyboard-response","304","400120","0.0-56.0-0.4","SS1613170522532","","","null","","","","","<p><img src= images/blank.png width =""200"" height = ""200"" style = ""float:right""></p><p><img src=images/blank.png width =""800"" height = ""200""></p>","","","","","","","","","","","",""
"","121.00000004284084","sequential-stimulus-presentation","305","401063","0.0-56.0-1.4","SS1613170522532","trial","","40","800","921.0000000428408","images/stimuli/spore_stims/complex_04_A_a.gif","images/stimuli/spore_stims/complex_04_B_a.gif","","","","","16","complex_similar","images/stimuli/spore_stims/complex_04_A_a.gif","middle","","","","",""
"","null","html-keyboard-response","306","401873","0.0-56.0-0.5","SS1613170522532","","","null","","","","","<p><img src= images/blank.png width =""200"" height = ""200"" style = ""float:right""></p><p><img src=images/blank.png width =""800"" height = ""200""></p>","","","","","","","","","","","",""
"","184.0000000083819","sequential-stimulus-presentation","307","402901","0.0-56.0-1.5","SS1613170522532","trial","","40","800","984.0000000083819","images/stimuli/spore_stims/complex_04_A_a.gif","images/stimuli/spore_stims/complex_04_B_a.gif","","","","","16","complex_similar","images/stimuli/spore_stims/complex_04_B_a.gif","left","","","","",""
"","null","html-keyboard-response","308","404141","0.0-56.0-0.6","SS1613170522532","","","null","","","","","<p><img src= images/blank.png width =""200"" height = ""200"" style = ""float:right""></p><p><img src=images/blank.png width =""800"" height = ""200""></p>","","","","","","","","","","","",""
"","38.99999998975545","sequential-stimulus-presentation","309","405000","0.0-56.0-1.6","SS1613170522532","trial","","40","800","838.9999999897555","images/stimuli/spore_stims/complex_04_A_a.gif","images/stimuli/spore_stims/complex_04_B_a.gif","","","","","16","complex_similar","images/stimuli/spore_stims/complex_04_B_a.gif","left","","","","",""
"","null","html-keyboard-response","310","405952","0.0-56.0-0.7","SS1613170522532","","","null","","","","","<p><img src= images/blank.png width =""200"" height = ""200"" style = ""float:right""></p><p><img src=images/blank.png width =""800"" height = ""200""></p>","","","","","","","","","","","",""
"","103.00000000279397","sequential-stimulus-presentation","311","406867","0.0-56.0-1.7","SS1613170522532","trial","","40","800","903.000000002794","images/stimuli/spore_stims/complex_04_A_a.gif","images/stimuli/spore_stims/complex_04_B_a.gif","","","","","16","complex_similar","images/stimuli/spore_stims/complex_04_B_a.gif","left","","","","",""
"","169.9999999254942","html-keyboard-response","312","407044","0.0-57.0","SS1613170522532","pref_question","","50","","","","","<video width ='960' height = '540' style='padding-top:8%' autoplay muted><source src='images/stimuli/wall_pref.mp4' type='video/mp4'></video>","2","middle","45%","16","","","","","","","",""
