"view_history","rt","trial_type","trial_index","time_elapsed","internal_node_id","subject","stimulus_type","trial_stimulus","key_press","minimum_viewing_duration","trial_looking_time","block_deviant","block_background","stimulus","wall_pref","location","location_percent","block_number","block_type","stimulus_displayed","position_displayed","stim_type_selected","responses","question_order","stimulus_left","stimulus_right"
"[{""page_index"":0,""viewing_time"":88359.54999999376}]","88360.36000002059","instructions","0","88363","0.0-0.0","SS1613099924087","","","","","","","","","","","","","","","","","","","",""
"[{""page_index"":0,""viewing_time"":31921.020000008866},{""page_index"":1,""viewing_time"":11655.78000000096}]","43577.080000017304","instructions","1","133950","0.0-1.0","SS1613099924087","instructions","","","","","","","","","","","","","","","","","","",""
"","16848.11500000069","sequential-stimulus-presentation","2","151612","0.0-2.0","SS1613099924087","","","40","800","17648.11500000069","null","null","","","","","","","","","","","","",""
"","6455.500000010943","sequential-stimulus-presentation","3","158881","0.0-3.0","SS1613099924087","","","40","800","7255.500000010943","null","null","","","","","","","","","","","","",""
"[{""page_index"":0,""viewing_time"":4519.694999995409}]","4520.019999996293","instructions","4","163403","0.0-4.0","SS1613099924087","instructions","","","","","","","","","","","","","","","","","","",""
"","6241.190000000643","html-keyboard-response","5","169648","0.0-5.0","SS1613099924087","instructions","","49","","","","","<video width ='960' height = '540' autoplay muted><source src='images/stimuli/wall_pref.mp4' type='video/mp4'></video>","1","left","25%","","","","","","","","",""
"","3011.0899999854155","sequential-stimulus-presentation","6","173472","0.0-6.0","SS1613099924087","pref_reveal","","40","800","3811.0899999854155","null","null","","","","","","","","","","","","",""
"[{""page_index"":0,""viewing_time"":8579.034999973373},{""page_index"":1,""viewing_time"":6570.850000018254},{""page_index"":2,""viewing_time"":1184.305000002496},{""page_index"":3,""viewing_time"":1107.8249999845866}]","17442.349999997532","instructions","7","190917","0.0-7.0","SS1613099924087","instructions","","","","","","","","","","","","","","","","","","",""
"","null","html-keyboard-response","8","191917","0.0-8.0-0.0","SS1613099924087","","","null","","","","","<p><img src= images/blank.png width =""200"" height = ""200"" style = ""float:right""></p><p><img src=images/blank.png width =""800"" height = ""200""></p>","","","","","","","","","","","",""
"","4119.349999993574","sequential-stimulus-presentation","9","196855","0.0-8.0-1.0","SS1613099924087","trial","","40","800","4919.349999993574","images/stimuli/spore_stims/complex_07_A_c.gif","images/stimuli/spore_stims/complex_07_B_c.gif","","","","","0","complex_similar","images/stimuli/spore_stims/complex_07_B_c.gif","right","","","","",""
"","null","html-keyboard-response","10","197847","0.0-8.0-0.1","SS1613099924087","","","null","","","","","<p><img src= images/blank.png width =""200"" height = ""200"" style = ""float:right""></p><p><img src=images/blank.png width =""800"" height = ""200""></p>","","","","","","","","","","","",""
"","2786.4600000029895","sequential-stimulus-presentation","11","201448","0.0-8.0-1.1","SS1613099924087","trial","","40","800","3586.4600000029895","images/stimuli/spore_stims/complex_07_A_c.gif","images/stimuli/spore_stims/complex_07_B_c.gif","","","","","0","complex_similar","images/stimuli/spore_stims/complex_07_B_c.gif","right","","","","",""
"","null","html-keyboard-response","12","202560","0.0-8.0-0.2","SS1613099924087","","","null","","","","","<p><img src= images/blank.png width =""200"" height = ""200"" style = ""float:right""></p><p><img src=images/blank.png width =""800"" height = ""200""></p>","","","","","","","","","","","",""
"","3862.909999996191","sequential-stimulus-presentation","13","207241","0.0-8.0-1.2","SS1613099924087","trial","","40","800","4662.909999996191","images/stimuli/spore_stims/complex_07_A_c.gif","images/stimuli/spore_stims/complex_07_B_c.gif","","","","","0","complex_similar","images/stimuli/spore_stims/complex_07_B_c.gif","right","","","","",""
"","null","html-keyboard-response","14","208365","0.0-8.0-0.3","SS1613099924087","","","null","","","","","<p><img src= images/blank.png width =""200"" height = ""200"" style = ""float:right""></p><p><img src=images/blank.png width =""800"" height = ""200""></p>","","","","","","","","","","","",""
"","3317.0249999966472","sequential-stimulus-presentation","15","212502","0.0-8.0-1.3","SS1613099924087","trial","","40","800","4117.024999996647","images/stimuli/spore_stims/complex_07_A_c.gif","images/stimuli/spore_stims/complex_07_B_c.gif","","","","","0","complex_similar","images/stimuli/spore_stims/complex_07_A_c.gif","middle","","","","",""
"","null","html-keyboard-response","16","213786","0.0-8.0-0.4","SS1613099924087","","","null","","","","","<p><img src= images/blank.png width =""200"" height = ""200"" style = ""float:right""></p><p><img src=images/blank.png width =""800"" height = ""200""></p>","","","","","","","","","","","",""
"","4134.445000003325","sequential-stimulus-presentation","17","218729","0.0-8.0-1.4","SS1613099924087","trial","","40","800","4934.445000003325","images/stimuli/spore_stims/complex_07_A_c.gif","images/stimuli/spore_stims/complex_07_B_c.gif","","","","","0","complex_similar","images/stimuli/spore_stims/complex_07_B_c.gif","right","","","","",""
"","null","html-keyboard-response","18","219949","0.0-8.0-0.5","SS1613099924087","","","null","","","","","<p><img src= images/blank.png width =""200"" height = ""200"" style = ""float:right""></p><p><img src=images/blank.png width =""800"" height = ""200""></p>","","","","","","","","","","","",""
"","1748.5750000050757","sequential-stimulus-presentation","19","222506","0.0-8.0-1.5","SS1613099924087","trial","","40","800","2548.5750000050757","images/stimuli/spore_stims/complex_07_A_c.gif","images/stimuli/spore_stims/complex_07_B_c.gif","","","","","0","complex_similar","images/stimuli/spore_stims/complex_07_B_c.gif","right","","","","",""
"","null","html-keyboard-response","20","223406","0.0-8.0-0.6","SS1613099924087","","","null","","","","","<p><img src= images/blank.png width =""200"" height = ""200"" style = ""float:right""></p><p><img src=images/blank.png width =""800"" height = ""200""></p>","","","","","","","","","","","",""
"","430.98999999347143","sequential-stimulus-presentation","21","224657","0.0-8.0-1.6","SS1613099924087","trial","","40","800","1230.9899999934714","images/stimuli/spore_stims/complex_07_A_c.gif","images/stimuli/spore_stims/complex_07_B_c.gif","","","","","0","complex_similar","images/stimuli/spore_stims/complex_07_B_c.gif","right","","","","",""
"","null","html-keyboard-response","22","225756","0.0-8.0-0.7","SS1613099924087","","","null","","","","","<p><img src= images/blank.png width =""200"" height = ""200"" style = ""float:right""></p><p><img src=images/blank.png width =""800"" height = ""200""></p>","","","","","","","","","","","",""
"","343.94500000053085","sequential-stimulus-presentation","23","226912","0.0-8.0-1.7","SS1613099924087","trial","","40","800","1143.9450000005309","images/stimuli/spore_stims/complex_07_A_c.gif","images/stimuli/spore_stims/complex_07_B_c.gif","","","","","0","complex_similar","images/stimuli/spore_stims/complex_07_B_c.gif","right","","","","",""
"","4961.154999997234","html-keyboard-response","24","231880","0.0-9.0","SS1613099924087","pref_question","","50","","","","","<video width ='960' height = '540' style='padding-top:8%' autoplay muted><source src='images/stimuli/wall_pref.mp4' type='video/mp4'></video>","2","middle","45%","0","","","","","","","",""
"","2570.0250000227243","sequential-stimulus-presentation","25","235264","0.0-10.0","SS1613099924087","pref_reveal","","40","800","3370.0250000227243","null","null","","","","","0","","","","deviant","","","",""
"","null","html-keyboard-response","26","236257","0.0-11.0-0.0","SS1613099924087","","","null","","","","","<p><img src= images/blank.png width =""200"" height = ""200"" style = ""float:right""></p><p><img src=images/blank.png width =""800"" height = ""200""></p>","","","","","","","","","","","",""
"","1131.3200000149664","sequential-stimulus-presentation","27","238207","0.0-11.0-1.0","SS1613099924087","trial","","40","800","1931.3200000149664","images/stimuli/spore_stims/simple_02_B_d.gif","images/stimuli/spore_stims/simple_02_A_d.gif","","","","","1","simple_similar","images/stimuli/spore_stims/simple_02_A_d.gif","left","","","","",""
"","null","html-keyboard-response","28","239142","0.0-11.0-0.1","SS1613099924087","","","null","","","","","<p><img src= images/blank.png width =""200"" height = ""200"" style = ""float:right""></p><p><img src=images/blank.png width =""800"" height = ""200""></p>","","","","","","","","","","","",""
"","758.5950000211596","sequential-stimulus-presentation","29","240720","0.0-11.0-1.1","SS1613099924087","trial","","40","800","1558.5950000211596","images/stimuli/spore_stims/simple_02_B_d.gif","images/stimuli/spore_stims/simple_02_A_d.gif","","","","","1","simple_similar","images/stimuli/spore_stims/simple_02_A_d.gif","left","","","","",""
"","null","html-keyboard-response","30","241780","0.0-11.0-0.2","SS1613099924087","","","null","","","","","<p><img src= images/blank.png width =""200"" height = ""200"" style = ""float:right""></p><p><img src=images/blank.png width =""800"" height = ""200""></p>","","","","","","","","","","","",""
"","1542.4449999991339","sequential-stimulus-presentation","31","244135","0.0-11.0-1.2","SS1613099924087","trial","","40","800","2342.444999999134","images/stimuli/spore_stims/simple_02_B_d.gif","images/stimuli/spore_stims/simple_02_A_d.gif","","","","","1","simple_similar","images/stimuli/spore_stims/simple_02_A_d.gif","left","","","","",""
"","null","html-keyboard-response","32","245163","0.0-11.0-0.3","SS1613099924087","","","null","","","","","<p><img src= images/blank.png width =""200"" height = ""200"" style = ""float:right""></p><p><img src=images/blank.png width =""800"" height = ""200""></p>","","","","","","","","","","","",""
"","1879.8700000043027","sequential-stimulus-presentation","33","247853","0.0-11.0-1.3","SS1613099924087","trial","","40","800","2679.8700000043027","images/stimuli/spore_stims/simple_02_B_d.gif","images/stimuli/spore_stims/simple_02_A_d.gif","","","","","1","simple_similar","images/stimuli/spore_stims/simple_02_A_d.gif","left","","","","",""
"","null","html-keyboard-response","34","248713","0.0-11.0-0.4","SS1613099924087","","","null","","","","","<p><img src= images/blank.png width =""200"" height = ""200"" style = ""float:right""></p><p><img src=images/blank.png width =""800"" height = ""200""></p>","","","","","","","","","","","",""
"","613.0800000100862","sequential-stimulus-presentation","35","250143","0.0-11.0-1.4","SS1613099924087","trial","","40","800","1413.0800000100862","images/stimuli/spore_stims/simple_02_B_d.gif","images/stimuli/spore_stims/simple_02_A_d.gif","","","","","1","simple_similar","images/stimuli/spore_stims/simple_02_A_d.gif","left","","","","",""
"","null","html-keyboard-response","36","251132","0.0-11.0-0.5","SS1613099924087","","","null","","","","","<p><img src= images/blank.png width =""200"" height = ""200"" style = ""float:right""></p><p><img src=images/blank.png width =""800"" height = ""200""></p>","","","","","","","","","","","",""
"","539.2750000173692","sequential-stimulus-presentation","37","252490","0.0-11.0-1.5","SS1613099924087","trial","","40","800","1339.2750000173692","images/stimuli/spore_stims/simple_02_B_d.gif","images/stimuli/spore_stims/simple_02_A_d.gif","","","","","1","simple_similar","images/stimuli/spore_stims/simple_02_A_d.gif","left","","","","",""
"","null","html-keyboard-response","38","253584","0.0-11.0-0.6","SS1613099924087","","","null","","","","","<p><img src= images/blank.png width =""200"" height = ""200"" style = ""float:right""></p><p><img src=images/blank.png width =""800"" height = ""200""></p>","","","","","","","","","","","",""
"","590.4500000178814","sequential-stimulus-presentation","39","254990","0.0-11.0-1.6","SS1613099924087","trial","","40","800","1390.4500000178814","images/stimuli/spore_stims/simple_02_B_d.gif","images/stimuli/spore_stims/simple_02_A_d.gif","","","","","1","simple_similar","images/stimuli/spore_stims/simple_02_B_d.gif","right","","","","",""
"","null","html-keyboard-response","40","256172","0.0-11.0-0.7","SS1613099924087","","","null","","","","","<p><img src= images/blank.png width =""200"" height = ""200"" style = ""float:right""></p><p><img src=images/blank.png width =""800"" height = ""200""></p>","","","","","","","","","","","",""
"","992.0400000119116","sequential-stimulus-presentation","41","257984","0.0-11.0-1.7","SS1613099924087","trial","","40","800","1792.0400000119116","images/stimuli/spore_stims/simple_02_B_d.gif","images/stimuli/spore_stims/simple_02_A_d.gif","","","","","1","simple_similar","images/stimuli/spore_stims/simple_02_A_d.gif","left","","","","",""
"","6222.399999998743","html-keyboard-response","42","264215","0.0-12.0","SS1613099924087","pref_question","","49","","","","","<video width ='960' height = '540' style='padding-top:8%' autoplay muted><source src='images/stimuli/wall_pref.mp4' type='video/mp4'></video>","1","left","25%","1","","","","","","","",""
"","14433.699999994133","sequential-stimulus-presentation","43","279461","0.0-13.0","SS1613099924087","pref_reveal","","40","800","15233.699999994133","null","null","","","","","1","","","","background","","","",""
"","null","html-keyboard-response","44","280393","0.0-14.0-0.0","SS1613099924087","","","null","","","","","<p><img src= images/blank.png width =""200"" height = ""200"" style = ""float:right""></p><p><img src=images/blank.png width =""800"" height = ""200""></p>","","","","","","","","","","","",""
"","1709.35499999905","sequential-stimulus-presentation","45","282912","0.0-14.0-1.0","SS1613099924087","trial","","40","800","2509.35499999905","images/stimuli/spore_stims/complex_03_A_a.gif","images/stimuli/spore_stims/complex_18_B_c.gif","","","","","2","complex_dissimilar","images/stimuli/spore_stims/complex_18_B_c.gif","left","","","","",""
"","null","html-keyboard-response","46","283768","0.0-14.0-0.1","SS1613099924087","","","null","","","","","<p><img src= images/blank.png width =""200"" height = ""200"" style = ""float:right""></p><p><img src=images/blank.png width =""800"" height = ""200""></p>","","","","","","","","","","","",""
"","2125.3400000277907","sequential-stimulus-presentation","47","286712","0.0-14.0-1.1","SS1613099924087","trial","","40","800","2925.3400000277907","images/stimuli/spore_stims/complex_03_A_a.gif","images/stimuli/spore_stims/complex_18_B_c.gif","","","","","2","complex_dissimilar","images/stimuli/spore_stims/complex_18_B_c.gif","left","","","","",""
"","null","html-keyboard-response","48","287736","0.0-14.0-0.2","SS1613099924087","","","null","","","","","<p><img src= images/blank.png width =""200"" height = ""200"" style = ""float:right""></p><p><img src=images/blank.png width =""800"" height = ""200""></p>","","","","","","","","","","","",""
"","786.7100000148639","sequential-stimulus-presentation","49","289341","0.0-14.0-1.2","SS1613099924087","trial","","40","800","1586.710000014864","images/stimuli/spore_stims/complex_03_A_a.gif","images/stimuli/spore_stims/complex_18_B_c.gif","","","","","2","complex_dissimilar","images/stimuli/spore_stims/complex_18_B_c.gif","left","","","","",""
"","null","html-keyboard-response","50","290330","0.0-14.0-0.3","SS1613099924087","","","null","","","","","<p><img src= images/blank.png width =""200"" height = ""200"" style = ""float:right""></p><p><img src=images/blank.png width =""800"" height = ""200""></p>","","","","","","","","","","","",""
"","560.7699999818578","sequential-stimulus-presentation","51","291695","0.0-14.0-1.3","SS1613099924087","trial","","40","800","1360.7699999818578","images/stimuli/spore_stims/complex_03_A_a.gif","images/stimuli/spore_stims/complex_18_B_c.gif","","","","","2","complex_dissimilar","images/stimuli/spore_stims/complex_18_B_c.gif","left","","","","",""
"","null","html-keyboard-response","52","292600","0.0-14.0-0.4","SS1613099924087","","","null","","","","","<p><img src= images/blank.png width =""200"" height = ""200"" style = ""float:right""></p><p><img src=images/blank.png width =""800"" height = ""200""></p>","","","","","","","","","","","",""
"","815.0249999889638","sequential-stimulus-presentation","53","294224","0.0-14.0-1.4","SS1613099924087","trial","","40","800","1615.0249999889638","images/stimuli/spore_stims/complex_03_A_a.gif","images/stimuli/spore_stims/complex_18_B_c.gif","","","","","2","complex_dissimilar","images/stimuli/spore_stims/complex_18_B_c.gif","left","","","","",""
"","null","html-keyboard-response","54","295058","0.0-14.0-0.5","SS1613099924087","","","null","","","","","<p><img src= images/blank.png width =""200"" height = ""200"" style = ""float:right""></p><p><img src=images/blank.png width =""800"" height = ""200""></p>","","","","","","","","","","","",""
"","388.5900000168476","sequential-stimulus-presentation","55","296264","0.0-14.0-1.5","SS1613099924087","trial","","40","800","1188.5900000168476","images/stimuli/spore_stims/complex_03_A_a.gif","images/stimuli/spore_stims/complex_18_B_c.gif","","","","","2","complex_dissimilar","images/stimuli/spore_stims/complex_18_B_c.gif","left","","","","",""
"","null","html-keyboard-response","56","297249","0.0-14.0-0.6","SS1613099924087","","","null","","","","","<p><img src= images/blank.png width =""200"" height = ""200"" style = ""float:right""></p><p><img src=images/blank.png width =""800"" height = ""200""></p>","","","","","","","","","","","",""
"","165.3400000068359","sequential-stimulus-presentation","57","298232","0.0-14.0-1.6","SS1613099924087","trial","","40","800","965.3400000068359","images/stimuli/spore_stims/complex_03_A_a.gif","images/stimuli/spore_stims/complex_18_B_c.gif","","","","","2","complex_dissimilar","images/stimuli/spore_stims/complex_18_B_c.gif","left","","","","",""
"","null","html-keyboard-response","58","299241","0.0-14.0-0.7","SS1613099924087","","","null","","","","","<p><img src= images/blank.png width =""200"" height = ""200"" style = ""float:right""></p><p><img src=images/blank.png width =""800"" height = ""200""></p>","","","","","","","","","","","",""
"","484.0949999925215","sequential-stimulus-presentation","59","300545","0.0-14.0-1.7","SS1613099924087","trial","","40","800","1284.0949999925215","images/stimuli/spore_stims/complex_03_A_a.gif","images/stimuli/spore_stims/complex_18_B_c.gif","","","","","2","complex_dissimilar","images/stimuli/spore_stims/complex_03_A_a.gif","right","","","","",""
"","4188.679999992019","html-keyboard-response","60","304742","0.0-15.0","SS1613099924087","pref_question","","50","","","","","<video width ='960' height = '540' style='padding-top:8%' autoplay muted><source src='images/stimuli/wall_pref.mp4' type='video/mp4'></video>","2","middle","45%","2","","","","","","","",""
"","107.01999999582767","sequential-stimulus-presentation","61","305654","0.0-16.0","SS1613099924087","pref_reveal","","40","800","907.0199999958277","null","null","","","","","2","","","","novel","","","",""
"","null","html-keyboard-response","62","306654","0.0-17.0-0.0","SS1613099924087","","","null","","","","","<p><img src= images/blank.png width =""200"" height = ""200"" style = ""float:right""></p><p><img src=images/blank.png width =""800"" height = ""200""></p>","","","","","","","","","","","",""
"","514.0550000069197","sequential-stimulus-presentation","63","307978","0.0-17.0-1.0","SS1613099924087","trial","","40","800","1314.0550000069197","images/stimuli/spore_stims/complex_18_B_d.gif","images/stimuli/spore_stims/complex_18_A_d.gif","","","","","3","complex_similar","images/stimuli/spore_stims/complex_18_A_d.gif","left","","","","",""
"","null","html-keyboard-response","64","308893","0.0-17.0-0.1","SS1613099924087","","","null","","","","","<p><img src= images/blank.png width =""200"" height = ""200"" style = ""float:right""></p><p><img src=images/blank.png width =""800"" height = ""200""></p>","","","","","","","","","","","",""
"","3898.914999997942","sequential-stimulus-presentation","65","313615","0.0-17.0-1.1","SS1613099924087","trial","","40","800","4698.914999997942","images/stimuli/spore_stims/complex_18_B_d.gif","images/stimuli/spore_stims/complex_18_A_d.gif","","","","","3","complex_similar","images/stimuli/spore_stims/complex_18_A_d.gif","left","","","","",""
"","null","html-keyboard-response","66","314580","0.0-17.0-0.2","SS1613099924087","","","null","","","","","<p><img src= images/blank.png width =""200"" height = ""200"" style = ""float:right""></p><p><img src=images/blank.png width =""800"" height = ""200""></p>","","","","","","","","","","","",""
"","468.9700000162702","sequential-stimulus-presentation","67","315856","0.0-17.0-1.2","SS1613099924087","trial","","40","800","1268.9700000162702","images/stimuli/spore_stims/complex_18_B_d.gif","images/stimuli/spore_stims/complex_18_A_d.gif","","","","","3","complex_similar","images/stimuli/spore_stims/complex_18_A_d.gif","left","","","","",""
"","null","html-keyboard-response","68","316911","0.0-17.0-0.3","SS1613099924087","","","null","","","","","<p><img src= images/blank.png width =""200"" height = ""200"" style = ""float:right""></p><p><img src=images/blank.png width =""800"" height = ""200""></p>","","","","","","","","","","","",""
"","1272.2549999889452","sequential-stimulus-presentation","69","319007","0.0-17.0-1.3","SS1613099924087","trial","","40","800","2072.254999988945","images/stimuli/spore_stims/complex_18_B_d.gif","images/stimuli/spore_stims/complex_18_A_d.gif","","","","","3","complex_similar","images/stimuli/spore_stims/complex_18_A_d.gif","left","","","","",""
"","null","html-keyboard-response","70","319967","0.0-17.0-0.4","SS1613099924087","","","null","","","","","<p><img src= images/blank.png width =""200"" height = ""200"" style = ""float:right""></p><p><img src=images/blank.png width =""800"" height = ""200""></p>","","","","","","","","","","","",""
"","817.639999993844","sequential-stimulus-presentation","71","321600","0.0-17.0-1.4","SS1613099924087","trial","","40","800","1617.639999993844","images/stimuli/spore_stims/complex_18_B_d.gif","images/stimuli/spore_stims/complex_18_A_d.gif","","","","","3","complex_similar","images/stimuli/spore_stims/complex_18_A_d.gif","left","","","","",""
"","null","html-keyboard-response","72","322663","0.0-17.0-0.5","SS1613099924087","","","null","","","","","<p><img src= images/blank.png width =""200"" height = ""200"" style = ""float:right""></p><p><img src=images/blank.png width =""800"" height = ""200""></p>","","","","","","","","","","","",""
"","1606.8650000088383","sequential-stimulus-presentation","73","325088","0.0-17.0-1.5","SS1613099924087","trial","","40","800","2406.8650000088383","images/stimuli/spore_stims/complex_18_B_d.gif","images/stimuli/spore_stims/complex_18_A_d.gif","","","","","3","complex_similar","images/stimuli/spore_stims/complex_18_B_d.gif","right","","","","",""
"","null","html-keyboard-response","74","325965","0.0-17.0-0.6","SS1613099924087","","","null","","","","","<p><img src= images/blank.png width =""200"" height = ""200"" style = ""float:right""></p><p><img src=images/blank.png width =""800"" height = ""200""></p>","","","","","","","","","","","",""
"","3647.4400000006426","sequential-stimulus-presentation","75","330429","0.0-17.0-1.6","SS1613099924087","trial","","40","800","4447.440000000643","images/stimuli/spore_stims/complex_18_B_d.gif","images/stimuli/spore_stims/complex_18_A_d.gif","","","","","3","complex_similar","images/stimuli/spore_stims/complex_18_A_d.gif","left","","","","",""
"","null","html-keyboard-response","76","331388","0.0-17.0-0.7","SS1613099924087","","","null","","","","","<p><img src= images/blank.png width =""200"" height = ""200"" style = ""float:right""></p><p><img src=images/blank.png width =""800"" height = ""200""></p>","","","","","","","","","","","",""
"","7232.235000003129","sequential-stimulus-presentation","77","339438","0.0-17.0-1.7","SS1613099924087","trial","","40","800","8032.235000003129","images/stimuli/spore_stims/complex_18_B_d.gif","images/stimuli/spore_stims/complex_18_A_d.gif","","","","","3","complex_similar","images/stimuli/spore_stims/complex_18_A_d.gif","left","","","","",""
"","33842.325000005076","html-keyboard-response","78","373287","0.0-18.0","SS1613099924087","pref_question","","49","","","","","<video width ='960' height = '540' style='padding-top:8%' autoplay muted><source src='images/stimuli/wall_pref.mp4' type='video/mp4'></video>","1","left","25%","3","","","","","","","",""
"","1688.0649999948218","sequential-stimulus-presentation","79","375793","0.0-19.0","SS1613099924087","pref_reveal","","40","800","2488.064999994822","null","null","","","","","3","","","","background","","","",""
"","null","html-keyboard-response","80","376861","0.0-20.0-0.0","SS1613099924087","","","null","","","","","<p><img src= images/blank.png width =""200"" height = ""200"" style = ""float:right""></p><p><img src=images/blank.png width =""800"" height = ""200""></p>","","","","","","","","","","","",""
"","5443.599999998696","sequential-stimulus-presentation","81","383120","0.0-20.0-1.0","SS1613099924087","trial","","40","800","6243.599999998696","images/stimuli/spore_stims/complex_01_A_b.gif","images/stimuli/spore_stims/complex_13_B_b.gif","","","","","4","complex_dissimilar","images/stimuli/spore_stims/complex_13_B_b.gif","left","","","","",""
"","null","html-keyboard-response","82","384147","0.0-20.0-0.1","SS1613099924087","","","null","","","","","<p><img src= images/blank.png width =""200"" height = ""200"" style = ""float:right""></p><p><img src=images/blank.png width =""800"" height = ""200""></p>","","","","","","","","","","","",""
"","1062.8750000032596","sequential-stimulus-presentation","83","386023","0.0-20.0-1.1","SS1613099924087","trial","","40","800","1862.8750000032596","images/stimuli/spore_stims/complex_01_A_b.gif","images/stimuli/spore_stims/complex_13_B_b.gif","","","","","4","complex_dissimilar","images/stimuli/spore_stims/complex_13_B_b.gif","left","","","","",""
"","null","html-keyboard-response","84","386890","0.0-20.0-0.2","SS1613099924087","","","null","","","","","<p><img src= images/blank.png width =""200"" height = ""200"" style = ""float:right""></p><p><img src=images/blank.png width =""800"" height = ""200""></p>","","","","","","","","","","","",""
"","922.950000007404","sequential-stimulus-presentation","85","388622","0.0-20.0-1.2","SS1613099924087","trial","","40","800","1722.950000007404","images/stimuli/spore_stims/complex_01_A_b.gif","images/stimuli/spore_stims/complex_13_B_b.gif","","","","","4","complex_dissimilar","images/stimuli/spore_stims/complex_13_B_b.gif","left","","","","",""
"","null","html-keyboard-response","86","389462","0.0-20.0-0.3","SS1613099924087","","","null","","","","","<p><img src= images/blank.png width =""200"" height = ""200"" style = ""float:right""></p><p><img src=images/blank.png width =""800"" height = ""200""></p>","","","","","","","","","","","",""
"","836.5499999781605","sequential-stimulus-presentation","87","391118","0.0-20.0-1.3","SS1613099924087","trial","","40","800","1636.5499999781605","images/stimuli/spore_stims/complex_01_A_b.gif","images/stimuli/spore_stims/complex_13_B_b.gif","","","","","4","complex_dissimilar","images/stimuli/spore_stims/complex_13_B_b.gif","left","","","","",""
"","null","html-keyboard-response","88","392166","0.0-20.0-0.4","SS1613099924087","","","null","","","","","<p><img src= images/blank.png width =""200"" height = ""200"" style = ""float:right""></p><p><img src=images/blank.png width =""800"" height = ""200""></p>","","","","","","","","","","","",""
"","845.8199999877252","sequential-stimulus-presentation","89","393831","0.0-20.0-1.4","SS1613099924087","trial","","40","800","1645.8199999877252","images/stimuli/spore_stims/complex_01_A_b.gif","images/stimuli/spore_stims/complex_13_B_b.gif","","","","","4","complex_dissimilar","images/stimuli/spore_stims/complex_01_A_b.gif","right","","","","",""
"","null","html-keyboard-response","90","394673","0.0-20.0-0.5","SS1613099924087","","","null","","","","","<p><img src= images/blank.png width =""200"" height = ""200"" style = ""float:right""></p><p><img src=images/blank.png width =""800"" height = ""200""></p>","","","","","","","","","","","",""
"","534.9249999853782","sequential-stimulus-presentation","91","396022","0.0-20.0-1.5","SS1613099924087","trial","","40","800","1334.9249999853782","images/stimuli/spore_stims/complex_01_A_b.gif","images/stimuli/spore_stims/complex_13_B_b.gif","","","","","4","complex_dissimilar","images/stimuli/spore_stims/complex_13_B_b.gif","left","","","","",""
"","null","html-keyboard-response","92","397125","0.0-20.0-0.6","SS1613099924087","","","null","","","","","<p><img src= images/blank.png width =""200"" height = ""200"" style = ""float:right""></p><p><img src=images/blank.png width =""800"" height = ""200""></p>","","","","","","","","","","","",""
"","1244.5350000052713","sequential-stimulus-presentation","93","399970","0.0-20.0-1.6","SS1613099924087","trial","","40","800","2044.5350000052713","images/stimuli/spore_stims/complex_01_A_b.gif","images/stimuli/spore_stims/complex_13_B_b.gif","","","","","4","complex_dissimilar","images/stimuli/spore_stims/complex_13_B_b.gif","left","","","","",""
"","null","html-keyboard-response","94","400866","0.0-20.0-0.7","SS1613099924087","","","null","","","","","<p><img src= images/blank.png width =""200"" height = ""200"" style = ""float:right""></p><p><img src=images/blank.png width =""800"" height = ""200""></p>","","","","","","","","","","","",""
"","336.234999995213","sequential-stimulus-presentation","95","402017","0.0-20.0-1.7","SS1613099924087","trial","","40","800","1136.234999995213","images/stimuli/spore_stims/complex_01_A_b.gif","images/stimuli/spore_stims/complex_13_B_b.gif","","","","","4","complex_dissimilar","images/stimuli/spore_stims/complex_13_B_b.gif","left","","","","",""
"","2846.6649999900255","html-keyboard-response","96","404877","0.0-21.0","SS1613099924087","pref_question","","98","","","","","<video width ='960' height = '540' style='padding-top:8%' autoplay muted><source src='images/stimuli/wall_pref.mp4' type='video/mp4'></video>","2","middle","45%","4","","","","","","","",""
"","2124.004999990575","sequential-stimulus-presentation","97","407815","0.0-22.0","SS1613099924087","pref_reveal","","40","800","2924.004999990575","null","null","","","","","4","","","","novel","","","",""
"","null","html-keyboard-response","98","408874","0.0-23.0-0.0","SS1613099924087","","","null","","","","","<p><img src= images/blank.png width =""200"" height = ""200"" style = ""float:right""></p><p><img src=images/blank.png width =""800"" height = ""200""></p>","","","","","","","","","","","",""
"","327.4350000137929","sequential-stimulus-presentation","99","410015","0.0-23.0-1.0","SS1613099924087","trial","","40","800","1127.435000013793","images/stimuli/spore_stims/complex_06_A_b.gif","images/stimuli/spore_stims/complex_06_B_b.gif","","","","","5","complex_similar","images/stimuli/spore_stims/complex_06_B_b.gif","middle","","","","",""
"","null","html-keyboard-response","100","411103","0.0-23.0-0.1","SS1613099924087","","","null","","","","","<p><img src= images/blank.png width =""200"" height = ""200"" style = ""float:right""></p><p><img src=images/blank.png width =""800"" height = ""200""></p>","","","","","","","","","","","",""
"","921.570000005886","sequential-stimulus-presentation","101","412847","0.0-23.0-1.1","SS1613099924087","trial","","40","800","1721.570000005886","images/stimuli/spore_stims/complex_06_A_b.gif","images/stimuli/spore_stims/complex_06_B_b.gif","","","","","5","complex_similar","images/stimuli/spore_stims/complex_06_B_b.gif","middle","","","","",""
"","null","html-keyboard-response","102","414010","0.0-23.0-0.2","SS1613099924087","","","null","","","","","<p><img src= images/blank.png width =""200"" height = ""200"" style = ""float:right""></p><p><img src=images/blank.png width =""800"" height = ""200""></p>","","","","","","","","","","","",""
"","2479.4399999955203","sequential-stimulus-presentation","103","417303","0.0-23.0-1.2","SS1613099924087","trial","","40","800","3279.4399999955203","images/stimuli/spore_stims/complex_06_A_b.gif","images/stimuli/spore_stims/complex_06_B_b.gif","","","","","5","complex_similar","images/stimuli/spore_stims/complex_06_B_b.gif","middle","","","","",""
"","null","html-keyboard-response","104","418196","0.0-23.0-0.3","SS1613099924087","","","null","","","","","<p><img src= images/blank.png width =""200"" height = ""200"" style = ""float:right""></p><p><img src=images/blank.png width =""800"" height = ""200""></p>","","","","","","","","","","","",""
"","359.8749999946449","sequential-stimulus-presentation","105","419374","0.0-23.0-1.3","SS1613099924087","trial","","40","800","1159.874999994645","images/stimuli/spore_stims/complex_06_A_b.gif","images/stimuli/spore_stims/complex_06_B_b.gif","","","","","5","complex_similar","images/stimuli/spore_stims/complex_06_B_b.gif","middle","","","","",""
"","null","html-keyboard-response","106","420282","0.0-23.0-0.4","SS1613099924087","","","null","","","","","<p><img src= images/blank.png width =""200"" height = ""200"" style = ""float:right""></p><p><img src=images/blank.png width =""800"" height = ""200""></p>","","","","","","","","","","","",""
"","773.4749999945052","sequential-stimulus-presentation","107","421873","0.0-23.0-1.4","SS1613099924087","trial","","40","800","1573.4749999945052","images/stimuli/spore_stims/complex_06_A_b.gif","images/stimuli/spore_stims/complex_06_B_b.gif","","","","","5","complex_similar","images/stimuli/spore_stims/complex_06_B_b.gif","middle","","","","",""
"","null","html-keyboard-response","108","423108","0.0-23.0-0.5","SS1613099924087","","","null","","","","","<p><img src= images/blank.png width =""200"" height = ""200"" style = ""float:right""></p><p><img src=images/blank.png width =""800"" height = ""200""></p>","","","","","","","","","","","",""
"","744.7049999900628","sequential-stimulus-presentation","109","424664","0.0-23.0-1.5","SS1613099924087","trial","","40","800","1544.7049999900628","images/stimuli/spore_stims/complex_06_A_b.gif","images/stimuli/spore_stims/complex_06_B_b.gif","","","","","5","complex_similar","images/stimuli/spore_stims/complex_06_A_b.gif","left","","","","",""
"","null","html-keyboard-response","110","425912","0.0-23.0-0.6","SS1613099924087","","","null","","","","","<p><img src= images/blank.png width =""200"" height = ""200"" style = ""float:right""></p><p><img src=images/blank.png width =""800"" height = ""200""></p>","","","","","","","","","","","",""
"","3396.8750000058208","sequential-stimulus-presentation","111","430122","0.0-23.0-1.6","SS1613099924087","trial","","40","800","4196.875000005821","images/stimuli/spore_stims/complex_06_A_b.gif","images/stimuli/spore_stims/complex_06_B_b.gif","","","","","5","complex_similar","images/stimuli/spore_stims/complex_06_B_b.gif","middle","","","","",""
"","null","html-keyboard-response","112","431428","0.0-23.0-0.7","SS1613099924087","","","null","","","","","<p><img src= images/blank.png width =""200"" height = ""200"" style = ""float:right""></p><p><img src=images/blank.png width =""800"" height = ""200""></p>","","","","","","","","","","","",""
"","588.9700000116136","sequential-stimulus-presentation","113","432832","0.0-23.0-1.7","SS1613099924087","trial","","40","800","1388.9700000116136","images/stimuli/spore_stims/complex_06_A_b.gif","images/stimuli/spore_stims/complex_06_B_b.gif","","","","","5","complex_similar","images/stimuli/spore_stims/complex_06_B_b.gif","middle","","","","",""
"","3330.9599999920465","html-keyboard-response","114","436175","0.0-24.0","SS1613099924087","pref_question","","99","","","","","<video width ='960' height = '540' style='padding-top:8%' autoplay muted><source src='images/stimuli/wall_pref.mp4' type='video/mp4'></video>","3","right","66%","5","","","","","","","",""
"","523.6800000129733","sequential-stimulus-presentation","115","437527","0.0-25.0","SS1613099924087","pref_reveal","","40","800","1323.6800000129733","null","null","","","","","5","","","","novel","","","",""
"","null","html-keyboard-response","116","438538","0.0-26.0-0.0","SS1613099924087","","","null","","","","","<p><img src= images/blank.png width =""200"" height = ""200"" style = ""float:right""></p><p><img src=images/blank.png width =""800"" height = ""200""></p>","","","","","","","","","","","",""
"","5050.309999991441","sequential-stimulus-presentation","117","444406","0.0-26.0-1.0","SS1613099924087","trial","","40","800","5850.309999991441","images/stimuli/spore_stims/complex_16_B_a.gif","images/stimuli/spore_stims/complex_16_A_a.gif","","","","","6","complex_similar","images/stimuli/spore_stims/complex_16_A_a.gif","left","","","","",""
"","null","html-keyboard-response","118","445625","0.0-26.0-0.1","SS1613099924087","","","null","","","","","<p><img src= images/blank.png width =""200"" height = ""200"" style = ""float:right""></p><p><img src=images/blank.png width =""800"" height = ""200""></p>","","","","","","","","","","","",""
"","990.5450000078417","sequential-stimulus-presentation","119","447431","0.0-26.0-1.1","SS1613099924087","trial","","40","800","1790.5450000078417","images/stimuli/spore_stims/complex_16_B_a.gif","images/stimuli/spore_stims/complex_16_A_a.gif","","","","","6","complex_similar","images/stimuli/spore_stims/complex_16_A_a.gif","left","","","","",""
"","null","html-keyboard-response","120","448466","0.0-26.0-0.2","SS1613099924087","","","null","","","","","<p><img src= images/blank.png width =""200"" height = ""200"" style = ""float:right""></p><p><img src=images/blank.png width =""800"" height = ""200""></p>","","","","","","","","","","","",""
"","1264.9549999914598","sequential-stimulus-presentation","121","450543","0.0-26.0-1.2","SS1613099924087","trial","","40","800","2064.9549999914598","images/stimuli/spore_stims/complex_16_B_a.gif","images/stimuli/spore_stims/complex_16_A_a.gif","","","","","6","complex_similar","images/stimuli/spore_stims/complex_16_A_a.gif","left","","","","",""
"","null","html-keyboard-response","122","451776","0.0-26.0-0.3","SS1613099924087","","","null","","","","","<p><img src= images/blank.png width =""200"" height = ""200"" style = ""float:right""></p><p><img src=images/blank.png width =""800"" height = ""200""></p>","","","","","","","","","","","",""
"","418.8150000118185","sequential-stimulus-presentation","123","453014","0.0-26.0-1.3","SS1613099924087","trial","","40","800","1218.8150000118185","images/stimuli/spore_stims/complex_16_B_a.gif","images/stimuli/spore_stims/complex_16_A_a.gif","","","","","6","complex_similar","images/stimuli/spore_stims/complex_16_A_a.gif","left","","","","",""
"","null","html-keyboard-response","124","454278","0.0-26.0-0.4","SS1613099924087","","","null","","","","","<p><img src= images/blank.png width =""200"" height = ""200"" style = ""float:right""></p><p><img src=images/blank.png width =""800"" height = ""200""></p>","","","","","","","","","","","",""
"","70.29500001226552","sequential-stimulus-presentation","125","455167","0.0-26.0-1.4","SS1613099924087","trial","","40","800","870.2950000122655","images/stimuli/spore_stims/complex_16_B_a.gif","images/stimuli/spore_stims/complex_16_A_a.gif","","","","","6","complex_similar","images/stimuli/spore_stims/complex_16_A_a.gif","left","","","","",""
"","null","html-keyboard-response","126","456274","0.0-26.0-0.5","SS1613099924087","","","null","","","","","<p><img src= images/blank.png width =""200"" height = ""200"" style = ""float:right""></p><p><img src=images/blank.png width =""800"" height = ""200""></p>","","","","","","","","","","","",""
"","457.11999997729436","sequential-stimulus-presentation","127","457552","0.0-26.0-1.5","SS1613099924087","trial","","40","800","1257.1199999772944","images/stimuli/spore_stims/complex_16_B_a.gif","images/stimuli/spore_stims/complex_16_A_a.gif","","","","","6","complex_similar","images/stimuli/spore_stims/complex_16_B_a.gif","middle","","","","",""
"","null","html-keyboard-response","128","458663","0.0-26.0-0.6","SS1613099924087","","","null","","","","","<p><img src= images/blank.png width =""200"" height = ""200"" style = ""float:right""></p><p><img src=images/blank.png width =""800"" height = ""200""></p>","","","","","","","","","","","",""
"","543.4400000085589","sequential-stimulus-presentation","129","460023","0.0-26.0-1.6","SS1613099924087","trial","","40","800","1343.4400000085589","images/stimuli/spore_stims/complex_16_B_a.gif","images/stimuli/spore_stims/complex_16_A_a.gif","","","","","6","complex_similar","images/stimuli/spore_stims/complex_16_A_a.gif","left","","","","",""
"","null","html-keyboard-response","130","460981","0.0-26.0-0.7","SS1613099924087","","","null","","","","","<p><img src= images/blank.png width =""200"" height = ""200"" style = ""float:right""></p><p><img src=images/blank.png width =""800"" height = ""200""></p>","","","","","","","","","","","",""
"","391.13000000361353","sequential-stimulus-presentation","131","462191","0.0-26.0-1.7","SS1613099924087","trial","","40","800","1191.1300000036135","images/stimuli/spore_stims/complex_16_B_a.gif","images/stimuli/spore_stims/complex_16_A_a.gif","","","","","6","complex_similar","images/stimuli/spore_stims/complex_16_A_a.gif","left","","","","",""
"","2044.3599999998696","html-keyboard-response","132","464249","0.0-27.0","SS1613099924087","pref_question","","98","","","","","<video width ='960' height = '540' style='padding-top:8%' autoplay muted><source src='images/stimuli/wall_pref.mp4' type='video/mp4'></video>","2","middle","45%","6","","","","","","","",""
"","537.6849999884143","sequential-stimulus-presentation","133","465601","0.0-28.0","SS1613099924087","pref_reveal","","40","800","1337.6849999884143","null","null","","","","","6","","","","deviant","","","",""
"","null","html-keyboard-response","134","466616","0.0-29.0-0.0","SS1613099924087","","","null","","","","","<p><img src= images/blank.png width =""200"" height = ""200"" style = ""float:right""></p><p><img src=images/blank.png width =""800"" height = ""200""></p>","","","","","","","","","","","",""
"","1303.440000017872","sequential-stimulus-presentation","135","468734","0.0-29.0-1.0","SS1613099924087","trial","","40","800","2103.440000017872","images/stimuli/spore_stims/complex_20_B_b.gif","images/stimuli/spore_stims/complex_11_A_c.gif","","","","","7","complex_dissimilar","images/stimuli/spore_stims/complex_11_A_c.gif","right","","","","",""
"","null","html-keyboard-response","136","469767","0.0-29.0-0.1","SS1613099924087","","","null","","","","","<p><img src= images/blank.png width =""200"" height = ""200"" style = ""float:right""></p><p><img src=images/blank.png width =""800"" height = ""200""></p>","","","","","","","","","","","",""
"","2435.125000018161","sequential-stimulus-presentation","137","473022","0.0-29.0-1.1","SS1613099924087","trial","","40","800","3235.125000018161","images/stimuli/spore_stims/complex_20_B_b.gif","images/stimuli/spore_stims/complex_11_A_c.gif","","","","","7","complex_dissimilar","images/stimuli/spore_stims/complex_11_A_c.gif","right","","","","",""
"","null","html-keyboard-response","138","474088","0.0-29.0-0.2","SS1613099924087","","","null","","","","","<p><img src= images/blank.png width =""200"" height = ""200"" style = ""float:right""></p><p><img src=images/blank.png width =""800"" height = ""200""></p>","","","","","","","","","","","",""
"","2653.50500002387","sequential-stimulus-presentation","139","477559","0.0-29.0-1.2","SS1613099924087","trial","","40","800","3453.50500002387","images/stimuli/spore_stims/complex_20_B_b.gif","images/stimuli/spore_stims/complex_11_A_c.gif","","","","","7","complex_dissimilar","images/stimuli/spore_stims/complex_20_B_b.gif","left","","","","",""
"","null","html-keyboard-response","140","478771","0.0-29.0-0.3","SS1613099924087","","","null","","","","","<p><img src= images/blank.png width =""200"" height = ""200"" style = ""float:right""></p><p><img src=images/blank.png width =""800"" height = ""200""></p>","","","","","","","","","","","",""
"","1202.6099999784492","sequential-stimulus-presentation","141","480792","0.0-29.0-1.3","SS1613099924087","trial","","40","800","2002.6099999784492","images/stimuli/spore_stims/complex_20_B_b.gif","images/stimuli/spore_stims/complex_11_A_c.gif","","","","","7","complex_dissimilar","images/stimuli/spore_stims/complex_11_A_c.gif","right","","","","",""
"","null","html-keyboard-response","142","482105","0.0-29.0-0.4","SS1613099924087","","","null","","","","","<p><img src= images/blank.png width =""200"" height = ""200"" style = ""float:right""></p><p><img src=images/blank.png width =""800"" height = ""200""></p>","","","","","","","","","","","",""
"","284.11499998765066","sequential-stimulus-presentation","143","483208","0.0-29.0-1.4","SS1613099924087","trial","","40","800","1084.1149999876507","images/stimuli/spore_stims/complex_20_B_b.gif","images/stimuli/spore_stims/complex_11_A_c.gif","","","","","7","complex_dissimilar","images/stimuli/spore_stims/complex_11_A_c.gif","right","","","","",""
"","null","html-keyboard-response","144","484442","0.0-29.0-0.5","SS1613099924087","","","null","","","","","<p><img src= images/blank.png width =""200"" height = ""200"" style = ""float:right""></p><p><img src=images/blank.png width =""800"" height = ""200""></p>","","","","","","","","","","","",""
"","226.90000000875443","sequential-stimulus-presentation","145","485485","0.0-29.0-1.5","SS1613099924087","trial","","40","800","1026.9000000087544","images/stimuli/spore_stims/complex_20_B_b.gif","images/stimuli/spore_stims/complex_11_A_c.gif","","","","","7","complex_dissimilar","images/stimuli/spore_stims/complex_11_A_c.gif","right","","","","",""
"","null","html-keyboard-response","146","486410","0.0-29.0-0.6","SS1613099924087","","","null","","","","","<p><img src= images/blank.png width =""200"" height = ""200"" style = ""float:right""></p><p><img src=images/blank.png width =""800"" height = ""200""></p>","","","","","","","","","","","",""
"","520.0699999986682","sequential-stimulus-presentation","147","487745","0.0-29.0-1.6","SS1613099924087","trial","","40","800","1320.0699999986682","images/stimuli/spore_stims/complex_20_B_b.gif","images/stimuli/spore_stims/complex_11_A_c.gif","","","","","7","complex_dissimilar","images/stimuli/spore_stims/complex_11_A_c.gif","right","","","","",""
"","null","html-keyboard-response","148","488610","0.0-29.0-0.7","SS1613099924087","","","null","","","","","<p><img src= images/blank.png width =""200"" height = ""200"" style = ""float:right""></p><p><img src=images/blank.png width =""800"" height = ""200""></p>","","","","","","","","","","","",""
"","40987.10500000743","sequential-stimulus-presentation","149","530702","0.0-29.0-1.7","SS1613099924087","trial","","40","800","41787.10500000743","images/stimuli/spore_stims/complex_20_B_b.gif","images/stimuli/spore_stims/complex_11_A_c.gif","","","","","7","complex_dissimilar","images/stimuli/spore_stims/complex_11_A_c.gif","right","","","","",""
"","1491.1100000026636","html-keyboard-response","150","532199","0.0-30.0","SS1613099924087","pref_question","","98","","","","","<video width ='960' height = '540' style='padding-top:8%' autoplay muted><source src='images/stimuli/wall_pref.mp4' type='video/mp4'></video>","2","middle","45%","7","","","","","","","",""
"","598.1000000028871","sequential-stimulus-presentation","151","533615","0.0-31.0","SS1613099924087","pref_reveal","","40","800","1398.100000002887","null","null","","","","","7","","","","novel","","","",""
"","null","html-keyboard-response","152","534695","0.0-32.0-0.0","SS1613099924087","","","null","","","","","<p><img src= images/blank.png width =""200"" height = ""200"" style = ""float:right""></p><p><img src=images/blank.png width =""800"" height = ""200""></p>","","","","","","","","","","","",""
"","734.424999973271","sequential-stimulus-presentation","153","536239","0.0-32.0-1.0","SS1613099924087","trial","","40","800","1534.424999973271","images/stimuli/spore_stims/simple_15_A_c.gif","images/stimuli/spore_stims/simple_15_B_c.gif","","","","","8","simple_similar","images/stimuli/spore_stims/simple_15_B_c.gif","middle","","","","",""
"","null","html-keyboard-response","154","537520","0.0-32.0-0.1","SS1613099924087","","","null","","","","","<p><img src= images/blank.png width =""200"" height = ""200"" style = ""float:right""></p><p><img src=images/blank.png width =""800"" height = ""200""></p>","","","","","","","","","","","",""
"","75.94000000972301","sequential-stimulus-presentation","155","538409","0.0-32.0-1.1","SS1613099924087","trial","","40","800","875.940000009723","images/stimuli/spore_stims/simple_15_A_c.gif","images/stimuli/spore_stims/simple_15_B_c.gif","","","","","8","simple_similar","images/stimuli/spore_stims/simple_15_B_c.gif","middle","","","","",""
"","null","html-keyboard-response","156","539495","0.0-32.0-0.2","SS1613099924087","","","null","","","","","<p><img src= images/blank.png width =""200"" height = ""200"" style = ""float:right""></p><p><img src=images/blank.png width =""800"" height = ""200""></p>","","","","","","","","","","","",""
"","35.284999990835786","sequential-stimulus-presentation","157","540354","0.0-32.0-1.2","SS1613099924087","trial","","40","800","835.2849999908358","images/stimuli/spore_stims/simple_15_A_c.gif","images/stimuli/spore_stims/simple_15_B_c.gif","","","","","8","simple_similar","images/stimuli/spore_stims/simple_15_A_c.gif","left","","","","",""
"","null","html-keyboard-response","158","541431","0.0-32.0-0.3","SS1613099924087","","","null","","","","","<p><img src= images/blank.png width =""200"" height = ""200"" style = ""float:right""></p><p><img src=images/blank.png width =""800"" height = ""200""></p>","","","","","","","","","","","",""
"","471.59499998087995","sequential-stimulus-presentation","159","542723","0.0-32.0-1.3","SS1613099924087","trial","","40","800","1271.59499998088","images/stimuli/spore_stims/simple_15_A_c.gif","images/stimuli/spore_stims/simple_15_B_c.gif","","","","","8","simple_similar","images/stimuli/spore_stims/simple_15_B_c.gif","middle","","","","",""
"","null","html-keyboard-response","160","543734","0.0-32.0-0.4","SS1613099924087","","","null","","","","","<p><img src= images/blank.png width =""200"" height = ""200"" style = ""float:right""></p><p><img src=images/blank.png width =""800"" height = ""200""></p>","","","","","","","","","","","",""
"","226.75999999046326","sequential-stimulus-presentation","161","544783","0.0-32.0-1.4","SS1613099924087","trial","","40","800","1026.7599999904633","images/stimuli/spore_stims/simple_15_A_c.gif","images/stimuli/spore_stims/simple_15_B_c.gif","","","","","8","simple_similar","images/stimuli/spore_stims/simple_15_B_c.gif","middle","","","","",""
"","null","html-keyboard-response","162","545617","0.0-32.0-0.5","SS1613099924087","","","null","","","","","<p><img src= images/blank.png width =""200"" height = ""200"" style = ""float:right""></p><p><img src=images/blank.png width =""800"" height = ""200""></p>","","","","","","","","","","","",""
"","140.02999998047017","sequential-stimulus-presentation","163","546575","0.0-32.0-1.5","SS1613099924087","trial","","40","800","940.0299999804702","images/stimuli/spore_stims/simple_15_A_c.gif","images/stimuli/spore_stims/simple_15_B_c.gif","","","","","8","simple_similar","images/stimuli/spore_stims/simple_15_B_c.gif","middle","","","","",""
"","null","html-keyboard-response","164","547804","0.0-32.0-0.6","SS1613099924087","","","null","","","","","<p><img src= images/blank.png width =""200"" height = ""200"" style = ""float:right""></p><p><img src=images/blank.png width =""800"" height = ""200""></p>","","","","","","","","","","","",""
"","287.27500000968575","sequential-stimulus-presentation","165","548905","0.0-32.0-1.6","SS1613099924087","trial","","40","800","1087.2750000096858","images/stimuli/spore_stims/simple_15_A_c.gif","images/stimuli/spore_stims/simple_15_B_c.gif","","","","","8","simple_similar","images/stimuli/spore_stims/simple_15_B_c.gif","middle","","","","",""
"","null","html-keyboard-response","166","550017","0.0-32.0-0.7","SS1613099924087","","","null","","","","","<p><img src= images/blank.png width =""200"" height = ""200"" style = ""float:right""></p><p><img src=images/blank.png width =""800"" height = ""200""></p>","","","","","","","","","","","",""
"","306.08000000938773","sequential-stimulus-presentation","167","551143","0.0-32.0-1.7","SS1613099924087","trial","","40","800","1106.0800000093877","images/stimuli/spore_stims/simple_15_A_c.gif","images/stimuli/spore_stims/simple_15_B_c.gif","","","","","8","simple_similar","images/stimuli/spore_stims/simple_15_B_c.gif","middle","","","","",""
"","1489.9949999817181","html-keyboard-response","168","552657","0.0-33.0","SS1613099924087","pref_question","","97","","","","","<video width ='960' height = '540' style='padding-top:8%' autoplay muted><source src='images/stimuli/wall_pref.mp4' type='video/mp4'></video>","1","left","25%","8","","","","","","","",""
"","383.5949999920558","sequential-stimulus-presentation","169","553857","0.0-34.0","SS1613099924087","pref_reveal","","40","800","1183.5949999920558","null","null","","","","","8","","","","deviant","","","",""
"","null","html-keyboard-response","170","555108","0.0-35.0-0.0","SS1613099924087","","","null","","","","","<p><img src= images/blank.png width =""200"" height = ""200"" style = ""float:right""></p><p><img src=images/blank.png width =""800"" height = ""200""></p>","","","","","","","","","","","",""
"","171.9849999935832","sequential-stimulus-presentation","171","556096","0.0-35.0-1.0","SS1613099924087","trial","","40","800","971.9849999935832","images/stimuli/spore_stims/simple_04_B_b.gif","images/stimuli/spore_stims/simple_04_A_b.gif","","","","","9","simple_similar","images/stimuli/spore_stims/simple_04_A_b.gif","left","","","","",""
"","null","html-keyboard-response","172","557173","0.0-35.0-0.1","SS1613099924087","","","null","","","","","<p><img src= images/blank.png width =""200"" height = ""200"" style = ""float:right""></p><p><img src=images/blank.png width =""800"" height = ""200""></p>","","","","","","","","","","","",""
"","4260.29499998549","sequential-stimulus-presentation","173","562256","0.0-35.0-1.1","SS1613099924087","trial","","40","800","5060.29499998549","images/stimuli/spore_stims/simple_04_B_b.gif","images/stimuli/spore_stims/simple_04_A_b.gif","","","","","9","simple_similar","images/stimuli/spore_stims/simple_04_A_b.gif","left","","","","",""
"","null","html-keyboard-response","174","563295","0.0-35.0-0.2","SS1613099924087","","","null","","","","","<p><img src= images/blank.png width =""200"" height = ""200"" style = ""float:right""></p><p><img src=images/blank.png width =""800"" height = ""200""></p>","","","","","","","","","","","",""
"","186.17499998072162","sequential-stimulus-presentation","175","564315","0.0-35.0-1.2","SS1613099924087","trial","","40","800","986.1749999807216","images/stimuli/spore_stims/simple_04_B_b.gif","images/stimuli/spore_stims/simple_04_A_b.gif","","","","","9","simple_similar","images/stimuli/spore_stims/simple_04_A_b.gif","left","","","","",""
"","null","html-keyboard-response","176","565562","0.0-35.0-0.3","SS1613099924087","","","null","","","","","<p><img src= images/blank.png width =""200"" height = ""200"" style = ""float:right""></p><p><img src=images/blank.png width =""800"" height = ""200""></p>","","","","","","","","","","","",""
"","541.1050000111572","sequential-stimulus-presentation","177","566921","0.0-35.0-1.3","SS1613099924087","trial","","40","800","1341.1050000111572","images/stimuli/spore_stims/simple_04_B_b.gif","images/stimuli/spore_stims/simple_04_A_b.gif","","","","","9","simple_similar","images/stimuli/spore_stims/simple_04_A_b.gif","left","","","","",""
"","null","html-keyboard-response","178","568103","0.0-35.0-0.4","SS1613099924087","","","null","","","","","<p><img src= images/blank.png width =""200"" height = ""200"" style = ""float:right""></p><p><img src=images/blank.png width =""800"" height = ""200""></p>","","","","","","","","","","","",""
"","449.93000000249594","sequential-stimulus-presentation","179","569379","0.0-35.0-1.4","SS1613099924087","trial","","40","800","1249.930000002496","images/stimuli/spore_stims/simple_04_B_b.gif","images/stimuli/spore_stims/simple_04_A_b.gif","","","","","9","simple_similar","images/stimuli/spore_stims/simple_04_A_b.gif","left","","","","",""
"","null","html-keyboard-response","180","570298","0.0-35.0-0.5","SS1613099924087","","","null","","","","","<p><img src= images/blank.png width =""200"" height = ""200"" style = ""float:right""></p><p><img src=images/blank.png width =""800"" height = ""200""></p>","","","","","","","","","","","",""
"","882.5350000115577","sequential-stimulus-presentation","181","572002","0.0-35.0-1.5","SS1613099924087","trial","","40","800","1682.5350000115577","images/stimuli/spore_stims/simple_04_B_b.gif","images/stimuli/spore_stims/simple_04_A_b.gif","","","","","9","simple_similar","images/stimuli/spore_stims/simple_04_A_b.gif","left","","","","",""
"","null","html-keyboard-response","182","572949","0.0-35.0-0.6","SS1613099924087","","","null","","","","","<p><img src= images/blank.png width =""200"" height = ""200"" style = ""float:right""></p><p><img src=images/blank.png width =""800"" height = ""200""></p>","","","","","","","","","","","",""
"","239.15500001749024","sequential-stimulus-presentation","183","574024","0.0-35.0-1.6","SS1613099924087","trial","","40","800","1039.1550000174902","images/stimuli/spore_stims/simple_04_B_b.gif","images/stimuli/spore_stims/simple_04_A_b.gif","","","","","9","simple_similar","images/stimuli/spore_stims/simple_04_A_b.gif","left","","","","",""
"","null","html-keyboard-response","184","575315","0.0-35.0-0.7","SS1613099924087","","","null","","","","","<p><img src= images/blank.png width =""200"" height = ""200"" style = ""float:right""></p><p><img src=images/blank.png width =""800"" height = ""200""></p>","","","","","","","","","","","",""
"","175.84999999962747","sequential-stimulus-presentation","185","576311","0.0-35.0-1.7","SS1613099924087","trial","","40","800","975.8499999996275","images/stimuli/spore_stims/simple_04_B_b.gif","images/stimuli/spore_stims/simple_04_A_b.gif","","","","","9","simple_similar","images/stimuli/spore_stims/simple_04_B_b.gif","right","","","","",""
"","1484.5949999871664","html-keyboard-response","186","577817","0.0-36.0","SS1613099924087","pref_question","","97","","","","","<video width ='960' height = '540' style='padding-top:8%' autoplay muted><source src='images/stimuli/wall_pref.mp4' type='video/mp4'></video>","1","left","25%","9","","","","","","","",""
"","365.28500000713393","sequential-stimulus-presentation","187","578999","0.0-37.0","SS1613099924087","pref_reveal","","40","800","1165.285000007134","null","null","","","","","9","","","","background","","","",""
"","null","html-keyboard-response","188","580302","0.0-38.0-0.0","SS1613099924087","","","null","","","","","<p><img src= images/blank.png width =""200"" height = ""200"" style = ""float:right""></p><p><img src=images/blank.png width =""800"" height = ""200""></p>","","","","","","","","","","","",""
"","1511.5700000023935","sequential-stimulus-presentation","189","582633","0.0-38.0-1.0","SS1613099924087","trial","","40","800","2311.5700000023935","images/stimuli/spore_stims/simple_07_A_b.gif","images/stimuli/spore_stims/simple_18_A_c.gif","","","","","10","simple_dissimilar","images/stimuli/spore_stims/simple_18_A_c.gif","middle","","","","",""
"","null","html-keyboard-response","190","583563","0.0-38.0-0.1","SS1613099924087","","","null","","","","","<p><img src= images/blank.png width =""200"" height = ""200"" style = ""float:right""></p><p><img src=images/blank.png width =""800"" height = ""200""></p>","","","","","","","","","","","",""
"","352.3799999966286","sequential-stimulus-presentation","191","584723","0.0-38.0-1.1","SS1613099924087","trial","","40","800","1152.3799999966286","images/stimuli/spore_stims/simple_07_A_b.gif","images/stimuli/spore_stims/simple_18_A_c.gif","","","","","10","simple_dissimilar","images/stimuli/spore_stims/simple_18_A_c.gif","middle","","","","",""
"","null","html-keyboard-response","192","585864","0.0-38.0-0.2","SS1613099924087","","","null","","","","","<p><img src= images/blank.png width =""200"" height = ""200"" style = ""float:right""></p><p><img src=images/blank.png width =""800"" height = ""200""></p>","","","","","","","","","","","",""
"","205.08499999414198","sequential-stimulus-presentation","193","586895","0.0-38.0-1.2","SS1613099924087","trial","","40","800","1005.084999994142","images/stimuli/spore_stims/simple_07_A_b.gif","images/stimuli/spore_stims/simple_18_A_c.gif","","","","","10","simple_dissimilar","images/stimuli/spore_stims/simple_18_A_c.gif","middle","","","","",""
"","null","html-keyboard-response","194","587938","0.0-38.0-0.3","SS1613099924087","","","null","","","","","<p><img src= images/blank.png width =""200"" height = ""200"" style = ""float:right""></p><p><img src=images/blank.png width =""800"" height = ""200""></p>","","","","","","","","","","","",""
"","155.71999998064712","sequential-stimulus-presentation","195","588913","0.0-38.0-1.3","SS1613099924087","trial","","40","800","955.7199999806471","images/stimuli/spore_stims/simple_07_A_b.gif","images/stimuli/spore_stims/simple_18_A_c.gif","","","","","10","simple_dissimilar","images/stimuli/spore_stims/simple_18_A_c.gif","middle","","","","",""
"","null","html-keyboard-response","196","590173","0.0-38.0-0.4","SS1613099924087","","","null","","","","","<p><img src= images/blank.png width =""200"" height = ""200"" style = ""float:right""></p><p><img src=images/blank.png width =""800"" height = ""200""></p>","","","","","","","","","","","",""
"","226.21999998227693","sequential-stimulus-presentation","197","591208","0.0-38.0-1.4","SS1613099924087","trial","","40","800","1026.219999982277","images/stimuli/spore_stims/simple_07_A_b.gif","images/stimuli/spore_stims/simple_18_A_c.gif","","","","","10","simple_dissimilar","images/stimuli/spore_stims/simple_18_A_c.gif","middle","","","","",""
"","null","html-keyboard-response","198","592488","0.0-38.0-0.5","SS1613099924087","","","null","","","","","<p><img src= images/blank.png width =""200"" height = ""200"" style = ""float:right""></p><p><img src=images/blank.png width =""800"" height = ""200""></p>","","","","","","","","","","","",""
"","157.7099999994971","sequential-stimulus-presentation","199","593462","0.0-38.0-1.5","SS1613099924087","trial","","40","800","957.7099999994971","images/stimuli/spore_stims/simple_07_A_b.gif","images/stimuli/spore_stims/simple_18_A_c.gif","","","","","10","simple_dissimilar","images/stimuli/spore_stims/simple_18_A_c.gif","middle","","","","",""
"","null","html-keyboard-response","200","594474","0.0-38.0-0.6","SS1613099924087","","","null","","","","","<p><img src= images/blank.png width =""200"" height = ""200"" style = ""float:right""></p><p><img src=images/blank.png width =""800"" height = ""200""></p>","","","","","","","","","","","",""
"","191.63499999558553","sequential-stimulus-presentation","201","595485","0.0-38.0-1.6","SS1613099924087","trial","","40","800","991.6349999955855","images/stimuli/spore_stims/simple_07_A_b.gif","images/stimuli/spore_stims/simple_18_A_c.gif","","","","","10","simple_dissimilar","images/stimuli/spore_stims/simple_18_A_c.gif","middle","","","","",""
"","null","html-keyboard-response","202","596443","0.0-38.0-0.7","SS1613099924087","","","null","","","","","<p><img src= images/blank.png width =""200"" height = ""200"" style = ""float:right""></p><p><img src=images/blank.png width =""800"" height = ""200""></p>","","","","","","","","","","","",""
"","144.5650000241585","sequential-stimulus-presentation","203","597405","0.0-38.0-1.7","SS1613099924087","trial","","40","800","944.5650000241585","images/stimuli/spore_stims/simple_07_A_b.gif","images/stimuli/spore_stims/simple_18_A_c.gif","","","","","10","simple_dissimilar","images/stimuli/spore_stims/simple_07_A_b.gif","left","","","","",""
"","3638.0800000042655","html-keyboard-response","204","601055","0.0-39.0","SS1613099924087","pref_question","","99","","","","","<video width ='960' height = '540' style='padding-top:8%' autoplay muted><source src='images/stimuli/wall_pref.mp4' type='video/mp4'></video>","3","right","66%","10","","","","","","","",""
"","486.36000000988133","sequential-stimulus-presentation","205","602350","0.0-40.0","SS1613099924087","pref_reveal","","40","800","1286.3600000098813","null","null","","","","","10","","","","novel","","","",""
"","null","html-keyboard-response","206","603457","0.0-41.0-0.0","SS1613099924087","","","null","","","","","<p><img src= images/blank.png width =""200"" height = ""200"" style = ""float:right""></p><p><img src=images/blank.png width =""800"" height = ""200""></p>","","","","","","","","","","","",""
"","454.1449999960605","sequential-stimulus-presentation","207","604736","0.0-41.0-1.0","SS1613099924087","trial","","40","800","1254.1449999960605","images/stimuli/spore_stims/simple_12_A_d.gif","images/stimuli/spore_stims/simple_12_B_d.gif","","","","","11","simple_similar","images/stimuli/spore_stims/simple_12_B_d.gif","middle","","","","",""
"","null","html-keyboard-response","208","606016","0.0-41.0-0.1","SS1613099924087","","","null","","","","","<p><img src= images/blank.png width =""200"" height = ""200"" style = ""float:right""></p><p><img src=images/blank.png width =""800"" height = ""200""></p>","","","","","","","","","","","",""
"","506.02999998955056","sequential-stimulus-presentation","209","607335","0.0-41.0-1.1","SS1613099924087","trial","","40","800","1306.0299999895506","images/stimuli/spore_stims/simple_12_A_d.gif","images/stimuli/spore_stims/simple_12_B_d.gif","","","","","11","simple_similar","images/stimuli/spore_stims/simple_12_B_d.gif","middle","","","","",""
"","null","html-keyboard-response","210","608540","0.0-41.0-0.2","SS1613099924087","","","null","","","","","<p><img src= images/blank.png width =""200"" height = ""200"" style = ""float:right""></p><p><img src=images/blank.png width =""800"" height = ""200""></p>","","","","","","","","","","","",""
"","977.3100000165869","sequential-stimulus-presentation","211","610327","0.0-41.0-1.2","SS1613099924087","trial","","40","800","1777.3100000165869","images/stimuli/spore_stims/simple_12_A_d.gif","images/stimuli/spore_stims/simple_12_B_d.gif","","","","","11","simple_similar","images/stimuli/spore_stims/simple_12_B_d.gif","middle","","","","",""
"","null","html-keyboard-response","212","611266","0.0-41.0-0.3","SS1613099924087","","","null","","","","","<p><img src= images/blank.png width =""200"" height = ""200"" style = ""float:right""></p><p><img src=images/blank.png width =""800"" height = ""200""></p>","","","","","","","","","","","",""
"","601.4000000141095","sequential-stimulus-presentation","213","612687","0.0-41.0-1.3","SS1613099924087","trial","","40","800","1401.4000000141095","images/stimuli/spore_stims/simple_12_A_d.gif","images/stimuli/spore_stims/simple_12_B_d.gif","","","","","11","simple_similar","images/stimuli/spore_stims/simple_12_A_d.gif","left","","","","",""
"","null","html-keyboard-response","214","613667","0.0-41.0-0.4","SS1613099924087","","","null","","","","","<p><img src= images/blank.png width =""200"" height = ""200"" style = ""float:right""></p><p><img src=images/blank.png width =""800"" height = ""200""></p>","","","","","","","","","","","",""
"","328.8800000154879","sequential-stimulus-presentation","215","614815","0.0-41.0-1.4","SS1613099924087","trial","","40","800","1128.880000015488","images/stimuli/spore_stims/simple_12_A_d.gif","images/stimuli/spore_stims/simple_12_B_d.gif","","","","","11","simple_similar","images/stimuli/spore_stims/simple_12_B_d.gif","middle","","","","",""
"","null","html-keyboard-response","216","615960","0.0-41.0-0.5","SS1613099924087","","","null","","","","","<p><img src= images/blank.png width =""200"" height = ""200"" style = ""float:right""></p><p><img src=images/blank.png width =""800"" height = ""200""></p>","","","","","","","","","","","",""
"","558.6749999783933","sequential-stimulus-presentation","217","617337","0.0-41.0-1.5","SS1613099924087","trial","","40","800","1358.6749999783933","images/stimuli/spore_stims/simple_12_A_d.gif","images/stimuli/spore_stims/simple_12_B_d.gif","","","","","11","simple_similar","images/stimuli/spore_stims/simple_12_B_d.gif","middle","","","","",""
"","null","html-keyboard-response","218","618303","0.0-41.0-0.6","SS1613099924087","","","null","","","","","<p><img src= images/blank.png width =""200"" height = ""200"" style = ""float:right""></p><p><img src=images/blank.png width =""800"" height = ""200""></p>","","","","","","","","","","","",""
"","276.8299999879673","sequential-stimulus-presentation","219","619399","0.0-41.0-1.6","SS1613099924087","trial","","40","800","1076.8299999879673","images/stimuli/spore_stims/simple_12_A_d.gif","images/stimuli/spore_stims/simple_12_B_d.gif","","","","","11","simple_similar","images/stimuli/spore_stims/simple_12_B_d.gif","middle","","","","",""
"","null","html-keyboard-response","220","620537","0.0-41.0-0.7","SS1613099924087","","","null","","","","","<p><img src= images/blank.png width =""200"" height = ""200"" style = ""float:right""></p><p><img src=images/blank.png width =""800"" height = ""200""></p>","","","","","","","","","","","",""
"","270.94499999657273","sequential-stimulus-presentation","221","621624","0.0-41.0-1.7","SS1613099924087","trial","","40","800","1070.9449999965727","images/stimuli/spore_stims/simple_12_A_d.gif","images/stimuli/spore_stims/simple_12_B_d.gif","","","","","11","simple_similar","images/stimuli/spore_stims/simple_12_B_d.gif","middle","","","","",""
"","1521.6749999963213","html-keyboard-response","222","623169","0.0-42.0","SS1613099924087","pref_question","","99","","","","","<video width ='960' height = '540' style='padding-top:8%' autoplay muted><source src='images/stimuli/wall_pref.mp4' type='video/mp4'></video>","3","right","66%","11","","","","","","","",""
"","10328.32000000053","sequential-stimulus-presentation","223","634319","0.0-43.0","SS1613099924087","pref_reveal","","40","800","11128.32000000053","null","null","","","","","11","","","","novel","","","",""
"","null","html-keyboard-response","224","635561","0.0-44.0-0.0","SS1613099924087","","","null","","","","","<p><img src= images/blank.png width =""200"" height = ""200"" style = ""float:right""></p><p><img src=images/blank.png width =""800"" height = ""200""></p>","","","","","","","","","","","",""
"","5844.52000001329","sequential-stimulus-presentation","225","642223","0.0-44.0-1.0","SS1613099924087","trial","","40","800","6644.52000001329","images/stimuli/spore_stims/simple_14_B_d.gif","images/stimuli/spore_stims/simple_14_A_d.gif","","","","","12","simple_similar","images/stimuli/spore_stims/simple_14_A_d.gif","middle","","","","",""
"","null","html-keyboard-response","226","643403","0.0-44.0-0.1","SS1613099924087","","","null","","","","","<p><img src= images/blank.png width =""200"" height = ""200"" style = ""float:right""></p><p><img src=images/blank.png width =""800"" height = ""200""></p>","","","","","","","","","","","",""
"","366.295000014361","sequential-stimulus-presentation","227","644582","0.0-44.0-1.1","SS1613099924087","trial","","40","800","1166.295000014361","images/stimuli/spore_stims/simple_14_B_d.gif","images/stimuli/spore_stims/simple_14_A_d.gif","","","","","12","simple_similar","images/stimuli/spore_stims/simple_14_A_d.gif","middle","","","","",""
"","null","html-keyboard-response","228","645780","0.0-44.0-0.2","SS1613099924087","","","null","","","","","<p><img src= images/blank.png width =""200"" height = ""200"" style = ""float:right""></p><p><img src=images/blank.png width =""800"" height = ""200""></p>","","","","","","","","","","","",""
"","399.4200000015553","sequential-stimulus-presentation","229","647000","0.0-44.0-1.2","SS1613099924087","trial","","40","800","1199.4200000015553","images/stimuli/spore_stims/simple_14_B_d.gif","images/stimuli/spore_stims/simple_14_A_d.gif","","","","","12","simple_similar","images/stimuli/spore_stims/simple_14_A_d.gif","middle","","","","",""
"","null","html-keyboard-response","230","648056","0.0-44.0-0.3","SS1613099924087","","","null","","","","","<p><img src= images/blank.png width =""200"" height = ""200"" style = ""float:right""></p><p><img src=images/blank.png width =""800"" height = ""200""></p>","","","","","","","","","","","",""
"","317.349999997532","sequential-stimulus-presentation","231","649192","0.0-44.0-1.3","SS1613099924087","trial","","40","800","1117.349999997532","images/stimuli/spore_stims/simple_14_B_d.gif","images/stimuli/spore_stims/simple_14_A_d.gif","","","","","12","simple_similar","images/stimuli/spore_stims/simple_14_A_d.gif","middle","","","","",""
"","null","html-keyboard-response","232","650517","0.0-44.0-0.4","SS1613099924087","","","null","","","","","<p><img src= images/blank.png width =""200"" height = ""200"" style = ""float:right""></p><p><img src=images/blank.png width =""800"" height = ""200""></p>","","","","","","","","","","","",""
"","349.06999999657273","sequential-stimulus-presentation","233","651685","0.0-44.0-1.4","SS1613099924087","trial","","40","800","1149.0699999965727","images/stimuli/spore_stims/simple_14_B_d.gif","images/stimuli/spore_stims/simple_14_A_d.gif","","","","","12","simple_similar","images/stimuli/spore_stims/simple_14_A_d.gif","middle","","","","",""
"","null","html-keyboard-response","234","652951","0.0-44.0-0.5","SS1613099924087","","","null","","","","","<p><img src= images/blank.png width =""200"" height = ""200"" style = ""float:right""></p><p><img src=images/blank.png width =""800"" height = ""200""></p>","","","","","","","","","","","",""
"","240.16499999561347","sequential-stimulus-presentation","235","654008","0.0-44.0-1.5","SS1613099924087","trial","","40","800","1040.1649999956135","images/stimuli/spore_stims/simple_14_B_d.gif","images/stimuli/spore_stims/simple_14_A_d.gif","","","","","12","simple_similar","images/stimuli/spore_stims/simple_14_A_d.gif","middle","","","","",""
"","null","html-keyboard-response","236","655036","0.0-44.0-0.6","SS1613099924087","","","null","","","","","<p><img src= images/blank.png width =""200"" height = ""200"" style = ""float:right""></p><p><img src=images/blank.png width =""800"" height = ""200""></p>","","","","","","","","","","","",""
"","6368.784999998752","sequential-stimulus-presentation","237","662240","0.0-44.0-1.6","SS1613099924087","trial","","40","800","7168.784999998752","images/stimuli/spore_stims/simple_14_B_d.gif","images/stimuli/spore_stims/simple_14_A_d.gif","","","","","12","simple_similar","images/stimuli/spore_stims/simple_14_B_d.gif","left","","","","",""
"","null","html-keyboard-response","238","663180","0.0-44.0-0.7","SS1613099924087","","","null","","","","","<p><img src= images/blank.png width =""200"" height = ""200"" style = ""float:right""></p><p><img src=images/blank.png width =""800"" height = ""200""></p>","","","","","","","","","","","",""
"","751.0749999783002","sequential-stimulus-presentation","239","664761","0.0-44.0-1.7","SS1613099924087","trial","","40","800","1551.0749999783002","images/stimuli/spore_stims/simple_14_B_d.gif","images/stimuli/spore_stims/simple_14_A_d.gif","","","","","12","simple_similar","images/stimuli/spore_stims/simple_14_A_d.gif","middle","","","","",""
"","2616.8650000181515","html-keyboard-response","240","667397","0.0-45.0","SS1613099924087","pref_question","","97","","","","","<video width ='960' height = '540' style='padding-top:8%' autoplay muted><source src='images/stimuli/wall_pref.mp4' type='video/mp4'></video>","1","left","25%","12","","","","","","","",""
"","341.03500001947396","sequential-stimulus-presentation","241","668551","0.0-46.0","SS1613099924087","pref_reveal","","40","800","1141.035000019474","null","null","","","","","12","","","","deviant","","","",""
"","null","html-keyboard-response","242","669718","0.0-47.0-0.0","SS1613099924087","","","null","","","","","<p><img src= images/blank.png width =""200"" height = ""200"" style = ""float:right""></p><p><img src=images/blank.png width =""800"" height = ""200""></p>","","","","","","","","","","","",""
"","138.92500000656582","sequential-stimulus-presentation","243","670682","0.0-47.0-1.0","SS1613099924087","trial","","40","800","938.9250000065658","images/stimuli/spore_stims/simple_18_B_b.gif","images/stimuli/spore_stims/simple_19_B_a.gif","","","","","13","simple_dissimilar","images/stimuli/spore_stims/simple_19_B_a.gif","right","","","","",""
"","null","html-keyboard-response","244","671827","0.0-47.0-0.1","SS1613099924087","","","null","","","","","<p><img src= images/blank.png width =""200"" height = ""200"" style = ""float:right""></p><p><img src=images/blank.png width =""800"" height = ""200""></p>","","","","","","","","","","","",""
"","83.25500000501052","sequential-stimulus-presentation","245","672731","0.0-47.0-1.1","SS1613099924087","trial","","40","800","883.2550000050105","images/stimuli/spore_stims/simple_18_B_b.gif","images/stimuli/spore_stims/simple_19_B_a.gif","","","","","13","simple_dissimilar","images/stimuli/spore_stims/simple_19_B_a.gif","right","","","","",""
"","null","html-keyboard-response","246","673850","0.0-47.0-0.2","SS1613099924087","","","null","","","","","<p><img src= images/blank.png width =""200"" height = ""200"" style = ""float:right""></p><p><img src=images/blank.png width =""800"" height = ""200""></p>","","","","","","","","","","","",""
"","82.68000002135523","sequential-stimulus-presentation","247","674750","0.0-47.0-1.2","SS1613099924087","trial","","40","800","882.6800000213552","images/stimuli/spore_stims/simple_18_B_b.gif","images/stimuli/spore_stims/simple_19_B_a.gif","","","","","13","simple_dissimilar","images/stimuli/spore_stims/simple_19_B_a.gif","right","","","","",""
"","null","html-keyboard-response","248","675718","0.0-47.0-0.3","SS1613099924087","","","null","","","","","<p><img src= images/blank.png width =""200"" height = ""200"" style = ""float:right""></p><p><img src=images/blank.png width =""800"" height = ""200""></p>","","","","","","","","","","","",""
"","2387.7750000101514","sequential-stimulus-presentation","249","679113","0.0-47.0-1.3","SS1613099924087","trial","","40","800","3187.7750000101514","images/stimuli/spore_stims/simple_18_B_b.gif","images/stimuli/spore_stims/simple_19_B_a.gif","","","","","13","simple_dissimilar","images/stimuli/spore_stims/simple_18_B_b.gif","left","","","","",""
"","null","html-keyboard-response","250","680312","0.0-47.0-0.4","SS1613099924087","","","null","","","","","<p><img src= images/blank.png width =""200"" height = ""200"" style = ""float:right""></p><p><img src=images/blank.png width =""800"" height = ""200""></p>","","","","","","","","","","","",""
"","231.36499998508953","sequential-stimulus-presentation","251","681362","0.0-47.0-1.4","SS1613099924087","trial","","40","800","1031.3649999850895","images/stimuli/spore_stims/simple_18_B_b.gif","images/stimuli/spore_stims/simple_19_B_a.gif","","","","","13","simple_dissimilar","images/stimuli/spore_stims/simple_19_B_a.gif","right","","","","",""
"","null","html-keyboard-response","252","682409","0.0-47.0-0.5","SS1613099924087","","","null","","","","","<p><img src= images/blank.png width =""200"" height = ""200"" style = ""float:right""></p><p><img src=images/blank.png width =""800"" height = ""200""></p>","","","","","","","","","","","",""
"","148.3050000097137","sequential-stimulus-presentation","253","683377","0.0-47.0-1.5","SS1613099924087","trial","","40","800","948.3050000097137","images/stimuli/spore_stims/simple_18_B_b.gif","images/stimuli/spore_stims/simple_19_B_a.gif","","","","","13","simple_dissimilar","images/stimuli/spore_stims/simple_19_B_a.gif","right","","","","",""
"","null","html-keyboard-response","254","684375","0.0-47.0-0.6","SS1613099924087","","","null","","","","","<p><img src= images/blank.png width =""200"" height = ""200"" style = ""float:right""></p><p><img src=images/blank.png width =""800"" height = ""200""></p>","","","","","","","","","","","",""
"","495.0400000088848","sequential-stimulus-presentation","255","685698","0.0-47.0-1.6","SS1613099924087","trial","","40","800","1295.0400000088848","images/stimuli/spore_stims/simple_18_B_b.gif","images/stimuli/spore_stims/simple_19_B_a.gif","","","","","13","simple_dissimilar","images/stimuli/spore_stims/simple_19_B_a.gif","right","","","","",""
"","null","html-keyboard-response","256","686584","0.0-47.0-0.7","SS1613099924087","","","null","","","","","<p><img src= images/blank.png width =""200"" height = ""200"" style = ""float:right""></p><p><img src=images/blank.png width =""800"" height = ""200""></p>","","","","","","","","","","","",""
"","170.69500000798143","sequential-stimulus-presentation","257","687586","0.0-47.0-1.7","SS1613099924087","trial","","40","800","970.6950000079814","images/stimuli/spore_stims/simple_18_B_b.gif","images/stimuli/spore_stims/simple_19_B_a.gif","","","","","13","simple_dissimilar","images/stimuli/spore_stims/simple_19_B_a.gif","right","","","","",""
"","21094.14000000106","html-keyboard-response","258","708696","0.0-48.0","SS1613099924087","pref_question","","97","","","","","<video width ='960' height = '540' style='padding-top:8%' autoplay muted><source src='images/stimuli/wall_pref.mp4' type='video/mp4'></video>","1","left","25%","13","","","","","","","",""
"","4758.34999998915","sequential-stimulus-presentation","259","714271","0.0-49.0","SS1613099924087","pref_reveal","","40","800","5558.34999998915","null","null","","","","","13","","","","deviant","","","",""
"","null","html-keyboard-response","260","715279","0.0-50.0-0.0","SS1613099924087","","","null","","","","","<p><img src= images/blank.png width =""200"" height = ""200"" style = ""float:right""></p><p><img src=images/blank.png width =""800"" height = ""200""></p>","","","","","","","","","","","",""
"","3893.305000005057","sequential-stimulus-presentation","261","719992","0.0-50.0-1.0","SS1613099924087","trial","","40","800","4693.305000005057","images/stimuli/spore_stims/simple_11_B_b.gif","images/stimuli/spore_stims/simple_10_B_c.gif","","","","","14","simple_dissimilar","images/stimuli/spore_stims/simple_10_B_c.gif","left","","","","",""
"","null","html-keyboard-response","262","721110","0.0-50.0-0.1","SS1613099924087","","","null","","","","","<p><img src= images/blank.png width =""200"" height = ""200"" style = ""float:right""></p><p><img src=images/blank.png width =""800"" height = ""200""></p>","","","","","","","","","","","",""
"","160.55000000051223","sequential-stimulus-presentation","263","722094","0.0-50.0-1.1","SS1613099924087","trial","","40","800","960.5500000005122","images/stimuli/spore_stims/simple_11_B_b.gif","images/stimuli/spore_stims/simple_10_B_c.gif","","","","","14","simple_dissimilar","images/stimuli/spore_stims/simple_10_B_c.gif","left","","","","",""
"","null","html-keyboard-response","264","723022","0.0-50.0-0.2","SS1613099924087","","","null","","","","","<p><img src= images/blank.png width =""200"" height = ""200"" style = ""float:right""></p><p><img src=images/blank.png width =""800"" height = ""200""></p>","","","","","","","","","","","",""
"","173.39999999967404","sequential-stimulus-presentation","265","724015","0.0-50.0-1.2","SS1613099924087","trial","","40","800","973.399999999674","images/stimuli/spore_stims/simple_11_B_b.gif","images/stimuli/spore_stims/simple_10_B_c.gif","","","","","14","simple_dissimilar","images/stimuli/spore_stims/simple_10_B_c.gif","left","","","","",""
"","null","html-keyboard-response","266","725068","0.0-50.0-0.3","SS1613099924087","","","null","","","","","<p><img src= images/blank.png width =""200"" height = ""200"" style = ""float:right""></p><p><img src=images/blank.png width =""800"" height = ""200""></p>","","","","","","","","","","","",""
"","1321.044999989681","sequential-stimulus-presentation","267","727207","0.0-50.0-1.3","SS1613099924087","trial","","40","800","2121.044999989681","images/stimuli/spore_stims/simple_11_B_b.gif","images/stimuli/spore_stims/simple_10_B_c.gif","","","","","14","simple_dissimilar","images/stimuli/spore_stims/simple_11_B_b.gif","right","","","","",""
"","null","html-keyboard-response","268","728344","0.0-50.0-0.4","SS1613099924087","","","null","","","","","<p><img src= images/blank.png width =""200"" height = ""200"" style = ""float:right""></p><p><img src=images/blank.png width =""800"" height = ""200""></p>","","","","","","","","","","","",""
"","861.0150000022259","sequential-stimulus-presentation","269","730015","0.0-50.0-1.4","SS1613099924087","trial","","40","800","1661.0150000022259","images/stimuli/spore_stims/simple_11_B_b.gif","images/stimuli/spore_stims/simple_10_B_c.gif","","","","","14","simple_dissimilar","images/stimuli/spore_stims/simple_10_B_c.gif","left","","","","",""
"","null","html-keyboard-response","270","731302","0.0-50.0-0.5","SS1613099924087","","","null","","","","","<p><img src= images/blank.png width =""200"" height = ""200"" style = ""float:right""></p><p><img src=images/blank.png width =""800"" height = ""200""></p>","","","","","","","","","","","",""
"","1325.3200000035577","sequential-stimulus-presentation","271","733448","0.0-50.0-1.5","SS1613099924087","trial","","40","800","2125.3200000035577","images/stimuli/spore_stims/simple_11_B_b.gif","images/stimuli/spore_stims/simple_10_B_c.gif","","","","","14","simple_dissimilar","images/stimuli/spore_stims/simple_10_B_c.gif","left","","","","",""
"","null","html-keyboard-response","272","734596","0.0-50.0-0.6","SS1613099924087","","","null","","","","","<p><img src= images/blank.png width =""200"" height = ""200"" style = ""float:right""></p><p><img src=images/blank.png width =""800"" height = ""200""></p>","","","","","","","","","","","",""
"","199.34500000090338","sequential-stimulus-presentation","273","735606","0.0-50.0-1.6","SS1613099924087","trial","","40","800","999.3450000009034","images/stimuli/spore_stims/simple_11_B_b.gif","images/stimuli/spore_stims/simple_10_B_c.gif","","","","","14","simple_dissimilar","images/stimuli/spore_stims/simple_10_B_c.gif","left","","","","",""
"","null","html-keyboard-response","274","736526","0.0-50.0-0.7","SS1613099924087","","","null","","","","","<p><img src= images/blank.png width =""200"" height = ""200"" style = ""float:right""></p><p><img src=images/blank.png width =""800"" height = ""200""></p>","","","","","","","","","","","",""
"","63.800000003539026","sequential-stimulus-presentation","275","737398","0.0-50.0-1.7","SS1613099924087","trial","","40","800","863.800000003539","images/stimuli/spore_stims/simple_11_B_b.gif","images/stimuli/spore_stims/simple_10_B_c.gif","","","","","14","simple_dissimilar","images/stimuli/spore_stims/simple_10_B_c.gif","left","","","","",""
"","1979.7250000119675","html-keyboard-response","276","739399","0.0-51.0","SS1613099924087","pref_question","","97","","","","","<video width ='960' height = '540' style='padding-top:8%' autoplay muted><source src='images/stimuli/wall_pref.mp4' type='video/mp4'></video>","1","left","25%","14","","","","","","","",""
"","1053.9350000035483","sequential-stimulus-presentation","277","741272","0.0-52.0","SS1613099924087","pref_reveal","","40","800","1853.9350000035483","null","null","","","","","14","","","","background","","","",""
"","null","html-keyboard-response","278","742564","0.0-53.0-0.0","SS1613099924087","","","null","","","","","<p><img src= images/blank.png width =""200"" height = ""200"" style = ""float:right""></p><p><img src=images/blank.png width =""800"" height = ""200""></p>","","","","","","","","","","","",""
"","2716.1599999817554","sequential-stimulus-presentation","279","746103","0.0-53.0-1.0","SS1613099924087","trial","","40","800","3516.1599999817554","images/stimuli/spore_stims/complex_12_B_c.gif","images/stimuli/spore_stims/complex_14_A_d.gif","","","","","15","complex_dissimilar","images/stimuli/spore_stims/complex_14_A_d.gif","right","","","","",""
"","null","html-keyboard-response","280","746942","0.0-53.0-0.1","SS1613099924087","","","null","","","","","<p><img src= images/blank.png width =""200"" height = ""200"" style = ""float:right""></p><p><img src=images/blank.png width =""800"" height = ""200""></p>","","","","","","","","","","","",""
"","654.6599999710452","sequential-stimulus-presentation","281","748417","0.0-53.0-1.1","SS1613099924087","trial","","40","800","1454.6599999710452","images/stimuli/spore_stims/complex_12_B_c.gif","images/stimuli/spore_stims/complex_14_A_d.gif","","","","","15","complex_dissimilar","images/stimuli/spore_stims/complex_14_A_d.gif","right","","","","",""
"","null","html-keyboard-response","282","749382","0.0-53.0-0.2","SS1613099924087","","","null","","","","","<p><img src= images/blank.png width =""200"" height = ""200"" style = ""float:right""></p><p><img src=images/blank.png width =""800"" height = ""200""></p>","","","","","","","","","","","",""
"","333.2949999894481","sequential-stimulus-presentation","283","750527","0.0-53.0-1.2","SS1613099924087","trial","","40","800","1133.2949999894481","images/stimuli/spore_stims/complex_12_B_c.gif","images/stimuli/spore_stims/complex_14_A_d.gif","","","","","15","complex_dissimilar","images/stimuli/spore_stims/complex_14_A_d.gif","right","","","","",""
"","null","html-keyboard-response","284","751846","0.0-53.0-0.3","SS1613099924087","","","null","","","","","<p><img src= images/blank.png width =""200"" height = ""200"" style = ""float:right""></p><p><img src=images/blank.png width =""800"" height = ""200""></p>","","","","","","","","","","","",""
"","670.7249999744818","sequential-stimulus-presentation","285","753351","0.0-53.0-1.3","SS1613099924087","trial","","40","800","1470.7249999744818","images/stimuli/spore_stims/complex_12_B_c.gif","images/stimuli/spore_stims/complex_14_A_d.gif","","","","","15","complex_dissimilar","images/stimuli/spore_stims/complex_14_A_d.gif","right","","","","",""
"","null","html-keyboard-response","286","754302","0.0-53.0-0.4","SS1613099924087","","","null","","","","","<p><img src= images/blank.png width =""200"" height = ""200"" style = ""float:right""></p><p><img src=images/blank.png width =""800"" height = ""200""></p>","","","","","","","","","","","",""
"","217.93000001343898","sequential-stimulus-presentation","287","755334","0.0-53.0-1.4","SS1613099924087","trial","","40","800","1017.930000013439","images/stimuli/spore_stims/complex_12_B_c.gif","images/stimuli/spore_stims/complex_14_A_d.gif","","","","","15","complex_dissimilar","images/stimuli/spore_stims/complex_14_A_d.gif","right","","","","",""
"","null","html-keyboard-response","288","756645","0.0-53.0-0.5","SS1613099924087","","","null","","","","","<p><img src= images/blank.png width =""200"" height = ""200"" style = ""float:right""></p><p><img src=images/blank.png width =""800"" height = ""200""></p>","","","","","","","","","","","",""
"","274.5149999973364","sequential-stimulus-presentation","289","757741","0.0-53.0-1.5","SS1613099924087","trial","","40","800","1074.5149999973364","images/stimuli/spore_stims/complex_12_B_c.gif","images/stimuli/spore_stims/complex_14_A_d.gif","","","","","15","complex_dissimilar","images/stimuli/spore_stims/complex_14_A_d.gif","right","","","","",""
"","null","html-keyboard-response","290","758816","0.0-53.0-0.6","SS1613099924087","","","null","","","","","<p><img src= images/blank.png width =""200"" height = ""200"" style = ""float:right""></p><p><img src=images/blank.png width =""800"" height = ""200""></p>","","","","","","","","","","","",""
"","453.84000000194646","sequential-stimulus-presentation","291","760079","0.0-53.0-1.6","SS1613099924087","trial","","40","800","1253.8400000019465","images/stimuli/spore_stims/complex_12_B_c.gif","images/stimuli/spore_stims/complex_14_A_d.gif","","","","","15","complex_dissimilar","images/stimuli/spore_stims/complex_14_A_d.gif","right","","","","",""
"","null","html-keyboard-response","292","761053","0.0-53.0-0.7","SS1613099924087","","","null","","","","","<p><img src= images/blank.png width =""200"" height = ""200"" style = ""float:right""></p><p><img src=images/blank.png width =""800"" height = ""200""></p>","","","","","","","","","","","",""
"","380.7600000000093","sequential-stimulus-presentation","293","762246","0.0-53.0-1.7","SS1613099924087","trial","","40","800","1180.7600000000093","images/stimuli/spore_stims/complex_12_B_c.gif","images/stimuli/spore_stims/complex_14_A_d.gif","","","","","15","complex_dissimilar","images/stimuli/spore_stims/complex_12_B_c.gif","left","","","","",""
"","1020.2299999946263","html-keyboard-response","294","763283","0.0-54.0","SS1613099924087","pref_question","","97","","","","","<video width ='960' height = '540' style='padding-top:8%' autoplay muted><source src='images/stimuli/wall_pref.mp4' type='video/mp4'></video>","1","left","25%","15","","","","","","","",""
"","455.22999999229796","sequential-stimulus-presentation","295","764559","0.0-55.0","SS1613099924087","pref_reveal","","40","800","1255.229999992298","null","null","","","","","15","","","","deviant","","","",""
"","null","html-keyboard-response","296","765382","0.0-56.0-0.0","SS1613099924087","","","null","","","","","<p><img src= images/blank.png width =""200"" height = ""200"" style = ""float:right""></p><p><img src=images/blank.png width =""800"" height = ""200""></p>","","","","","","","","","","","",""
"","273.4150000032969","sequential-stimulus-presentation","297","766477","0.0-56.0-1.0","SS1613099924087","trial","","40","800","1073.4150000032969","images/stimuli/spore_stims/complex_11_B_b.gif","images/stimuli/spore_stims/complex_20_A_c.gif","","","","","16","complex_dissimilar","images/stimuli/spore_stims/complex_20_A_c.gif","right","","","","",""
"","null","html-keyboard-response","298","767544","0.0-56.0-0.1","SS1613099924087","","","null","","","","","<p><img src= images/blank.png width =""200"" height = ""200"" style = ""float:right""></p><p><img src=images/blank.png width =""800"" height = ""200""></p>","","","","","","","","","","","",""
"","337.00499997939914","sequential-stimulus-presentation","299","768704","0.0-56.0-1.1","SS1613099924087","trial","","40","800","1137.0049999793991","images/stimuli/spore_stims/complex_11_B_b.gif","images/stimuli/spore_stims/complex_20_A_c.gif","","","","","16","complex_dissimilar","images/stimuli/spore_stims/complex_20_A_c.gif","right","","","","",""
"","null","html-keyboard-response","300","769580","0.0-56.0-0.2","SS1613099924087","","","null","","","","","<p><img src= images/blank.png width =""200"" height = ""200"" style = ""float:right""></p><p><img src=images/blank.png width =""800"" height = ""200""></p>","","","","","","","","","","","",""
"","325.6000000110362","sequential-stimulus-presentation","301","770718","0.0-56.0-1.2","SS1613099924087","trial","","40","800","1125.6000000110362","images/stimuli/spore_stims/complex_11_B_b.gif","images/stimuli/spore_stims/complex_20_A_c.gif","","","","","16","complex_dissimilar","images/stimuli/spore_stims/complex_11_B_b.gif","left","","","","",""
"","null","html-keyboard-response","302","772030","0.0-56.0-0.3","SS1613099924087","","","null","","","","","<p><img src= images/blank.png width =""200"" height = ""200"" style = ""float:right""></p><p><img src=images/blank.png width =""800"" height = ""200""></p>","","","","","","","","","","","",""
"","2050.8799999952316","sequential-stimulus-presentation","303","774902","0.0-56.0-1.3","SS1613099924087","trial","","40","800","2850.8799999952316","images/stimuli/spore_stims/complex_11_B_b.gif","images/stimuli/spore_stims/complex_20_A_c.gif","","","","","16","complex_dissimilar","images/stimuli/spore_stims/complex_20_A_c.gif","right","","","","",""
"","null","html-keyboard-response","304","776072","0.0-56.0-0.4","SS1613099924087","","","null","","","","","<p><img src= images/blank.png width =""200"" height = ""200"" style = ""float:right""></p><p><img src=images/blank.png width =""800"" height = ""200""></p>","","","","","","","","","","","",""
"","412.0600000023842","sequential-stimulus-presentation","305","777318","0.0-56.0-1.4","SS1613099924087","trial","","40","800","1212.0600000023842","images/stimuli/spore_stims/complex_11_B_b.gif","images/stimuli/spore_stims/complex_20_A_c.gif","","","","","16","complex_dissimilar","images/stimuli/spore_stims/complex_20_A_c.gif","right","","","","",""
"","null","html-keyboard-response","306","778323","0.0-56.0-0.5","SS1613099924087","","","null","","","","","<p><img src= images/blank.png width =""200"" height = ""200"" style = ""float:right""></p><p><img src=images/blank.png width =""800"" height = ""200""></p>","","","","","","","","","","","",""
"","2638.3050000004005","sequential-stimulus-presentation","307","781773","0.0-56.0-1.5","SS1613099924087","trial","","40","800","3438.3050000004005","images/stimuli/spore_stims/complex_11_B_b.gif","images/stimuli/spore_stims/complex_20_A_c.gif","","","","","16","complex_dissimilar","images/stimuli/spore_stims/complex_20_A_c.gif","right","","","","",""
"","null","html-keyboard-response","308","782958","0.0-56.0-0.6","SS1613099924087","","","null","","","","","<p><img src= images/blank.png width =""200"" height = ""200"" style = ""float:right""></p><p><img src=images/blank.png width =""800"" height = ""200""></p>","","","","","","","","","","","",""
"","229.21000001952052","sequential-stimulus-presentation","309","784005","0.0-56.0-1.6","SS1613099924087","trial","","40","800","1029.2100000195205","images/stimuli/spore_stims/complex_11_B_b.gif","images/stimuli/spore_stims/complex_20_A_c.gif","","","","","16","complex_dissimilar","images/stimuli/spore_stims/complex_20_A_c.gif","right","","","","",""
"","null","html-keyboard-response","310","784903","0.0-56.0-0.7","SS1613099924087","","","null","","","","","<p><img src= images/blank.png width =""200"" height = ""200"" style = ""float:right""></p><p><img src=images/blank.png width =""800"" height = ""200""></p>","","","","","","","","","","","",""
"","175.40499998722225","sequential-stimulus-presentation","311","785900","0.0-56.0-1.7","SS1613099924087","trial","","40","800","975.4049999872223","images/stimuli/spore_stims/complex_11_B_b.gif","images/stimuli/spore_stims/complex_20_A_c.gif","","","","","16","complex_dissimilar","images/stimuli/spore_stims/complex_20_A_c.gif","right","","","","",""
"","3254.2450000182725","html-keyboard-response","312","789173","0.0-57.0","SS1613099924087","pref_question","","98","","","","","<video width ='960' height = '540' style='padding-top:8%' autoplay muted><source src='images/stimuli/wall_pref.mp4' type='video/mp4'></video>","2","middle","45%","16","","","","","","","",""
