"view_history","rt","trial_type","trial_index","time_elapsed","internal_node_id","subject","stimulus_type","trial_stimulus","key_press","minimum_viewing_duration","trial_looking_time","block_deviant","block_background","stimulus","wall_pref","location","location_percent","block_number","block_type","stimulus_displayed","position_displayed","stim_type_selected","responses","question_order","stimulus_left","stimulus_right"
"[{""page_index"":0,""viewing_time"":19525.449999957345}]","19525.849999976344","instructions","0","19529","0.0-0.0","SS1613098863310","","","","","","","","","","","","","","","","","","","",""
"[{""page_index"":0,""viewing_time"":13725.305000087246},{""page_index"":1,""viewing_time"":17365.79999991227}]","31091.500000096858","instructions","1","52624","0.0-1.0","SS1613098863310","instructions","","","","","","","","","","","","","","","","","","",""
"","13799.339999910444","sequential-stimulus-presentation","2","67233","0.0-2.0","SS1613098863310","","","40","800","14599.339999910444","null","null","","","","","","","","","","","","",""
"","4229.365000035614","sequential-stimulus-presentation","3","72271","0.0-3.0","SS1613098863310","","","40","800","5029.365000035614","null","null","","","","","","","","","","","","",""
"[{""page_index"":0,""viewing_time"":6233.174999943003}]","6233.509999932721","instructions","4","78507","0.0-4.0","SS1613098863310","instructions","","","","","","","","","","","","","","","","","","",""
"","43123.145000077784","html-keyboard-response","5","121637","0.0-5.0","SS1613098863310","instructions","","50","","","","","<video width ='960' height = '540' autoplay muted><source src='images/stimuli/wall_pref.mp4' type='video/mp4'></video>","2","middle","45%","","","","","","","","",""
"","2284.440000075847","sequential-stimulus-presentation","6","124733","0.0-6.0","SS1613098863310","pref_reveal","","40","800","3084.440000075847","null","null","","","","","","","","","","","","",""
"[{""page_index"":0,""viewing_time"":17793.375000008382},{""page_index"":1,""viewing_time"":5248.880000086501},{""page_index"":2,""viewing_time"":5600.86499992758},{""page_index"":3,""viewing_time"":1252.3400000063702}]","29896.165000041947","instructions","7","154633","0.0-7.0","SS1613098863310","instructions","","","","","","","","","","","","","","","","","","",""
"","null","html-keyboard-response","8","155835","0.0-8.0-0.0","SS1613098863310","","","null","","","","","<p><img src= images/blank.png width =""200"" height = ""200"" style = ""float:right""></p><p><img src=images/blank.png width =""800"" height = ""200""></p>","","","","","","","","","","","",""
"","2813.9600000577047","sequential-stimulus-presentation","9","159464","0.0-8.0-1.0","SS1613098863310","trial","","40","800","3613.9600000577047","images/stimuli/spore_stims/simple_07_B_c.gif","images/stimuli/spore_stims/simple_16_A_b.gif","","","","","0","simple_dissimilar","images/stimuli/spore_stims/simple_16_A_b.gif","middle","","","","",""
"","null","html-keyboard-response","10","160397","0.0-8.0-0.1","SS1613098863310","","","null","","","","","<p><img src= images/blank.png width =""200"" height = ""200"" style = ""float:right""></p><p><img src=images/blank.png width =""800"" height = ""200""></p>","","","","","","","","","","","",""
"","3784.5049999887124","sequential-stimulus-presentation","11","164993","0.0-8.0-1.1","SS1613098863310","trial","","40","800","4584.504999988712","images/stimuli/spore_stims/simple_07_B_c.gif","images/stimuli/spore_stims/simple_16_A_b.gif","","","","","0","simple_dissimilar","images/stimuli/spore_stims/simple_16_A_b.gif","middle","","","","",""
"","null","html-keyboard-response","12","166145","0.0-8.0-0.2","SS1613098863310","","","null","","","","","<p><img src= images/blank.png width =""200"" height = ""200"" style = ""float:right""></p><p><img src=images/blank.png width =""800"" height = ""200""></p>","","","","","","","","","","","",""
"","4345.714999944903","sequential-stimulus-presentation","13","171304","0.0-8.0-1.2","SS1613098863310","trial","","40","800","5145.714999944903","images/stimuli/spore_stims/simple_07_B_c.gif","images/stimuli/spore_stims/simple_16_A_b.gif","","","","","0","simple_dissimilar","images/stimuli/spore_stims/simple_07_B_c.gif","left","","","","",""
"","null","html-keyboard-response","14","172610","0.0-8.0-0.3","SS1613098863310","","","null","","","","","<p><img src= images/blank.png width =""200"" height = ""200"" style = ""float:right""></p><p><img src=images/blank.png width =""800"" height = ""200""></p>","","","","","","","","","","","",""
"","6730.190000031143","sequential-stimulus-presentation","15","180160","0.0-8.0-1.3","SS1613098863310","trial","","40","800","7530.190000031143","images/stimuli/spore_stims/simple_07_B_c.gif","images/stimuli/spore_stims/simple_16_A_b.gif","","","","","0","simple_dissimilar","images/stimuli/spore_stims/simple_16_A_b.gif","middle","","","","",""
"","null","html-keyboard-response","16","181161","0.0-8.0-0.4","SS1613098863310","","","null","","","","","<p><img src= images/blank.png width =""200"" height = ""200"" style = ""float:right""></p><p><img src=images/blank.png width =""800"" height = ""200""></p>","","","","","","","","","","","",""
"","2123.355000047013","sequential-stimulus-presentation","17","184097","0.0-8.0-1.4","SS1613098863310","trial","","40","800","2923.355000047013","images/stimuli/spore_stims/simple_07_B_c.gif","images/stimuli/spore_stims/simple_16_A_b.gif","","","","","0","simple_dissimilar","images/stimuli/spore_stims/simple_16_A_b.gif","middle","","","","",""
"","null","html-keyboard-response","18","185100","0.0-8.0-0.5","SS1613098863310","","","null","","","","","<p><img src= images/blank.png width =""200"" height = ""200"" style = ""float:right""></p><p><img src=images/blank.png width =""800"" height = ""200""></p>","","","","","","","","","","","",""
"","1225.1299999188632","sequential-stimulus-presentation","19","187140","0.0-8.0-1.5","SS1613098863310","trial","","40","800","2025.1299999188632","images/stimuli/spore_stims/simple_07_B_c.gif","images/stimuli/spore_stims/simple_16_A_b.gif","","","","","0","simple_dissimilar","images/stimuli/spore_stims/simple_16_A_b.gif","middle","","","","",""
"","null","html-keyboard-response","20","188034","0.0-8.0-0.6","SS1613098863310","","","null","","","","","<p><img src= images/blank.png width =""200"" height = ""200"" style = ""float:right""></p><p><img src=images/blank.png width =""800"" height = ""200""></p>","","","","","","","","","","","",""
"","3674.1100000217557","sequential-stimulus-presentation","21","192525","0.0-8.0-1.6","SS1613098863310","trial","","40","800","4474.110000021756","images/stimuli/spore_stims/simple_07_B_c.gif","images/stimuli/spore_stims/simple_16_A_b.gif","","","","","0","simple_dissimilar","images/stimuli/spore_stims/simple_16_A_b.gif","middle","","","","",""
"","null","html-keyboard-response","22","193361","0.0-8.0-0.7","SS1613098863310","","","null","","","","","<p><img src= images/blank.png width =""200"" height = ""200"" style = ""float:right""></p><p><img src=images/blank.png width =""800"" height = ""200""></p>","","","","","","","","","","","",""
"","3878.199999919161","sequential-stimulus-presentation","23","198052","0.0-8.0-1.7","SS1613098863310","trial","","40","800","4678.199999919161","images/stimuli/spore_stims/simple_07_B_c.gif","images/stimuli/spore_stims/simple_16_A_b.gif","","","","","0","simple_dissimilar","images/stimuli/spore_stims/simple_16_A_b.gif","middle","","","","",""
"","2978.344999952242","html-keyboard-response","24","201043","0.0-9.0","SS1613098863310","pref_question","","51","","","","","<video width ='960' height = '540' style='padding-top:8%' autoplay muted><source src='images/stimuli/wall_pref.mp4' type='video/mp4'></video>","3","right","66%","0","","","","","","","",""
"","5926.725000026636","sequential-stimulus-presentation","25","207785","0.0-10.0","SS1613098863310","pref_reveal","","40","800","6726.725000026636","null","null","","","","","0","","","","novel","","","",""
"","null","html-keyboard-response","26","208688","0.0-11.0-0.0","SS1613098863310","","","null","","","","","<p><img src= images/blank.png width =""200"" height = ""200"" style = ""float:right""></p><p><img src=images/blank.png width =""800"" height = ""200""></p>","","","","","","","","","","","",""
"","6979.674999951385","sequential-stimulus-presentation","27","216482","0.0-11.0-1.0","SS1613098863310","trial","","40","800","7779.674999951385","images/stimuli/spore_stims/complex_17_A_a.gif","images/stimuli/spore_stims/complex_17_B_a.gif","","","","","1","complex_similar","images/stimuli/spore_stims/complex_17_B_a.gif","right","","","","",""
"","null","html-keyboard-response","28","217409","0.0-11.0-0.1","SS1613098863310","","","null","","","","","<p><img src= images/blank.png width =""200"" height = ""200"" style = ""float:right""></p><p><img src=images/blank.png width =""800"" height = ""200""></p>","","","","","","","","","","","",""
"","1627.3449999280274","sequential-stimulus-presentation","29","219851","0.0-11.0-1.1","SS1613098863310","trial","","40","800","2427.3449999280274","images/stimuli/spore_stims/complex_17_A_a.gif","images/stimuli/spore_stims/complex_17_B_a.gif","","","","","1","complex_similar","images/stimuli/spore_stims/complex_17_B_a.gif","right","","","","",""
"","null","html-keyboard-response","30","220675","0.0-11.0-0.2","SS1613098863310","","","null","","","","","<p><img src= images/blank.png width =""200"" height = ""200"" style = ""float:right""></p><p><img src=images/blank.png width =""800"" height = ""200""></p>","","","","","","","","","","","",""
"","2228.294999920763","sequential-stimulus-presentation","31","223719","0.0-11.0-1.2","SS1613098863310","trial","","40","800","3028.294999920763","images/stimuli/spore_stims/complex_17_A_a.gif","images/stimuli/spore_stims/complex_17_B_a.gif","","","","","1","complex_similar","images/stimuli/spore_stims/complex_17_B_a.gif","right","","","","",""
"","null","html-keyboard-response","32","224645","0.0-11.0-0.3","SS1613098863310","","","null","","","","","<p><img src= images/blank.png width =""200"" height = ""200"" style = ""float:right""></p><p><img src=images/blank.png width =""800"" height = ""200""></p>","","","","","","","","","","","",""
"","646.7100000008941","sequential-stimulus-presentation","33","226105","0.0-11.0-1.3","SS1613098863310","trial","","40","800","1446.710000000894","images/stimuli/spore_stims/complex_17_A_a.gif","images/stimuli/spore_stims/complex_17_B_a.gif","","","","","1","complex_similar","images/stimuli/spore_stims/complex_17_B_a.gif","right","","","","",""
"","null","html-keyboard-response","34","227290","0.0-11.0-0.4","SS1613098863310","","","null","","","","","<p><img src= images/blank.png width =""200"" height = ""200"" style = ""float:right""></p><p><img src=images/blank.png width =""800"" height = ""200""></p>","","","","","","","","","","","",""
"","1189.8449999280274","sequential-stimulus-presentation","35","229296","0.0-11.0-1.4","SS1613098863310","trial","","40","800","1989.8449999280274","images/stimuli/spore_stims/complex_17_A_a.gif","images/stimuli/spore_stims/complex_17_B_a.gif","","","","","1","complex_similar","images/stimuli/spore_stims/complex_17_A_a.gif","left","","","","",""
"","null","html-keyboard-response","36","230266","0.0-11.0-0.5","SS1613098863310","","","null","","","","","<p><img src= images/blank.png width =""200"" height = ""200"" style = ""float:right""></p><p><img src=images/blank.png width =""800"" height = ""200""></p>","","","","","","","","","","","",""
"","604.9949999433011","sequential-stimulus-presentation","37","231686","0.0-11.0-1.5","SS1613098863310","trial","","40","800","1404.994999943301","images/stimuli/spore_stims/complex_17_A_a.gif","images/stimuli/spore_stims/complex_17_B_a.gif","","","","","1","complex_similar","images/stimuli/spore_stims/complex_17_B_a.gif","right","","","","",""
"","null","html-keyboard-response","38","232680","0.0-11.0-0.6","SS1613098863310","","","null","","","","","<p><img src= images/blank.png width =""200"" height = ""200"" style = ""float:right""></p><p><img src=images/blank.png width =""800"" height = ""200""></p>","","","","","","","","","","","",""
"","536.6950000170618","sequential-stimulus-presentation","39","234033","0.0-11.0-1.6","SS1613098863310","trial","","40","800","1336.6950000170618","images/stimuli/spore_stims/complex_17_A_a.gif","images/stimuli/spore_stims/complex_17_B_a.gif","","","","","1","complex_similar","images/stimuli/spore_stims/complex_17_B_a.gif","right","","","","",""
"","null","html-keyboard-response","40","234911","0.0-11.0-0.7","SS1613098863310","","","null","","","","","<p><img src= images/blank.png width =""200"" height = ""200"" style = ""float:right""></p><p><img src=images/blank.png width =""800"" height = ""200""></p>","","","","","","","","","","","",""
"","442.3399999504909","sequential-stimulus-presentation","41","236166","0.0-11.0-1.7","SS1613098863310","trial","","40","800","1242.339999950491","images/stimuli/spore_stims/complex_17_A_a.gif","images/stimuli/spore_stims/complex_17_B_a.gif","","","","","1","complex_similar","images/stimuli/spore_stims/complex_17_B_a.gif","right","","","","",""
"","1746.5099999681115","html-keyboard-response","42","237926","0.0-12.0","SS1613098863310","pref_question","","51","","","","","<video width ='960' height = '540' style='padding-top:8%' autoplay muted><source src='images/stimuli/wall_pref.mp4' type='video/mp4'></video>","3","right","66%","1","","","","","","","",""
"","665.5549999559298","sequential-stimulus-presentation","43","239406","0.0-13.0","SS1613098863310","pref_reveal","","40","800","1465.5549999559298","null","null","","","","","1","","","","background","","","",""
"","null","html-keyboard-response","44","240231","0.0-14.0-0.0","SS1613098863310","","","null","","","","","<p><img src= images/blank.png width =""200"" height = ""200"" style = ""float:right""></p><p><img src=images/blank.png width =""800"" height = ""200""></p>","","","","","","","","","","","",""
"","690.4550000326708","sequential-stimulus-presentation","45","241740","0.0-14.0-1.0","SS1613098863310","trial","","40","800","1490.4550000326708","images/stimuli/spore_stims/complex_09_A_b.gif","images/stimuli/spore_stims/complex_15_A_c.gif","","","","","2","complex_dissimilar","images/stimuli/spore_stims/complex_15_A_c.gif","middle","","","","",""
"","null","html-keyboard-response","46","242574","0.0-14.0-0.1","SS1613098863310","","","null","","","","","<p><img src= images/blank.png width =""200"" height = ""200"" style = ""float:right""></p><p><img src=images/blank.png width =""800"" height = ""200""></p>","","","","","","","","","","","",""
"","6252.350000082515","sequential-stimulus-presentation","47","249645","0.0-14.0-1.1","SS1613098863310","trial","","40","800","7052.350000082515","images/stimuli/spore_stims/complex_09_A_b.gif","images/stimuli/spore_stims/complex_15_A_c.gif","","","","","2","complex_dissimilar","images/stimuli/spore_stims/complex_15_A_c.gif","middle","","","","",""
"","null","html-keyboard-response","48","250660","0.0-14.0-0.2","SS1613098863310","","","null","","","","","<p><img src= images/blank.png width =""200"" height = ""200"" style = ""float:right""></p><p><img src=images/blank.png width =""800"" height = ""200""></p>","","","","","","","","","","","",""
"","4304.989999975078","sequential-stimulus-presentation","49","255785","0.0-14.0-1.2","SS1613098863310","trial","","40","800","5104.989999975078","images/stimuli/spore_stims/complex_09_A_b.gif","images/stimuli/spore_stims/complex_15_A_c.gif","","","","","2","complex_dissimilar","images/stimuli/spore_stims/complex_15_A_c.gif","middle","","","","",""
"","null","html-keyboard-response","50","256952","0.0-14.0-0.3","SS1613098863310","","","null","","","","","<p><img src= images/blank.png width =""200"" height = ""200"" style = ""float:right""></p><p><img src=images/blank.png width =""800"" height = ""200""></p>","","","","","","","","","","","",""
"","2948.0449999682605","sequential-stimulus-presentation","51","260722","0.0-14.0-1.3","SS1613098863310","trial","","40","800","3748.0449999682605","images/stimuli/spore_stims/complex_09_A_b.gif","images/stimuli/spore_stims/complex_15_A_c.gif","","","","","2","complex_dissimilar","images/stimuli/spore_stims/complex_09_A_b.gif","left","","","","",""
"","null","html-keyboard-response","52","261560","0.0-14.0-0.4","SS1613098863310","","","null","","","","","<p><img src= images/blank.png width =""200"" height = ""200"" style = ""float:right""></p><p><img src=images/blank.png width =""800"" height = ""200""></p>","","","","","","","","","","","",""
"","7004.0000000735745","sequential-stimulus-presentation","53","269382","0.0-14.0-1.4","SS1613098863310","trial","","40","800","7804.0000000735745","images/stimuli/spore_stims/complex_09_A_b.gif","images/stimuli/spore_stims/complex_15_A_c.gif","","","","","2","complex_dissimilar","images/stimuli/spore_stims/complex_15_A_c.gif","middle","","","","",""
"","null","html-keyboard-response","54","270677","0.0-14.0-0.5","SS1613098863310","","","null","","","","","<p><img src= images/blank.png width =""200"" height = ""200"" style = ""float:right""></p><p><img src=images/blank.png width =""800"" height = ""200""></p>","","","","","","","","","","","",""
"","4660.084999981336","sequential-stimulus-presentation","55","276156","0.0-14.0-1.5","SS1613098863310","trial","","40","800","5460.084999981336","images/stimuli/spore_stims/complex_09_A_b.gif","images/stimuli/spore_stims/complex_15_A_c.gif","","","","","2","complex_dissimilar","images/stimuli/spore_stims/complex_15_A_c.gif","middle","","","","",""
"","null","html-keyboard-response","56","277355","0.0-14.0-0.6","SS1613098863310","","","null","","","","","<p><img src= images/blank.png width =""200"" height = ""200"" style = ""float:right""></p><p><img src=images/blank.png width =""800"" height = ""200""></p>","","","","","","","","","","","",""
"","1572.7900000056252","sequential-stimulus-presentation","57","279748","0.0-14.0-1.6","SS1613098863310","trial","","40","800","2372.790000005625","images/stimuli/spore_stims/complex_09_A_b.gif","images/stimuli/spore_stims/complex_15_A_c.gif","","","","","2","complex_dissimilar","images/stimuli/spore_stims/complex_15_A_c.gif","middle","","","","",""
"","null","html-keyboard-response","58","281025","0.0-14.0-0.7","SS1613098863310","","","null","","","","","<p><img src= images/blank.png width =""200"" height = ""200"" style = ""float:right""></p><p><img src=images/blank.png width =""800"" height = ""200""></p>","","","","","","","","","","","",""
"","679.245000006631","sequential-stimulus-presentation","59","282533","0.0-14.0-1.7","SS1613098863310","trial","","40","800","1479.245000006631","images/stimuli/spore_stims/complex_09_A_b.gif","images/stimuli/spore_stims/complex_15_A_c.gif","","","","","2","complex_dissimilar","images/stimuli/spore_stims/complex_15_A_c.gif","middle","","","","",""
"","1864.034999976866","html-keyboard-response","60","284414","0.0-15.0","SS1613098863310","pref_question","","50","","","","","<video width ='960' height = '540' style='padding-top:8%' autoplay muted><source src='images/stimuli/wall_pref.mp4' type='video/mp4'></video>","2","middle","45%","2","","","","","","","",""
"","1083.82000005804","sequential-stimulus-presentation","61","286320","0.0-16.0","SS1613098863310","pref_reveal","","40","800","1883.82000005804","null","null","","","","","2","","","","background","","","",""
"","null","html-keyboard-response","62","287483","0.0-17.0-0.0","SS1613098863310","","","null","","","","","<p><img src= images/blank.png width =""200"" height = ""200"" style = ""float:right""></p><p><img src=images/blank.png width =""800"" height = ""200""></p>","","","","","","","","","","","",""
"","5360.974999959581","sequential-stimulus-presentation","63","293663","0.0-17.0-1.0","SS1613098863310","trial","","40","800","6160.974999959581","images/stimuli/spore_stims/simple_18_A_d.gif","images/stimuli/spore_stims/simple_05_B_c.gif","","","","","3","simple_dissimilar","images/stimuli/spore_stims/simple_05_B_c.gif","left","","","","",""
"","null","html-keyboard-response","64","294576","0.0-17.0-0.1","SS1613098863310","","","null","","","","","<p><img src= images/blank.png width =""200"" height = ""200"" style = ""float:right""></p><p><img src=images/blank.png width =""800"" height = ""200""></p>","","","","","","","","","","","",""
"","2260.3200000012293","sequential-stimulus-presentation","65","297656","0.0-17.0-1.1","SS1613098863310","trial","","40","800","3060.3200000012293","images/stimuli/spore_stims/simple_18_A_d.gif","images/stimuli/spore_stims/simple_05_B_c.gif","","","","","3","simple_dissimilar","images/stimuli/spore_stims/simple_05_B_c.gif","left","","","","",""
"","null","html-keyboard-response","66","298815","0.0-17.0-0.2","SS1613098863310","","","null","","","","","<p><img src= images/blank.png width =""200"" height = ""200"" style = ""float:right""></p><p><img src=images/blank.png width =""800"" height = ""200""></p>","","","","","","","","","","","",""
"","955.0449999514967","sequential-stimulus-presentation","67","300595","0.0-17.0-1.2","SS1613098863310","trial","","40","800","1755.0449999514967","images/stimuli/spore_stims/simple_18_A_d.gif","images/stimuli/spore_stims/simple_05_B_c.gif","","","","","3","simple_dissimilar","images/stimuli/spore_stims/simple_05_B_c.gif","left","","","","",""
"","null","html-keyboard-response","68","301619","0.0-17.0-0.3","SS1613098863310","","","null","","","","","<p><img src= images/blank.png width =""200"" height = ""200"" style = ""float:right""></p><p><img src=images/blank.png width =""800"" height = ""200""></p>","","","","","","","","","","","",""
"","1237.7149999374524","sequential-stimulus-presentation","69","303686","0.0-17.0-1.3","SS1613098863310","trial","","40","800","2037.7149999374524","images/stimuli/spore_stims/simple_18_A_d.gif","images/stimuli/spore_stims/simple_05_B_c.gif","","","","","3","simple_dissimilar","images/stimuli/spore_stims/simple_05_B_c.gif","left","","","","",""
"","null","html-keyboard-response","70","304746","0.0-17.0-0.4","SS1613098863310","","","null","","","","","<p><img src= images/blank.png width =""200"" height = ""200"" style = ""float:right""></p><p><img src=images/blank.png width =""800"" height = ""200""></p>","","","","","","","","","","","",""
"","720.850000041537","sequential-stimulus-presentation","71","306295","0.0-17.0-1.4","SS1613098863310","trial","","40","800","1520.850000041537","images/stimuli/spore_stims/simple_18_A_d.gif","images/stimuli/spore_stims/simple_05_B_c.gif","","","","","3","simple_dissimilar","images/stimuli/spore_stims/simple_05_B_c.gif","left","","","","",""
"","null","html-keyboard-response","72","307519","0.0-17.0-0.5","SS1613098863310","","","null","","","","","<p><img src= images/blank.png width =""200"" height = ""200"" style = ""float:right""></p><p><img src=images/blank.png width =""800"" height = ""200""></p>","","","","","","","","","","","",""
"","5168.914999929257","sequential-stimulus-presentation","73","313507","0.0-17.0-1.5","SS1613098863310","trial","","40","800","5968.914999929257","images/stimuli/spore_stims/simple_18_A_d.gif","images/stimuli/spore_stims/simple_05_B_c.gif","","","","","3","simple_dissimilar","images/stimuli/spore_stims/simple_18_A_d.gif","middle","","","","",""
"","null","html-keyboard-response","74","314406","0.0-17.0-0.6","SS1613098863310","","","null","","","","","<p><img src= images/blank.png width =""200"" height = ""200"" style = ""float:right""></p><p><img src=images/blank.png width =""800"" height = ""200""></p>","","","","","","","","","","","",""
"","1269.8499999241903","sequential-stimulus-presentation","75","316496","0.0-17.0-1.6","SS1613098863310","trial","","40","800","2069.8499999241903","images/stimuli/spore_stims/simple_18_A_d.gif","images/stimuli/spore_stims/simple_05_B_c.gif","","","","","3","simple_dissimilar","images/stimuli/spore_stims/simple_05_B_c.gif","left","","","","",""
"","null","html-keyboard-response","76","317421","0.0-17.0-0.7","SS1613098863310","","","null","","","","","<p><img src= images/blank.png width =""200"" height = ""200"" style = ""float:right""></p><p><img src=images/blank.png width =""800"" height = ""200""></p>","","","","","","","","","","","",""
"","546.2200000183657","sequential-stimulus-presentation","77","318786","0.0-17.0-1.7","SS1613098863310","trial","","40","800","1346.2200000183657","images/stimuli/spore_stims/simple_18_A_d.gif","images/stimuli/spore_stims/simple_05_B_c.gif","","","","","3","simple_dissimilar","images/stimuli/spore_stims/simple_05_B_c.gif","left","","","","",""
"","1495.0299999909475","html-keyboard-response","78","320302","0.0-18.0","SS1613098863310","pref_question","","51","","","","","<video width ='960' height = '540' style='padding-top:8%' autoplay muted><source src='images/stimuli/wall_pref.mp4' type='video/mp4'></video>","3","right","66%","3","","","","","","","",""
"","7093.135000090115","sequential-stimulus-presentation","79","328220","0.0-19.0","SS1613098863310","pref_reveal","","40","800","7893.135000090115","null","null","","","","","3","","","","novel","","","",""
"","null","html-keyboard-response","80","329453","0.0-20.0-0.0","SS1613098863310","","","null","","","","","<p><img src= images/blank.png width =""200"" height = ""200"" style = ""float:right""></p><p><img src=images/blank.png width =""800"" height = ""200""></p>","","","","","","","","","","","",""
"","6363.444999908097","sequential-stimulus-presentation","81","336643","0.0-20.0-1.0","SS1613098863310","trial","","40","800","7163.444999908097","images/stimuli/spore_stims/complex_13_B_a.gif","images/stimuli/spore_stims/complex_13_A_a.gif","","","","","4","complex_similar","images/stimuli/spore_stims/complex_13_A_a.gif","left","","","","",""
"","null","html-keyboard-response","82","337873","0.0-20.0-0.1","SS1613098863310","","","null","","","","","<p><img src= images/blank.png width =""200"" height = ""200"" style = ""float:right""></p><p><img src=images/blank.png width =""800"" height = ""200""></p>","","","","","","","","","","","",""
"","1463.3800000883639","sequential-stimulus-presentation","83","340159","0.0-20.0-1.1","SS1613098863310","trial","","40","800","2263.380000088364","images/stimuli/spore_stims/complex_13_B_a.gif","images/stimuli/spore_stims/complex_13_A_a.gif","","","","","4","complex_similar","images/stimuli/spore_stims/complex_13_A_a.gif","left","","","","",""
"","null","html-keyboard-response","84","341257","0.0-20.0-0.2","SS1613098863310","","","null","","","","","<p><img src= images/blank.png width =""200"" height = ""200"" style = ""float:right""></p><p><img src=images/blank.png width =""800"" height = ""200""></p>","","","","","","","","","","","",""
"","1397.0850000623614","sequential-stimulus-presentation","85","343478","0.0-20.0-1.2","SS1613098863310","trial","","40","800","2197.0850000623614","images/stimuli/spore_stims/complex_13_B_a.gif","images/stimuli/spore_stims/complex_13_A_a.gif","","","","","4","complex_similar","images/stimuli/spore_stims/complex_13_A_a.gif","left","","","","",""
"","null","html-keyboard-response","86","344770","0.0-20.0-0.3","SS1613098863310","","","null","","","","","<p><img src= images/blank.png width =""200"" height = ""200"" style = ""float:right""></p><p><img src=images/blank.png width =""800"" height = ""200""></p>","","","","","","","","","","","",""
"","1044.06999994535","sequential-stimulus-presentation","87","346640","0.0-20.0-1.3","SS1613098863310","trial","","40","800","1844.06999994535","images/stimuli/spore_stims/complex_13_B_a.gif","images/stimuli/spore_stims/complex_13_A_a.gif","","","","","4","complex_similar","images/stimuli/spore_stims/complex_13_B_a.gif","right","","","","",""
"","null","html-keyboard-response","88","347818","0.0-20.0-0.4","SS1613098863310","","","null","","","","","<p><img src= images/blank.png width =""200"" height = ""200"" style = ""float:right""></p><p><img src=images/blank.png width =""800"" height = ""200""></p>","","","","","","","","","","","",""
"","595.7199999829754","sequential-stimulus-presentation","89","349236","0.0-20.0-1.4","SS1613098863310","trial","","40","800","1395.7199999829754","images/stimuli/spore_stims/complex_13_B_a.gif","images/stimuli/spore_stims/complex_13_A_a.gif","","","","","4","complex_similar","images/stimuli/spore_stims/complex_13_A_a.gif","left","","","","",""
"","null","html-keyboard-response","90","350387","0.0-20.0-0.5","SS1613098863310","","","null","","","","","<p><img src= images/blank.png width =""200"" height = ""200"" style = ""float:right""></p><p><img src=images/blank.png width =""800"" height = ""200""></p>","","","","","","","","","","","",""
"","400.8900000480935","sequential-stimulus-presentation","91","351611","0.0-20.0-1.5","SS1613098863310","trial","","40","800","1200.8900000480935","images/stimuli/spore_stims/complex_13_B_a.gif","images/stimuli/spore_stims/complex_13_A_a.gif","","","","","4","complex_similar","images/stimuli/spore_stims/complex_13_A_a.gif","left","","","","",""
"","null","html-keyboard-response","92","352725","0.0-20.0-0.6","SS1613098863310","","","null","","","","","<p><img src= images/blank.png width =""200"" height = ""200"" style = ""float:right""></p><p><img src=images/blank.png width =""800"" height = ""200""></p>","","","","","","","","","","","",""
"","409.9449999630451","sequential-stimulus-presentation","93","353959","0.0-20.0-1.6","SS1613098863310","trial","","40","800","1209.9449999630451","images/stimuli/spore_stims/complex_13_B_a.gif","images/stimuli/spore_stims/complex_13_A_a.gif","","","","","4","complex_similar","images/stimuli/spore_stims/complex_13_A_a.gif","left","","","","",""
"","null","html-keyboard-response","94","355139","0.0-20.0-0.7","SS1613098863310","","","null","","","","","<p><img src= images/blank.png width =""200"" height = ""200"" style = ""float:right""></p><p><img src=images/blank.png width =""800"" height = ""200""></p>","","","","","","","","","","","",""
"","419.2700000712648","sequential-stimulus-presentation","95","356385","0.0-20.0-1.7","SS1613098863310","trial","","40","800","1219.2700000712648","images/stimuli/spore_stims/complex_13_B_a.gif","images/stimuli/spore_stims/complex_13_A_a.gif","","","","","4","complex_similar","images/stimuli/spore_stims/complex_13_A_a.gif","left","","","","",""
"","1568.9499999862164","html-keyboard-response","96","357976","0.0-21.0","SS1613098863310","pref_question","","49","","","","","<video width ='960' height = '540' style='padding-top:8%' autoplay muted><source src='images/stimuli/wall_pref.mp4' type='video/mp4'></video>","1","left","25%","4","","","","","","","",""
"","774.0750000812113","sequential-stimulus-presentation","97","359572","0.0-22.0","SS1613098863310","pref_reveal","","40","800","1574.0750000812113","null","null","","","","","4","","","","background","","","",""
"","null","html-keyboard-response","98","360585","0.0-23.0-0.0","SS1613098863310","","","null","","","","","<p><img src= images/blank.png width =""200"" height = ""200"" style = ""float:right""></p><p><img src=images/blank.png width =""800"" height = ""200""></p>","","","","","","","","","","","",""
"","5832.885000039823","sequential-stimulus-presentation","99","367247","0.0-23.0-1.0","SS1613098863310","trial","","40","800","6632.885000039823","images/stimuli/spore_stims/complex_16_A_c.gif","images/stimuli/spore_stims/complex_14_A_c.gif","","","","","5","complex_dissimilar","images/stimuli/spore_stims/complex_14_A_c.gif","left","","","","",""
"","null","html-keyboard-response","100","368201","0.0-23.0-0.1","SS1613098863310","","","null","","","","","<p><img src= images/blank.png width =""200"" height = ""200"" style = ""float:right""></p><p><img src=images/blank.png width =""800"" height = ""200""></p>","","","","","","","","","","","",""
"","529.9400000367314","sequential-stimulus-presentation","101","369559","0.0-23.0-1.1","SS1613098863310","trial","","40","800","1329.9400000367314","images/stimuli/spore_stims/complex_16_A_c.gif","images/stimuli/spore_stims/complex_14_A_c.gif","","","","","5","complex_dissimilar","images/stimuli/spore_stims/complex_14_A_c.gif","left","","","","",""
"","null","html-keyboard-response","102","370407","0.0-23.0-0.2","SS1613098863310","","","null","","","","","<p><img src= images/blank.png width =""200"" height = ""200"" style = ""float:right""></p><p><img src=images/blank.png width =""800"" height = ""200""></p>","","","","","","","","","","","",""
"","310.6599999591708","sequential-stimulus-presentation","103","371542","0.0-23.0-1.2","SS1613098863310","trial","","40","800","1110.6599999591708","images/stimuli/spore_stims/complex_16_A_c.gif","images/stimuli/spore_stims/complex_14_A_c.gif","","","","","5","complex_dissimilar","images/stimuli/spore_stims/complex_14_A_c.gif","left","","","","",""
"","null","html-keyboard-response","104","372504","0.0-23.0-0.3","SS1613098863310","","","null","","","","","<p><img src= images/blank.png width =""200"" height = ""200"" style = ""float:right""></p><p><img src=images/blank.png width =""800"" height = ""200""></p>","","","","","","","","","","","",""
"","6032.765000010841","sequential-stimulus-presentation","105","379382","0.0-23.0-1.3","SS1613098863310","trial","","40","800","6832.765000010841","images/stimuli/spore_stims/complex_16_A_c.gif","images/stimuli/spore_stims/complex_14_A_c.gif","","","","","5","complex_dissimilar","images/stimuli/spore_stims/complex_16_A_c.gif","right","","","","",""
"","null","html-keyboard-response","106","380391","0.0-23.0-0.4","SS1613098863310","","","null","","","","","<p><img src= images/blank.png width =""200"" height = ""200"" style = ""float:right""></p><p><img src=images/blank.png width =""800"" height = ""200""></p>","","","","","","","","","","","",""
"","3646.889999974519","sequential-stimulus-presentation","107","384873","0.0-23.0-1.4","SS1613098863310","trial","","40","800","4446.889999974519","images/stimuli/spore_stims/complex_16_A_c.gif","images/stimuli/spore_stims/complex_14_A_c.gif","","","","","5","complex_dissimilar","images/stimuli/spore_stims/complex_14_A_c.gif","left","","","","",""
"","null","html-keyboard-response","108","385747","0.0-23.0-0.5","SS1613098863310","","","null","","","","","<p><img src= images/blank.png width =""200"" height = ""200"" style = ""float:right""></p><p><img src=images/blank.png width =""800"" height = ""200""></p>","","","","","","","","","","","",""
"","600.8450000081211","sequential-stimulus-presentation","109","387175","0.0-23.0-1.5","SS1613098863310","trial","","40","800","1400.8450000081211","images/stimuli/spore_stims/complex_16_A_c.gif","images/stimuli/spore_stims/complex_14_A_c.gif","","","","","5","complex_dissimilar","images/stimuli/spore_stims/complex_14_A_c.gif","left","","","","",""
"","null","html-keyboard-response","110","388092","0.0-23.0-0.6","SS1613098863310","","","null","","","","","<p><img src= images/blank.png width =""200"" height = ""200"" style = ""float:right""></p><p><img src=images/blank.png width =""800"" height = ""200""></p>","","","","","","","","","","","",""
"","422.9649999178946","sequential-stimulus-presentation","111","389339","0.0-23.0-1.6","SS1613098863310","trial","","40","800","1222.9649999178946","images/stimuli/spore_stims/complex_16_A_c.gif","images/stimuli/spore_stims/complex_14_A_c.gif","","","","","5","complex_dissimilar","images/stimuli/spore_stims/complex_14_A_c.gif","left","","","","",""
"","null","html-keyboard-response","112","390376","0.0-23.0-0.7","SS1613098863310","","","null","","","","","<p><img src= images/blank.png width =""200"" height = ""200"" style = ""float:right""></p><p><img src=images/blank.png width =""800"" height = ""200""></p>","","","","","","","","","","","",""
"","396.8950000125915","sequential-stimulus-presentation","113","391599","0.0-23.0-1.7","SS1613098863310","trial","","40","800","1196.8950000125915","images/stimuli/spore_stims/complex_16_A_c.gif","images/stimuli/spore_stims/complex_14_A_c.gif","","","","","5","complex_dissimilar","images/stimuli/spore_stims/complex_14_A_c.gif","left","","","","",""
"","1311.020000022836","html-keyboard-response","114","392935","0.0-24.0","SS1613098863310","pref_question","","51","","","","","<video width ='960' height = '540' style='padding-top:8%' autoplay muted><source src='images/stimuli/wall_pref.mp4' type='video/mp4'></video>","3","right","66%","5","","","","","","","",""
"","6493.904999922961","sequential-stimulus-presentation","115","400257","0.0-25.0","SS1613098863310","pref_reveal","","40","800","7293.904999922961","null","null","","","","","5","","","","deviant","","","",""
"","null","html-keyboard-response","116","401304","0.0-26.0-0.0","SS1613098863310","","","null","","","","","<p><img src= images/blank.png width =""200"" height = ""200"" style = ""float:right""></p><p><img src=images/blank.png width =""800"" height = ""200""></p>","","","","","","","","","","","",""
"","4902.379999984987","sequential-stimulus-presentation","117","407036","0.0-26.0-1.0","SS1613098863310","trial","","40","800","5702.379999984987","images/stimuli/spore_stims/simple_08_B_a.gif","images/stimuli/spore_stims/simple_08_A_a.gif","","","","","6","simple_similar","images/stimuli/spore_stims/simple_08_A_a.gif","left","","","","",""
"","null","html-keyboard-response","118","408162","0.0-26.0-0.1","SS1613098863310","","","null","","","","","<p><img src= images/blank.png width =""200"" height = ""200"" style = ""float:right""></p><p><img src=images/blank.png width =""800"" height = ""200""></p>","","","","","","","","","","","",""
"","783.570000086911","sequential-stimulus-presentation","119","409773","0.0-26.0-1.1","SS1613098863310","trial","","40","800","1583.570000086911","images/stimuli/spore_stims/simple_08_B_a.gif","images/stimuli/spore_stims/simple_08_A_a.gif","","","","","6","simple_similar","images/stimuli/spore_stims/simple_08_A_a.gif","left","","","","",""
"","null","html-keyboard-response","120","410958","0.0-26.0-0.2","SS1613098863310","","","null","","","","","<p><img src= images/blank.png width =""200"" height = ""200"" style = ""float:right""></p><p><img src=images/blank.png width =""800"" height = ""200""></p>","","","","","","","","","","","",""
"","525.4750000312924","sequential-stimulus-presentation","121","412309","0.0-26.0-1.2","SS1613098863310","trial","","40","800","1325.4750000312924","images/stimuli/spore_stims/simple_08_B_a.gif","images/stimuli/spore_stims/simple_08_A_a.gif","","","","","6","simple_similar","images/stimuli/spore_stims/simple_08_B_a.gif","right","","","","",""
"","null","html-keyboard-response","122","413382","0.0-26.0-0.3","SS1613098863310","","","null","","","","","<p><img src= images/blank.png width =""200"" height = ""200"" style = ""float:right""></p><p><img src=images/blank.png width =""800"" height = ""200""></p>","","","","","","","","","","","",""
"","1600.3750000381842","sequential-stimulus-presentation","123","415809","0.0-26.0-1.3","SS1613098863310","trial","","40","800","2400.375000038184","images/stimuli/spore_stims/simple_08_B_a.gif","images/stimuli/spore_stims/simple_08_A_a.gif","","","","","6","simple_similar","images/stimuli/spore_stims/simple_08_A_a.gif","left","","","","",""
"","null","html-keyboard-response","124","416920","0.0-26.0-0.4","SS1613098863310","","","null","","","","","<p><img src= images/blank.png width =""200"" height = ""200"" style = ""float:right""></p><p><img src=images/blank.png width =""800"" height = ""200""></p>","","","","","","","","","","","",""
"","1231.5550000639632","sequential-stimulus-presentation","125","418984","0.0-26.0-1.4","SS1613098863310","trial","","40","800","2031.5550000639632","images/stimuli/spore_stims/simple_08_B_a.gif","images/stimuli/spore_stims/simple_08_A_a.gif","","","","","6","simple_similar","images/stimuli/spore_stims/simple_08_A_a.gif","left","","","","",""
"","null","html-keyboard-response","126","419842","0.0-26.0-0.5","SS1613098863310","","","null","","","","","<p><img src= images/blank.png width =""200"" height = ""200"" style = ""float:right""></p><p><img src=images/blank.png width =""800"" height = ""200""></p>","","","","","","","","","","","",""
"","914.9650000035763","sequential-stimulus-presentation","127","421608","0.0-26.0-1.5","SS1613098863310","trial","","40","800","1714.9650000035763","images/stimuli/spore_stims/simple_08_B_a.gif","images/stimuli/spore_stims/simple_08_A_a.gif","","","","","6","simple_similar","images/stimuli/spore_stims/simple_08_A_a.gif","left","","","","",""
"","null","html-keyboard-response","128","422737","0.0-26.0-0.6","SS1613098863310","","","null","","","","","<p><img src= images/blank.png width =""200"" height = ""200"" style = ""float:right""></p><p><img src=images/blank.png width =""800"" height = ""200""></p>","","","","","","","","","","","",""
"","547.2150000277907","sequential-stimulus-presentation","129","424115","0.0-26.0-1.6","SS1613098863310","trial","","40","800","1347.2150000277907","images/stimuli/spore_stims/simple_08_B_a.gif","images/stimuli/spore_stims/simple_08_A_a.gif","","","","","6","simple_similar","images/stimuli/spore_stims/simple_08_A_a.gif","left","","","","",""
"","null","html-keyboard-response","130","425167","0.0-26.0-0.7","SS1613098863310","","","null","","","","","<p><img src= images/blank.png width =""200"" height = ""200"" style = ""float:right""></p><p><img src=images/blank.png width =""800"" height = ""200""></p>","","","","","","","","","","","",""
"","813.689999980852","sequential-stimulus-presentation","131","426812","0.0-26.0-1.7","SS1613098863310","trial","","40","800","1613.689999980852","images/stimuli/spore_stims/simple_08_B_a.gif","images/stimuli/spore_stims/simple_08_A_a.gif","","","","","6","simple_similar","images/stimuli/spore_stims/simple_08_A_a.gif","left","","","","",""
"","2640.739999944344","html-keyboard-response","132","429482","0.0-27.0","SS1613098863310","pref_question","","49","","","","","<video width ='960' height = '540' style='padding-top:8%' autoplay muted><source src='images/stimuli/wall_pref.mp4' type='video/mp4'></video>","1","left","25%","6","","","","","","","",""
"","511.85999996960163","sequential-stimulus-presentation","133","430824","0.0-28.0","SS1613098863310","pref_reveal","","40","800","1311.8599999696016","null","null","","","","","6","","","","background","","","",""
"","null","html-keyboard-response","134","431719","0.0-29.0-0.0","SS1613098863310","","","null","","","","","<p><img src= images/blank.png width =""200"" height = ""200"" style = ""float:right""></p><p><img src=images/blank.png width =""800"" height = ""200""></p>","","","","","","","","","","","",""
"","3592.7600000286475","sequential-stimulus-presentation","135","436139","0.0-29.0-1.0","SS1613098863310","trial","","40","800","4392.7600000286475","images/stimuli/spore_stims/complex_15_B_d.gif","images/stimuli/spore_stims/complex_19_B_c.gif","","","","","7","complex_dissimilar","images/stimuli/spore_stims/complex_19_B_c.gif","right","","","","",""
"","null","html-keyboard-response","136","437059","0.0-29.0-0.1","SS1613098863310","","","null","","","","","<p><img src= images/blank.png width =""200"" height = ""200"" style = ""float:right""></p><p><img src=images/blank.png width =""800"" height = ""200""></p>","","","","","","","","","","","",""
"","705.5249999975786","sequential-stimulus-presentation","137","438593","0.0-29.0-1.1","SS1613098863310","trial","","40","800","1505.5249999975786","images/stimuli/spore_stims/complex_15_B_d.gif","images/stimuli/spore_stims/complex_19_B_c.gif","","","","","7","complex_dissimilar","images/stimuli/spore_stims/complex_19_B_c.gif","right","","","","",""
"","null","html-keyboard-response","138","439505","0.0-29.0-0.2","SS1613098863310","","","null","","","","","<p><img src= images/blank.png width =""200"" height = ""200"" style = ""float:right""></p><p><img src=images/blank.png width =""800"" height = ""200""></p>","","","","","","","","","","","",""
"","452.9399999883026","sequential-stimulus-presentation","139","440793","0.0-29.0-1.2","SS1613098863310","trial","","40","800","1252.9399999883026","images/stimuli/spore_stims/complex_15_B_d.gif","images/stimuli/spore_stims/complex_19_B_c.gif","","","","","7","complex_dissimilar","images/stimuli/spore_stims/complex_19_B_c.gif","right","","","","",""
"","null","html-keyboard-response","140","441900","0.0-29.0-0.3","SS1613098863310","","","null","","","","","<p><img src= images/blank.png width =""200"" height = ""200"" style = ""float:right""></p><p><img src=images/blank.png width =""800"" height = ""200""></p>","","","","","","","","","","","",""
"","495.26500003412366","sequential-stimulus-presentation","141","443226","0.0-29.0-1.3","SS1613098863310","trial","","40","800","1295.2650000341237","images/stimuli/spore_stims/complex_15_B_d.gif","images/stimuli/spore_stims/complex_19_B_c.gif","","","","","7","complex_dissimilar","images/stimuli/spore_stims/complex_19_B_c.gif","right","","","","",""
"","null","html-keyboard-response","142","444485","0.0-29.0-0.4","SS1613098863310","","","null","","","","","<p><img src= images/blank.png width =""200"" height = ""200"" style = ""float:right""></p><p><img src=images/blank.png width =""800"" height = ""200""></p>","","","","","","","","","","","",""
"","6798.745000036433","sequential-stimulus-presentation","143","452123","0.0-29.0-1.4","SS1613098863310","trial","","40","800","7598.745000036433","images/stimuli/spore_stims/complex_15_B_d.gif","images/stimuli/spore_stims/complex_19_B_c.gif","","","","","7","complex_dissimilar","images/stimuli/spore_stims/complex_15_B_d.gif","middle","","","","",""
"","null","html-keyboard-response","144","453335","0.0-29.0-0.5","SS1613098863310","","","null","","","","","<p><img src= images/blank.png width =""200"" height = ""200"" style = ""float:right""></p><p><img src=images/blank.png width =""800"" height = ""200""></p>","","","","","","","","","","","",""
"","3119.734999956563","sequential-stimulus-presentation","145","457288","0.0-29.0-1.5","SS1613098863310","trial","","40","800","3919.734999956563","images/stimuli/spore_stims/complex_15_B_d.gif","images/stimuli/spore_stims/complex_19_B_c.gif","","","","","7","complex_dissimilar","images/stimuli/spore_stims/complex_19_B_c.gif","right","","","","",""
"","null","html-keyboard-response","146","458606","0.0-29.0-0.6","SS1613098863310","","","null","","","","","<p><img src= images/blank.png width =""200"" height = ""200"" style = ""float:right""></p><p><img src=images/blank.png width =""800"" height = ""200""></p>","","","","","","","","","","","",""
"","630.3049999987707","sequential-stimulus-presentation","147","460075","0.0-29.0-1.6","SS1613098863310","trial","","40","800","1430.3049999987707","images/stimuli/spore_stims/complex_15_B_d.gif","images/stimuli/spore_stims/complex_19_B_c.gif","","","","","7","complex_dissimilar","images/stimuli/spore_stims/complex_19_B_c.gif","right","","","","",""
"","null","html-keyboard-response","148","461165","0.0-29.0-0.7","SS1613098863310","","","null","","","","","<p><img src= images/blank.png width =""200"" height = ""200"" style = ""float:right""></p><p><img src=images/blank.png width =""800"" height = ""200""></p>","","","","","","","","","","","",""
"","950.0700000207871","sequential-stimulus-presentation","149","462948","0.0-29.0-1.7","SS1613098863310","trial","","40","800","1750.0700000207871","images/stimuli/spore_stims/complex_15_B_d.gif","images/stimuli/spore_stims/complex_19_B_c.gif","","","","","7","complex_dissimilar","images/stimuli/spore_stims/complex_19_B_c.gif","right","","","","",""
"","1710.7600000454113","html-keyboard-response","150","464687","0.0-30.0","SS1613098863310","pref_question","","50","","","","","<video width ='960' height = '540' style='padding-top:8%' autoplay muted><source src='images/stimuli/wall_pref.mp4' type='video/mp4'></video>","2","middle","45%","7","","","","","","","",""
"","4913.720000069588","sequential-stimulus-presentation","151","470427","0.0-31.0","SS1613098863310","pref_reveal","","40","800","5713.720000069588","null","null","","","","","7","","","","deviant","","","",""
"","null","html-keyboard-response","152","471281","0.0-32.0-0.0","SS1613098863310","","","null","","","","","<p><img src= images/blank.png width =""200"" height = ""200"" style = ""float:right""></p><p><img src=images/blank.png width =""800"" height = ""200""></p>","","","","","","","","","","","",""
"","3156.4800000051036","sequential-stimulus-presentation","153","475269","0.0-32.0-1.0","SS1613098863310","trial","","40","800","3956.4800000051036","images/stimuli/spore_stims/simple_05_A_b.gif","images/stimuli/spore_stims/simple_12_A_b.gif","","","","","8","simple_dissimilar","images/stimuli/spore_stims/simple_12_A_b.gif","left","","","","",""
"","null","html-keyboard-response","154","476244","0.0-32.0-0.1","SS1613098863310","","","null","","","","","<p><img src= images/blank.png width =""200"" height = ""200"" style = ""float:right""></p><p><img src=images/blank.png width =""800"" height = ""200""></p>","","","","","","","","","","","",""
"","380.20500005222857","sequential-stimulus-presentation","155","477442","0.0-32.0-1.1","SS1613098863310","trial","","40","800","1180.2050000522286","images/stimuli/spore_stims/simple_05_A_b.gif","images/stimuli/spore_stims/simple_12_A_b.gif","","","","","8","simple_dissimilar","images/stimuli/spore_stims/simple_12_A_b.gif","left","","","","",""
"","null","html-keyboard-response","156","478324","0.0-32.0-0.2","SS1613098863310","","","null","","","","","<p><img src= images/blank.png width =""200"" height = ""200"" style = ""float:right""></p><p><img src=images/blank.png width =""800"" height = ""200""></p>","","","","","","","","","","","",""
"","236.35500005912036","sequential-stimulus-presentation","157","479394","0.0-32.0-1.2","SS1613098863310","trial","","40","800","1036.3550000591204","images/stimuli/spore_stims/simple_05_A_b.gif","images/stimuli/spore_stims/simple_12_A_b.gif","","","","","8","simple_dissimilar","images/stimuli/spore_stims/simple_12_A_b.gif","left","","","","",""
"","null","html-keyboard-response","158","480448","0.0-32.0-0.3","SS1613098863310","","","null","","","","","<p><img src= images/blank.png width =""200"" height = ""200"" style = ""float:right""></p><p><img src=images/blank.png width =""800"" height = ""200""></p>","","","","","","","","","","","",""
"","321.0249999538064","sequential-stimulus-presentation","159","481607","0.0-32.0-1.3","SS1613098863310","trial","","40","800","1121.0249999538064","images/stimuli/spore_stims/simple_05_A_b.gif","images/stimuli/spore_stims/simple_12_A_b.gif","","","","","8","simple_dissimilar","images/stimuli/spore_stims/simple_12_A_b.gif","left","","","","",""
"","null","html-keyboard-response","160","482567","0.0-32.0-0.4","SS1613098863310","","","null","","","","","<p><img src= images/blank.png width =""200"" height = ""200"" style = ""float:right""></p><p><img src=images/blank.png width =""800"" height = ""200""></p>","","","","","","","","","","","",""
"","3687.1599999722093","sequential-stimulus-presentation","161","487088","0.0-32.0-1.4","SS1613098863310","trial","","40","800","4487.159999972209","images/stimuli/spore_stims/simple_05_A_b.gif","images/stimuli/spore_stims/simple_12_A_b.gif","","","","","8","simple_dissimilar","images/stimuli/spore_stims/simple_05_A_b.gif","middle","","","","",""
"","null","html-keyboard-response","162","488088","0.0-32.0-0.5","SS1613098863310","","","null","","","","","<p><img src= images/blank.png width =""200"" height = ""200"" style = ""float:right""></p><p><img src=images/blank.png width =""800"" height = ""200""></p>","","","","","","","","","","","",""
"","1289.974999963306","sequential-stimulus-presentation","163","490217","0.0-32.0-1.5","SS1613098863310","trial","","40","800","2089.974999963306","images/stimuli/spore_stims/simple_05_A_b.gif","images/stimuli/spore_stims/simple_12_A_b.gif","","","","","8","simple_dissimilar","images/stimuli/spore_stims/simple_12_A_b.gif","left","","","","",""
"","null","html-keyboard-response","164","491351","0.0-32.0-0.6","SS1613098863310","","","null","","","","","<p><img src= images/blank.png width =""200"" height = ""200"" style = ""float:right""></p><p><img src=images/blank.png width =""800"" height = ""200""></p>","","","","","","","","","","","",""
"","470.90499999467283","sequential-stimulus-presentation","165","492643","0.0-32.0-1.6","SS1613098863310","trial","","40","800","1270.9049999946728","images/stimuli/spore_stims/simple_05_A_b.gif","images/stimuli/spore_stims/simple_12_A_b.gif","","","","","8","simple_dissimilar","images/stimuli/spore_stims/simple_12_A_b.gif","left","","","","",""
"","null","html-keyboard-response","166","493638","0.0-32.0-0.7","SS1613098863310","","","null","","","","","<p><img src= images/blank.png width =""200"" height = ""200"" style = ""float:right""></p><p><img src=images/blank.png width =""800"" height = ""200""></p>","","","","","","","","","","","",""
"","433.97000001277775","sequential-stimulus-presentation","167","494891","0.0-32.0-1.7","SS1613098863310","trial","","40","800","1233.9700000127777","images/stimuli/spore_stims/simple_05_A_b.gif","images/stimuli/spore_stims/simple_12_A_b.gif","","","","","8","simple_dissimilar","images/stimuli/spore_stims/simple_12_A_b.gif","left","","","","",""
"","1429.3649999890476","html-keyboard-response","168","496350","0.0-33.0","SS1613098863310","pref_question","","51","","","","","<video width ='960' height = '540' style='padding-top:8%' autoplay muted><source src='images/stimuli/wall_pref.mp4' type='video/mp4'></video>","3","right","66%","8","","","","","","","",""
"","4695.1800000388175","sequential-stimulus-presentation","169","501880","0.0-34.0","SS1613098863310","pref_reveal","","40","800","5495.1800000388175","null","null","","","","","8","","","","novel","","","",""
"","null","html-keyboard-response","170","503089","0.0-35.0-0.0","SS1613098863310","","","null","","","","","<p><img src= images/blank.png width =""200"" height = ""200"" style = ""float:right""></p><p><img src=images/blank.png width =""800"" height = ""200""></p>","","","","","","","","","","","",""
"","3336.559999966994","sequential-stimulus-presentation","171","507255","0.0-35.0-1.0","SS1613098863310","trial","","40","800","4136.559999966994","images/stimuli/spore_stims/complex_19_A_d.gif","images/stimuli/spore_stims/complex_18_A_a.gif","","","","","9","complex_dissimilar","images/stimuli/spore_stims/complex_18_A_a.gif","middle","","","","",""
"","null","html-keyboard-response","172","508449","0.0-35.0-0.1","SS1613098863310","","","null","","","","","<p><img src= images/blank.png width =""200"" height = ""200"" style = ""float:right""></p><p><img src=images/blank.png width =""800"" height = ""200""></p>","","","","","","","","","","","",""
"","785.2800000691786","sequential-stimulus-presentation","173","510073","0.0-35.0-1.1","SS1613098863310","trial","","40","800","1585.2800000691786","images/stimuli/spore_stims/complex_19_A_d.gif","images/stimuli/spore_stims/complex_18_A_a.gif","","","","","9","complex_dissimilar","images/stimuli/spore_stims/complex_18_A_a.gif","middle","","","","",""
"","null","html-keyboard-response","174","511231","0.0-35.0-0.2","SS1613098863310","","","null","","","","","<p><img src= images/blank.png width =""200"" height = ""200"" style = ""float:right""></p><p><img src=images/blank.png width =""800"" height = ""200""></p>","","","","","","","","","","","",""
"","1508.9050000533462","sequential-stimulus-presentation","175","513581","0.0-35.0-1.2","SS1613098863310","trial","","40","800","2308.905000053346","images/stimuli/spore_stims/complex_19_A_d.gif","images/stimuli/spore_stims/complex_18_A_a.gif","","","","","9","complex_dissimilar","images/stimuli/spore_stims/complex_19_A_d.gif","right","","","","",""
"","null","html-keyboard-response","176","514764","0.0-35.0-0.3","SS1613098863310","","","null","","","","","<p><img src= images/blank.png width =""200"" height = ""200"" style = ""float:right""></p><p><img src=images/blank.png width =""800"" height = ""200""></p>","","","","","","","","","","","",""
"","130.7199998991564","sequential-stimulus-presentation","177","515732","0.0-35.0-1.3","SS1613098863310","trial","","40","800","930.7199998991564","images/stimuli/spore_stims/complex_19_A_d.gif","images/stimuli/spore_stims/complex_18_A_a.gif","","","","","9","complex_dissimilar","images/stimuli/spore_stims/complex_18_A_a.gif","middle","","","","",""
"","null","html-keyboard-response","178","516685","0.0-35.0-0.4","SS1613098863310","","","null","","","","","<p><img src= images/blank.png width =""200"" height = ""200"" style = ""float:right""></p><p><img src=images/blank.png width =""800"" height = ""200""></p>","","","","","","","","","","","",""
"","585.7700000051409","sequential-stimulus-presentation","179","518109","0.0-35.0-1.4","SS1613098863310","trial","","40","800","1385.770000005141","images/stimuli/spore_stims/complex_19_A_d.gif","images/stimuli/spore_stims/complex_18_A_a.gif","","","","","9","complex_dissimilar","images/stimuli/spore_stims/complex_18_A_a.gif","middle","","","","",""
"","null","html-keyboard-response","180","518964","0.0-35.0-0.5","SS1613098863310","","","null","","","","","<p><img src= images/blank.png width =""200"" height = ""200"" style = ""float:right""></p><p><img src=images/blank.png width =""800"" height = ""200""></p>","","","","","","","","","","","",""
"","462.9900000290945","sequential-stimulus-presentation","181","520268","0.0-35.0-1.5","SS1613098863310","trial","","40","800","1262.9900000290945","images/stimuli/spore_stims/complex_19_A_d.gif","images/stimuli/spore_stims/complex_18_A_a.gif","","","","","9","complex_dissimilar","images/stimuli/spore_stims/complex_18_A_a.gif","middle","","","","",""
"","null","html-keyboard-response","182","521120","0.0-35.0-0.6","SS1613098863310","","","null","","","","","<p><img src= images/blank.png width =""200"" height = ""200"" style = ""float:right""></p><p><img src=images/blank.png width =""800"" height = ""200""></p>","","","","","","","","","","","",""
"","443.3299999218434","sequential-stimulus-presentation","183","522402","0.0-35.0-1.6","SS1613098863310","trial","","40","800","1243.3299999218434","images/stimuli/spore_stims/complex_19_A_d.gif","images/stimuli/spore_stims/complex_18_A_a.gif","","","","","9","complex_dissimilar","images/stimuli/spore_stims/complex_18_A_a.gif","middle","","","","",""
"","null","html-keyboard-response","184","523368","0.0-35.0-0.7","SS1613098863310","","","null","","","","","<p><img src= images/blank.png width =""200"" height = ""200"" style = ""float:right""></p><p><img src=images/blank.png width =""800"" height = ""200""></p>","","","","","","","","","","","",""
"","390.70499991066754","sequential-stimulus-presentation","185","524588","0.0-35.0-1.7","SS1613098863310","trial","","40","800","1190.7049999106675","images/stimuli/spore_stims/complex_19_A_d.gif","images/stimuli/spore_stims/complex_18_A_a.gif","","","","","9","complex_dissimilar","images/stimuli/spore_stims/complex_18_A_a.gif","middle","","","","",""
"","1403.6550000309944","html-keyboard-response","186","526046","0.0-36.0","SS1613098863310","pref_question","","50","","","","","<video width ='960' height = '540' style='padding-top:8%' autoplay muted><source src='images/stimuli/wall_pref.mp4' type='video/mp4'></video>","2","middle","45%","9","","","","","","","",""
"","549.2450000019744","sequential-stimulus-presentation","187","527434","0.0-37.0","SS1613098863310","pref_reveal","","40","800","1349.2450000019744","null","null","","","","","9","","","","background","","","",""
"","null","html-keyboard-response","188","528347","0.0-38.0-0.0","SS1613098863310","","","null","","","","","<p><img src= images/blank.png width =""200"" height = ""200"" style = ""float:right""></p><p><img src=images/blank.png width =""800"" height = ""200""></p>","","","","","","","","","","","",""
"","2878.1650000019","sequential-stimulus-presentation","189","532062","0.0-38.0-1.0","SS1613098863310","trial","","40","800","3678.1650000019","images/stimuli/spore_stims/simple_03_A_d.gif","images/stimuli/spore_stims/simple_03_B_d.gif","","","","","10","simple_similar","images/stimuli/spore_stims/simple_03_B_d.gif","right","","","","",""
"","null","html-keyboard-response","190","532991","0.0-38.0-0.1","SS1613098863310","","","null","","","","","<p><img src= images/blank.png width =""200"" height = ""200"" style = ""float:right""></p><p><img src=images/blank.png width =""800"" height = ""200""></p>","","","","","","","","","","","",""
"","380.1150000654161","sequential-stimulus-presentation","191","534203","0.0-38.0-1.1","SS1613098863310","trial","","40","800","1180.115000065416","images/stimuli/spore_stims/simple_03_A_d.gif","images/stimuli/spore_stims/simple_03_B_d.gif","","","","","10","simple_similar","images/stimuli/spore_stims/simple_03_B_d.gif","right","","","","",""
"","null","html-keyboard-response","192","535188","0.0-38.0-0.2","SS1613098863310","","","null","","","","","<p><img src= images/blank.png width =""200"" height = ""200"" style = ""float:right""></p><p><img src=images/blank.png width =""800"" height = ""200""></p>","","","","","","","","","","","",""
"","240.7799999928102","sequential-stimulus-presentation","193","536261","0.0-38.0-1.2","SS1613098863310","trial","","40","800","1040.7799999928102","images/stimuli/spore_stims/simple_03_A_d.gif","images/stimuli/spore_stims/simple_03_B_d.gif","","","","","10","simple_similar","images/stimuli/spore_stims/simple_03_B_d.gif","right","","","","",""
"","null","html-keyboard-response","194","537193","0.0-38.0-0.3","SS1613098863310","","","null","","","","","<p><img src= images/blank.png width =""200"" height = ""200"" style = ""float:right""></p><p><img src=images/blank.png width =""800"" height = ""200""></p>","","","","","","","","","","","",""
"","869.4350000005215","sequential-stimulus-presentation","195","538898","0.0-38.0-1.3","SS1613098863310","trial","","40","800","1669.4350000005215","images/stimuli/spore_stims/simple_03_A_d.gif","images/stimuli/spore_stims/simple_03_B_d.gif","","","","","10","simple_similar","images/stimuli/spore_stims/simple_03_A_d.gif","left","","","","",""
"","null","html-keyboard-response","196","540008","0.0-38.0-0.4","SS1613098863310","","","null","","","","","<p><img src= images/blank.png width =""200"" height = ""200"" style = ""float:right""></p><p><img src=images/blank.png width =""800"" height = ""200""></p>","","","","","","","","","","","",""
"","598.0100000742823","sequential-stimulus-presentation","197","541439","0.0-38.0-1.4","SS1613098863310","trial","","40","800","1398.0100000742823","images/stimuli/spore_stims/simple_03_A_d.gif","images/stimuli/spore_stims/simple_03_B_d.gif","","","","","10","simple_similar","images/stimuli/spore_stims/simple_03_B_d.gif","right","","","","",""
"","null","html-keyboard-response","198","542468","0.0-38.0-0.5","SS1613098863310","","","null","","","","","<p><img src= images/blank.png width =""200"" height = ""200"" style = ""float:right""></p><p><img src=images/blank.png width =""800"" height = ""200""></p>","","","","","","","","","","","",""
"","641.6550000431016","sequential-stimulus-presentation","199","543945","0.0-38.0-1.5","SS1613098863310","trial","","40","800","1441.6550000431016","images/stimuli/spore_stims/simple_03_A_d.gif","images/stimuli/spore_stims/simple_03_B_d.gif","","","","","10","simple_similar","images/stimuli/spore_stims/simple_03_B_d.gif","right","","","","",""
"","null","html-keyboard-response","200","545249","0.0-38.0-0.6","SS1613098863310","","","null","","","","","<p><img src= images/blank.png width =""200"" height = ""200"" style = ""float:right""></p><p><img src=images/blank.png width =""800"" height = ""200""></p>","","","","","","","","","","","",""
"","748.894999967888","sequential-stimulus-presentation","201","546838","0.0-38.0-1.6","SS1613098863310","trial","","40","800","1548.894999967888","images/stimuli/spore_stims/simple_03_A_d.gif","images/stimuli/spore_stims/simple_03_B_d.gif","","","","","10","simple_similar","images/stimuli/spore_stims/simple_03_B_d.gif","right","","","","",""
"","null","html-keyboard-response","202","547816","0.0-38.0-0.7","SS1613098863310","","","null","","","","","<p><img src= images/blank.png width =""200"" height = ""200"" style = ""float:right""></p><p><img src=images/blank.png width =""800"" height = ""200""></p>","","","","","","","","","","","",""
"","825.7849999936298","sequential-stimulus-presentation","203","549484","0.0-38.0-1.7","SS1613098863310","trial","","40","800","1625.7849999936298","images/stimuli/spore_stims/simple_03_A_d.gif","images/stimuli/spore_stims/simple_03_B_d.gif","","","","","10","simple_similar","images/stimuli/spore_stims/simple_03_B_d.gif","right","","","","",""
"","1744.9649999616668","html-keyboard-response","204","551280","0.0-39.0","SS1613098863310","pref_question","","49","","","","","<video width ='960' height = '540' style='padding-top:8%' autoplay muted><source src='images/stimuli/wall_pref.mp4' type='video/mp4'></video>","1","left","25%","10","","","","","","","",""
"","382.344999932684","sequential-stimulus-presentation","205","552506","0.0-40.0","SS1613098863310","pref_reveal","","40","800","1182.344999932684","null","null","","","","","10","","","","deviant","","","",""
"","null","html-keyboard-response","206","553468","0.0-41.0-0.0","SS1613098863310","","","null","","","","","<p><img src= images/blank.png width =""200"" height = ""200"" style = ""float:right""></p><p><img src=images/blank.png width =""800"" height = ""200""></p>","","","","","","","","","","","",""
"","5169.284999952652","sequential-stimulus-presentation","207","559477","0.0-41.0-1.0","SS1613098863310","trial","","40","800","5969.284999952652","images/stimuli/spore_stims/complex_05_B_d.gif","images/stimuli/spore_stims/complex_05_A_d.gif","","","","","11","complex_similar","images/stimuli/spore_stims/complex_05_A_d.gif","middle","","","","",""
"","null","html-keyboard-response","208","561254","0.0-41.0-0.1","SS1613098863310","","","null","","","","","<p><img src= images/blank.png width =""200"" height = ""200"" style = ""float:right""></p><p><img src=images/blank.png width =""800"" height = ""200""></p>","","","","","","","","","","","",""
"","579.4699999969453","sequential-stimulus-presentation","209","562690","0.0-41.0-1.1","SS1613098863310","trial","","40","800","1379.4699999969453","images/stimuli/spore_stims/complex_05_B_d.gif","images/stimuli/spore_stims/complex_05_A_d.gif","","","","","11","complex_similar","images/stimuli/spore_stims/complex_05_A_d.gif","middle","","","","",""
"","null","html-keyboard-response","210","563906","0.0-41.0-0.2","SS1613098863310","","","null","","","","","<p><img src= images/blank.png width =""200"" height = ""200"" style = ""float:right""></p><p><img src=images/blank.png width =""800"" height = ""200""></p>","","","","","","","","","","","",""
"","493.1850000284612","sequential-stimulus-presentation","211","565240","0.0-41.0-1.2","SS1613098863310","trial","","40","800","1293.1850000284612","images/stimuli/spore_stims/complex_05_B_d.gif","images/stimuli/spore_stims/complex_05_A_d.gif","","","","","11","complex_similar","images/stimuli/spore_stims/complex_05_B_d.gif","right","","","","",""
"","null","html-keyboard-response","212","566282","0.0-41.0-0.3","SS1613098863310","","","null","","","","","<p><img src= images/blank.png width =""200"" height = ""200"" style = ""float:right""></p><p><img src=images/blank.png width =""800"" height = ""200""></p>","","","","","","","","","","","",""
"","427.90999996941537","sequential-stimulus-presentation","213","567547","0.0-41.0-1.3","SS1613098863310","trial","","40","800","1227.9099999694154","images/stimuli/spore_stims/complex_05_B_d.gif","images/stimuli/spore_stims/complex_05_A_d.gif","","","","","11","complex_similar","images/stimuli/spore_stims/complex_05_A_d.gif","middle","","","","",""
"","null","html-keyboard-response","214","568435","0.0-41.0-0.4","SS1613098863310","","","null","","","","","<p><img src= images/blank.png width =""200"" height = ""200"" style = ""float:right""></p><p><img src=images/blank.png width =""800"" height = ""200""></p>","","","","","","","","","","","",""
"","400.0600000144914","sequential-stimulus-presentation","215","569706","0.0-41.0-1.4","SS1613098863310","trial","","40","800","1200.0600000144914","images/stimuli/spore_stims/complex_05_B_d.gif","images/stimuli/spore_stims/complex_05_A_d.gif","","","","","11","complex_similar","images/stimuli/spore_stims/complex_05_A_d.gif","middle","","","","",""
"","null","html-keyboard-response","216","570843","0.0-41.0-0.5","SS1613098863310","","","null","","","","","<p><img src= images/blank.png width =""200"" height = ""200"" style = ""float:right""></p><p><img src=images/blank.png width =""800"" height = ""200""></p>","","","","","","","","","","","",""
"","421.1049999576062","sequential-stimulus-presentation","217","572116","0.0-41.0-1.5","SS1613098863310","trial","","40","800","1221.1049999576062","images/stimuli/spore_stims/complex_05_B_d.gif","images/stimuli/spore_stims/complex_05_A_d.gif","","","","","11","complex_similar","images/stimuli/spore_stims/complex_05_A_d.gif","middle","","","","",""
"","null","html-keyboard-response","218","573291","0.0-41.0-0.6","SS1613098863310","","","null","","","","","<p><img src= images/blank.png width =""200"" height = ""200"" style = ""float:right""></p><p><img src=images/blank.png width =""800"" height = ""200""></p>","","","","","","","","","","","",""
"","323.2950000092387","sequential-stimulus-presentation","219","574453","0.0-41.0-1.6","SS1613098863310","trial","","40","800","1123.2950000092387","images/stimuli/spore_stims/complex_05_B_d.gif","images/stimuli/spore_stims/complex_05_A_d.gif","","","","","11","complex_similar","images/stimuli/spore_stims/complex_05_A_d.gif","middle","","","","",""
"","null","html-keyboard-response","220","575564","0.0-41.0-0.7","SS1613098863310","","","null","","","","","<p><img src= images/blank.png width =""200"" height = ""200"" style = ""float:right""></p><p><img src=images/blank.png width =""800"" height = ""200""></p>","","","","","","","","","","","",""
"","412.540000048466","sequential-stimulus-presentation","221","576823","0.0-41.0-1.7","SS1613098863310","trial","","40","800","1212.540000048466","images/stimuli/spore_stims/complex_05_B_d.gif","images/stimuli/spore_stims/complex_05_A_d.gif","","","","","11","complex_similar","images/stimuli/spore_stims/complex_05_A_d.gif","middle","","","","",""
"","1422.8600000496954","html-keyboard-response","222","578290","0.0-42.0","SS1613098863310","pref_question","","51","","","","","<video width ='960' height = '540' style='padding-top:8%' autoplay muted><source src='images/stimuli/wall_pref.mp4' type='video/mp4'></video>","3","right","66%","11","","","","","","","",""
"","664.5849999040365","sequential-stimulus-presentation","223","579805","0.0-43.0","SS1613098863310","pref_reveal","","40","800","1464.5849999040365","null","null","","","","","11","","","","deviant","","","",""
"","null","html-keyboard-response","224","580843","0.0-44.0-0.0","SS1613098863310","","","null","","","","","<p><img src= images/blank.png width =""200"" height = ""200"" style = ""float:right""></p><p><img src=images/blank.png width =""800"" height = ""200""></p>","","","","","","","","","","","",""
"","3612.275000079535","sequential-stimulus-presentation","225","585324","0.0-44.0-1.0","SS1613098863310","trial","","40","800","4412.275000079535","images/stimuli/spore_stims/simple_06_A_b.gif","images/stimuli/spore_stims/simple_06_B_b.gif","","","","","12","simple_similar","images/stimuli/spore_stims/simple_06_B_b.gif","middle","","","","",""
"","null","html-keyboard-response","226","586620","0.0-44.0-0.1","SS1613098863310","","","null","","","","","<p><img src= images/blank.png width =""200"" height = ""200"" style = ""float:right""></p><p><img src=images/blank.png width =""800"" height = ""200""></p>","","","","","","","","","","","",""
"","464.0600000275299","sequential-stimulus-presentation","227","587946","0.0-44.0-1.1","SS1613098863310","trial","","40","800","1264.06000002753","images/stimuli/spore_stims/simple_06_A_b.gif","images/stimuli/spore_stims/simple_06_B_b.gif","","","","","12","simple_similar","images/stimuli/spore_stims/simple_06_B_b.gif","middle","","","","",""
"","null","html-keyboard-response","228","589076","0.0-44.0-0.2","SS1613098863310","","","null","","","","","<p><img src= images/blank.png width =""200"" height = ""200"" style = ""float:right""></p><p><img src=images/blank.png width =""800"" height = ""200""></p>","","","","","","","","","","","",""
"","339.0349999535829","sequential-stimulus-presentation","229","590261","0.0-44.0-1.2","SS1613098863310","trial","","40","800","1139.0349999535829","images/stimuli/spore_stims/simple_06_A_b.gif","images/stimuli/spore_stims/simple_06_B_b.gif","","","","","12","simple_similar","images/stimuli/spore_stims/simple_06_B_b.gif","middle","","","","",""
"","null","html-keyboard-response","230","591116","0.0-44.0-0.3","SS1613098863310","","","null","","","","","<p><img src= images/blank.png width =""200"" height = ""200"" style = ""float:right""></p><p><img src=images/blank.png width =""800"" height = ""200""></p>","","","","","","","","","","","",""
"","43.75999991316348","sequential-stimulus-presentation","231","592003","0.0-44.0-1.3","SS1613098863310","trial","","40","800","843.7599999131635","images/stimuli/spore_stims/simple_06_A_b.gif","images/stimuli/spore_stims/simple_06_B_b.gif","","","","","12","simple_similar","images/stimuli/spore_stims/simple_06_B_b.gif","middle","","","","",""
"","null","html-keyboard-response","232","593305","0.0-44.0-0.4","SS1613098863310","","","null","","","","","<p><img src= images/blank.png width =""200"" height = ""200"" style = ""float:right""></p><p><img src=images/blank.png width =""800"" height = ""200""></p>","","","","","","","","","","","",""
"","632.5899999355897","sequential-stimulus-presentation","233","594778","0.0-44.0-1.4","SS1613098863310","trial","","40","800","1432.5899999355897","images/stimuli/spore_stims/simple_06_A_b.gif","images/stimuli/spore_stims/simple_06_B_b.gif","","","","","12","simple_similar","images/stimuli/spore_stims/simple_06_B_b.gif","middle","","","","",""
"","null","html-keyboard-response","234","595929","0.0-44.0-0.5","SS1613098863310","","","null","","","","","<p><img src= images/blank.png width =""200"" height = ""200"" style = ""float:right""></p><p><img src=images/blank.png width =""800"" height = ""200""></p>","","","","","","","","","","","",""
"","407.83500007819384","sequential-stimulus-presentation","235","597214","0.0-44.0-1.5","SS1613098863310","trial","","40","800","1207.8350000781938","images/stimuli/spore_stims/simple_06_A_b.gif","images/stimuli/spore_stims/simple_06_B_b.gif","","","","","12","simple_similar","images/stimuli/spore_stims/simple_06_B_b.gif","middle","","","","",""
"","null","html-keyboard-response","236","598349","0.0-44.0-0.6","SS1613098863310","","","null","","","","","<p><img src= images/blank.png width =""200"" height = ""200"" style = ""float:right""></p><p><img src=images/blank.png width =""800"" height = ""200""></p>","","","","","","","","","","","",""
"","380.2750000031665","sequential-stimulus-presentation","237","599577","0.0-44.0-1.6","SS1613098863310","trial","","40","800","1180.2750000031665","images/stimuli/spore_stims/simple_06_A_b.gif","images/stimuli/spore_stims/simple_06_B_b.gif","","","","","12","simple_similar","images/stimuli/spore_stims/simple_06_B_b.gif","middle","","","","",""
"","null","html-keyboard-response","238","600867","0.0-44.0-0.7","SS1613098863310","","","null","","","","","<p><img src= images/blank.png width =""200"" height = ""200"" style = ""float:right""></p><p><img src=images/blank.png width =""800"" height = ""200""></p>","","","","","","","","","","","",""
"","488.4000000311062","sequential-stimulus-presentation","239","602235","0.0-44.0-1.7","SS1613098863310","trial","","40","800","1288.4000000311062","images/stimuli/spore_stims/simple_06_A_b.gif","images/stimuli/spore_stims/simple_06_B_b.gif","","","","","12","simple_similar","images/stimuli/spore_stims/simple_06_A_b.gif","right","","","","",""
"","2473.9299999782816","html-keyboard-response","240","604765","0.0-45.0","SS1613098863310","pref_question","","50","","","","","<video width ='960' height = '540' style='padding-top:8%' autoplay muted><source src='images/stimuli/wall_pref.mp4' type='video/mp4'></video>","2","middle","45%","12","","","","","","","",""
"","332.49000005889684","sequential-stimulus-presentation","241","605943","0.0-46.0","SS1613098863310","pref_reveal","","40","800","1132.4900000588968","null","null","","","","","12","","","","background","","","",""
"","null","html-keyboard-response","242","607021","0.0-47.0-0.0","SS1613098863310","","","null","","","","","<p><img src= images/blank.png width =""200"" height = ""200"" style = ""float:right""></p><p><img src=images/blank.png width =""800"" height = ""200""></p>","","","","","","","","","","","",""
"","3556.5649999771267","sequential-stimulus-presentation","243","611442","0.0-47.0-1.0","SS1613098863310","trial","","40","800","4356.564999977127","images/stimuli/spore_stims/complex_11_B_b.gif","images/stimuli/spore_stims/complex_11_A_b.gif","","","","","13","complex_similar","images/stimuli/spore_stims/complex_11_A_b.gif","left","","","","",""
"","null","html-keyboard-response","244","612680","0.0-47.0-0.1","SS1613098863310","","","null","","","","","<p><img src= images/blank.png width =""200"" height = ""200"" style = ""float:right""></p><p><img src=images/blank.png width =""800"" height = ""200""></p>","","","","","","","","","","","",""
"","327.02500000596046","sequential-stimulus-presentation","245","613875","0.0-47.0-1.1","SS1613098863310","trial","","40","800","1127.0250000059605","images/stimuli/spore_stims/complex_11_B_b.gif","images/stimuli/spore_stims/complex_11_A_b.gif","","","","","13","complex_similar","images/stimuli/spore_stims/complex_11_A_b.gif","left","","","","",""
"","null","html-keyboard-response","246","615306","0.0-47.0-0.2","SS1613098863310","","","null","","","","","<p><img src= images/blank.png width =""200"" height = ""200"" style = ""float:right""></p><p><img src=images/blank.png width =""800"" height = ""200""></p>","","","","","","","","","","","",""
"","310.2550000185147","sequential-stimulus-presentation","247","616471","0.0-47.0-1.2","SS1613098863310","trial","","40","800","1110.2550000185147","images/stimuli/spore_stims/complex_11_B_b.gif","images/stimuli/spore_stims/complex_11_A_b.gif","","","","","13","complex_similar","images/stimuli/spore_stims/complex_11_A_b.gif","left","","","","",""
"","null","html-keyboard-response","248","617543","0.0-47.0-0.3","SS1613098863310","","","null","","","","","<p><img src= images/blank.png width =""200"" height = ""200"" style = ""float:right""></p><p><img src=images/blank.png width =""800"" height = ""200""></p>","","","","","","","","","","","",""
"","333.59999989625067","sequential-stimulus-presentation","249","618720","0.0-47.0-1.3","SS1613098863310","trial","","40","800","1133.5999998962507","images/stimuli/spore_stims/complex_11_B_b.gif","images/stimuli/spore_stims/complex_11_A_b.gif","","","","","13","complex_similar","images/stimuli/spore_stims/complex_11_A_b.gif","left","","","","",""
"","null","html-keyboard-response","250","619978","0.0-47.0-0.4","SS1613098863310","","","null","","","","","<p><img src= images/blank.png width =""200"" height = ""200"" style = ""float:right""></p><p><img src=images/blank.png width =""800"" height = ""200""></p>","","","","","","","","","","","",""
"","245.62499998137355","sequential-stimulus-presentation","251","621184","0.0-47.0-1.4","SS1613098863310","trial","","40","800","1045.6249999813735","images/stimuli/spore_stims/complex_11_B_b.gif","images/stimuli/spore_stims/complex_11_A_b.gif","","","","","13","complex_similar","images/stimuli/spore_stims/complex_11_A_b.gif","left","","","","",""
"","null","html-keyboard-response","252","622271","0.0-47.0-0.5","SS1613098863310","","","null","","","","","<p><img src= images/blank.png width =""200"" height = ""200"" style = ""float:right""></p><p><img src=images/blank.png width =""800"" height = ""200""></p>","","","","","","","","","","","",""
"","578.9449999574572","sequential-stimulus-presentation","253","623707","0.0-47.0-1.5","SS1613098863310","trial","","40","800","1378.9449999574572","images/stimuli/spore_stims/complex_11_B_b.gif","images/stimuli/spore_stims/complex_11_A_b.gif","","","","","13","complex_similar","images/stimuli/spore_stims/complex_11_B_b.gif","middle","","","","",""
"","null","html-keyboard-response","254","624956","0.0-47.0-0.6","SS1613098863310","","","null","","","","","<p><img src= images/blank.png width =""200"" height = ""200"" style = ""float:right""></p><p><img src=images/blank.png width =""800"" height = ""200""></p>","","","","","","","","","","","",""
"","748.9049999276176","sequential-stimulus-presentation","255","626560","0.0-47.0-1.6","SS1613098863310","trial","","40","800","1548.9049999276176","images/stimuli/spore_stims/complex_11_B_b.gif","images/stimuli/spore_stims/complex_11_A_b.gif","","","","","13","complex_similar","images/stimuli/spore_stims/complex_11_A_b.gif","left","","","","",""
"","null","html-keyboard-response","256","627847","0.0-47.0-0.7","SS1613098863310","","","null","","","","","<p><img src= images/blank.png width =""200"" height = ""200"" style = ""float:right""></p><p><img src=images/blank.png width =""800"" height = ""200""></p>","","","","","","","","","","","",""
"","2385.11999999173","sequential-stimulus-presentation","257","631091","0.0-47.0-1.7","SS1613098863310","trial","","40","800","3185.11999999173","images/stimuli/spore_stims/complex_11_B_b.gif","images/stimuli/spore_stims/complex_11_A_b.gif","","","","","13","complex_similar","images/stimuli/spore_stims/complex_11_A_b.gif","left","","","","",""
"","1967.3450000118464","html-keyboard-response","258","633113","0.0-48.0","SS1613098863310","pref_question","","51","","","","","<video width ='960' height = '540' style='padding-top:8%' autoplay muted><source src='images/stimuli/wall_pref.mp4' type='video/mp4'></video>","3","right","66%","13","","","","","","","",""
"","3624.1850000806153","sequential-stimulus-presentation","259","637587","0.0-49.0","SS1613098863310","pref_reveal","","40","800","4424.185000080615","null","null","","","","","13","","","","novel","","","",""
"","null","html-keyboard-response","260","638992","0.0-50.0-0.0","SS1613098863310","","","null","","","","","<p><img src= images/blank.png width =""200"" height = ""200"" style = ""float:right""></p><p><img src=images/blank.png width =""800"" height = ""200""></p>","","","","","","","","","","","",""
"","4396.685000043362","sequential-stimulus-presentation","261","644253","0.0-50.0-1.0","SS1613098863310","trial","","40","800","5196.685000043362","images/stimuli/spore_stims/complex_01_A_a.gif","images/stimuli/spore_stims/complex_06_A_c.gif","","","","","14","complex_dissimilar","images/stimuli/spore_stims/complex_06_A_c.gif","left","","","","",""
"","null","html-keyboard-response","262","645209","0.0-50.0-0.1","SS1613098863310","","","null","","","","","<p><img src= images/blank.png width =""200"" height = ""200"" style = ""float:right""></p><p><img src=images/blank.png width =""800"" height = ""200""></p>","","","","","","","","","","","",""
"","835.0199999986216","sequential-stimulus-presentation","263","646913","0.0-50.0-1.1","SS1613098863310","trial","","40","800","1635.0199999986216","images/stimuli/spore_stims/complex_01_A_a.gif","images/stimuli/spore_stims/complex_06_A_c.gif","","","","","14","complex_dissimilar","images/stimuli/spore_stims/complex_06_A_c.gif","left","","","","",""
"","null","html-keyboard-response","264","648068","0.0-50.0-0.2","SS1613098863310","","","null","","","","","<p><img src= images/blank.png width =""200"" height = ""200"" style = ""float:right""></p><p><img src=images/blank.png width =""800"" height = ""200""></p>","","","","","","","","","","","",""
"","379.0850000223145","sequential-stimulus-presentation","265","649508","0.0-50.0-1.2","SS1613098863310","trial","","40","800","1179.0850000223145","images/stimuli/spore_stims/complex_01_A_a.gif","images/stimuli/spore_stims/complex_06_A_c.gif","","","","","14","complex_dissimilar","images/stimuli/spore_stims/complex_06_A_c.gif","left","","","","",""
"","null","html-keyboard-response","266","650853","0.0-50.0-0.3","SS1613098863310","","","null","","","","","<p><img src= images/blank.png width =""200"" height = ""200"" style = ""float:right""></p><p><img src=images/blank.png width =""800"" height = ""200""></p>","","","","","","","","","","","",""
"","4140.559999970719","sequential-stimulus-presentation","267","655886","0.0-50.0-1.3","SS1613098863310","trial","","40","800","4940.559999970719","images/stimuli/spore_stims/complex_01_A_a.gif","images/stimuli/spore_stims/complex_06_A_c.gif","","","","","14","complex_dissimilar","images/stimuli/spore_stims/complex_01_A_a.gif","right","","","","",""
"","null","html-keyboard-response","268","656757","0.0-50.0-0.4","SS1613098863310","","","null","","","","","<p><img src= images/blank.png width =""200"" height = ""200"" style = ""float:right""></p><p><img src=images/blank.png width =""800"" height = ""200""></p>","","","","","","","","","","","",""
"","3248.1299999635667","sequential-stimulus-presentation","269","660903","0.0-50.0-1.4","SS1613098863310","trial","","40","800","4048.1299999635667","images/stimuli/spore_stims/complex_01_A_a.gif","images/stimuli/spore_stims/complex_06_A_c.gif","","","","","14","complex_dissimilar","images/stimuli/spore_stims/complex_06_A_c.gif","left","","","","",""
"","null","html-keyboard-response","270","661916","0.0-50.0-0.5","SS1613098863310","","","null","","","","","<p><img src= images/blank.png width =""200"" height = ""200"" style = ""float:right""></p><p><img src=images/blank.png width =""800"" height = ""200""></p>","","","","","","","","","","","",""
"","487.89500002749264","sequential-stimulus-presentation","271","663339","0.0-50.0-1.5","SS1613098863310","trial","","40","800","1287.8950000274926","images/stimuli/spore_stims/complex_01_A_a.gif","images/stimuli/spore_stims/complex_06_A_c.gif","","","","","14","complex_dissimilar","images/stimuli/spore_stims/complex_06_A_c.gif","left","","","","",""
"","null","html-keyboard-response","272","664472","0.0-50.0-0.6","SS1613098863310","","","null","","","","","<p><img src= images/blank.png width =""200"" height = ""200"" style = ""float:right""></p><p><img src=images/blank.png width =""800"" height = ""200""></p>","","","","","","","","","","","",""
"","328.2650000182912","sequential-stimulus-presentation","273","665683","0.0-50.0-1.6","SS1613098863310","trial","","40","800","1128.2650000182912","images/stimuli/spore_stims/complex_01_A_a.gif","images/stimuli/spore_stims/complex_06_A_c.gif","","","","","14","complex_dissimilar","images/stimuli/spore_stims/complex_06_A_c.gif","left","","","","",""
"","null","html-keyboard-response","274","667003","0.0-50.0-0.7","SS1613098863310","","","null","","","","","<p><img src= images/blank.png width =""200"" height = ""200"" style = ""float:right""></p><p><img src=images/blank.png width =""800"" height = ""200""></p>","","","","","","","","","","","",""
"","416.3900000276044","sequential-stimulus-presentation","275","668594","0.0-50.0-1.7","SS1613098863310","trial","","40","800","1216.3900000276044","images/stimuli/spore_stims/complex_01_A_a.gif","images/stimuli/spore_stims/complex_06_A_c.gif","","","","","14","complex_dissimilar","images/stimuli/spore_stims/complex_06_A_c.gif","left","","","","",""
"","1311.6550000850111","html-keyboard-response","276","669954","0.0-51.0","SS1613098863310","pref_question","","50","","","","","<video width ='960' height = '540' style='padding-top:8%' autoplay muted><source src='images/stimuli/wall_pref.mp4' type='video/mp4'></video>","2","middle","45%","14","","","","","","","",""
"","2633.449999964796","sequential-stimulus-presentation","277","673427","0.0-52.0","SS1613098863310","pref_reveal","","40","800","3433.449999964796","null","null","","","","","14","","","","novel","","","",""
"","null","html-keyboard-response","278","674689","0.0-53.0-0.0","SS1613098863310","","","null","","","","","<p><img src= images/blank.png width =""200"" height = ""200"" style = ""float:right""></p><p><img src=images/blank.png width =""800"" height = ""200""></p>","","","","","","","","","","","",""
"","1544.010000070557","sequential-stimulus-presentation","279","677095","0.0-53.0-1.0","SS1613098863310","trial","","40","800","2344.010000070557","images/stimuli/spore_stims/simple_10_B_b.gif","images/stimuli/spore_stims/simple_07_A_c.gif","","","","","15","simple_dissimilar","images/stimuli/spore_stims/simple_07_A_c.gif","middle","","","","",""
"","null","html-keyboard-response","280","678435","0.0-53.0-0.1","SS1613098863310","","","null","","","","","<p><img src= images/blank.png width =""200"" height = ""200"" style = ""float:right""></p><p><img src=images/blank.png width =""800"" height = ""200""></p>","","","","","","","","","","","",""
"","529.9349999986589","sequential-stimulus-presentation","281","679874","0.0-53.0-1.1","SS1613098863310","trial","","40","800","1329.934999998659","images/stimuli/spore_stims/simple_10_B_b.gif","images/stimuli/spore_stims/simple_07_A_c.gif","","","","","15","simple_dissimilar","images/stimuli/spore_stims/simple_07_A_c.gif","middle","","","","",""
"","null","html-keyboard-response","282","680986","0.0-53.0-0.2","SS1613098863310","","","null","","","","","<p><img src= images/blank.png width =""200"" height = ""200"" style = ""float:right""></p><p><img src=images/blank.png width =""800"" height = ""200""></p>","","","","","","","","","","","",""
"","376.01500004529953","sequential-stimulus-presentation","283","682247","0.0-53.0-1.2","SS1613098863310","trial","","40","800","1176.0150000452995","images/stimuli/spore_stims/simple_10_B_b.gif","images/stimuli/spore_stims/simple_07_A_c.gif","","","","","15","simple_dissimilar","images/stimuli/spore_stims/simple_07_A_c.gif","middle","","","","",""
"","null","html-keyboard-response","284","683494","0.0-53.0-0.3","SS1613098863310","","","null","","","","","<p><img src= images/blank.png width =""200"" height = ""200"" style = ""float:right""></p><p><img src=images/blank.png width =""800"" height = ""200""></p>","","","","","","","","","","","",""
"","579.799999948591","sequential-stimulus-presentation","285","685086","0.0-53.0-1.3","SS1613098863310","trial","","40","800","1379.799999948591","images/stimuli/spore_stims/simple_10_B_b.gif","images/stimuli/spore_stims/simple_07_A_c.gif","","","","","15","simple_dissimilar","images/stimuli/spore_stims/simple_07_A_c.gif","middle","","","","",""
"","null","html-keyboard-response","286","686075","0.0-53.0-0.4","SS1613098863310","","","null","","","","","<p><img src= images/blank.png width =""200"" height = ""200"" style = ""float:right""></p><p><img src=images/blank.png width =""800"" height = ""200""></p>","","","","","","","","","","","",""
"","429.2850000783801","sequential-stimulus-presentation","287","687390","0.0-53.0-1.4","SS1613098863310","trial","","40","800","1229.28500007838","images/stimuli/spore_stims/simple_10_B_b.gif","images/stimuli/spore_stims/simple_07_A_c.gif","","","","","15","simple_dissimilar","images/stimuli/spore_stims/simple_07_A_c.gif","middle","","","","",""
"","null","html-keyboard-response","288","688342","0.0-53.0-0.5","SS1613098863310","","","null","","","","","<p><img src= images/blank.png width =""200"" height = ""200"" style = ""float:right""></p><p><img src=images/blank.png width =""800"" height = ""200""></p>","","","","","","","","","","","",""
"","441.0650000208989","sequential-stimulus-presentation","289","689662","0.0-53.0-1.5","SS1613098863310","trial","","40","800","1241.0650000208989","images/stimuli/spore_stims/simple_10_B_b.gif","images/stimuli/spore_stims/simple_07_A_c.gif","","","","","15","simple_dissimilar","images/stimuli/spore_stims/simple_07_A_c.gif","middle","","","","",""
"","null","html-keyboard-response","290","690790","0.0-53.0-0.6","SS1613098863310","","","null","","","","","<p><img src= images/blank.png width =""200"" height = ""200"" style = ""float:right""></p><p><img src=images/blank.png width =""800"" height = ""200""></p>","","","","","","","","","","","",""
"","3933.98500001058","sequential-stimulus-presentation","291","695580","0.0-53.0-1.6","SS1613098863310","trial","","40","800","4733.98500001058","images/stimuli/spore_stims/simple_10_B_b.gif","images/stimuli/spore_stims/simple_07_A_c.gif","","","","","15","simple_dissimilar","images/stimuli/spore_stims/simple_10_B_b.gif","left","","","","",""
"","null","html-keyboard-response","292","696870","0.0-53.0-0.7","SS1613098863310","","","null","","","","","<p><img src= images/blank.png width =""200"" height = ""200"" style = ""float:right""></p><p><img src=images/blank.png width =""800"" height = ""200""></p>","","","","","","","","","","","",""
"","1312.2299999231473","sequential-stimulus-presentation","293","699033","0.0-53.0-1.7","SS1613098863310","trial","","40","800","2112.2299999231473","images/stimuli/spore_stims/simple_10_B_b.gif","images/stimuli/spore_stims/simple_07_A_c.gif","","","","","15","simple_dissimilar","images/stimuli/spore_stims/simple_07_A_c.gif","middle","","","","",""
"","1465.3049999615178","html-keyboard-response","294","700547","0.0-54.0","SS1613098863310","pref_question","","50","","","","","<video width ='960' height = '540' style='padding-top:8%' autoplay muted><source src='images/stimuli/wall_pref.mp4' type='video/mp4'></video>","2","middle","45%","15","","","","","","","",""
"","458.1499999621883","sequential-stimulus-presentation","295","701841","0.0-55.0","SS1613098863310","pref_reveal","","40","800","1258.1499999621883","null","null","","","","","15","","","","background","","","",""
"","null","html-keyboard-response","296","702803","0.0-56.0-0.0","SS1613098863310","","","null","","","","","<p><img src= images/blank.png width =""200"" height = ""200"" style = ""float:right""></p><p><img src=images/blank.png width =""800"" height = ""200""></p>","","","","","","","","","","","",""
"","2059.265000047162","sequential-stimulus-presentation","297","705709","0.0-56.0-1.0","SS1613098863310","trial","","40","800","2859.265000047162","images/stimuli/spore_stims/simple_14_A_b.gif","images/stimuli/spore_stims/simple_14_B_b.gif","","","","","16","simple_similar","images/stimuli/spore_stims/simple_14_B_b.gif","right","","","","",""
"","null","html-keyboard-response","298","706662","0.0-56.0-0.1","SS1613098863310","","","null","","","","","<p><img src= images/blank.png width =""200"" height = ""200"" style = ""float:right""></p><p><img src=images/blank.png width =""800"" height = ""200""></p>","","","","","","","","","","","",""
"","481.2750000273809","sequential-stimulus-presentation","299","707985","0.0-56.0-1.1","SS1613098863310","trial","","40","800","1281.2750000273809","images/stimuli/spore_stims/simple_14_A_b.gif","images/stimuli/spore_stims/simple_14_B_b.gif","","","","","16","simple_similar","images/stimuli/spore_stims/simple_14_B_b.gif","right","","","","",""
"","null","html-keyboard-response","300","709295","0.0-56.0-0.2","SS1613098863310","","","null","","","","","<p><img src= images/blank.png width =""200"" height = ""200"" style = ""float:right""></p><p><img src=images/blank.png width =""800"" height = ""200""></p>","","","","","","","","","","","",""
"","451.9200000213459","sequential-stimulus-presentation","301","710593","0.0-56.0-1.2","SS1613098863310","trial","","40","800","1251.920000021346","images/stimuli/spore_stims/simple_14_A_b.gif","images/stimuli/spore_stims/simple_14_B_b.gif","","","","","16","simple_similar","images/stimuli/spore_stims/simple_14_B_b.gif","right","","","","",""
"","null","html-keyboard-response","302","711656","0.0-56.0-0.3","SS1613098863310","","","null","","","","","<p><img src= images/blank.png width =""200"" height = ""200"" style = ""float:right""></p><p><img src=images/blank.png width =""800"" height = ""200""></p>","","","","","","","","","","","",""
"","393.1950000114739","sequential-stimulus-presentation","303","712899","0.0-56.0-1.3","SS1613098863310","trial","","40","800","1193.195000011474","images/stimuli/spore_stims/simple_14_A_b.gif","images/stimuli/spore_stims/simple_14_B_b.gif","","","","","16","simple_similar","images/stimuli/spore_stims/simple_14_B_b.gif","right","","","","",""
"","null","html-keyboard-response","304","713974","0.0-56.0-0.4","SS1613098863310","","","null","","","","","<p><img src= images/blank.png width =""200"" height = ""200"" style = ""float:right""></p><p><img src=images/blank.png width =""800"" height = ""200""></p>","","","","","","","","","","","",""
"","322.1299999859184","sequential-stimulus-presentation","305","715136","0.0-56.0-1.4","SS1613098863310","trial","","40","800","1122.1299999859184","images/stimuli/spore_stims/simple_14_A_b.gif","images/stimuli/spore_stims/simple_14_B_b.gif","","","","","16","simple_similar","images/stimuli/spore_stims/simple_14_A_b.gif","middle","","","","",""
"","null","html-keyboard-response","306","716469","0.0-56.0-0.5","SS1613098863310","","","null","","","","","<p><img src= images/blank.png width =""200"" height = ""200"" style = ""float:right""></p><p><img src=images/blank.png width =""800"" height = ""200""></p>","","","","","","","","","","","",""
"","438.78500000573695","sequential-stimulus-presentation","307","717753","0.0-56.0-1.5","SS1613098863310","trial","","40","800","1238.785000005737","images/stimuli/spore_stims/simple_14_A_b.gif","images/stimuli/spore_stims/simple_14_B_b.gif","","","","","16","simple_similar","images/stimuli/spore_stims/simple_14_B_b.gif","right","","","","",""
"","null","html-keyboard-response","308","718734","0.0-56.0-0.6","SS1613098863310","","","null","","","","","<p><img src= images/blank.png width =""200"" height = ""200"" style = ""float:right""></p><p><img src=images/blank.png width =""800"" height = ""200""></p>","","","","","","","","","","","",""
"","393.9300000201911","sequential-stimulus-presentation","309","719978","0.0-56.0-1.6","SS1613098863310","trial","","40","800","1193.930000020191","images/stimuli/spore_stims/simple_14_A_b.gif","images/stimuli/spore_stims/simple_14_B_b.gif","","","","","16","simple_similar","images/stimuli/spore_stims/simple_14_B_b.gif","right","","","","",""
"","null","html-keyboard-response","310","720938","0.0-56.0-0.7","SS1613098863310","","","null","","","","","<p><img src= images/blank.png width =""200"" height = ""200"" style = ""float:right""></p><p><img src=images/blank.png width =""800"" height = ""200""></p>","","","","","","","","","","","",""
"","462.91999996174127","sequential-stimulus-presentation","311","722242","0.0-56.0-1.7","SS1613098863310","trial","","40","800","1262.9199999617413","images/stimuli/spore_stims/simple_14_A_b.gif","images/stimuli/spore_stims/simple_14_B_b.gif","","","","","16","simple_similar","images/stimuli/spore_stims/simple_14_B_b.gif","right","","","","",""
"","1628.87499993667","html-keyboard-response","312","723920","0.0-57.0","SS1613098863310","pref_question","","49","","","","","<video width ='960' height = '540' style='padding-top:8%' autoplay muted><source src='images/stimuli/wall_pref.mp4' type='video/mp4'></video>","1","left","25%","16","","","","","","","",""
