"view_history","rt","trial_type","trial_index","time_elapsed","internal_node_id","subject","stimulus_type","trial_stimulus","key_press","minimum_viewing_duration","trial_looking_time","block_deviant","block_background","stimulus","wall_pref","location","location_percent","block_number","block_type","stimulus_displayed","position_displayed","stim_type_selected","responses","question_order","stimulus_left","stimulus_right"
"[{""page_index"":0,""viewing_time"":6843.339999992168}]","6844.19999999227","instructions","0","6846","0.0-0.0","SS1613168433247","","","","","","","","","","","","","","","","","","","",""
"[{""page_index"":0,""viewing_time"":17538.23000000557},{""page_index"":1,""viewing_time"":36776.36000001803}]","54314.795000012964","instructions","1","63156","0.0-1.0","SS1613168433247","instructions","","","","","","","","","","","","","","","","","","",""
"","8355.184999993071","sequential-stimulus-presentation","2","72322","0.0-2.0","SS1613168433247","","","40","800","9155.184999993071","null","null","","","","","","","","","","","","",""
"","2303.8649999944028","sequential-stimulus-presentation","3","75449","0.0-3.0","SS1613168433247","","","40","800","3103.8649999944028","null","null","","","","","","","","","","","","",""
"[{""page_index"":0,""viewing_time"":3867.4250000040047}]","3867.659999988973","instructions","4","79319","0.0-4.0","SS1613168433247","instructions","","","","","","","","","","","","","","","","","","",""
"","10514.660000015283","html-keyboard-response","5","89839","0.0-5.0","SS1613168433247","instructions","","50","","","","","<video width ='960' height = '540' autoplay muted><source src='images/stimuli/wall_pref.mp4' type='video/mp4'></video>","2","middle","45%","","","","","","","","",""
"","2358.414999995148","sequential-stimulus-presentation","6","93002","0.0-6.0","SS1613168433247","pref_reveal","","40","800","3158.414999995148","null","null","","","","","","","","","","","","",""
"[{""page_index"":0,""viewing_time"":11082.500000018626},{""page_index"":1,""viewing_time"":4380.379999987781},{""page_index"":2,""viewing_time"":1370.3650000097696},{""page_index"":3,""viewing_time"":1466.0499999881722}]","18299.545000016224","instructions","7","111304","0.0-7.0","SS1613168433247","instructions","","","","","","","","","","","","","","","","","","",""
"","null","html-keyboard-response","8","112273","0.0-8.0-0.0","SS1613168433247","","","null","","","","","<p><img src= images/blank.png width =""200"" height = ""200"" style = ""float:right""></p><p><img src=images/blank.png width =""800"" height = ""200""></p>","","","","","","","","","","","",""
"","4207.810000021709","sequential-stimulus-presentation","9","117290","0.0-8.0-1.0","SS1613168433247","trial","","40","800","5007.810000021709","images/stimuli/spore_stims/simple_20_A_c.gif","images/stimuli/spore_stims/simple_20_B_c.gif","","","","","0","simple_similar","images/stimuli/spore_stims/simple_20_B_c.gif","right","","","","",""
"","null","html-keyboard-response","10","118539","0.0-8.0-0.1","SS1613168433247","","","null","","","","","<p><img src= images/blank.png width =""200"" height = ""200"" style = ""float:right""></p><p><img src=images/blank.png width =""800"" height = ""200""></p>","","","","","","","","","","","",""
"","3595.0949999969453","sequential-stimulus-presentation","11","122952","0.0-8.0-1.1","SS1613168433247","trial","","40","800","4395.094999996945","images/stimuli/spore_stims/simple_20_A_c.gif","images/stimuli/spore_stims/simple_20_B_c.gif","","","","","0","simple_similar","images/stimuli/spore_stims/simple_20_B_c.gif","right","","","","",""
"","null","html-keyboard-response","12","124014","0.0-8.0-0.2","SS1613168433247","","","null","","","","","<p><img src= images/blank.png width =""200"" height = ""200"" style = ""float:right""></p><p><img src=images/blank.png width =""800"" height = ""200""></p>","","","","","","","","","","","",""
"","2631.374999997206","sequential-stimulus-presentation","13","127452","0.0-8.0-1.2","SS1613168433247","trial","","40","800","3431.374999997206","images/stimuli/spore_stims/simple_20_A_c.gif","images/stimuli/spore_stims/simple_20_B_c.gif","","","","","0","simple_similar","images/stimuli/spore_stims/simple_20_B_c.gif","right","","","","",""
"","null","html-keyboard-response","14","128674","0.0-8.0-0.3","SS1613168433247","","","null","","","","","<p><img src= images/blank.png width =""200"" height = ""200"" style = ""float:right""></p><p><img src=images/blank.png width =""800"" height = ""200""></p>","","","","","","","","","","","",""
"","3027.1650000067893","sequential-stimulus-presentation","15","132511","0.0-8.0-1.3","SS1613168433247","trial","","40","800","3827.1650000067893","images/stimuli/spore_stims/simple_20_A_c.gif","images/stimuli/spore_stims/simple_20_B_c.gif","","","","","0","simple_similar","images/stimuli/spore_stims/simple_20_B_c.gif","right","","","","",""
"","null","html-keyboard-response","16","133437","0.0-8.0-0.4","SS1613168433247","","","null","","","","","<p><img src= images/blank.png width =""200"" height = ""200"" style = ""float:right""></p><p><img src=images/blank.png width =""800"" height = ""200""></p>","","","","","","","","","","","",""
"","3333.409999992","sequential-stimulus-presentation","17","137584","0.0-8.0-1.4","SS1613168433247","trial","","40","800","4133.409999992","images/stimuli/spore_stims/simple_20_A_c.gif","images/stimuli/spore_stims/simple_20_B_c.gif","","","","","0","simple_similar","images/stimuli/spore_stims/simple_20_B_c.gif","right","","","","",""
"","null","html-keyboard-response","18","138474","0.0-8.0-0.5","SS1613168433247","","","null","","","","","<p><img src= images/blank.png width =""200"" height = ""200"" style = ""float:right""></p><p><img src=images/blank.png width =""800"" height = ""200""></p>","","","","","","","","","","","",""
"","3222.955000004731","sequential-stimulus-presentation","19","142517","0.0-8.0-1.5","SS1613168433247","trial","","40","800","4022.955000004731","images/stimuli/spore_stims/simple_20_A_c.gif","images/stimuli/spore_stims/simple_20_B_c.gif","","","","","0","simple_similar","images/stimuli/spore_stims/simple_20_A_c.gif","middle","","","","",""
"","null","html-keyboard-response","20","143361","0.0-8.0-0.6","SS1613168433247","","","null","","","","","<p><img src= images/blank.png width =""200"" height = ""200"" style = ""float:right""></p><p><img src=images/blank.png width =""800"" height = ""200""></p>","","","","","","","","","","","",""
"","3445.3400000056718","sequential-stimulus-presentation","21","147657","0.0-8.0-1.6","SS1613168433247","trial","","40","800","4245.340000005672","images/stimuli/spore_stims/simple_20_A_c.gif","images/stimuli/spore_stims/simple_20_B_c.gif","","","","","0","simple_similar","images/stimuli/spore_stims/simple_20_B_c.gif","right","","","","",""
"","null","html-keyboard-response","22","148744","0.0-8.0-0.7","SS1613168433247","","","null","","","","","<p><img src= images/blank.png width =""200"" height = ""200"" style = ""float:right""></p><p><img src=images/blank.png width =""800"" height = ""200""></p>","","","","","","","","","","","",""
"","2728.8249999983236","sequential-stimulus-presentation","23","152279","0.0-8.0-1.7","SS1613168433247","trial","","40","800","3528.8249999983236","images/stimuli/spore_stims/simple_20_A_c.gif","images/stimuli/spore_stims/simple_20_B_c.gif","","","","","0","simple_similar","images/stimuli/spore_stims/simple_20_B_c.gif","right","","","","",""
"","1475.975000008475","html-keyboard-response","24","153759","0.0-9.0","SS1613168433247","pref_question","","49","","","","","<video width ='960' height = '540' style='padding-top:8%' autoplay muted><source src='images/stimuli/wall_pref.mp4' type='video/mp4'></video>","1","left","25%","0","","","","","","","",""
"","4480.1449999795295","sequential-stimulus-presentation","25","159064","0.0-10.0","SS1613168433247","pref_reveal","","40","800","5280.1449999795295","null","null","","","","","0","","","","novel","","","",""
"","null","html-keyboard-response","26","159970","0.0-11.0-0.0","SS1613168433247","","","null","","","","","<p><img src= images/blank.png width =""200"" height = ""200"" style = ""float:right""></p><p><img src=images/blank.png width =""800"" height = ""200""></p>","","","","","","","","","","","",""
"","3815.56499999715","sequential-stimulus-presentation","27","164606","0.0-11.0-1.0","SS1613168433247","trial","","40","800","4615.56499999715","images/stimuli/spore_stims/complex_12_B_c.gif","images/stimuli/spore_stims/complex_19_A_c.gif","","","","","1","complex_dissimilar","images/stimuli/spore_stims/complex_19_A_c.gif","right","","","","",""
"","null","html-keyboard-response","28","165464","0.0-11.0-0.1","SS1613168433247","","","null","","","","","<p><img src= images/blank.png width =""200"" height = ""200"" style = ""float:right""></p><p><img src=images/blank.png width =""800"" height = ""200""></p>","","","","","","","","","","","",""
"","1279.964999994263","sequential-stimulus-presentation","29","167558","0.0-11.0-1.1","SS1613168433247","trial","","40","800","2079.964999994263","images/stimuli/spore_stims/complex_12_B_c.gif","images/stimuli/spore_stims/complex_19_A_c.gif","","","","","1","complex_dissimilar","images/stimuli/spore_stims/complex_19_A_c.gif","right","","","","",""
"","null","html-keyboard-response","30","168539","0.0-11.0-0.2","SS1613168433247","","","null","","","","","<p><img src= images/blank.png width =""200"" height = ""200"" style = ""float:right""></p><p><img src=images/blank.png width =""800"" height = ""200""></p>","","","","","","","","","","","",""
"","3022.159999993164","sequential-stimulus-presentation","31","172375","0.0-11.0-1.2","SS1613168433247","trial","","40","800","3822.159999993164","images/stimuli/spore_stims/complex_12_B_c.gif","images/stimuli/spore_stims/complex_19_A_c.gif","","","","","1","complex_dissimilar","images/stimuli/spore_stims/complex_19_A_c.gif","right","","","","",""
"","null","html-keyboard-response","32","173402","0.0-11.0-0.3","SS1613168433247","","","null","","","","","<p><img src= images/blank.png width =""200"" height = ""200"" style = ""float:right""></p><p><img src=images/blank.png width =""800"" height = ""200""></p>","","","","","","","","","","","",""
"","2666.4750000054482","sequential-stimulus-presentation","33","176881","0.0-11.0-1.3","SS1613168433247","trial","","40","800","3466.4750000054482","images/stimuli/spore_stims/complex_12_B_c.gif","images/stimuli/spore_stims/complex_19_A_c.gif","","","","","1","complex_dissimilar","images/stimuli/spore_stims/complex_19_A_c.gif","right","","","","",""
"","null","html-keyboard-response","34","177812","0.0-11.0-0.4","SS1613168433247","","","null","","","","","<p><img src= images/blank.png width =""200"" height = ""200"" style = ""float:right""></p><p><img src=images/blank.png width =""800"" height = ""200""></p>","","","","","","","","","","","",""
"","3038.444999983767","sequential-stimulus-presentation","35","181669","0.0-11.0-1.4","SS1613168433247","trial","","40","800","3838.444999983767","images/stimuli/spore_stims/complex_12_B_c.gif","images/stimuli/spore_stims/complex_19_A_c.gif","","","","","1","complex_dissimilar","images/stimuli/spore_stims/complex_19_A_c.gif","right","","","","",""
"","null","html-keyboard-response","36","182800","0.0-11.0-0.5","SS1613168433247","","","null","","","","","<p><img src= images/blank.png width =""200"" height = ""200"" style = ""float:right""></p><p><img src=images/blank.png width =""800"" height = ""200""></p>","","","","","","","","","","","",""
"","4570.089999993797","sequential-stimulus-presentation","37","188189","0.0-11.0-1.5","SS1613168433247","trial","","40","800","5370.089999993797","images/stimuli/spore_stims/complex_12_B_c.gif","images/stimuli/spore_stims/complex_19_A_c.gif","","","","","1","complex_dissimilar","images/stimuli/spore_stims/complex_12_B_c.gif","left","","","","",""
"","null","html-keyboard-response","38","189035","0.0-11.0-0.6","SS1613168433247","","","null","","","","","<p><img src= images/blank.png width =""200"" height = ""200"" style = ""float:right""></p><p><img src=images/blank.png width =""800"" height = ""200""></p>","","","","","","","","","","","",""
"","3634.3550000165123","sequential-stimulus-presentation","39","193487","0.0-11.0-1.6","SS1613168433247","trial","","40","800","4434.355000016512","images/stimuli/spore_stims/complex_12_B_c.gif","images/stimuli/spore_stims/complex_19_A_c.gif","","","","","1","complex_dissimilar","images/stimuli/spore_stims/complex_19_A_c.gif","right","","","","",""
"","null","html-keyboard-response","40","194345","0.0-11.0-0.7","SS1613168433247","","","null","","","","","<p><img src= images/blank.png width =""200"" height = ""200"" style = ""float:right""></p><p><img src=images/blank.png width =""800"" height = ""200""></p>","","","","","","","","","","","",""
"","3569.3500000052154","sequential-stimulus-presentation","41","198730","0.0-11.0-1.7","SS1613168433247","trial","","40","800","4369.350000005215","images/stimuli/spore_stims/complex_12_B_c.gif","images/stimuli/spore_stims/complex_19_A_c.gif","","","","","1","complex_dissimilar","images/stimuli/spore_stims/complex_19_A_c.gif","right","","","","",""
"","1706.5899999870453","html-keyboard-response","42","200447","0.0-12.0","SS1613168433247","pref_question","","49","","","","","<video width ='960' height = '540' style='padding-top:8%' autoplay muted><source src='images/stimuli/wall_pref.mp4' type='video/mp4'></video>","1","left","25%","1","","","","","","","",""
"","5081.1849999881815","sequential-stimulus-presentation","43","206343","0.0-13.0","SS1613168433247","pref_reveal","","40","800","5881.1849999881815","null","null","","","","","1","","","","deviant","","","",""
"","null","html-keyboard-response","44","207414","0.0-14.0-0.0","SS1613168433247","","","null","","","","","<p><img src= images/blank.png width =""200"" height = ""200"" style = ""float:right""></p><p><img src=images/blank.png width =""800"" height = ""200""></p>","","","","","","","","","","","",""
"","4139.950000011595","sequential-stimulus-presentation","45","212354","0.0-14.0-1.0","SS1613168433247","trial","","40","800","4939.950000011595","images/stimuli/spore_stims/simple_07_A_c.gif","images/stimuli/spore_stims/simple_14_B_a.gif","","","","","2","simple_dissimilar","images/stimuli/spore_stims/simple_14_B_a.gif","right","","","","",""
"","null","html-keyboard-response","46","213191","0.0-14.0-0.1","SS1613168433247","","","null","","","","","<p><img src= images/blank.png width =""200"" height = ""200"" style = ""float:right""></p><p><img src=images/blank.png width =""800"" height = ""200""></p>","","","","","","","","","","","",""
"","2878.969999990659","sequential-stimulus-presentation","47","216886","0.0-14.0-1.1","SS1613168433247","trial","","40","800","3678.969999990659","images/stimuli/spore_stims/simple_07_A_c.gif","images/stimuli/spore_stims/simple_14_B_a.gif","","","","","2","simple_dissimilar","images/stimuli/spore_stims/simple_14_B_a.gif","right","","","","",""
"","null","html-keyboard-response","48","217753","0.0-14.0-0.2","SS1613168433247","","","null","","","","","<p><img src= images/blank.png width =""200"" height = ""200"" style = ""float:right""></p><p><img src=images/blank.png width =""800"" height = ""200""></p>","","","","","","","","","","","",""
"","3050.9000000020023","sequential-stimulus-presentation","49","221665","0.0-14.0-1.2","SS1613168433247","trial","","40","800","3850.9000000020023","images/stimuli/spore_stims/simple_07_A_c.gif","images/stimuli/spore_stims/simple_14_B_a.gif","","","","","2","simple_dissimilar","images/stimuli/spore_stims/simple_14_B_a.gif","right","","","","",""
"","null","html-keyboard-response","50","222754","0.0-14.0-0.3","SS1613168433247","","","null","","","","","<p><img src= images/blank.png width =""200"" height = ""200"" style = ""float:right""></p><p><img src=images/blank.png width =""800"" height = ""200""></p>","","","","","","","","","","","",""
"","1806.639999995241","sequential-stimulus-presentation","51","225372","0.0-14.0-1.3","SS1613168433247","trial","","40","800","2606.639999995241","images/stimuli/spore_stims/simple_07_A_c.gif","images/stimuli/spore_stims/simple_14_B_a.gif","","","","","2","simple_dissimilar","images/stimuli/spore_stims/simple_14_B_a.gif","right","","","","",""
"","null","html-keyboard-response","52","226463","0.0-14.0-0.4","SS1613168433247","","","null","","","","","<p><img src= images/blank.png width =""200"" height = ""200"" style = ""float:right""></p><p><img src=images/blank.png width =""800"" height = ""200""></p>","","","","","","","","","","","",""
"","2023.6299999814946","sequential-stimulus-presentation","53","229307","0.0-14.0-1.4","SS1613168433247","trial","","40","800","2823.6299999814946","images/stimuli/spore_stims/simple_07_A_c.gif","images/stimuli/spore_stims/simple_14_B_a.gif","","","","","2","simple_dissimilar","images/stimuli/spore_stims/simple_14_B_a.gif","right","","","","",""
"","null","html-keyboard-response","54","230185","0.0-14.0-0.5","SS1613168433247","","","null","","","","","<p><img src= images/blank.png width =""200"" height = ""200"" style = ""float:right""></p><p><img src=images/blank.png width =""800"" height = ""200""></p>","","","","","","","","","","","",""
"","1943.5449999873526","sequential-stimulus-presentation","55","232942","0.0-14.0-1.5","SS1613168433247","trial","","40","800","2743.5449999873526","images/stimuli/spore_stims/simple_07_A_c.gif","images/stimuli/spore_stims/simple_14_B_a.gif","","","","","2","simple_dissimilar","images/stimuli/spore_stims/simple_14_B_a.gif","right","","","","",""
"","null","html-keyboard-response","56","234161","0.0-14.0-0.6","SS1613168433247","","","null","","","","","<p><img src= images/blank.png width =""200"" height = ""200"" style = ""float:right""></p><p><img src=images/blank.png width =""800"" height = ""200""></p>","","","","","","","","","","","",""
"","2212.050000001909","sequential-stimulus-presentation","57","237184","0.0-14.0-1.6","SS1613168433247","trial","","40","800","3012.050000001909","images/stimuli/spore_stims/simple_07_A_c.gif","images/stimuli/spore_stims/simple_14_B_a.gif","","","","","2","simple_dissimilar","images/stimuli/spore_stims/simple_14_B_a.gif","right","","","","",""
"","null","html-keyboard-response","58","238390","0.0-14.0-0.7","SS1613168433247","","","null","","","","","<p><img src= images/blank.png width =""200"" height = ""200"" style = ""float:right""></p><p><img src=images/blank.png width =""800"" height = ""200""></p>","","","","","","","","","","","",""
"","3265.5350000131875","sequential-stimulus-presentation","59","242466","0.0-14.0-1.7","SS1613168433247","trial","","40","800","4065.5350000131875","images/stimuli/spore_stims/simple_07_A_c.gif","images/stimuli/spore_stims/simple_14_B_a.gif","","","","","2","simple_dissimilar","images/stimuli/spore_stims/simple_07_A_c.gif","middle","","","","",""
"","1544.2050000128802","html-keyboard-response","60","244015","0.0-15.0","SS1613168433247","pref_question","","51","","","","","<video width ='960' height = '540' style='padding-top:8%' autoplay muted><source src='images/stimuli/wall_pref.mp4' type='video/mp4'></video>","3","right","66%","2","","","","","","","",""
"","1795.5950000032317","sequential-stimulus-presentation","61","246635","0.0-16.0","SS1613168433247","pref_reveal","","40","800","2595.5950000032317","null","null","","","","","2","","","","background","","","",""
"","null","html-keyboard-response","62","247856","0.0-17.0-0.0","SS1613168433247","","","null","","","","","<p><img src= images/blank.png width =""200"" height = ""200"" style = ""float:right""></p><p><img src=images/blank.png width =""800"" height = ""200""></p>","","","","","","","","","","","",""
"","4016.700000007404","sequential-stimulus-presentation","63","252685","0.0-17.0-1.0","SS1613168433247","trial","","40","800","4816.700000007404","images/stimuli/spore_stims/complex_17_B_d.gif","images/stimuli/spore_stims/complex_17_A_d.gif","","","","","3","complex_similar","images/stimuli/spore_stims/complex_17_A_d.gif","right","","","","",""
"","null","html-keyboard-response","64","253825","0.0-17.0-0.1","SS1613168433247","","","null","","","","","<p><img src= images/blank.png width =""200"" height = ""200"" style = ""float:right""></p><p><img src=images/blank.png width =""800"" height = ""200""></p>","","","","","","","","","","","",""
"","1376.6150000155903","sequential-stimulus-presentation","65","256019","0.0-17.0-1.1","SS1613168433247","trial","","40","800","2176.6150000155903","images/stimuli/spore_stims/complex_17_B_d.gif","images/stimuli/spore_stims/complex_17_A_d.gif","","","","","3","complex_similar","images/stimuli/spore_stims/complex_17_A_d.gif","right","","","","",""
"","null","html-keyboard-response","66","257159","0.0-17.0-0.2","SS1613168433247","","","null","","","","","<p><img src= images/blank.png width =""200"" height = ""200"" style = ""float:right""></p><p><img src=images/blank.png width =""800"" height = ""200""></p>","","","","","","","","","","","",""
"","1719.135000021197","sequential-stimulus-presentation","67","259696","0.0-17.0-1.2","SS1613168433247","trial","","40","800","2519.135000021197","images/stimuli/spore_stims/complex_17_B_d.gif","images/stimuli/spore_stims/complex_17_A_d.gif","","","","","3","complex_similar","images/stimuli/spore_stims/complex_17_A_d.gif","right","","","","",""
"","null","html-keyboard-response","68","260908","0.0-17.0-0.3","SS1613168433247","","","null","","","","","<p><img src= images/blank.png width =""200"" height = ""200"" style = ""float:right""></p><p><img src=images/blank.png width =""800"" height = ""200""></p>","","","","","","","","","","","",""
"","1423.49999997532","sequential-stimulus-presentation","69","263140","0.0-17.0-1.3","SS1613168433247","trial","","40","800","2223.49999997532","images/stimuli/spore_stims/complex_17_B_d.gif","images/stimuli/spore_stims/complex_17_A_d.gif","","","","","3","complex_similar","images/stimuli/spore_stims/complex_17_A_d.gif","right","","","","",""
"","null","html-keyboard-response","70","264009","0.0-17.0-0.4","SS1613168433247","","","null","","","","","<p><img src= images/blank.png width =""200"" height = ""200"" style = ""float:right""></p><p><img src=images/blank.png width =""800"" height = ""200""></p>","","","","","","","","","","","",""
"","2190.4799999902025","sequential-stimulus-presentation","71","267013","0.0-17.0-1.4","SS1613168433247","trial","","40","800","2990.4799999902025","images/stimuli/spore_stims/complex_17_B_d.gif","images/stimuli/spore_stims/complex_17_A_d.gif","","","","","3","complex_similar","images/stimuli/spore_stims/complex_17_A_d.gif","right","","","","",""
"","null","html-keyboard-response","72","268304","0.0-17.0-0.5","SS1613168433247","","","null","","","","","<p><img src= images/blank.png width =""200"" height = ""200"" style = ""float:right""></p><p><img src=images/blank.png width =""800"" height = ""200""></p>","","","","","","","","","","","",""
"","3563.159999990603","sequential-stimulus-presentation","73","272668","0.0-17.0-1.5","SS1613168433247","trial","","40","800","4363.159999990603","images/stimuli/spore_stims/complex_17_B_d.gif","images/stimuli/spore_stims/complex_17_A_d.gif","","","","","3","complex_similar","images/stimuli/spore_stims/complex_17_B_d.gif","left","","","","",""
"","null","html-keyboard-response","74","273968","0.0-17.0-0.6","SS1613168433247","","","null","","","","","<p><img src= images/blank.png width =""200"" height = ""200"" style = ""float:right""></p><p><img src=images/blank.png width =""800"" height = ""200""></p>","","","","","","","","","","","",""
"","1912.1149999846239","sequential-stimulus-presentation","75","276694","0.0-17.0-1.6","SS1613168433247","trial","","40","800","2712.114999984624","images/stimuli/spore_stims/complex_17_B_d.gif","images/stimuli/spore_stims/complex_17_A_d.gif","","","","","3","complex_similar","images/stimuli/spore_stims/complex_17_A_d.gif","right","","","","",""
"","null","html-keyboard-response","76","277574","0.0-17.0-0.7","SS1613168433247","","","null","","","","","<p><img src= images/blank.png width =""200"" height = ""200"" style = ""float:right""></p><p><img src=images/blank.png width =""800"" height = ""200""></p>","","","","","","","","","","","",""
"","3317.4899999867193","sequential-stimulus-presentation","77","281713","0.0-17.0-1.7","SS1613168433247","trial","","40","800","4117.489999986719","images/stimuli/spore_stims/complex_17_B_d.gif","images/stimuli/spore_stims/complex_17_A_d.gif","","","","","3","complex_similar","images/stimuli/spore_stims/complex_17_A_d.gif","right","","","","",""
"","1300.4300000029616","html-keyboard-response","78","283024","0.0-18.0","SS1613168433247","pref_question","","49","","","","","<video width ='960' height = '540' style='padding-top:8%' autoplay muted><source src='images/stimuli/wall_pref.mp4' type='video/mp4'></video>","1","left","25%","3","","","","","","","",""
"","2549.1599999950267","sequential-stimulus-presentation","79","286381","0.0-19.0","SS1613168433247","pref_reveal","","40","800","3349.1599999950267","null","null","","","","","3","","","","deviant","","","",""
"","null","html-keyboard-response","80","287457","0.0-20.0-0.0","SS1613168433247","","","null","","","","","<p><img src= images/blank.png width =""200"" height = ""200"" style = ""float:right""></p><p><img src=images/blank.png width =""800"" height = ""200""></p>","","","","","","","","","","","",""
"","3748.120000003837","sequential-stimulus-presentation","81","292013","0.0-20.0-1.0","SS1613168433247","trial","","40","800","4548.120000003837","images/stimuli/spore_stims/complex_15_B_a.gif","images/stimuli/spore_stims/complex_15_A_a.gif","","","","","4","complex_similar","images/stimuli/spore_stims/complex_15_A_a.gif","right","","","","",""
"","null","html-keyboard-response","82","293081","0.0-20.0-0.1","SS1613168433247","","","null","","","","","<p><img src= images/blank.png width =""200"" height = ""200"" style = ""float:right""></p><p><img src=images/blank.png width =""800"" height = ""200""></p>","","","","","","","","","","","",""
"","1968.5849999950733","sequential-stimulus-presentation","83","295863","0.0-20.0-1.1","SS1613168433247","trial","","40","800","2768.5849999950733","images/stimuli/spore_stims/complex_15_B_a.gif","images/stimuli/spore_stims/complex_15_A_a.gif","","","","","4","complex_similar","images/stimuli/spore_stims/complex_15_A_a.gif","right","","","","",""
"","null","html-keyboard-response","84","297106","0.0-20.0-0.2","SS1613168433247","","","null","","","","","<p><img src= images/blank.png width =""200"" height = ""200"" style = ""float:right""></p><p><img src=images/blank.png width =""800"" height = ""200""></p>","","","","","","","","","","","",""
"","1602.7699999976903","sequential-stimulus-presentation","85","299529","0.0-20.0-1.2","SS1613168433247","trial","","40","800","2402.7699999976903","images/stimuli/spore_stims/complex_15_B_a.gif","images/stimuli/spore_stims/complex_15_A_a.gif","","","","","4","complex_similar","images/stimuli/spore_stims/complex_15_A_a.gif","right","","","","",""
"","null","html-keyboard-response","86","300583","0.0-20.0-0.3","SS1613168433247","","","null","","","","","<p><img src= images/blank.png width =""200"" height = ""200"" style = ""float:right""></p><p><img src=images/blank.png width =""800"" height = ""200""></p>","","","","","","","","","","","",""
"","1402.7599999972153","sequential-stimulus-presentation","87","302796","0.0-20.0-1.3","SS1613168433247","trial","","40","800","2202.7599999972153","images/stimuli/spore_stims/complex_15_B_a.gif","images/stimuli/spore_stims/complex_15_A_a.gif","","","","","4","complex_similar","images/stimuli/spore_stims/complex_15_A_a.gif","right","","","","",""
"","null","html-keyboard-response","88","303627","0.0-20.0-0.4","SS1613168433247","","","null","","","","","<p><img src= images/blank.png width =""200"" height = ""200"" style = ""float:right""></p><p><img src=images/blank.png width =""800"" height = ""200""></p>","","","","","","","","","","","",""
"","2463.5750000015832","sequential-stimulus-presentation","89","306902","0.0-20.0-1.4","SS1613168433247","trial","","40","800","3263.5750000015832","images/stimuli/spore_stims/complex_15_B_a.gif","images/stimuli/spore_stims/complex_15_A_a.gif","","","","","4","complex_similar","images/stimuli/spore_stims/complex_15_A_a.gif","right","","","","",""
"","null","html-keyboard-response","90","308010","0.0-20.0-0.5","SS1613168433247","","","null","","","","","<p><img src= images/blank.png width =""200"" height = ""200"" style = ""float:right""></p><p><img src=images/blank.png width =""800"" height = ""200""></p>","","","","","","","","","","","",""
"","2693.2450000022072","sequential-stimulus-presentation","91","311518","0.0-20.0-1.5","SS1613168433247","trial","","40","800","3493.2450000022072","images/stimuli/spore_stims/complex_15_B_a.gif","images/stimuli/spore_stims/complex_15_A_a.gif","","","","","4","complex_similar","images/stimuli/spore_stims/complex_15_A_a.gif","right","","","","",""
"","null","html-keyboard-response","92","312416","0.0-20.0-0.6","SS1613168433247","","","null","","","","","<p><img src= images/blank.png width =""200"" height = ""200"" style = ""float:right""></p><p><img src=images/blank.png width =""800"" height = ""200""></p>","","","","","","","","","","","",""
"","2266.0150000010617","sequential-stimulus-presentation","93","315490","0.0-20.0-1.6","SS1613168433247","trial","","40","800","3066.0150000010617","images/stimuli/spore_stims/complex_15_B_a.gif","images/stimuli/spore_stims/complex_15_A_a.gif","","","","","4","complex_similar","images/stimuli/spore_stims/complex_15_A_a.gif","right","","","","",""
"","null","html-keyboard-response","94","316730","0.0-20.0-0.7","SS1613168433247","","","null","","","","","<p><img src= images/blank.png width =""200"" height = ""200"" style = ""float:right""></p><p><img src=images/blank.png width =""800"" height = ""200""></p>","","","","","","","","","","","",""
"","3411.5100000053644","sequential-stimulus-presentation","95","320992","0.0-20.0-1.7","SS1613168433247","trial","","40","800","4211.510000005364","images/stimuli/spore_stims/complex_15_B_a.gif","images/stimuli/spore_stims/complex_15_A_a.gif","","","","","4","complex_similar","images/stimuli/spore_stims/complex_15_B_a.gif","left","","","","",""
"","1227.855000004638","html-keyboard-response","96","322226","0.0-21.0","SS1613168433247","pref_question","","50","","","","","<video width ='960' height = '540' style='padding-top:8%' autoplay muted><source src='images/stimuli/wall_pref.mp4' type='video/mp4'></video>","2","middle","45%","4","","","","","","","",""
"","3555.625000008149","sequential-stimulus-presentation","97","326601","0.0-22.0","SS1613168433247","pref_reveal","","40","800","4355.625000008149","null","null","","","","","4","","","","novel","","","",""
"","null","html-keyboard-response","98","327869","0.0-23.0-0.0","SS1613168433247","","","null","","","","","<p><img src= images/blank.png width =""200"" height = ""200"" style = ""float:right""></p><p><img src=images/blank.png width =""800"" height = ""200""></p>","","","","","","","","","","","",""
"","3796.910000004573","sequential-stimulus-presentation","99","332508","0.0-23.0-1.0","SS1613168433247","trial","","40","800","4596.910000004573","images/stimuli/spore_stims/simple_11_A_a.gif","images/stimuli/spore_stims/simple_11_B_a.gif","","","","","5","simple_similar","images/stimuli/spore_stims/simple_11_B_a.gif","left","","","","",""
"","null","html-keyboard-response","100","333362","0.0-23.0-0.1","SS1613168433247","","","null","","","","","<p><img src= images/blank.png width =""200"" height = ""200"" style = ""float:right""></p><p><img src=images/blank.png width =""800"" height = ""200""></p>","","","","","","","","","","","",""
"","2223.3549999946263","sequential-stimulus-presentation","101","336404","0.0-23.0-1.1","SS1613168433247","trial","","40","800","3023.3549999946263","images/stimuli/spore_stims/simple_11_A_a.gif","images/stimuli/spore_stims/simple_11_B_a.gif","","","","","5","simple_similar","images/stimuli/spore_stims/simple_11_B_a.gif","left","","","","",""
"","null","html-keyboard-response","102","337467","0.0-23.0-0.2","SS1613168433247","","","null","","","","","<p><img src= images/blank.png width =""200"" height = ""200"" style = ""float:right""></p><p><img src=images/blank.png width =""800"" height = ""200""></p>","","","","","","","","","","","",""
"","1571.2099999946076","sequential-stimulus-presentation","103","339855","0.0-23.0-1.2","SS1613168433247","trial","","40","800","2371.2099999946076","images/stimuli/spore_stims/simple_11_A_a.gif","images/stimuli/spore_stims/simple_11_B_a.gif","","","","","5","simple_similar","images/stimuli/spore_stims/simple_11_B_a.gif","left","","","","",""
"","null","html-keyboard-response","104","340876","0.0-23.0-0.3","SS1613168433247","","","null","","","","","<p><img src= images/blank.png width =""200"" height = ""200"" style = ""float:right""></p><p><img src=images/blank.png width =""800"" height = ""200""></p>","","","","","","","","","","","",""
"","1793.3149999880698","sequential-stimulus-presentation","105","343483","0.0-23.0-1.3","SS1613168433247","trial","","40","800","2593.3149999880698","images/stimuli/spore_stims/simple_11_A_a.gif","images/stimuli/spore_stims/simple_11_B_a.gif","","","","","5","simple_similar","images/stimuli/spore_stims/simple_11_B_a.gif","left","","","","",""
"","null","html-keyboard-response","106","344596","0.0-23.0-0.4","SS1613168433247","","","null","","","","","<p><img src= images/blank.png width =""200"" height = ""200"" style = ""float:right""></p><p><img src=images/blank.png width =""800"" height = ""200""></p>","","","","","","","","","","","",""
"","2828.379999991739","sequential-stimulus-presentation","107","348238","0.0-23.0-1.4","SS1613168433247","trial","","40","800","3628.379999991739","images/stimuli/spore_stims/simple_11_A_a.gif","images/stimuli/spore_stims/simple_11_B_a.gif","","","","","5","simple_similar","images/stimuli/spore_stims/simple_11_B_a.gif","left","","","","",""
"","null","html-keyboard-response","108","349309","0.0-23.0-0.5","SS1613168433247","","","null","","","","","<p><img src= images/blank.png width =""200"" height = ""200"" style = ""float:right""></p><p><img src=images/blank.png width =""800"" height = ""200""></p>","","","","","","","","","","","",""
"","1859.7849999787286","sequential-stimulus-presentation","109","351985","0.0-23.0-1.5","SS1613168433247","trial","","40","800","2659.7849999787286","images/stimuli/spore_stims/simple_11_A_a.gif","images/stimuli/spore_stims/simple_11_B_a.gif","","","","","5","simple_similar","images/stimuli/spore_stims/simple_11_B_a.gif","left","","","","",""
"","null","html-keyboard-response","110","352879","0.0-23.0-0.6","SS1613168433247","","","null","","","","","<p><img src= images/blank.png width =""200"" height = ""200"" style = ""float:right""></p><p><img src=images/blank.png width =""800"" height = ""200""></p>","","","","","","","","","","","",""
"","2013.8949999818578","sequential-stimulus-presentation","111","355715","0.0-23.0-1.6","SS1613168433247","trial","","40","800","2813.894999981858","images/stimuli/spore_stims/simple_11_A_a.gif","images/stimuli/spore_stims/simple_11_B_a.gif","","","","","5","simple_similar","images/stimuli/spore_stims/simple_11_B_a.gif","left","","","","",""
"","null","html-keyboard-response","112","356566","0.0-23.0-0.7","SS1613168433247","","","null","","","","","<p><img src= images/blank.png width =""200"" height = ""200"" style = ""float:right""></p><p><img src=images/blank.png width =""800"" height = ""200""></p>","","","","","","","","","","","",""
"","3146.1399999971036","sequential-stimulus-presentation","113","360549","0.0-23.0-1.7","SS1613168433247","trial","","40","800","3946.1399999971036","images/stimuli/spore_stims/simple_11_A_a.gif","images/stimuli/spore_stims/simple_11_B_a.gif","","","","","5","simple_similar","images/stimuli/spore_stims/simple_11_A_a.gif","right","","","","",""
"","1530.4850000247825","html-keyboard-response","114","362085","0.0-24.0","SS1613168433247","pref_question","","51","","","","","<video width ='960' height = '540' style='padding-top:8%' autoplay muted><source src='images/stimuli/wall_pref.mp4' type='video/mp4'></video>","3","right","66%","5","","","","","","","",""
"","2267.0299999881536","sequential-stimulus-presentation","115","365165","0.0-25.0","SS1613168433247","pref_reveal","","40","800","3067.0299999881536","null","null","","","","","5","","","","deviant","","","",""
"","null","html-keyboard-response","116","366183","0.0-26.0-0.0","SS1613168433247","","","null","","","","","<p><img src= images/blank.png width =""200"" height = ""200"" style = ""float:right""></p><p><img src=images/blank.png width =""800"" height = ""200""></p>","","","","","","","","","","","",""
"","3580.954999983078","sequential-stimulus-presentation","117","370643","0.0-26.0-1.0","SS1613168433247","trial","","40","800","4380.954999983078","images/stimuli/spore_stims/simple_06_A_d.gif","images/stimuli/spore_stims/simple_06_B_d.gif","","","","","6","simple_similar","images/stimuli/spore_stims/simple_06_B_d.gif","right","","","","",""
"","null","html-keyboard-response","118","371564","0.0-26.0-0.1","SS1613168433247","","","null","","","","","<p><img src= images/blank.png width =""200"" height = ""200"" style = ""float:right""></p><p><img src=images/blank.png width =""800"" height = ""200""></p>","","","","","","","","","","","",""
"","1358.4799999953248","sequential-stimulus-presentation","119","373744","0.0-26.0-1.1","SS1613168433247","trial","","40","800","2158.4799999953248","images/stimuli/spore_stims/simple_06_A_d.gif","images/stimuli/spore_stims/simple_06_B_d.gif","","","","","6","simple_similar","images/stimuli/spore_stims/simple_06_B_d.gif","right","","","","",""
"","null","html-keyboard-response","120","374736","0.0-26.0-0.2","SS1613168433247","","","null","","","","","<p><img src= images/blank.png width =""200"" height = ""200"" style = ""float:right""></p><p><img src=images/blank.png width =""800"" height = ""200""></p>","","","","","","","","","","","",""
"","2168.9649999898393","sequential-stimulus-presentation","121","377737","0.0-26.0-1.2","SS1613168433247","trial","","40","800","2968.9649999898393","images/stimuli/spore_stims/simple_06_A_d.gif","images/stimuli/spore_stims/simple_06_B_d.gif","","","","","6","simple_similar","images/stimuli/spore_stims/simple_06_A_d.gif","middle","","","","",""
"","null","html-keyboard-response","122","378915","0.0-26.0-0.3","SS1613168433247","","","null","","","","","<p><img src= images/blank.png width =""200"" height = ""200"" style = ""float:right""></p><p><img src=images/blank.png width =""800"" height = ""200""></p>","","","","","","","","","","","",""
"","2001.700000022538","sequential-stimulus-presentation","123","381733","0.0-26.0-1.3","SS1613168433247","trial","","40","800","2801.700000022538","images/stimuli/spore_stims/simple_06_A_d.gif","images/stimuli/spore_stims/simple_06_B_d.gif","","","","","6","simple_similar","images/stimuli/spore_stims/simple_06_B_d.gif","right","","","","",""
"","null","html-keyboard-response","124","382590","0.0-26.0-0.4","SS1613168433247","","","null","","","","","<p><img src= images/blank.png width =""200"" height = ""200"" style = ""float:right""></p><p><img src=images/blank.png width =""800"" height = ""200""></p>","","","","","","","","","","","",""
"","3099.0299999830313","sequential-stimulus-presentation","125","386504","0.0-26.0-1.4","SS1613168433247","trial","","40","800","3899.0299999830313","images/stimuli/spore_stims/simple_06_A_d.gif","images/stimuli/spore_stims/simple_06_B_d.gif","","","","","6","simple_similar","images/stimuli/spore_stims/simple_06_B_d.gif","right","","","","",""
"","null","html-keyboard-response","126","387442","0.0-26.0-0.5","SS1613168433247","","","null","","","","","<p><img src= images/blank.png width =""200"" height = ""200"" style = ""float:right""></p><p><img src=images/blank.png width =""800"" height = ""200""></p>","","","","","","","","","","","",""
"","3537.1999999915715","sequential-stimulus-presentation","127","391804","0.0-26.0-1.5","SS1613168433247","trial","","40","800","4337.1999999915715","images/stimuli/spore_stims/simple_06_A_d.gif","images/stimuli/spore_stims/simple_06_B_d.gif","","","","","6","simple_similar","images/stimuli/spore_stims/simple_06_B_d.gif","right","","","","",""
"","null","html-keyboard-response","128","392854","0.0-26.0-0.6","SS1613168433247","","","null","","","","","<p><img src= images/blank.png width =""200"" height = ""200"" style = ""float:right""></p><p><img src=images/blank.png width =""800"" height = ""200""></p>","","","","","","","","","","","",""
"","5007.774999976391","sequential-stimulus-presentation","129","398674","0.0-26.0-1.6","SS1613168433247","trial","","40","800","5807.774999976391","images/stimuli/spore_stims/simple_06_A_d.gif","images/stimuli/spore_stims/simple_06_B_d.gif","","","","","6","simple_similar","images/stimuli/spore_stims/simple_06_B_d.gif","right","","","","",""
"","null","html-keyboard-response","130","399913","0.0-26.0-0.7","SS1613168433247","","","null","","","","","<p><img src= images/blank.png width =""200"" height = ""200"" style = ""float:right""></p><p><img src=images/blank.png width =""800"" height = ""200""></p>","","","","","","","","","","","",""
"","1967.0599999953993","sequential-stimulus-presentation","131","402690","0.0-26.0-1.7","SS1613168433247","trial","","40","800","2767.0599999953993","images/stimuli/spore_stims/simple_06_A_d.gif","images/stimuli/spore_stims/simple_06_B_d.gif","","","","","6","simple_similar","images/stimuli/spore_stims/simple_06_B_d.gif","right","","","","",""
"","1697.1450000128243","html-keyboard-response","132","404396","0.0-27.0","SS1613168433247","pref_question","","49","","","","","<video width ='960' height = '540' style='padding-top:8%' autoplay muted><source src='images/stimuli/wall_pref.mp4' type='video/mp4'></video>","1","left","25%","6","","","","","","","",""
"","3583.8649999932386","sequential-stimulus-presentation","133","408826","0.0-28.0","SS1613168433247","pref_reveal","","40","800","4383.864999993239","null","null","","","","","6","","","","novel","","","",""
"","null","html-keyboard-response","134","409720","0.0-29.0-0.0","SS1613168433247","","","null","","","","","<p><img src= images/blank.png width =""200"" height = ""200"" style = ""float:right""></p><p><img src=images/blank.png width =""800"" height = ""200""></p>","","","","","","","","","","","",""
"","4311.520000017481","sequential-stimulus-presentation","135","414856","0.0-29.0-1.0","SS1613168433247","trial","","40","800","5111.520000017481","images/stimuli/spore_stims/complex_13_B_d.gif","images/stimuli/spore_stims/complex_13_A_d.gif","","","","","7","complex_similar","images/stimuli/spore_stims/complex_13_A_d.gif","middle","","","","",""
"","null","html-keyboard-response","136","416069","0.0-29.0-0.1","SS1613168433247","","","null","","","","","<p><img src= images/blank.png width =""200"" height = ""200"" style = ""float:right""></p><p><img src=images/blank.png width =""800"" height = ""200""></p>","","","","","","","","","","","",""
"","3658.159999991767","sequential-stimulus-presentation","137","420539","0.0-29.0-1.1","SS1613168433247","trial","","40","800","4458.159999991767","images/stimuli/spore_stims/complex_13_B_d.gif","images/stimuli/spore_stims/complex_13_A_d.gif","","","","","7","complex_similar","images/stimuli/spore_stims/complex_13_A_d.gif","middle","","","","",""
"","null","html-keyboard-response","138","421565","0.0-29.0-0.2","SS1613168433247","","","null","","","","","<p><img src= images/blank.png width =""200"" height = ""200"" style = ""float:right""></p><p><img src=images/blank.png width =""800"" height = ""200""></p>","","","","","","","","","","","",""
"","3758.559999987483","sequential-stimulus-presentation","139","426134","0.0-29.0-1.2","SS1613168433247","trial","","40","800","4558.559999987483","images/stimuli/spore_stims/complex_13_B_d.gif","images/stimuli/spore_stims/complex_13_A_d.gif","","","","","7","complex_similar","images/stimuli/spore_stims/complex_13_A_d.gif","middle","","","","",""
"","null","html-keyboard-response","140","427443","0.0-29.0-0.3","SS1613168433247","","","null","","","","","<p><img src= images/blank.png width =""200"" height = ""200"" style = ""float:right""></p><p><img src=images/blank.png width =""800"" height = ""200""></p>","","","","","","","","","","","",""
"","2219.6549999935087","sequential-stimulus-presentation","141","430497","0.0-29.0-1.3","SS1613168433247","trial","","40","800","3019.6549999935087","images/stimuli/spore_stims/complex_13_B_d.gif","images/stimuli/spore_stims/complex_13_A_d.gif","","","","","7","complex_similar","images/stimuli/spore_stims/complex_13_A_d.gif","middle","","","","",""
"","null","html-keyboard-response","142","431725","0.0-29.0-0.4","SS1613168433247","","","null","","","","","<p><img src= images/blank.png width =""200"" height = ""200"" style = ""float:right""></p><p><img src=images/blank.png width =""800"" height = ""200""></p>","","","","","","","","","","","",""
"","1844.104999996489","sequential-stimulus-presentation","143","434379","0.0-29.0-1.4","SS1613168433247","trial","","40","800","2644.104999996489","images/stimuli/spore_stims/complex_13_B_d.gif","images/stimuli/spore_stims/complex_13_A_d.gif","","","","","7","complex_similar","images/stimuli/spore_stims/complex_13_B_d.gif","right","","","","",""
"","null","html-keyboard-response","144","435214","0.0-29.0-0.5","SS1613168433247","","","null","","","","","<p><img src= images/blank.png width =""200"" height = ""200"" style = ""float:right""></p><p><img src=images/blank.png width =""800"" height = ""200""></p>","","","","","","","","","","","",""
"","2475.8250000013504","sequential-stimulus-presentation","145","438499","0.0-29.0-1.5","SS1613168433247","trial","","40","800","3275.8250000013504","images/stimuli/spore_stims/complex_13_B_d.gif","images/stimuli/spore_stims/complex_13_A_d.gif","","","","","7","complex_similar","images/stimuli/spore_stims/complex_13_A_d.gif","middle","","","","",""
"","null","html-keyboard-response","146","439778","0.0-29.0-0.6","SS1613168433247","","","null","","","","","<p><img src= images/blank.png width =""200"" height = ""200"" style = ""float:right""></p><p><img src=images/blank.png width =""800"" height = ""200""></p>","","","","","","","","","","","",""
"","2064.654999994673","sequential-stimulus-presentation","147","442677","0.0-29.0-1.6","SS1613168433247","trial","","40","800","2864.654999994673","images/stimuli/spore_stims/complex_13_B_d.gif","images/stimuli/spore_stims/complex_13_A_d.gif","","","","","7","complex_similar","images/stimuli/spore_stims/complex_13_A_d.gif","middle","","","","",""
"","null","html-keyboard-response","148","443614","0.0-29.0-0.7","SS1613168433247","","","null","","","","","<p><img src= images/blank.png width =""200"" height = ""200"" style = ""float:right""></p><p><img src=images/blank.png width =""800"" height = ""200""></p>","","","","","","","","","","","",""
"","2148.0049999954645","sequential-stimulus-presentation","149","446582","0.0-29.0-1.7","SS1613168433247","trial","","40","800","2948.0049999954645","images/stimuli/spore_stims/complex_13_B_d.gif","images/stimuli/spore_stims/complex_13_A_d.gif","","","","","7","complex_similar","images/stimuli/spore_stims/complex_13_A_d.gif","middle","","","","",""
"","2052.560000010999","html-keyboard-response","150","448641","0.0-30.0","SS1613168433247","pref_question","","51","","","","","<video width ='960' height = '540' style='padding-top:8%' autoplay muted><source src='images/stimuli/wall_pref.mp4' type='video/mp4'></video>","3","right","66%","7","","","","","","","",""
"","2348.375000001397","sequential-stimulus-presentation","151","451810","0.0-31.0","SS1613168433247","pref_reveal","","40","800","3148.375000001397","null","null","","","","","7","","","","deviant","","","",""
"","null","html-keyboard-response","152","452751","0.0-32.0-0.0","SS1613168433247","","","null","","","","","<p><img src= images/blank.png width =""200"" height = ""200"" style = ""float:right""></p><p><img src=images/blank.png width =""800"" height = ""200""></p>","","","","","","","","","","","",""
"","4752.009999996517","sequential-stimulus-presentation","153","458329","0.0-32.0-1.0","SS1613168433247","trial","","40","800","5552.009999996517","images/stimuli/spore_stims/complex_08_B_d.gif","images/stimuli/spore_stims/complex_16_A_d.gif","","","","","8","complex_dissimilar","images/stimuli/spore_stims/complex_16_A_d.gif","left","","","","",""
"","null","html-keyboard-response","154","459613","0.0-32.0-0.1","SS1613168433247","","","null","","","","","<p><img src= images/blank.png width =""200"" height = ""200"" style = ""float:right""></p><p><img src=images/blank.png width =""800"" height = ""200""></p>","","","","","","","","","","","",""
"","2508.049999974901","sequential-stimulus-presentation","155","462952","0.0-32.0-1.1","SS1613168433247","trial","","40","800","3308.049999974901","images/stimuli/spore_stims/complex_08_B_d.gif","images/stimuli/spore_stims/complex_16_A_d.gif","","","","","8","complex_dissimilar","images/stimuli/spore_stims/complex_16_A_d.gif","left","","","","",""
"","null","html-keyboard-response","156","463922","0.0-32.0-0.2","SS1613168433247","","","null","","","","","<p><img src= images/blank.png width =""200"" height = ""200"" style = ""float:right""></p><p><img src=images/blank.png width =""800"" height = ""200""></p>","","","","","","","","","","","",""
"","1684.0399999928195","sequential-stimulus-presentation","157","466419","0.0-32.0-1.2","SS1613168433247","trial","","40","800","2484.0399999928195","images/stimuli/spore_stims/complex_08_B_d.gif","images/stimuli/spore_stims/complex_16_A_d.gif","","","","","8","complex_dissimilar","images/stimuli/spore_stims/complex_16_A_d.gif","left","","","","",""
"","null","html-keyboard-response","158","467409","0.0-32.0-0.3","SS1613168433247","","","null","","","","","<p><img src= images/blank.png width =""200"" height = ""200"" style = ""float:right""></p><p><img src=images/blank.png width =""800"" height = ""200""></p>","","","","","","","","","","","",""
"","3610.339999984717","sequential-stimulus-presentation","159","471835","0.0-32.0-1.3","SS1613168433247","trial","","40","800","4410.339999984717","images/stimuli/spore_stims/complex_08_B_d.gif","images/stimuli/spore_stims/complex_16_A_d.gif","","","","","8","complex_dissimilar","images/stimuli/spore_stims/complex_08_B_d.gif","right","","","","",""
"","null","html-keyboard-response","160","472903","0.0-32.0-0.4","SS1613168433247","","","null","","","","","<p><img src= images/blank.png width =""200"" height = ""200"" style = ""float:right""></p><p><img src=images/blank.png width =""800"" height = ""200""></p>","","","","","","","","","","","",""
"","3623.0299999879207","sequential-stimulus-presentation","161","477352","0.0-32.0-1.4","SS1613168433247","trial","","40","800","4423.029999987921","images/stimuli/spore_stims/complex_08_B_d.gif","images/stimuli/spore_stims/complex_16_A_d.gif","","","","","8","complex_dissimilar","images/stimuli/spore_stims/complex_16_A_d.gif","left","","","","",""
"","null","html-keyboard-response","162","478458","0.0-32.0-0.5","SS1613168433247","","","null","","","","","<p><img src= images/blank.png width =""200"" height = ""200"" style = ""float:right""></p><p><img src=images/blank.png width =""800"" height = ""200""></p>","","","","","","","","","","","",""
"","3134.330000000773","sequential-stimulus-presentation","163","482409","0.0-32.0-1.5","SS1613168433247","trial","","40","800","3934.330000000773","images/stimuli/spore_stims/complex_08_B_d.gif","images/stimuli/spore_stims/complex_16_A_d.gif","","","","","8","complex_dissimilar","images/stimuli/spore_stims/complex_16_A_d.gif","left","","","","",""
"","null","html-keyboard-response","164","483706","0.0-32.0-0.6","SS1613168433247","","","null","","","","","<p><img src= images/blank.png width =""200"" height = ""200"" style = ""float:right""></p><p><img src=images/blank.png width =""800"" height = ""200""></p>","","","","","","","","","","","",""
"","1913.2800000079442","sequential-stimulus-presentation","165","486443","0.0-32.0-1.6","SS1613168433247","trial","","40","800","2713.280000007944","images/stimuli/spore_stims/complex_08_B_d.gif","images/stimuli/spore_stims/complex_16_A_d.gif","","","","","8","complex_dissimilar","images/stimuli/spore_stims/complex_16_A_d.gif","left","","","","",""
"","null","html-keyboard-response","166","487388","0.0-32.0-0.7","SS1613168433247","","","null","","","","","<p><img src= images/blank.png width =""200"" height = ""200"" style = ""float:right""></p><p><img src=images/blank.png width =""800"" height = ""200""></p>","","","","","","","","","","","",""
"","2727.0950000092853","sequential-stimulus-presentation","167","490930","0.0-32.0-1.7","SS1613168433247","trial","","40","800","3527.0950000092853","images/stimuli/spore_stims/complex_08_B_d.gif","images/stimuli/spore_stims/complex_16_A_d.gif","","","","","8","complex_dissimilar","images/stimuli/spore_stims/complex_16_A_d.gif","left","","","","",""
"","1595.9849999926519","html-keyboard-response","168","492538","0.0-33.0","SS1613168433247","pref_question","","50","","","","","<video width ='960' height = '540' style='padding-top:8%' autoplay muted><source src='images/stimuli/wall_pref.mp4' type='video/mp4'></video>","2","middle","45%","8","","","","","","","",""
"","3693.3050000225194","sequential-stimulus-presentation","169","497051","0.0-34.0","SS1613168433247","pref_reveal","","40","800","4493.305000022519","null","null","","","","","8","","","","novel","","","",""
"","null","html-keyboard-response","170","498260","0.0-35.0-0.0","SS1613168433247","","","null","","","","","<p><img src= images/blank.png width =""200"" height = ""200"" style = ""float:right""></p><p><img src=images/blank.png width =""800"" height = ""200""></p>","","","","","","","","","","","",""
"","3777.31499998481","sequential-stimulus-presentation","171","502874","0.0-35.0-1.0","SS1613168433247","trial","","40","800","4577.31499998481","images/stimuli/spore_stims/simple_19_B_c.gif","images/stimuli/spore_stims/simple_03_A_a.gif","","","","","9","simple_dissimilar","images/stimuli/spore_stims/simple_03_A_a.gif","right","","","","",""
"","null","html-keyboard-response","172","503709","0.0-35.0-0.1","SS1613168433247","","","null","","","","","<p><img src= images/blank.png width =""200"" height = ""200"" style = ""float:right""></p><p><img src=images/blank.png width =""800"" height = ""200""></p>","","","","","","","","","","","",""
"","1731.869999988703","sequential-stimulus-presentation","173","506265","0.0-35.0-1.1","SS1613168433247","trial","","40","800","2531.869999988703","images/stimuli/spore_stims/simple_19_B_c.gif","images/stimuli/spore_stims/simple_03_A_a.gif","","","","","9","simple_dissimilar","images/stimuli/spore_stims/simple_03_A_a.gif","right","","","","",""
"","null","html-keyboard-response","174","507354","0.0-35.0-0.2","SS1613168433247","","","null","","","","","<p><img src= images/blank.png width =""200"" height = ""200"" style = ""float:right""></p><p><img src=images/blank.png width =""800"" height = ""200""></p>","","","","","","","","","","","",""
"","1853.7799999758136","sequential-stimulus-presentation","175","510047","0.0-35.0-1.2","SS1613168433247","trial","","40","800","2653.7799999758136","images/stimuli/spore_stims/simple_19_B_c.gif","images/stimuli/spore_stims/simple_03_A_a.gif","","","","","9","simple_dissimilar","images/stimuli/spore_stims/simple_03_A_a.gif","right","","","","",""
"","null","html-keyboard-response","176","510981","0.0-35.0-0.3","SS1613168433247","","","null","","","","","<p><img src= images/blank.png width =""200"" height = ""200"" style = ""float:right""></p><p><img src=images/blank.png width =""800"" height = ""200""></p>","","","","","","","","","","","",""
"","1911.7050000058953","sequential-stimulus-presentation","177","513711","0.0-35.0-1.3","SS1613168433247","trial","","40","800","2711.7050000058953","images/stimuli/spore_stims/simple_19_B_c.gif","images/stimuli/spore_stims/simple_03_A_a.gif","","","","","9","simple_dissimilar","images/stimuli/spore_stims/simple_03_A_a.gif","right","","","","",""
"","null","html-keyboard-response","178","514907","0.0-35.0-0.4","SS1613168433247","","","null","","","","","<p><img src= images/blank.png width =""200"" height = ""200"" style = ""float:right""></p><p><img src=images/blank.png width =""800"" height = ""200""></p>","","","","","","","","","","","",""
"","3298.509999993257","sequential-stimulus-presentation","179","519024","0.0-35.0-1.4","SS1613168433247","trial","","40","800","4098.509999993257","images/stimuli/spore_stims/simple_19_B_c.gif","images/stimuli/spore_stims/simple_03_A_a.gif","","","","","9","simple_dissimilar","images/stimuli/spore_stims/simple_19_B_c.gif","left","","","","",""
"","null","html-keyboard-response","180","519909","0.0-35.0-0.5","SS1613168433247","","","null","","","","","<p><img src= images/blank.png width =""200"" height = ""200"" style = ""float:right""></p><p><img src=images/blank.png width =""800"" height = ""200""></p>","","","","","","","","","","","",""
"","4074.605000001611","sequential-stimulus-presentation","181","524808","0.0-35.0-1.5","SS1613168433247","trial","","40","800","4874.605000001611","images/stimuli/spore_stims/simple_19_B_c.gif","images/stimuli/spore_stims/simple_03_A_a.gif","","","","","9","simple_dissimilar","images/stimuli/spore_stims/simple_03_A_a.gif","right","","","","",""
"","null","html-keyboard-response","182","525719","0.0-35.0-0.6","SS1613168433247","","","null","","","","","<p><img src= images/blank.png width =""200"" height = ""200"" style = ""float:right""></p><p><img src=images/blank.png width =""800"" height = ""200""></p>","","","","","","","","","","","",""
"","2443.2549999910407","sequential-stimulus-presentation","183","528972","0.0-35.0-1.6","SS1613168433247","trial","","40","800","3243.2549999910407","images/stimuli/spore_stims/simple_19_B_c.gif","images/stimuli/spore_stims/simple_03_A_a.gif","","","","","9","simple_dissimilar","images/stimuli/spore_stims/simple_03_A_a.gif","right","","","","",""
"","null","html-keyboard-response","184","530245","0.0-35.0-0.7","SS1613168433247","","","null","","","","","<p><img src= images/blank.png width =""200"" height = ""200"" style = ""float:right""></p><p><img src=images/blank.png width =""800"" height = ""200""></p>","","","","","","","","","","","",""
"","1826.5900000114925","sequential-stimulus-presentation","185","532882","0.0-35.0-1.7","SS1613168433247","trial","","40","800","2626.5900000114925","images/stimuli/spore_stims/simple_19_B_c.gif","images/stimuli/spore_stims/simple_03_A_a.gif","","","","","9","simple_dissimilar","images/stimuli/spore_stims/simple_03_A_a.gif","right","","","","",""
"","1390.0250000006054","html-keyboard-response","186","534286","0.0-36.0","SS1613168433247","pref_question","","49","","","","","<video width ='960' height = '540' style='padding-top:8%' autoplay muted><source src='images/stimuli/wall_pref.mp4' type='video/mp4'></video>","1","left","25%","9","","","","","","","",""
"","3248.2749999908265","sequential-stimulus-presentation","187","538365","0.0-37.0","SS1613168433247","pref_reveal","","40","800","4048.2749999908265","null","null","","","","","9","","","","deviant","","","",""
"","null","html-keyboard-response","188","539272","0.0-38.0-0.0","SS1613168433247","","","null","","","","","<p><img src= images/blank.png width =""200"" height = ""200"" style = ""float:right""></p><p><img src=images/blank.png width =""800"" height = ""200""></p>","","","","","","","","","","","",""
"","2673.320000001695","sequential-stimulus-presentation","189","542787","0.0-38.0-1.0","SS1613168433247","trial","","40","800","3473.320000001695","images/stimuli/spore_stims/simple_02_A_c.gif","images/stimuli/spore_stims/simple_02_B_c.gif","","","","","10","simple_similar","images/stimuli/spore_stims/simple_02_B_c.gif","right","","","","",""
"","null","html-keyboard-response","190","543692","0.0-38.0-0.1","SS1613168433247","","","null","","","","","<p><img src= images/blank.png width =""200"" height = ""200"" style = ""float:right""></p><p><img src=images/blank.png width =""800"" height = ""200""></p>","","","","","","","","","","","",""
"","542.8400000091642","sequential-stimulus-presentation","191","545053","0.0-38.0-1.1","SS1613168433247","trial","","40","800","1342.8400000091642","images/stimuli/spore_stims/simple_02_A_c.gif","images/stimuli/spore_stims/simple_02_B_c.gif","","","","","10","simple_similar","images/stimuli/spore_stims/simple_02_B_c.gif","right","","","","",""
"","null","html-keyboard-response","192","546106","0.0-38.0-0.2","SS1613168433247","","","null","","","","","<p><img src= images/blank.png width =""200"" height = ""200"" style = ""float:right""></p><p><img src=images/blank.png width =""800"" height = ""200""></p>","","","","","","","","","","","",""
"","1553.010000003269","sequential-stimulus-presentation","193","548489","0.0-38.0-1.2","SS1613168433247","trial","","40","800","2353.010000003269","images/stimuli/spore_stims/simple_02_A_c.gif","images/stimuli/spore_stims/simple_02_B_c.gif","","","","","10","simple_similar","images/stimuli/spore_stims/simple_02_B_c.gif","right","","","","",""
"","null","html-keyboard-response","194","549732","0.0-38.0-0.3","SS1613168433247","","","null","","","","","<p><img src= images/blank.png width =""200"" height = ""200"" style = ""float:right""></p><p><img src=images/blank.png width =""800"" height = ""200""></p>","","","","","","","","","","","",""
"","1509.0700000000652","sequential-stimulus-presentation","195","552055","0.0-38.0-1.3","SS1613168433247","trial","","40","800","2309.070000000065","images/stimuli/spore_stims/simple_02_A_c.gif","images/stimuli/spore_stims/simple_02_B_c.gif","","","","","10","simple_similar","images/stimuli/spore_stims/simple_02_B_c.gif","right","","","","",""
"","null","html-keyboard-response","196","553171","0.0-38.0-0.4","SS1613168433247","","","null","","","","","<p><img src= images/blank.png width =""200"" height = ""200"" style = ""float:right""></p><p><img src=images/blank.png width =""800"" height = ""200""></p>","","","","","","","","","","","",""
"","1541.300000011688","sequential-stimulus-presentation","197","555523","0.0-38.0-1.4","SS1613168433247","trial","","40","800","2341.300000011688","images/stimuli/spore_stims/simple_02_A_c.gif","images/stimuli/spore_stims/simple_02_B_c.gif","","","","","10","simple_similar","images/stimuli/spore_stims/simple_02_B_c.gif","right","","","","",""
"","null","html-keyboard-response","198","556676","0.0-38.0-0.5","SS1613168433247","","","null","","","","","<p><img src= images/blank.png width =""200"" height = ""200"" style = ""float:right""></p><p><img src=images/blank.png width =""800"" height = ""200""></p>","","","","","","","","","","","",""
"","2950.215000018943","sequential-stimulus-presentation","199","560452","0.0-38.0-1.5","SS1613168433247","trial","","40","800","3750.215000018943","images/stimuli/spore_stims/simple_02_A_c.gif","images/stimuli/spore_stims/simple_02_B_c.gif","","","","","10","simple_similar","images/stimuli/spore_stims/simple_02_A_c.gif","middle","","","","",""
"","null","html-keyboard-response","200","561564","0.0-38.0-0.6","SS1613168433247","","","null","","","","","<p><img src= images/blank.png width =""200"" height = ""200"" style = ""float:right""></p><p><img src=images/blank.png width =""800"" height = ""200""></p>","","","","","","","","","","","",""
"","1192.719999991823","sequential-stimulus-presentation","201","563571","0.0-38.0-1.6","SS1613168433247","trial","","40","800","1992.719999991823","images/stimuli/spore_stims/simple_02_A_c.gif","images/stimuli/spore_stims/simple_02_B_c.gif","","","","","10","simple_similar","images/stimuli/spore_stims/simple_02_B_c.gif","right","","","","",""
"","null","html-keyboard-response","202","564628","0.0-38.0-0.7","SS1613168433247","","","null","","","","","<p><img src= images/blank.png width =""200"" height = ""200"" style = ""float:right""></p><p><img src=images/blank.png width =""800"" height = ""200""></p>","","","","","","","","","","","",""
"","1020.3999999794178","sequential-stimulus-presentation","203","566482","0.0-38.0-1.7","SS1613168433247","trial","","40","800","1820.3999999794178","images/stimuli/spore_stims/simple_02_A_c.gif","images/stimuli/spore_stims/simple_02_B_c.gif","","","","","10","simple_similar","images/stimuli/spore_stims/simple_02_B_c.gif","right","","","","",""
"","1693.6600000190083","html-keyboard-response","204","568192","0.0-39.0","SS1613168433247","pref_question","","50","","","","","<video width ='960' height = '540' style='padding-top:8%' autoplay muted><source src='images/stimuli/wall_pref.mp4' type='video/mp4'></video>","2","middle","45%","10","","","","","","","",""
"","2011.4049999974668","sequential-stimulus-presentation","205","571027","0.0-40.0","SS1613168433247","pref_reveal","","40","800","2811.404999997467","null","null","","","","","10","","","","deviant","","","",""
"","null","html-keyboard-response","206","572298","0.0-41.0-0.0","SS1613168433247","","","null","","","","","<p><img src= images/blank.png width =""200"" height = ""200"" style = ""float:right""></p><p><img src=images/blank.png width =""800"" height = ""200""></p>","","","","","","","","","","","",""
"","4256.760000018403","sequential-stimulus-presentation","207","577370","0.0-41.0-1.0","SS1613168433247","trial","","40","800","5056.760000018403","images/stimuli/spore_stims/simple_09_A_c.gif","images/stimuli/spore_stims/simple_09_B_d.gif","","","","","11","simple_dissimilar","images/stimuli/spore_stims/simple_09_B_d.gif","right","","","","",""
"","null","html-keyboard-response","208","578356","0.0-41.0-0.1","SS1613168433247","","","null","","","","","<p><img src= images/blank.png width =""200"" height = ""200"" style = ""float:right""></p><p><img src=images/blank.png width =""800"" height = ""200""></p>","","","","","","","","","","","",""
"","1156.5600000030827","sequential-stimulus-presentation","209","580352","0.0-41.0-1.1","SS1613168433247","trial","","40","800","1956.5600000030827","images/stimuli/spore_stims/simple_09_A_c.gif","images/stimuli/spore_stims/simple_09_B_d.gif","","","","","11","simple_dissimilar","images/stimuli/spore_stims/simple_09_B_d.gif","right","","","","",""
"","null","html-keyboard-response","210","581328","0.0-41.0-0.2","SS1613168433247","","","null","","","","","<p><img src= images/blank.png width =""200"" height = ""200"" style = ""float:right""></p><p><img src=images/blank.png width =""800"" height = ""200""></p>","","","","","","","","","","","",""
"","1612.0050000026822","sequential-stimulus-presentation","211","583766","0.0-41.0-1.2","SS1613168433247","trial","","40","800","2412.005000002682","images/stimuli/spore_stims/simple_09_A_c.gif","images/stimuli/spore_stims/simple_09_B_d.gif","","","","","11","simple_dissimilar","images/stimuli/spore_stims/simple_09_B_d.gif","right","","","","",""
"","null","html-keyboard-response","212","584830","0.0-41.0-0.3","SS1613168433247","","","null","","","","","<p><img src= images/blank.png width =""200"" height = ""200"" style = ""float:right""></p><p><img src=images/blank.png width =""800"" height = ""200""></p>","","","","","","","","","","","",""
"","1603.31999999471","sequential-stimulus-presentation","213","587263","0.0-41.0-1.3","SS1613168433247","trial","","40","800","2403.31999999471","images/stimuli/spore_stims/simple_09_A_c.gif","images/stimuli/spore_stims/simple_09_B_d.gif","","","","","11","simple_dissimilar","images/stimuli/spore_stims/simple_09_B_d.gif","right","","","","",""
"","null","html-keyboard-response","214","588157","0.0-41.0-0.4","SS1613168433247","","","null","","","","","<p><img src= images/blank.png width =""200"" height = ""200"" style = ""float:right""></p><p><img src=images/blank.png width =""800"" height = ""200""></p>","","","","","","","","","","","",""
"","1748.2599999930244","sequential-stimulus-presentation","215","590720","0.0-41.0-1.4","SS1613168433247","trial","","40","800","2548.2599999930244","images/stimuli/spore_stims/simple_09_A_c.gif","images/stimuli/spore_stims/simple_09_B_d.gif","","","","","11","simple_dissimilar","images/stimuli/spore_stims/simple_09_B_d.gif","right","","","","",""
"","null","html-keyboard-response","216","591743","0.0-41.0-0.5","SS1613168433247","","","null","","","","","<p><img src= images/blank.png width =""200"" height = ""200"" style = ""float:right""></p><p><img src=images/blank.png width =""800"" height = ""200""></p>","","","","","","","","","","","",""
"","1831.7049999895971","sequential-stimulus-presentation","217","594392","0.0-41.0-1.5","SS1613168433247","trial","","40","800","2631.704999989597","images/stimuli/spore_stims/simple_09_A_c.gif","images/stimuli/spore_stims/simple_09_B_d.gif","","","","","11","simple_dissimilar","images/stimuli/spore_stims/simple_09_B_d.gif","right","","","","",""
"","null","html-keyboard-response","218","595562","0.0-41.0-0.6","SS1613168433247","","","null","","","","","<p><img src= images/blank.png width =""200"" height = ""200"" style = ""float:right""></p><p><img src=images/blank.png width =""800"" height = ""200""></p>","","","","","","","","","","","",""
"","1943.5299999895506","sequential-stimulus-presentation","219","598328","0.0-41.0-1.6","SS1613168433247","trial","","40","800","2743.5299999895506","images/stimuli/spore_stims/simple_09_A_c.gif","images/stimuli/spore_stims/simple_09_B_d.gif","","","","","11","simple_dissimilar","images/stimuli/spore_stims/simple_09_B_d.gif","right","","","","",""
"","null","html-keyboard-response","220","599407","0.0-41.0-0.7","SS1613168433247","","","null","","","","","<p><img src= images/blank.png width =""200"" height = ""200"" style = ""float:right""></p><p><img src=images/blank.png width =""800"" height = ""200""></p>","","","","","","","","","","","",""
"","3070.2950000122655","sequential-stimulus-presentation","221","603292","0.0-41.0-1.7","SS1613168433247","trial","","40","800","3870.2950000122655","images/stimuli/spore_stims/simple_09_A_c.gif","images/stimuli/spore_stims/simple_09_B_d.gif","","","","","11","simple_dissimilar","images/stimuli/spore_stims/simple_09_A_c.gif","middle","","","","",""
"","1534.5650000090245","html-keyboard-response","222","604843","0.0-42.0","SS1613168433247","pref_question","","49","","","","","<video width ='960' height = '540' style='padding-top:8%' autoplay muted><source src='images/stimuli/wall_pref.mp4' type='video/mp4'></video>","1","left","25%","11","","","","","","","",""
"","3719.329999992624","sequential-stimulus-presentation","223","609392","0.0-43.0","SS1613168433247","pref_reveal","","40","800","4519.329999992624","null","null","","","","","11","","","","novel","","","",""
"","null","html-keyboard-response","224","610327","0.0-44.0-0.0","SS1613168433247","","","null","","","","","<p><img src= images/blank.png width =""200"" height = ""200"" style = ""float:right""></p><p><img src=images/blank.png width =""800"" height = ""200""></p>","","","","","","","","","","","",""
"","1654.4949999952223","sequential-stimulus-presentation","225","612815","0.0-44.0-1.0","SS1613168433247","trial","","40","800","2454.4949999952223","images/stimuli/spore_stims/simple_11_A_b.gif","images/stimuli/spore_stims/simple_04_A_d.gif","","","","","12","simple_dissimilar","images/stimuli/spore_stims/simple_04_A_d.gif","right","","","","",""
"","null","html-keyboard-response","226","613644","0.0-44.0-0.1","SS1613168433247","","","null","","","","","<p><img src= images/blank.png width =""200"" height = ""200"" style = ""float:right""></p><p><img src=images/blank.png width =""800"" height = ""200""></p>","","","","","","","","","","","",""
"","1468.4499999857508","sequential-stimulus-presentation","227","615940","0.0-44.0-1.1","SS1613168433247","trial","","40","800","2268.4499999857508","images/stimuli/spore_stims/simple_11_A_b.gif","images/stimuli/spore_stims/simple_04_A_d.gif","","","","","12","simple_dissimilar","images/stimuli/spore_stims/simple_04_A_d.gif","right","","","","",""
"","null","html-keyboard-response","228","616871","0.0-44.0-0.2","SS1613168433247","","","null","","","","","<p><img src= images/blank.png width =""200"" height = ""200"" style = ""float:right""></p><p><img src=images/blank.png width =""800"" height = ""200""></p>","","","","","","","","","","","",""
"","1306.045000004815","sequential-stimulus-presentation","229","619006","0.0-44.0-1.2","SS1613168433247","trial","","40","800","2106.045000004815","images/stimuli/spore_stims/simple_11_A_b.gif","images/stimuli/spore_stims/simple_04_A_d.gif","","","","","12","simple_dissimilar","images/stimuli/spore_stims/simple_04_A_d.gif","right","","","","",""
"","null","html-keyboard-response","230","620274","0.0-44.0-0.3","SS1613168433247","","","null","","","","","<p><img src= images/blank.png width =""200"" height = ""200"" style = ""float:right""></p><p><img src=images/blank.png width =""800"" height = ""200""></p>","","","","","","","","","","","",""
"","1257.499999977881","sequential-stimulus-presentation","231","622375","0.0-44.0-1.3","SS1613168433247","trial","","40","800","2057.499999977881","images/stimuli/spore_stims/simple_11_A_b.gif","images/stimuli/spore_stims/simple_04_A_d.gif","","","","","12","simple_dissimilar","images/stimuli/spore_stims/simple_11_A_b.gif","left","","","","",""
"","null","html-keyboard-response","232","623477","0.0-44.0-0.4","SS1613168433247","","","null","","","","","<p><img src= images/blank.png width =""200"" height = ""200"" style = ""float:right""></p><p><img src=images/blank.png width =""800"" height = ""200""></p>","","","","","","","","","","","",""
"","1330.8650000253692","sequential-stimulus-presentation","233","625639","0.0-44.0-1.4","SS1613168433247","trial","","40","800","2130.865000025369","images/stimuli/spore_stims/simple_11_A_b.gif","images/stimuli/spore_stims/simple_04_A_d.gif","","","","","12","simple_dissimilar","images/stimuli/spore_stims/simple_04_A_d.gif","right","","","","",""
"","null","html-keyboard-response","234","626933","0.0-44.0-0.5","SS1613168433247","","","null","","","","","<p><img src= images/blank.png width =""200"" height = ""200"" style = ""float:right""></p><p><img src=images/blank.png width =""800"" height = ""200""></p>","","","","","","","","","","","",""
"","837.1799999731593","sequential-stimulus-presentation","235","628588","0.0-44.0-1.5","SS1613168433247","trial","","40","800","1637.1799999731593","images/stimuli/spore_stims/simple_11_A_b.gif","images/stimuli/spore_stims/simple_04_A_d.gif","","","","","12","simple_dissimilar","images/stimuli/spore_stims/simple_04_A_d.gif","right","","","","",""
"","null","html-keyboard-response","236","629799","0.0-44.0-0.6","SS1613168433247","","","null","","","","","<p><img src= images/blank.png width =""200"" height = ""200"" style = ""float:right""></p><p><img src=images/blank.png width =""800"" height = ""200""></p>","","","","","","","","","","","",""
"","858.4099999861792","sequential-stimulus-presentation","237","631470","0.0-44.0-1.6","SS1613168433247","trial","","40","800","1658.4099999861792","images/stimuli/spore_stims/simple_11_A_b.gif","images/stimuli/spore_stims/simple_04_A_d.gif","","","","","12","simple_dissimilar","images/stimuli/spore_stims/simple_04_A_d.gif","right","","","","",""
"","null","html-keyboard-response","238","632441","0.0-44.0-0.7","SS1613168433247","","","null","","","","","<p><img src= images/blank.png width =""200"" height = ""200"" style = ""float:right""></p><p><img src=images/blank.png width =""800"" height = ""200""></p>","","","","","","","","","","","",""
"","865.3850000118837","sequential-stimulus-presentation","239","634116","0.0-44.0-1.7","SS1613168433247","trial","","40","800","1665.3850000118837","images/stimuli/spore_stims/simple_11_A_b.gif","images/stimuli/spore_stims/simple_04_A_d.gif","","","","","12","simple_dissimilar","images/stimuli/spore_stims/simple_04_A_d.gif","right","","","","",""
"","1483.505000011064","html-keyboard-response","240","635608","0.0-45.0","SS1613168433247","pref_question","","50","","","","","<video width ='960' height = '540' style='padding-top:8%' autoplay muted><source src='images/stimuli/wall_pref.mp4' type='video/mp4'></video>","2","middle","45%","12","","","","","","","",""
"","2358.299999992596","sequential-stimulus-presentation","241","638802","0.0-46.0","SS1613168433247","pref_reveal","","40","800","3158.299999992596","null","null","","","","","12","","","","novel","","","",""
"","null","html-keyboard-response","242","640045","0.0-47.0-0.0","SS1613168433247","","","null","","","","","<p><img src= images/blank.png width =""200"" height = ""200"" style = ""float:right""></p><p><img src=images/blank.png width =""800"" height = ""200""></p>","","","","","","","","","","","",""
"","2080.3549999836832","sequential-stimulus-presentation","243","642959","0.0-47.0-1.0","SS1613168433247","trial","","40","800","2880.3549999836832","images/stimuli/spore_stims/complex_20_A_b.gif","images/stimuli/spore_stims/complex_14_B_d.gif","","","","","13","complex_dissimilar","images/stimuli/spore_stims/complex_14_B_d.gif","middle","","","","",""
"","null","html-keyboard-response","244","644102","0.0-47.0-0.1","SS1613168433247","","","null","","","","","<p><img src= images/blank.png width =""200"" height = ""200"" style = ""float:right""></p><p><img src=images/blank.png width =""800"" height = ""200""></p>","","","","","","","","","","","",""
"","1126.155000005383","sequential-stimulus-presentation","245","646054","0.0-47.0-1.1","SS1613168433247","trial","","40","800","1926.155000005383","images/stimuli/spore_stims/complex_20_A_b.gif","images/stimuli/spore_stims/complex_14_B_d.gif","","","","","13","complex_dissimilar","images/stimuli/spore_stims/complex_14_B_d.gif","middle","","","","",""
"","null","html-keyboard-response","246","647301","0.0-47.0-0.2","SS1613168433247","","","null","","","","","<p><img src= images/blank.png width =""200"" height = ""200"" style = ""float:right""></p><p><img src=images/blank.png width =""800"" height = ""200""></p>","","","","","","","","","","","",""
"","1228.304999996908","sequential-stimulus-presentation","247","649359","0.0-47.0-1.2","SS1613168433247","trial","","40","800","2028.304999996908","images/stimuli/spore_stims/complex_20_A_b.gif","images/stimuli/spore_stims/complex_14_B_d.gif","","","","","13","complex_dissimilar","images/stimuli/spore_stims/complex_14_B_d.gif","middle","","","","",""
"","null","html-keyboard-response","248","650235","0.0-47.0-0.3","SS1613168433247","","","null","","","","","<p><img src= images/blank.png width =""200"" height = ""200"" style = ""float:right""></p><p><img src=images/blank.png width =""800"" height = ""200""></p>","","","","","","","","","","","",""
"","1061.7349999956787","sequential-stimulus-presentation","249","652120","0.0-47.0-1.3","SS1613168433247","trial","","40","800","1861.7349999956787","images/stimuli/spore_stims/complex_20_A_b.gif","images/stimuli/spore_stims/complex_14_B_d.gif","","","","","13","complex_dissimilar","images/stimuli/spore_stims/complex_14_B_d.gif","middle","","","","",""
"","null","html-keyboard-response","250","653034","0.0-47.0-0.4","SS1613168433247","","","null","","","","","<p><img src= images/blank.png width =""200"" height = ""200"" style = ""float:right""></p><p><img src=images/blank.png width =""800"" height = ""200""></p>","","","","","","","","","","","",""
"","775.324999995064","sequential-stimulus-presentation","251","654629","0.0-47.0-1.4","SS1613168433247","trial","","40","800","1575.324999995064","images/stimuli/spore_stims/complex_20_A_b.gif","images/stimuli/spore_stims/complex_14_B_d.gif","","","","","13","complex_dissimilar","images/stimuli/spore_stims/complex_14_B_d.gif","middle","","","","",""
"","null","html-keyboard-response","252","655879","0.0-47.0-0.5","SS1613168433247","","","null","","","","","<p><img src= images/blank.png width =""200"" height = ""200"" style = ""float:right""></p><p><img src=images/blank.png width =""800"" height = ""200""></p>","","","","","","","","","","","",""
"","1012.6900000032037","sequential-stimulus-presentation","253","657719","0.0-47.0-1.5","SS1613168433247","trial","","40","800","1812.6900000032037","images/stimuli/spore_stims/complex_20_A_b.gif","images/stimuli/spore_stims/complex_14_B_d.gif","","","","","13","complex_dissimilar","images/stimuli/spore_stims/complex_14_B_d.gif","middle","","","","",""
"","null","html-keyboard-response","254","658806","0.0-47.0-0.6","SS1613168433247","","","null","","","","","<p><img src= images/blank.png width =""200"" height = ""200"" style = ""float:right""></p><p><img src=images/blank.png width =""800"" height = ""200""></p>","","","","","","","","","","","",""
"","933.3349999797065","sequential-stimulus-presentation","255","660548","0.0-47.0-1.6","SS1613168433247","trial","","40","800","1733.3349999797065","images/stimuli/spore_stims/complex_20_A_b.gif","images/stimuli/spore_stims/complex_14_B_d.gif","","","","","13","complex_dissimilar","images/stimuli/spore_stims/complex_14_B_d.gif","middle","","","","",""
"","null","html-keyboard-response","256","661813","0.0-47.0-0.7","SS1613168433247","","","null","","","","","<p><img src= images/blank.png width =""200"" height = ""200"" style = ""float:right""></p><p><img src=images/blank.png width =""800"" height = ""200""></p>","","","","","","","","","","","",""
"","2730.5449999985285","sequential-stimulus-presentation","257","665362","0.0-47.0-1.7","SS1613168433247","trial","","40","800","3530.5449999985285","images/stimuli/spore_stims/complex_20_A_b.gif","images/stimuli/spore_stims/complex_14_B_d.gif","","","","","13","complex_dissimilar","images/stimuli/spore_stims/complex_20_A_b.gif","right","","","","",""
"","1218.2449999963865","html-keyboard-response","258","666589","0.0-48.0","SS1613168433247","pref_question","","49","","","","","<video width ='960' height = '540' style='padding-top:8%' autoplay muted><source src='images/stimuli/wall_pref.mp4' type='video/mp4'></video>","1","left","25%","13","","","","","","","",""
"","2385.9099999826867","sequential-stimulus-presentation","259","669796","0.0-49.0","SS1613168433247","pref_reveal","","40","800","3185.9099999826867","null","null","","","","","13","","","","novel","","","",""
"","null","html-keyboard-response","260","670727","0.0-50.0-0.0","SS1613168433247","","","null","","","","","<p><img src= images/blank.png width =""200"" height = ""200"" style = ""float:right""></p><p><img src=images/blank.png width =""800"" height = ""200""></p>","","","","","","","","","","","",""
"","3090.104999981122","sequential-stimulus-presentation","261","674634","0.0-50.0-1.0","SS1613168433247","trial","","40","800","3890.104999981122","images/stimuli/spore_stims/complex_02_B_b.gif","images/stimuli/spore_stims/complex_02_A_b.gif","","","","","14","complex_similar","images/stimuli/spore_stims/complex_02_A_b.gif","middle","","","","",""
"","null","html-keyboard-response","262","675688","0.0-50.0-0.1","SS1613168433247","","","null","","","","","<p><img src= images/blank.png width =""200"" height = ""200"" style = ""float:right""></p><p><img src=images/blank.png width =""800"" height = ""200""></p>","","","","","","","","","","","",""
"","1171.0350000066683","sequential-stimulus-presentation","263","677692","0.0-50.0-1.1","SS1613168433247","trial","","40","800","1971.0350000066683","images/stimuli/spore_stims/complex_02_B_b.gif","images/stimuli/spore_stims/complex_02_A_b.gif","","","","","14","complex_similar","images/stimuli/spore_stims/complex_02_A_b.gif","middle","","","","",""
"","null","html-keyboard-response","264","678790","0.0-50.0-0.2","SS1613168433247","","","null","","","","","<p><img src= images/blank.png width =""200"" height = ""200"" style = ""float:right""></p><p><img src=images/blank.png width =""800"" height = ""200""></p>","","","","","","","","","","","",""
"","689.024999999674","sequential-stimulus-presentation","265","680312","0.0-50.0-1.2","SS1613168433247","trial","","40","800","1489.024999999674","images/stimuli/spore_stims/complex_02_B_b.gif","images/stimuli/spore_stims/complex_02_A_b.gif","","","","","14","complex_similar","images/stimuli/spore_stims/complex_02_A_b.gif","middle","","","","",""
"","null","html-keyboard-response","266","681168","0.0-50.0-0.3","SS1613168433247","","","null","","","","","<p><img src= images/blank.png width =""200"" height = ""200"" style = ""float:right""></p><p><img src=images/blank.png width =""800"" height = ""200""></p>","","","","","","","","","","","",""
"","905.8249999943655","sequential-stimulus-presentation","267","682919","0.0-50.0-1.3","SS1613168433247","trial","","40","800","1705.8249999943655","images/stimuli/spore_stims/complex_02_B_b.gif","images/stimuli/spore_stims/complex_02_A_b.gif","","","","","14","complex_similar","images/stimuli/spore_stims/complex_02_A_b.gif","middle","","","","",""
"","null","html-keyboard-response","268","683776","0.0-50.0-0.4","SS1613168433247","","","null","","","","","<p><img src= images/blank.png width =""200"" height = ""200"" style = ""float:right""></p><p><img src=images/blank.png width =""800"" height = ""200""></p>","","","","","","","","","","","",""
"","1410.6150000006892","sequential-stimulus-presentation","269","685999","0.0-50.0-1.4","SS1613168433247","trial","","40","800","2210.615000000689","images/stimuli/spore_stims/complex_02_B_b.gif","images/stimuli/spore_stims/complex_02_A_b.gif","","","","","14","complex_similar","images/stimuli/spore_stims/complex_02_A_b.gif","middle","","","","",""
"","null","html-keyboard-response","270","687208","0.0-50.0-0.5","SS1613168433247","","","null","","","","","<p><img src= images/blank.png width =""200"" height = ""200"" style = ""float:right""></p><p><img src=images/blank.png width =""800"" height = ""200""></p>","","","","","","","","","","","",""
"","950.8199999982025","sequential-stimulus-presentation","271","688983","0.0-50.0-1.5","SS1613168433247","trial","","40","800","1750.8199999982025","images/stimuli/spore_stims/complex_02_B_b.gif","images/stimuli/spore_stims/complex_02_A_b.gif","","","","","14","complex_similar","images/stimuli/spore_stims/complex_02_A_b.gif","middle","","","","",""
"","null","html-keyboard-response","272","690224","0.0-50.0-0.6","SS1613168433247","","","null","","","","","<p><img src= images/blank.png width =""200"" height = ""200"" style = ""float:right""></p><p><img src=images/blank.png width =""800"" height = ""200""></p>","","","","","","","","","","","",""
"","1314.5000000076834","sequential-stimulus-presentation","273","692365","0.0-50.0-1.6","SS1613168433247","trial","","40","800","2114.5000000076834","images/stimuli/spore_stims/complex_02_B_b.gif","images/stimuli/spore_stims/complex_02_A_b.gif","","","","","14","complex_similar","images/stimuli/spore_stims/complex_02_B_b.gif","left","","","","",""
"","null","html-keyboard-response","274","693428","0.0-50.0-0.7","SS1613168433247","","","null","","","","","<p><img src= images/blank.png width =""200"" height = ""200"" style = ""float:right""></p><p><img src=images/blank.png width =""800"" height = ""200""></p>","","","","","","","","","","","",""
"","793.1499999831431","sequential-stimulus-presentation","275","695034","0.0-50.0-1.7","SS1613168433247","trial","","40","800","1593.149999983143","images/stimuli/spore_stims/complex_02_B_b.gif","images/stimuli/spore_stims/complex_02_A_b.gif","","","","","14","complex_similar","images/stimuli/spore_stims/complex_02_A_b.gif","middle","","","","",""
"","1667.4650000059046","html-keyboard-response","276","696714","0.0-51.0","SS1613168433247","pref_question","","51","","","","","<video width ='960' height = '540' style='padding-top:8%' autoplay muted><source src='images/stimuli/wall_pref.mp4' type='video/mp4'></video>","3","right","66%","14","","","","","","","",""
"","3693.985000019893","sequential-stimulus-presentation","277","701240","0.0-52.0","SS1613168433247","pref_reveal","","40","800","4493.985000019893","null","null","","","","","14","","","","novel","","","",""
"","null","html-keyboard-response","278","702468","0.0-53.0-0.0","SS1613168433247","","","null","","","","","<p><img src= images/blank.png width =""200"" height = ""200"" style = ""float:right""></p><p><img src=images/blank.png width =""800"" height = ""200""></p>","","","","","","","","","","","",""
"","4295.294999988982","sequential-stimulus-presentation","279","707586","0.0-53.0-1.0","SS1613168433247","trial","","40","800","5095.294999988982","images/stimuli/spore_stims/complex_05_B_b.gif","images/stimuli/spore_stims/complex_20_B_d.gif","","","","","15","complex_dissimilar","images/stimuli/spore_stims/complex_20_B_d.gif","middle","","","","",""
"","null","html-keyboard-response","280","708633","0.0-53.0-0.1","SS1613168433247","","","null","","","","","<p><img src= images/blank.png width =""200"" height = ""200"" style = ""float:right""></p><p><img src=images/blank.png width =""800"" height = ""200""></p>","","","","","","","","","","","",""
"","2460.194999992382","sequential-stimulus-presentation","281","711911","0.0-53.0-1.1","SS1613168433247","trial","","40","800","3260.194999992382","images/stimuli/spore_stims/complex_05_B_b.gif","images/stimuli/spore_stims/complex_20_B_d.gif","","","","","15","complex_dissimilar","images/stimuli/spore_stims/complex_20_B_d.gif","middle","","","","",""
"","null","html-keyboard-response","282","713155","0.0-53.0-0.2","SS1613168433247","","","null","","","","","<p><img src= images/blank.png width =""200"" height = ""200"" style = ""float:right""></p><p><img src=images/blank.png width =""800"" height = ""200""></p>","","","","","","","","","","","",""
"","2670.2600000135135","sequential-stimulus-presentation","283","716639","0.0-53.0-1.2","SS1613168433247","trial","","40","800","3470.2600000135135","images/stimuli/spore_stims/complex_05_B_b.gif","images/stimuli/spore_stims/complex_20_B_d.gif","","","","","15","complex_dissimilar","images/stimuli/spore_stims/complex_20_B_d.gif","middle","","","","",""
"","null","html-keyboard-response","284","717926","0.0-53.0-0.3","SS1613168433247","","","null","","","","","<p><img src= images/blank.png width =""200"" height = ""200"" style = ""float:right""></p><p><img src=images/blank.png width =""800"" height = ""200""></p>","","","","","","","","","","","",""
"","1357.5349999882746","sequential-stimulus-presentation","285","720112","0.0-53.0-1.3","SS1613168433247","trial","","40","800","2157.5349999882746","images/stimuli/spore_stims/complex_05_B_b.gif","images/stimuli/spore_stims/complex_20_B_d.gif","","","","","15","complex_dissimilar","images/stimuli/spore_stims/complex_20_B_d.gif","middle","","","","",""
"","null","html-keyboard-response","286","721179","0.0-53.0-0.4","SS1613168433247","","","null","","","","","<p><img src= images/blank.png width =""200"" height = ""200"" style = ""float:right""></p><p><img src=images/blank.png width =""800"" height = ""200""></p>","","","","","","","","","","","",""
"","1410.5599999893457","sequential-stimulus-presentation","287","723419","0.0-53.0-1.4","SS1613168433247","trial","","40","800","2210.5599999893457","images/stimuli/spore_stims/complex_05_B_b.gif","images/stimuli/spore_stims/complex_20_B_d.gif","","","","","15","complex_dissimilar","images/stimuli/spore_stims/complex_20_B_d.gif","middle","","","","",""
"","null","html-keyboard-response","288","724343","0.0-53.0-0.5","SS1613168433247","","","null","","","","","<p><img src= images/blank.png width =""200"" height = ""200"" style = ""float:right""></p><p><img src=images/blank.png width =""800"" height = ""200""></p>","","","","","","","","","","","",""
"","4185.694999992847","sequential-stimulus-presentation","289","729368","0.0-53.0-1.5","SS1613168433247","trial","","40","800","4985.694999992847","images/stimuli/spore_stims/complex_05_B_b.gif","images/stimuli/spore_stims/complex_20_B_d.gif","","","","","15","complex_dissimilar","images/stimuli/spore_stims/complex_05_B_b.gif","left","","","","",""
"","null","html-keyboard-response","290","730446","0.0-53.0-0.6","SS1613168433247","","","null","","","","","<p><img src= images/blank.png width =""200"" height = ""200"" style = ""float:right""></p><p><img src=images/blank.png width =""800"" height = ""200""></p>","","","","","","","","","","","",""
"","981.7850000108592","sequential-stimulus-presentation","291","732246","0.0-53.0-1.6","SS1613168433247","trial","","40","800","1781.7850000108592","images/stimuli/spore_stims/complex_05_B_b.gif","images/stimuli/spore_stims/complex_20_B_d.gif","","","","","15","complex_dissimilar","images/stimuli/spore_stims/complex_20_B_d.gif","middle","","","","",""
"","null","html-keyboard-response","292","733447","0.0-53.0-0.7","SS1613168433247","","","null","","","","","<p><img src= images/blank.png width =""200"" height = ""200"" style = ""float:right""></p><p><img src=images/blank.png width =""800"" height = ""200""></p>","","","","","","","","","","","",""
"","536.0900000086986","sequential-stimulus-presentation","293","734794","0.0-53.0-1.7","SS1613168433247","trial","","40","800","1336.0900000086986","images/stimuli/spore_stims/complex_05_B_b.gif","images/stimuli/spore_stims/complex_20_B_d.gif","","","","","15","complex_dissimilar","images/stimuli/spore_stims/complex_20_B_d.gif","middle","","","","",""
"","1351.9300000043586","html-keyboard-response","294","736167","0.0-54.0","SS1613168433247","pref_question","","50","","","","","<video width ='960' height = '540' style='padding-top:8%' autoplay muted><source src='images/stimuli/wall_pref.mp4' type='video/mp4'></video>","2","middle","45%","15","","","","","","","",""
"","1178.779999987455","sequential-stimulus-presentation","295","738157","0.0-55.0","SS1613168433247","pref_reveal","","40","800","1978.779999987455","null","null","","","","","15","","","","background","","","",""
"","null","html-keyboard-response","296","739334","0.0-56.0-0.0","SS1613168433247","","","null","","","","","<p><img src= images/blank.png width =""200"" height = ""200"" style = ""float:right""></p><p><img src=images/blank.png width =""800"" height = ""200""></p>","","","","","","","","","","","",""
"","2008.5350000008475","sequential-stimulus-presentation","297","742174","0.0-56.0-1.0","SS1613168433247","trial","","40","800","2808.5350000008475","images/stimuli/spore_stims/complex_10_B_a.gif","images/stimuli/spore_stims/complex_10_A_a.gif","","","","","16","complex_similar","images/stimuli/spore_stims/complex_10_A_a.gif","left","","","","",""
"","null","html-keyboard-response","298","743440","0.0-56.0-0.1","SS1613168433247","","","null","","","","","<p><img src= images/blank.png width =""200"" height = ""200"" style = ""float:right""></p><p><img src=images/blank.png width =""800"" height = ""200""></p>","","","","","","","","","","","",""
"","1531.1799999908544","sequential-stimulus-presentation","299","745784","0.0-56.0-1.1","SS1613168433247","trial","","40","800","2331.1799999908544","images/stimuli/spore_stims/complex_10_B_a.gif","images/stimuli/spore_stims/complex_10_A_a.gif","","","","","16","complex_similar","images/stimuli/spore_stims/complex_10_A_a.gif","left","","","","",""
"","null","html-keyboard-response","300","746651","0.0-56.0-0.2","SS1613168433247","","","null","","","","","<p><img src= images/blank.png width =""200"" height = ""200"" style = ""float:right""></p><p><img src=images/blank.png width =""800"" height = ""200""></p>","","","","","","","","","","","",""
"","1550.1949999888893","sequential-stimulus-presentation","301","749030","0.0-56.0-1.2","SS1613168433247","trial","","40","800","2350.1949999888893","images/stimuli/spore_stims/complex_10_B_a.gif","images/stimuli/spore_stims/complex_10_A_a.gif","","","","","16","complex_similar","images/stimuli/spore_stims/complex_10_B_a.gif","middle","","","","",""
"","null","html-keyboard-response","302","750066","0.0-56.0-0.3","SS1613168433247","","","null","","","","","<p><img src= images/blank.png width =""200"" height = ""200"" style = ""float:right""></p><p><img src=images/blank.png width =""800"" height = ""200""></p>","","","","","","","","","","","",""
"","1363.2799999904819","sequential-stimulus-presentation","303","752255","0.0-56.0-1.3","SS1613168433247","trial","","40","800","2163.279999990482","images/stimuli/spore_stims/complex_10_B_a.gif","images/stimuli/spore_stims/complex_10_A_a.gif","","","","","16","complex_similar","images/stimuli/spore_stims/complex_10_A_a.gif","left","","","","",""
"","null","html-keyboard-response","304","753514","0.0-56.0-0.4","SS1613168433247","","","null","","","","","<p><img src= images/blank.png width =""200"" height = ""200"" style = ""float:right""></p><p><img src=images/blank.png width =""800"" height = ""200""></p>","","","","","","","","","","","",""
"","1532.1849999891128","sequential-stimulus-presentation","305","755848","0.0-56.0-1.4","SS1613168433247","trial","","40","800","2332.184999989113","images/stimuli/spore_stims/complex_10_B_a.gif","images/stimuli/spore_stims/complex_10_A_a.gif","","","","","16","complex_similar","images/stimuli/spore_stims/complex_10_A_a.gif","left","","","","",""
"","null","html-keyboard-response","306","756823","0.0-56.0-0.5","SS1613168433247","","","null","","","","","<p><img src= images/blank.png width =""200"" height = ""200"" style = ""float:right""></p><p><img src=images/blank.png width =""800"" height = ""200""></p>","","","","","","","","","","","",""
"","2985.5549999920186","sequential-stimulus-presentation","307","760630","0.0-56.0-1.5","SS1613168433247","trial","","40","800","3785.5549999920186","images/stimuli/spore_stims/complex_10_B_a.gif","images/stimuli/spore_stims/complex_10_A_a.gif","","","","","16","complex_similar","images/stimuli/spore_stims/complex_10_A_a.gif","left","","","","",""
"","null","html-keyboard-response","308","761927","0.0-56.0-0.6","SS1613168433247","","","null","","","","","<p><img src= images/blank.png width =""200"" height = ""200"" style = ""float:right""></p><p><img src=images/blank.png width =""800"" height = ""200""></p>","","","","","","","","","","","",""
"","1577.034999994794","sequential-stimulus-presentation","309","764325","0.0-56.0-1.6","SS1613168433247","trial","","40","800","2377.034999994794","images/stimuli/spore_stims/complex_10_B_a.gif","images/stimuli/spore_stims/complex_10_A_a.gif","","","","","16","complex_similar","images/stimuli/spore_stims/complex_10_A_a.gif","left","","","","",""
"","null","html-keyboard-response","310","765273","0.0-56.0-0.7","SS1613168433247","","","null","","","","","<p><img src= images/blank.png width =""200"" height = ""200"" style = ""float:right""></p><p><img src=images/blank.png width =""800"" height = ""200""></p>","","","","","","","","","","","",""
"","1791.960000002291","sequential-stimulus-presentation","311","767894","0.0-56.0-1.7","SS1613168433247","trial","","40","800","2591.960000002291","images/stimuli/spore_stims/complex_10_B_a.gif","images/stimuli/spore_stims/complex_10_A_a.gif","","","","","16","complex_similar","images/stimuli/spore_stims/complex_10_A_a.gif","left","","","","",""
"","1288.059999991674","html-keyboard-response","312","769203","0.0-57.0","SS1613168433247","pref_question","","49","","","","","<video width ='960' height = '540' style='padding-top:8%' autoplay muted><source src='images/stimuli/wall_pref.mp4' type='video/mp4'></video>","1","left","25%","16","","","","","","","",""
