"view_history","rt","trial_type","trial_index","time_elapsed","internal_node_id","subject","stimulus_type","trial_stimulus","key_press","minimum_viewing_duration","trial_looking_time","block_deviant","block_background","stimulus","wall_pref","location","location_percent","block_number","block_type","stimulus_displayed","position_displayed","stim_type_selected","responses","question_order","stimulus_left","stimulus_right"
"[{""page_index"":0,""viewing_time"":8127.039999933913}]","8129.190000006929","instructions","0","8131","0.0-0.0","SS1613079914574","","","","","","","","","","","","","","","","","","","",""
"[{""page_index"":0,""viewing_time"":10890.36999992095},{""page_index"":1,""viewing_time"":6831.475000130013}]","17722.635000012815","instructions","1","27861","0.0-1.0","SS1613079914574","instructions","","","","","","","","","","","","","","","","","","",""
"","5336.8350001983345","sequential-stimulus-presentation","2","34017","0.0-2.0","SS1613079914574","","","40","800","6136.8350001983345","null","null","","","","","","","","","","","","",""
"","3641.8300000950694","sequential-stimulus-presentation","3","38468","0.0-3.0","SS1613079914574","","","40","800","4441.830000095069","null","null","","","","","","","","","","","","",""
"[{""page_index"":0,""viewing_time"":4012.6700000837445}]","4013.2600001525134","instructions","4","42486","0.0-4.0","SS1613079914574","instructions","","","","","","","","","","","","","","","","","","",""
"","11061.890000011772","html-keyboard-response","5","53560","0.0-5.0","SS1613079914574","instructions","","99","","","","","<video width ='960' height = '540' autoplay muted><source src='images/stimuli/wall_pref.mp4' type='video/mp4'></video>","3","right","66%","","","","","","","","",""
"","1623.20000003092","sequential-stimulus-presentation","6","55994","0.0-6.0","SS1613079914574","pref_reveal","","40","800","2423.20000003092","null","null","","","","","","","","","","","","",""
"[{""page_index"":0,""viewing_time"":11900.135000003502},{""page_index"":1,""viewing_time"":5749.319999944419},{""page_index"":2,""viewing_time"":1294.4450001232326},{""page_index"":3,""viewing_time"":1379.7750000376254}]","20324.305000016466","instructions","7","76324","0.0-7.0","SS1613079914574","instructions","","","","","","","","","","","","","","","","","","",""
"","null","html-keyboard-response","8","77219","0.0-8.0-0.0","SS1613079914574","","","null","","","","","<p><img src= images/blank.png width =""200"" height = ""200"" style = ""float:right""></p><p><img src=images/blank.png width =""800"" height = ""200""></p>","","","","","","","","","","","",""
"","2164.8950001690537","sequential-stimulus-presentation","9","80200","0.0-8.0-1.0","SS1613079914574","trial","","40","800","2964.8950001690537","images/stimuli/spore_stims/complex_09_B_d.gif","images/stimuli/spore_stims/complex_15_B_d.gif","","","","","0","complex_dissimilar","images/stimuli/spore_stims/complex_15_B_d.gif","left","","","","",""
"","null","html-keyboard-response","10","81368","0.0-8.0-0.1","SS1613079914574","","","null","","","","","<p><img src= images/blank.png width =""200"" height = ""200"" style = ""float:right""></p><p><img src=images/blank.png width =""800"" height = ""200""></p>","","","","","","","","","","","",""
"","965.9550001379102","sequential-stimulus-presentation","11","83150","0.0-8.0-1.1","SS1613079914574","trial","","40","800","1765.9550001379102","images/stimuli/spore_stims/complex_09_B_d.gif","images/stimuli/spore_stims/complex_15_B_d.gif","","","","","0","complex_dissimilar","images/stimuli/spore_stims/complex_15_B_d.gif","left","","","","",""
"","null","html-keyboard-response","12","84000","0.0-8.0-0.2","SS1613079914574","","","null","","","","","<p><img src= images/blank.png width =""200"" height = ""200"" style = ""float:right""></p><p><img src=images/blank.png width =""800"" height = ""200""></p>","","","","","","","","","","","",""
"","1635.9950001351535","sequential-stimulus-presentation","13","86454","0.0-8.0-1.2","SS1613079914574","trial","","40","800","2435.9950001351535","images/stimuli/spore_stims/complex_09_B_d.gif","images/stimuli/spore_stims/complex_15_B_d.gif","","","","","0","complex_dissimilar","images/stimuli/spore_stims/complex_15_B_d.gif","left","","","","",""
"","null","html-keyboard-response","14","87540","0.0-8.0-0.3","SS1613079914574","","","null","","","","","<p><img src= images/blank.png width =""200"" height = ""200"" style = ""float:right""></p><p><img src=images/blank.png width =""800"" height = ""200""></p>","","","","","","","","","","","",""
"","1999.9700000043958","sequential-stimulus-presentation","15","90361","0.0-8.0-1.3","SS1613079914574","trial","","40","800","2799.970000004396","images/stimuli/spore_stims/complex_09_B_d.gif","images/stimuli/spore_stims/complex_15_B_d.gif","","","","","0","complex_dissimilar","images/stimuli/spore_stims/complex_15_B_d.gif","left","","","","",""
"","null","html-keyboard-response","16","91481","0.0-8.0-0.4","SS1613079914574","","","null","","","","","<p><img src= images/blank.png width =""200"" height = ""200"" style = ""float:right""></p><p><img src=images/blank.png width =""800"" height = ""200""></p>","","","","","","","","","","","",""
"","1371.37999990955","sequential-stimulus-presentation","17","93671","0.0-8.0-1.4","SS1613079914574","trial","","40","800","2171.37999990955","images/stimuli/spore_stims/complex_09_B_d.gif","images/stimuli/spore_stims/complex_15_B_d.gif","","","","","0","complex_dissimilar","images/stimuli/spore_stims/complex_15_B_d.gif","left","","","","",""
"","null","html-keyboard-response","18","94978","0.0-8.0-0.5","SS1613079914574","","","null","","","","","<p><img src= images/blank.png width =""200"" height = ""200"" style = ""float:right""></p><p><img src=images/blank.png width =""800"" height = ""200""></p>","","","","","","","","","","","",""
"","2168.9649999607354","sequential-stimulus-presentation","19","97964","0.0-8.0-1.5","SS1613079914574","trial","","40","800","2968.9649999607354","images/stimuli/spore_stims/complex_09_B_d.gif","images/stimuli/spore_stims/complex_15_B_d.gif","","","","","0","complex_dissimilar","images/stimuli/spore_stims/complex_09_B_d.gif","right","","","","",""
"","null","html-keyboard-response","20","98802","0.0-8.0-0.6","SS1613079914574","","","null","","","","","<p><img src= images/blank.png width =""200"" height = ""200"" style = ""float:right""></p><p><img src=images/blank.png width =""800"" height = ""200""></p>","","","","","","","","","","","",""
"","1200.7100000046194","sequential-stimulus-presentation","21","100843","0.0-8.0-1.6","SS1613079914574","trial","","40","800","2000.7100000046194","images/stimuli/spore_stims/complex_09_B_d.gif","images/stimuli/spore_stims/complex_15_B_d.gif","","","","","0","complex_dissimilar","images/stimuli/spore_stims/complex_15_B_d.gif","left","","","","",""
"","null","html-keyboard-response","22","101918","0.0-8.0-0.7","SS1613079914574","","","null","","","","","<p><img src= images/blank.png width =""200"" height = ""200"" style = ""float:right""></p><p><img src=images/blank.png width =""800"" height = ""200""></p>","","","","","","","","","","","",""
"","2239.650000119582","sequential-stimulus-presentation","23","104978","0.0-8.0-1.7","SS1613079914574","trial","","40","800","3039.650000119582","images/stimuli/spore_stims/complex_09_B_d.gif","images/stimuli/spore_stims/complex_15_B_d.gif","","","","","0","complex_dissimilar","images/stimuli/spore_stims/complex_15_B_d.gif","left","","","","",""
"","1347.9100000113249","html-keyboard-response","24","106337","0.0-9.0","SS1613079914574","pref_question","","98","","","","","<video width ='960' height = '540' style='padding-top:8%' autoplay muted><source src='images/stimuli/wall_pref.mp4' type='video/mp4'></video>","2","middle","45%","0","","","","","","","",""
"","2336.14999987185","sequential-stimulus-presentation","25","109487","0.0-10.0","SS1613079914574","pref_reveal","","40","800","3136.14999987185","null","null","","","","","0","","","","novel","","","",""
"","null","html-keyboard-response","26","110369","0.0-11.0-0.0","SS1613079914574","","","null","","","","","<p><img src= images/blank.png width =""200"" height = ""200"" style = ""float:right""></p><p><img src=images/blank.png width =""800"" height = ""200""></p>","","","","","","","","","","","",""
"","1211.3100001588464","sequential-stimulus-presentation","27","112399","0.0-11.0-1.0","SS1613079914574","trial","","40","800","2011.3100001588464","images/stimuli/spore_stims/simple_13_B_b.gif","images/stimuli/spore_stims/simple_15_A_c.gif","","","","","1","simple_dissimilar","images/stimuli/spore_stims/simple_15_A_c.gif","right","","","","",""
"","null","html-keyboard-response","28","113313","0.0-11.0-0.1","SS1613079914574","","","null","","","","","<p><img src= images/blank.png width =""200"" height = ""200"" style = ""float:right""></p><p><img src=images/blank.png width =""800"" height = ""200""></p>","","","","","","","","","","","",""
"","1203.8499999325722","sequential-stimulus-presentation","29","115333","0.0-11.0-1.1","SS1613079914574","trial","","40","800","2003.8499999325722","images/stimuli/spore_stims/simple_13_B_b.gif","images/stimuli/spore_stims/simple_15_A_c.gif","","","","","1","simple_dissimilar","images/stimuli/spore_stims/simple_15_A_c.gif","right","","","","",""
"","null","html-keyboard-response","30","116474","0.0-11.0-0.2","SS1613079914574","","","null","","","","","<p><img src= images/blank.png width =""200"" height = ""200"" style = ""float:right""></p><p><img src=images/blank.png width =""800"" height = ""200""></p>","","","","","","","","","","","",""
"","1454.0649999398738","sequential-stimulus-presentation","31","118759","0.0-11.0-1.2","SS1613079914574","trial","","40","800","2254.064999939874","images/stimuli/spore_stims/simple_13_B_b.gif","images/stimuli/spore_stims/simple_15_A_c.gif","","","","","1","simple_dissimilar","images/stimuli/spore_stims/simple_15_A_c.gif","right","","","","",""
"","null","html-keyboard-response","32","119662","0.0-11.0-0.3","SS1613079914574","","","null","","","","","<p><img src= images/blank.png width =""200"" height = ""200"" style = ""float:right""></p><p><img src=images/blank.png width =""800"" height = ""200""></p>","","","","","","","","","","","",""
"","1175.1099999528378","sequential-stimulus-presentation","33","121655","0.0-11.0-1.3","SS1613079914574","trial","","40","800","1975.1099999528378","images/stimuli/spore_stims/simple_13_B_b.gif","images/stimuli/spore_stims/simple_15_A_c.gif","","","","","1","simple_dissimilar","images/stimuli/spore_stims/simple_15_A_c.gif","right","","","","",""
"","null","html-keyboard-response","34","122532","0.0-11.0-0.4","SS1613079914574","","","null","","","","","<p><img src= images/blank.png width =""200"" height = ""200"" style = ""float:right""></p><p><img src=images/blank.png width =""800"" height = ""200""></p>","","","","","","","","","","","",""
"","1583.0699999351054","sequential-stimulus-presentation","35","124935","0.0-11.0-1.4","SS1613079914574","trial","","40","800","2383.0699999351054","images/stimuli/spore_stims/simple_13_B_b.gif","images/stimuli/spore_stims/simple_15_A_c.gif","","","","","1","simple_dissimilar","images/stimuli/spore_stims/simple_13_B_b.gif","left","","","","",""
"","null","html-keyboard-response","36","125839","0.0-11.0-0.5","SS1613079914574","","","null","","","","","<p><img src= images/blank.png width =""200"" height = ""200"" style = ""float:right""></p><p><img src=images/blank.png width =""800"" height = ""200""></p>","","","","","","","","","","","",""
"","796.2799998931587","sequential-stimulus-presentation","37","127455","0.0-11.0-1.5","SS1613079914574","trial","","40","800","1596.2799998931587","images/stimuli/spore_stims/simple_13_B_b.gif","images/stimuli/spore_stims/simple_15_A_c.gif","","","","","1","simple_dissimilar","images/stimuli/spore_stims/simple_15_A_c.gif","right","","","","",""
"","null","html-keyboard-response","38","128361","0.0-11.0-0.6","SS1613079914574","","","null","","","","","<p><img src= images/blank.png width =""200"" height = ""200"" style = ""float:right""></p><p><img src=images/blank.png width =""800"" height = ""200""></p>","","","","","","","","","","","",""
"","1054.6300001442432","sequential-stimulus-presentation","39","130237","0.0-11.0-1.6","SS1613079914574","trial","","40","800","1854.6300001442432","images/stimuli/spore_stims/simple_13_B_b.gif","images/stimuli/spore_stims/simple_15_A_c.gif","","","","","1","simple_dissimilar","images/stimuli/spore_stims/simple_15_A_c.gif","right","","","","",""
"","null","html-keyboard-response","40","131437","0.0-11.0-0.7","SS1613079914574","","","null","","","","","<p><img src= images/blank.png width =""200"" height = ""200"" style = ""float:right""></p><p><img src=images/blank.png width =""800"" height = ""200""></p>","","","","","","","","","","","",""
"","913.6900000739843","sequential-stimulus-presentation","41","133174","0.0-11.0-1.7","SS1613079914574","trial","","40","800","1713.6900000739843","images/stimuli/spore_stims/simple_13_B_b.gif","images/stimuli/spore_stims/simple_15_A_c.gif","","","","","1","simple_dissimilar","images/stimuli/spore_stims/simple_15_A_c.gif","right","","","","",""
"","1854.8049998935312","html-keyboard-response","42","135046","0.0-12.0","SS1613079914574","pref_question","","98","","","","","<video width ='960' height = '540' style='padding-top:8%' autoplay muted><source src='images/stimuli/wall_pref.mp4' type='video/mp4'></video>","2","middle","45%","1","","","","","","","",""
"","1536.6799999028444","sequential-stimulus-presentation","43","137391","0.0-13.0","SS1613079914574","pref_reveal","","40","800","2336.6799999028444","null","null","","","","","1","","","","novel","","","",""
"","null","html-keyboard-response","44","138405","0.0-14.0-0.0","SS1613079914574","","","null","","","","","<p><img src= images/blank.png width =""200"" height = ""200"" style = ""float:right""></p><p><img src=images/blank.png width =""800"" height = ""200""></p>","","","","","","","","","","","",""
"","1769.2199999000877","sequential-stimulus-presentation","45","141062","0.0-14.0-1.0","SS1613079914574","trial","","40","800","2569.2199999000877","images/stimuli/spore_stims/complex_12_B_b.gif","images/stimuli/spore_stims/complex_12_A_b.gif","","","","","2","complex_similar","images/stimuli/spore_stims/complex_12_A_b.gif","right","","","","",""
"","null","html-keyboard-response","46","141988","0.0-14.0-0.1","SS1613079914574","","","null","","","","","<p><img src= images/blank.png width =""200"" height = ""200"" style = ""float:right""></p><p><img src=images/blank.png width =""800"" height = ""200""></p>","","","","","","","","","","","",""
"","2688.6449998710304","sequential-stimulus-presentation","47","145501","0.0-14.0-1.1","SS1613079914574","trial","","40","800","3488.6449998710304","images/stimuli/spore_stims/complex_12_B_b.gif","images/stimuli/spore_stims/complex_12_A_b.gif","","","","","2","complex_similar","images/stimuli/spore_stims/complex_12_A_b.gif","right","","","","",""
"","null","html-keyboard-response","48","146436","0.0-14.0-0.2","SS1613079914574","","","null","","","","","<p><img src= images/blank.png width =""200"" height = ""200"" style = ""float:right""></p><p><img src=images/blank.png width =""800"" height = ""200""></p>","","","","","","","","","","","",""
"","603.0500000342727","sequential-stimulus-presentation","49","147885","0.0-14.0-1.2","SS1613079914574","trial","","40","800","1403.0500000342727","images/stimuli/spore_stims/complex_12_B_b.gif","images/stimuli/spore_stims/complex_12_A_b.gif","","","","","2","complex_similar","images/stimuli/spore_stims/complex_12_A_b.gif","right","","","","",""
"","null","html-keyboard-response","50","149052","0.0-14.0-0.3","SS1613079914574","","","null","","","","","<p><img src= images/blank.png width =""200"" height = ""200"" style = ""float:right""></p><p><img src=images/blank.png width =""800"" height = ""200""></p>","","","","","","","","","","","",""
"","1841.139999916777","sequential-stimulus-presentation","51","151716","0.0-14.0-1.3","SS1613079914574","trial","","40","800","2641.139999916777","images/stimuli/spore_stims/complex_12_B_b.gif","images/stimuli/spore_stims/complex_12_A_b.gif","","","","","2","complex_similar","images/stimuli/spore_stims/complex_12_A_b.gif","right","","","","",""
"","null","html-keyboard-response","52","152758","0.0-14.0-0.4","SS1613079914574","","","null","","","","","<p><img src= images/blank.png width =""200"" height = ""200"" style = ""float:right""></p><p><img src=images/blank.png width =""800"" height = ""200""></p>","","","","","","","","","","","",""
"","2111.060000024736","sequential-stimulus-presentation","53","155681","0.0-14.0-1.4","SS1613079914574","trial","","40","800","2911.060000024736","images/stimuli/spore_stims/complex_12_B_b.gif","images/stimuli/spore_stims/complex_12_A_b.gif","","","","","2","complex_similar","images/stimuli/spore_stims/complex_12_A_b.gif","right","","","","",""
"","null","html-keyboard-response","54","156971","0.0-14.0-0.5","SS1613079914574","","","null","","","","","<p><img src= images/blank.png width =""200"" height = ""200"" style = ""float:right""></p><p><img src=images/blank.png width =""800"" height = ""200""></p>","","","","","","","","","","","",""
"","2436.585000017658","sequential-stimulus-presentation","55","160227","0.0-14.0-1.5","SS1613079914574","trial","","40","800","3236.585000017658","images/stimuli/spore_stims/complex_12_B_b.gif","images/stimuli/spore_stims/complex_12_A_b.gif","","","","","2","complex_similar","images/stimuli/spore_stims/complex_12_A_b.gif","right","","","","",""
"","null","html-keyboard-response","56","161385","0.0-14.0-0.6","SS1613079914574","","","null","","","","","<p><img src= images/blank.png width =""200"" height = ""200"" style = ""float:right""></p><p><img src=images/blank.png width =""800"" height = ""200""></p>","","","","","","","","","","","",""
"","2987.1900000143796","sequential-stimulus-presentation","57","165196","0.0-14.0-1.6","SS1613079914574","trial","","40","800","3787.1900000143796","images/stimuli/spore_stims/complex_12_B_b.gif","images/stimuli/spore_stims/complex_12_A_b.gif","","","","","2","complex_similar","images/stimuli/spore_stims/complex_12_B_b.gif","middle","","","","",""
"","null","html-keyboard-response","58","166159","0.0-14.0-0.7","SS1613079914574","","","null","","","","","<p><img src= images/blank.png width =""200"" height = ""200"" style = ""float:right""></p><p><img src=images/blank.png width =""800"" height = ""200""></p>","","","","","","","","","","","",""
"","2340.244999853894","sequential-stimulus-presentation","59","169330","0.0-14.0-1.7","SS1613079914574","trial","","40","800","3140.244999853894","images/stimuli/spore_stims/complex_12_B_b.gif","images/stimuli/spore_stims/complex_12_A_b.gif","","","","","2","complex_similar","images/stimuli/spore_stims/complex_12_A_b.gif","right","","","","",""
"","3242.86499992013","html-keyboard-response","60","172594","0.0-15.0","SS1613079914574","pref_question","","98","","","","","<video width ='960' height = '540' style='padding-top:8%' autoplay muted><source src='images/stimuli/wall_pref.mp4' type='video/mp4'></video>","2","middle","45%","2","","","","","","","",""
"","3099.180000135675","sequential-stimulus-presentation","61","176527","0.0-16.0","SS1613079914574","pref_reveal","","40","800","3899.180000135675","null","null","","","","","2","","","","deviant","","","",""
"","null","html-keyboard-response","62","177542","0.0-17.0-0.0","SS1613079914574","","","null","","","","","<p><img src= images/blank.png width =""200"" height = ""200"" style = ""float:right""></p><p><img src=images/blank.png width =""800"" height = ""200""></p>","","","","","","","","","","","",""
"","2613.6350000742823","sequential-stimulus-presentation","63","180986","0.0-17.0-1.0","SS1613079914574","trial","","40","800","3413.6350000742823","images/stimuli/spore_stims/complex_18_B_b.gif","images/stimuli/spore_stims/complex_18_A_b.gif","","","","","3","complex_similar","images/stimuli/spore_stims/complex_18_A_b.gif","left","","","","",""
"","null","html-keyboard-response","64","182239","0.0-17.0-0.1","SS1613079914574","","","null","","","","","<p><img src= images/blank.png width =""200"" height = ""200"" style = ""float:right""></p><p><img src=images/blank.png width =""800"" height = ""200""></p>","","","","","","","","","","","",""
"","1695.5199998337775","sequential-stimulus-presentation","65","184758","0.0-17.0-1.1","SS1613079914574","trial","","40","800","2495.5199998337775","images/stimuli/spore_stims/complex_18_B_b.gif","images/stimuli/spore_stims/complex_18_A_b.gif","","","","","3","complex_similar","images/stimuli/spore_stims/complex_18_A_b.gif","left","","","","",""
"","null","html-keyboard-response","66","185942","0.0-17.0-0.2","SS1613079914574","","","null","","","","","<p><img src= images/blank.png width =""200"" height = ""200"" style = ""float:right""></p><p><img src=images/blank.png width =""800"" height = ""200""></p>","","","","","","","","","","","",""
"","1126.0650001931936","sequential-stimulus-presentation","67","187893","0.0-17.0-1.2","SS1613079914574","trial","","40","800","1926.0650001931936","images/stimuli/spore_stims/complex_18_B_b.gif","images/stimuli/spore_stims/complex_18_A_b.gif","","","","","3","complex_similar","images/stimuli/spore_stims/complex_18_A_b.gif","left","","","","",""
"","null","html-keyboard-response","68","188884","0.0-17.0-0.3","SS1613079914574","","","null","","","","","<p><img src= images/blank.png width =""200"" height = ""200"" style = ""float:right""></p><p><img src=images/blank.png width =""800"" height = ""200""></p>","","","","","","","","","","","",""
"","1375.3750000614673","sequential-stimulus-presentation","69","191085","0.0-17.0-1.3","SS1613079914574","trial","","40","800","2175.3750000614673","images/stimuli/spore_stims/complex_18_B_b.gif","images/stimuli/spore_stims/complex_18_A_b.gif","","","","","3","complex_similar","images/stimuli/spore_stims/complex_18_A_b.gif","left","","","","",""
"","null","html-keyboard-response","70","192086","0.0-17.0-0.4","SS1613079914574","","","null","","","","","<p><img src= images/blank.png width =""200"" height = ""200"" style = ""float:right""></p><p><img src=images/blank.png width =""800"" height = ""200""></p>","","","","","","","","","","","",""
"","1046.0800000000745","sequential-stimulus-presentation","71","193958","0.0-17.0-1.4","SS1613079914574","trial","","40","800","1846.0800000000745","images/stimuli/spore_stims/complex_18_B_b.gif","images/stimuli/spore_stims/complex_18_A_b.gif","","","","","3","complex_similar","images/stimuli/spore_stims/complex_18_A_b.gif","left","","","","",""
"","null","html-keyboard-response","72","195075","0.0-17.0-0.5","SS1613079914574","","","null","","","","","<p><img src= images/blank.png width =""200"" height = ""200"" style = ""float:right""></p><p><img src=images/blank.png width =""800"" height = ""200""></p>","","","","","","","","","","","",""
"","1277.7350000105798","sequential-stimulus-presentation","73","197182","0.0-17.0-1.5","SS1613079914574","trial","","40","800","2077.73500001058","images/stimuli/spore_stims/complex_18_B_b.gif","images/stimuli/spore_stims/complex_18_A_b.gif","","","","","3","complex_similar","images/stimuli/spore_stims/complex_18_A_b.gif","left","","","","",""
"","null","html-keyboard-response","74","198055","0.0-17.0-0.6","SS1613079914574","","","null","","","","","<p><img src= images/blank.png width =""200"" height = ""200"" style = ""float:right""></p><p><img src=images/blank.png width =""800"" height = ""200""></p>","","","","","","","","","","","",""
"","2613.8249998912215","sequential-stimulus-presentation","75","201500","0.0-17.0-1.6","SS1613079914574","trial","","40","800","3413.8249998912215","images/stimuli/spore_stims/complex_18_B_b.gif","images/stimuli/spore_stims/complex_18_A_b.gif","","","","","3","complex_similar","images/stimuli/spore_stims/complex_18_B_b.gif","middle","","","","",""
"","null","html-keyboard-response","76","202450","0.0-17.0-0.7","SS1613079914574","","","null","","","","","<p><img src= images/blank.png width =""200"" height = ""200"" style = ""float:right""></p><p><img src=images/blank.png width =""800"" height = ""200""></p>","","","","","","","","","","","",""
"","2495.230000000447","sequential-stimulus-presentation","77","205781","0.0-17.0-1.7","SS1613079914574","trial","","40","800","3295.230000000447","images/stimuli/spore_stims/complex_18_B_b.gif","images/stimuli/spore_stims/complex_18_A_b.gif","","","","","3","complex_similar","images/stimuli/spore_stims/complex_18_A_b.gif","left","","","","",""
"","1734.690000070259","html-keyboard-response","78","207536","0.0-18.0","SS1613079914574","pref_question","","97","","","","","<video width ='960' height = '540' style='padding-top:8%' autoplay muted><source src='images/stimuli/wall_pref.mp4' type='video/mp4'></video>","1","left","25%","3","","","","","","","",""
"","3685.330000007525","sequential-stimulus-presentation","79","212052","0.0-19.0","SS1613079914574","pref_reveal","","40","800","4485.330000007525","null","null","","","","","3","","","","background","","","",""
"","null","html-keyboard-response","80","212911","0.0-20.0-0.0","SS1613079914574","","","null","","","","","<p><img src= images/blank.png width =""200"" height = ""200"" style = ""float:right""></p><p><img src=images/blank.png width =""800"" height = ""200""></p>","","","","","","","","","","","",""
"","3089.204999851063","sequential-stimulus-presentation","81","216811","0.0-20.0-1.0","SS1613079914574","trial","","40","800","3889.204999851063","images/stimuli/spore_stims/simple_16_A_d.gif","images/stimuli/spore_stims/simple_09_A_d.gif","","","","","4","simple_dissimilar","images/stimuli/spore_stims/simple_09_A_d.gif","right","","","","",""
"","null","html-keyboard-response","82","218083","0.0-20.0-0.1","SS1613079914574","","","null","","","","","<p><img src= images/blank.png width =""200"" height = ""200"" style = ""float:right""></p><p><img src=images/blank.png width =""800"" height = ""200""></p>","","","","","","","","","","","",""
"","1910.2950000669807","sequential-stimulus-presentation","83","220812","0.0-20.0-1.1","SS1613079914574","trial","","40","800","2710.2950000669807","images/stimuli/spore_stims/simple_16_A_d.gif","images/stimuli/spore_stims/simple_09_A_d.gif","","","","","4","simple_dissimilar","images/stimuli/spore_stims/simple_09_A_d.gif","right","","","","",""
"","null","html-keyboard-response","84","221840","0.0-20.0-0.2","SS1613079914574","","","null","","","","","<p><img src= images/blank.png width =""200"" height = ""200"" style = ""float:right""></p><p><img src=images/blank.png width =""800"" height = ""200""></p>","","","","","","","","","","","",""
"","2001.7500000540167","sequential-stimulus-presentation","85","224674","0.0-20.0-1.2","SS1613079914574","trial","","40","800","2801.7500000540167","images/stimuli/spore_stims/simple_16_A_d.gif","images/stimuli/spore_stims/simple_09_A_d.gif","","","","","4","simple_dissimilar","images/stimuli/spore_stims/simple_09_A_d.gif","right","","","","",""
"","null","html-keyboard-response","86","225698","0.0-20.0-0.3","SS1613079914574","","","null","","","","","<p><img src= images/blank.png width =""200"" height = ""200"" style = ""float:right""></p><p><img src=images/blank.png width =""800"" height = ""200""></p>","","","","","","","","","","","",""
"","968.5750000644475","sequential-stimulus-presentation","87","227494","0.0-20.0-1.3","SS1613079914574","trial","","40","800","1768.5750000644475","images/stimuli/spore_stims/simple_16_A_d.gif","images/stimuli/spore_stims/simple_09_A_d.gif","","","","","4","simple_dissimilar","images/stimuli/spore_stims/simple_09_A_d.gif","right","","","","",""
"","null","html-keyboard-response","88","228392","0.0-20.0-0.4","SS1613079914574","","","null","","","","","<p><img src= images/blank.png width =""200"" height = ""200"" style = ""float:right""></p><p><img src=images/blank.png width =""800"" height = ""200""></p>","","","","","","","","","","","",""
"","1493.2349999435246","sequential-stimulus-presentation","89","230716","0.0-20.0-1.4","SS1613079914574","trial","","40","800","2293.2349999435246","images/stimuli/spore_stims/simple_16_A_d.gif","images/stimuli/spore_stims/simple_09_A_d.gif","","","","","4","simple_dissimilar","images/stimuli/spore_stims/simple_09_A_d.gif","right","","","","",""
"","null","html-keyboard-response","90","231631","0.0-20.0-0.5","SS1613079914574","","","null","","","","","<p><img src= images/blank.png width =""200"" height = ""200"" style = ""float:right""></p><p><img src=images/blank.png width =""800"" height = ""200""></p>","","","","","","","","","","","",""
"","2057.8749999403954","sequential-stimulus-presentation","91","234520","0.0-20.0-1.5","SS1613079914574","trial","","40","800","2857.8749999403954","images/stimuli/spore_stims/simple_16_A_d.gif","images/stimuli/spore_stims/simple_09_A_d.gif","","","","","4","simple_dissimilar","images/stimuli/spore_stims/simple_16_A_d.gif","left","","","","",""
"","null","html-keyboard-response","92","235411","0.0-20.0-0.6","SS1613079914574","","","null","","","","","<p><img src= images/blank.png width =""200"" height = ""200"" style = ""float:right""></p><p><img src=images/blank.png width =""800"" height = ""200""></p>","","","","","","","","","","","",""
"","2038.2250000257045","sequential-stimulus-presentation","93","238283","0.0-20.0-1.6","SS1613079914574","trial","","40","800","2838.2250000257045","images/stimuli/spore_stims/simple_16_A_d.gif","images/stimuli/spore_stims/simple_09_A_d.gif","","","","","4","simple_dissimilar","images/stimuli/spore_stims/simple_09_A_d.gif","right","","","","",""
"","null","html-keyboard-response","94","239500","0.0-20.0-0.7","SS1613079914574","","","null","","","","","<p><img src= images/blank.png width =""200"" height = ""200"" style = ""float:right""></p><p><img src=images/blank.png width =""800"" height = ""200""></p>","","","","","","","","","","","",""
"","1125.7750000804663","sequential-stimulus-presentation","95","241454","0.0-20.0-1.7","SS1613079914574","trial","","40","800","1925.7750000804663","images/stimuli/spore_stims/simple_16_A_d.gif","images/stimuli/spore_stims/simple_09_A_d.gif","","","","","4","simple_dissimilar","images/stimuli/spore_stims/simple_09_A_d.gif","right","","","","",""
"","1500.9949998930097","html-keyboard-response","96","242979","0.0-21.0","SS1613079914574","pref_question","","97","","","","","<video width ='960' height = '540' style='padding-top:8%' autoplay muted><source src='images/stimuli/wall_pref.mp4' type='video/mp4'></video>","1","left","25%","4","","","","","","","",""
"","2542.9849999491125","sequential-stimulus-presentation","97","246350","0.0-22.0","SS1613079914574","pref_reveal","","40","800","3342.9849999491125","null","null","","","","","4","","","","deviant","","","",""
"","null","html-keyboard-response","98","247653","0.0-23.0-0.0","SS1613079914574","","","null","","","","","<p><img src= images/blank.png width =""200"" height = ""200"" style = ""float:right""></p><p><img src=images/blank.png width =""800"" height = ""200""></p>","","","","","","","","","","","",""
"","2176.204999908805","sequential-stimulus-presentation","99","250661","0.0-23.0-1.0","SS1613079914574","trial","","40","800","2976.204999908805","images/stimuli/spore_stims/simple_20_B_a.gif","images/stimuli/spore_stims/simple_20_A_a.gif","","","","","5","simple_similar","images/stimuli/spore_stims/simple_20_A_a.gif","middle","","","","",""
"","null","html-keyboard-response","100","251893","0.0-23.0-0.1","SS1613079914574","","","null","","","","","<p><img src= images/blank.png width =""200"" height = ""200"" style = ""float:right""></p><p><img src=images/blank.png width =""800"" height = ""200""></p>","","","","","","","","","","","",""
"","2055.464999983087","sequential-stimulus-presentation","101","254782","0.0-23.0-1.1","SS1613079914574","trial","","40","800","2855.464999983087","images/stimuli/spore_stims/simple_20_B_a.gif","images/stimuli/spore_stims/simple_20_A_a.gif","","","","","5","simple_similar","images/stimuli/spore_stims/simple_20_A_a.gif","middle","","","","",""
"","null","html-keyboard-response","102","255752","0.0-23.0-0.2","SS1613079914574","","","null","","","","","<p><img src= images/blank.png width =""200"" height = ""200"" style = ""float:right""></p><p><img src=images/blank.png width =""800"" height = ""200""></p>","","","","","","","","","","","",""
"","1293.8650001306087","sequential-stimulus-presentation","103","257886","0.0-23.0-1.2","SS1613079914574","trial","","40","800","2093.8650001306087","images/stimuli/spore_stims/simple_20_B_a.gif","images/stimuli/spore_stims/simple_20_A_a.gif","","","","","5","simple_similar","images/stimuli/spore_stims/simple_20_A_a.gif","middle","","","","",""
"","null","html-keyboard-response","104","259036","0.0-23.0-0.3","SS1613079914574","","","null","","","","","<p><img src= images/blank.png width =""200"" height = ""200"" style = ""float:right""></p><p><img src=images/blank.png width =""800"" height = ""200""></p>","","","","","","","","","","","",""
"","2171.79000005126","sequential-stimulus-presentation","105","262047","0.0-23.0-1.3","SS1613079914574","trial","","40","800","2971.79000005126","images/stimuli/spore_stims/simple_20_B_a.gif","images/stimuli/spore_stims/simple_20_A_a.gif","","","","","5","simple_similar","images/stimuli/spore_stims/simple_20_B_a.gif","left","","","","",""
"","null","html-keyboard-response","106","262865","0.0-23.0-0.4","SS1613079914574","","","null","","","","","<p><img src= images/blank.png width =""200"" height = ""200"" style = ""float:right""></p><p><img src=images/blank.png width =""800"" height = ""200""></p>","","","","","","","","","","","",""
"","787.3849999159575","sequential-stimulus-presentation","107","264489","0.0-23.0-1.4","SS1613079914574","trial","","40","800","1587.3849999159575","images/stimuli/spore_stims/simple_20_B_a.gif","images/stimuli/spore_stims/simple_20_A_a.gif","","","","","5","simple_similar","images/stimuli/spore_stims/simple_20_A_a.gif","middle","","","","",""
"","null","html-keyboard-response","108","265490","0.0-23.0-0.5","SS1613079914574","","","null","","","","","<p><img src= images/blank.png width =""200"" height = ""200"" style = ""float:right""></p><p><img src=images/blank.png width =""800"" height = ""200""></p>","","","","","","","","","","","",""
"","2054.2299998924136","sequential-stimulus-presentation","109","268376","0.0-23.0-1.5","SS1613079914574","trial","","40","800","2854.2299998924136","images/stimuli/spore_stims/simple_20_B_a.gif","images/stimuli/spore_stims/simple_20_A_a.gif","","","","","5","simple_similar","images/stimuli/spore_stims/simple_20_A_a.gif","middle","","","","",""
"","null","html-keyboard-response","110","269431","0.0-23.0-0.6","SS1613079914574","","","null","","","","","<p><img src= images/blank.png width =""200"" height = ""200"" style = ""float:right""></p><p><img src=images/blank.png width =""800"" height = ""200""></p>","","","","","","","","","","","",""
"","2263.9349999371916","sequential-stimulus-presentation","111","272529","0.0-23.0-1.6","SS1613079914574","trial","","40","800","3063.9349999371916","images/stimuli/spore_stims/simple_20_B_a.gif","images/stimuli/spore_stims/simple_20_A_a.gif","","","","","5","simple_similar","images/stimuli/spore_stims/simple_20_A_a.gif","middle","","","","",""
"","null","html-keyboard-response","112","273708","0.0-23.0-0.7","SS1613079914574","","","null","","","","","<p><img src= images/blank.png width =""200"" height = ""200"" style = ""float:right""></p><p><img src=images/blank.png width =""800"" height = ""200""></p>","","","","","","","","","","","",""
"","901.5949999447912","sequential-stimulus-presentation","113","275419","0.0-23.0-1.7","SS1613079914574","trial","","40","800","1701.5949999447912","images/stimuli/spore_stims/simple_20_B_a.gif","images/stimuli/spore_stims/simple_20_A_a.gif","","","","","5","simple_similar","images/stimuli/spore_stims/simple_20_A_a.gif","middle","","","","",""
"","1553.4699999261647","html-keyboard-response","114","276983","0.0-24.0","SS1613079914574","pref_question","","97","","","","","<video width ='960' height = '540' style='padding-top:8%' autoplay muted><source src='images/stimuli/wall_pref.mp4' type='video/mp4'></video>","1","left","25%","5","","","","","","","",""
"","2127.864999929443","sequential-stimulus-presentation","115","279964","0.0-25.0","SS1613079914574","pref_reveal","","40","800","2927.864999929443","null","null","","","","","5","","","","deviant","","","",""
"","null","html-keyboard-response","116","280807","0.0-26.0-0.0","SS1613079914574","","","null","","","","","<p><img src= images/blank.png width =""200"" height = ""200"" style = ""float:right""></p><p><img src=images/blank.png width =""800"" height = ""200""></p>","","","","","","","","","","","",""
"","2698.270000051707","sequential-stimulus-presentation","117","284318","0.0-26.0-1.0","SS1613079914574","trial","","40","800","3498.270000051707","images/stimuli/spore_stims/simple_14_B_b.gif","images/stimuli/spore_stims/simple_14_A_b.gif","","","","","6","simple_similar","images/stimuli/spore_stims/simple_14_A_b.gif","right","","","","",""
"","null","html-keyboard-response","118","285357","0.0-26.0-0.1","SS1613079914574","","","null","","","","","<p><img src= images/blank.png width =""200"" height = ""200"" style = ""float:right""></p><p><img src=images/blank.png width =""800"" height = ""200""></p>","","","","","","","","","","","",""
"","1652.0450001116842","sequential-stimulus-presentation","119","287847","0.0-26.0-1.1","SS1613079914574","trial","","40","800","2452.045000111684","images/stimuli/spore_stims/simple_14_B_b.gif","images/stimuli/spore_stims/simple_14_A_b.gif","","","","","6","simple_similar","images/stimuli/spore_stims/simple_14_A_b.gif","right","","","","",""
"","null","html-keyboard-response","120","289014","0.0-26.0-0.2","SS1613079914574","","","null","","","","","<p><img src= images/blank.png width =""200"" height = ""200"" style = ""float:right""></p><p><img src=images/blank.png width =""800"" height = ""200""></p>","","","","","","","","","","","",""
"","1379.8299999907613","sequential-stimulus-presentation","121","291231","0.0-26.0-1.2","SS1613079914574","trial","","40","800","2179.8299999907613","images/stimuli/spore_stims/simple_14_B_b.gif","images/stimuli/spore_stims/simple_14_A_b.gif","","","","","6","simple_similar","images/stimuli/spore_stims/simple_14_A_b.gif","right","","","","",""
"","null","html-keyboard-response","122","292311","0.0-26.0-0.3","SS1613079914574","","","null","","","","","<p><img src= images/blank.png width =""200"" height = ""200"" style = ""float:right""></p><p><img src=images/blank.png width =""800"" height = ""200""></p>","","","","","","","","","","","",""
"","690.7750000245869","sequential-stimulus-presentation","123","293824","0.0-26.0-1.3","SS1613079914574","trial","","40","800","1490.775000024587","images/stimuli/spore_stims/simple_14_B_b.gif","images/stimuli/spore_stims/simple_14_A_b.gif","","","","","6","simple_similar","images/stimuli/spore_stims/simple_14_A_b.gif","right","","","","",""
"","null","html-keyboard-response","124","294786","0.0-26.0-0.4","SS1613079914574","","","null","","","","","<p><img src= images/blank.png width =""200"" height = ""200"" style = ""float:right""></p><p><img src=images/blank.png width =""800"" height = ""200""></p>","","","","","","","","","","","",""
"","2193.9199999906123","sequential-stimulus-presentation","125","297818","0.0-26.0-1.4","SS1613079914574","trial","","40","800","2993.9199999906123","images/stimuli/spore_stims/simple_14_B_b.gif","images/stimuli/spore_stims/simple_14_A_b.gif","","","","","6","simple_similar","images/stimuli/spore_stims/simple_14_A_b.gif","right","","","","",""
"","null","html-keyboard-response","126","299129","0.0-26.0-0.5","SS1613079914574","","","null","","","","","<p><img src= images/blank.png width =""200"" height = ""200"" style = ""float:right""></p><p><img src=images/blank.png width =""800"" height = ""200""></p>","","","","","","","","","","","",""
"","1852.7750000357628","sequential-stimulus-presentation","127","301815","0.0-26.0-1.5","SS1613079914574","trial","","40","800","2652.775000035763","images/stimuli/spore_stims/simple_14_B_b.gif","images/stimuli/spore_stims/simple_14_A_b.gif","","","","","6","simple_similar","images/stimuli/spore_stims/simple_14_A_b.gif","right","","","","",""
"","null","html-keyboard-response","128","302908","0.0-26.0-0.6","SS1613079914574","","","null","","","","","<p><img src= images/blank.png width =""200"" height = ""200"" style = ""float:right""></p><p><img src=images/blank.png width =""800"" height = ""200""></p>","","","","","","","","","","","",""
"","2435.9550001099706","sequential-stimulus-presentation","129","306182","0.0-26.0-1.6","SS1613079914574","trial","","40","800","3235.9550001099706","images/stimuli/spore_stims/simple_14_B_b.gif","images/stimuli/spore_stims/simple_14_A_b.gif","","","","","6","simple_similar","images/stimuli/spore_stims/simple_14_B_b.gif","left","","","","",""
"","null","html-keyboard-response","130","307228","0.0-26.0-0.7","SS1613079914574","","","null","","","","","<p><img src= images/blank.png width =""200"" height = ""200"" style = ""float:right""></p><p><img src=images/blank.png width =""800"" height = ""200""></p>","","","","","","","","","","","",""
"","2354.1399999521673","sequential-stimulus-presentation","131","310416","0.0-26.0-1.7","SS1613079914574","trial","","40","800","3154.1399999521673","images/stimuli/spore_stims/simple_14_B_b.gif","images/stimuli/spore_stims/simple_14_A_b.gif","","","","","6","simple_similar","images/stimuli/spore_stims/simple_14_A_b.gif","right","","","","",""
"","1428.3149999100715","html-keyboard-response","132","311872","0.0-27.0","SS1613079914574","pref_question","","98","","","","","<video width ='960' height = '540' style='padding-top:8%' autoplay muted><source src='images/stimuli/wall_pref.mp4' type='video/mp4'></video>","2","middle","45%","6","","","","","","","",""
"","2024.1799999494106","sequential-stimulus-presentation","133","314746","0.0-28.0","SS1613079914574","pref_reveal","","40","800","2824.1799999494106","null","null","","","","","6","","","","novel","","","",""
"","null","html-keyboard-response","134","315626","0.0-29.0-0.0","SS1613079914574","","","null","","","","","<p><img src= images/blank.png width =""200"" height = ""200"" style = ""float:right""></p><p><img src=images/blank.png width =""800"" height = ""200""></p>","","","","","","","","","","","",""
"","1516.3049998227507","sequential-stimulus-presentation","135","317958","0.0-29.0-1.0","SS1613079914574","trial","","40","800","2316.3049998227507","images/stimuli/spore_stims/complex_13_A_c.gif","images/stimuli/spore_stims/complex_16_B_c.gif","","","","","7","complex_dissimilar","images/stimuli/spore_stims/complex_16_B_c.gif","left","","","","",""
"","null","html-keyboard-response","136","319030","0.0-29.0-0.1","SS1613079914574","","","null","","","","","<p><img src= images/blank.png width =""200"" height = ""200"" style = ""float:right""></p><p><img src=images/blank.png width =""800"" height = ""200""></p>","","","","","","","","","","","",""
"","1894.4299998693168","sequential-stimulus-presentation","137","321735","0.0-29.0-1.1","SS1613079914574","trial","","40","800","2694.429999869317","images/stimuli/spore_stims/complex_13_A_c.gif","images/stimuli/spore_stims/complex_16_B_c.gif","","","","","7","complex_dissimilar","images/stimuli/spore_stims/complex_16_B_c.gif","left","","","","",""
"","null","html-keyboard-response","138","322702","0.0-29.0-0.2","SS1613079914574","","","null","","","","","<p><img src= images/blank.png width =""200"" height = ""200"" style = ""float:right""></p><p><img src=images/blank.png width =""800"" height = ""200""></p>","","","","","","","","","","","",""
"","1448.3300000429153","sequential-stimulus-presentation","139","324965","0.0-29.0-1.2","SS1613079914574","trial","","40","800","2248.3300000429153","images/stimuli/spore_stims/complex_13_A_c.gif","images/stimuli/spore_stims/complex_16_B_c.gif","","","","","7","complex_dissimilar","images/stimuli/spore_stims/complex_16_B_c.gif","left","","","","",""
"","null","html-keyboard-response","140","326218","0.0-29.0-0.3","SS1613079914574","","","null","","","","","<p><img src= images/blank.png width =""200"" height = ""200"" style = ""float:right""></p><p><img src=images/blank.png width =""800"" height = ""200""></p>","","","","","","","","","","","",""
"","890.3749999590218","sequential-stimulus-presentation","141","327941","0.0-29.0-1.3","SS1613079914574","trial","","40","800","1690.3749999590218","images/stimuli/spore_stims/complex_13_A_c.gif","images/stimuli/spore_stims/complex_16_B_c.gif","","","","","7","complex_dissimilar","images/stimuli/spore_stims/complex_16_B_c.gif","left","","","","",""
"","null","html-keyboard-response","142","329044","0.0-29.0-0.4","SS1613079914574","","","null","","","","","<p><img src= images/blank.png width =""200"" height = ""200"" style = ""float:right""></p><p><img src=images/blank.png width =""800"" height = ""200""></p>","","","","","","","","","","","",""
"","1410.4750000406057","sequential-stimulus-presentation","143","331293","0.0-29.0-1.4","SS1613079914574","trial","","40","800","2210.4750000406057","images/stimuli/spore_stims/complex_13_A_c.gif","images/stimuli/spore_stims/complex_16_B_c.gif","","","","","7","complex_dissimilar","images/stimuli/spore_stims/complex_16_B_c.gif","left","","","","",""
"","null","html-keyboard-response","144","332205","0.0-29.0-0.5","SS1613079914574","","","null","","","","","<p><img src= images/blank.png width =""200"" height = ""200"" style = ""float:right""></p><p><img src=images/blank.png width =""800"" height = ""200""></p>","","","","","","","","","","","",""
"","2250.4650000482798","sequential-stimulus-presentation","145","335307","0.0-29.0-1.5","SS1613079914574","trial","","40","800","3050.4650000482798","images/stimuli/spore_stims/complex_13_A_c.gif","images/stimuli/spore_stims/complex_16_B_c.gif","","","","","7","complex_dissimilar","images/stimuli/spore_stims/complex_16_B_c.gif","left","","","","",""
"","null","html-keyboard-response","146","336560","0.0-29.0-0.6","SS1613079914574","","","null","","","","","<p><img src= images/blank.png width =""200"" height = ""200"" style = ""float:right""></p><p><img src=images/blank.png width =""800"" height = ""200""></p>","","","","","","","","","","","",""
"","2477.025000145659","sequential-stimulus-presentation","147","339876","0.0-29.0-1.6","SS1613079914574","trial","","40","800","3277.025000145659","images/stimuli/spore_stims/complex_13_A_c.gif","images/stimuli/spore_stims/complex_16_B_c.gif","","","","","7","complex_dissimilar","images/stimuli/spore_stims/complex_13_A_c.gif","right","","","","",""
"","null","html-keyboard-response","148","340866","0.0-29.0-0.7","SS1613079914574","","","null","","","","","<p><img src= images/blank.png width =""200"" height = ""200"" style = ""float:right""></p><p><img src=images/blank.png width =""800"" height = ""200""></p>","","","","","","","","","","","",""
"","2793.9249998889863","sequential-stimulus-presentation","149","344490","0.0-29.0-1.7","SS1613079914574","trial","","40","800","3593.9249998889863","images/stimuli/spore_stims/complex_13_A_c.gif","images/stimuli/spore_stims/complex_16_B_c.gif","","","","","7","complex_dissimilar","images/stimuli/spore_stims/complex_16_B_c.gif","left","","","","",""
"","1480.8549999725074","html-keyboard-response","150","345986","0.0-30.0","SS1613079914574","pref_question","","98","","","","","<video width ='960' height = '540' style='padding-top:8%' autoplay muted><source src='images/stimuli/wall_pref.mp4' type='video/mp4'></video>","2","middle","45%","7","","","","","","","",""
"","2553.0399999115616","sequential-stimulus-presentation","151","349382","0.0-31.0","SS1613079914574","pref_reveal","","40","800","3353.0399999115616","null","null","","","","","7","","","","novel","","","",""
"","null","html-keyboard-response","152","350426","0.0-32.0-0.0","SS1613079914574","","","null","","","","","<p><img src= images/blank.png width =""200"" height = ""200"" style = ""float:right""></p><p><img src=images/blank.png width =""800"" height = ""200""></p>","","","","","","","","","","","",""
"","2286.100000143051","sequential-stimulus-presentation","153","353566","0.0-32.0-1.0","SS1613079914574","trial","","40","800","3086.100000143051","images/stimuli/spore_stims/complex_08_B_c.gif","images/stimuli/spore_stims/complex_03_B_d.gif","","","","","8","complex_dissimilar","images/stimuli/spore_stims/complex_03_B_d.gif","middle","","","","",""
"","null","html-keyboard-response","154","354446","0.0-32.0-0.1","SS1613079914574","","","null","","","","","<p><img src= images/blank.png width =""200"" height = ""200"" style = ""float:right""></p><p><img src=images/blank.png width =""800"" height = ""200""></p>","","","","","","","","","","","",""
"","2322.2400001250207","sequential-stimulus-presentation","155","357611","0.0-32.0-1.1","SS1613079914574","trial","","40","800","3122.2400001250207","images/stimuli/spore_stims/complex_08_B_c.gif","images/stimuli/spore_stims/complex_03_B_d.gif","","","","","8","complex_dissimilar","images/stimuli/spore_stims/complex_03_B_d.gif","middle","","","","",""
"","null","html-keyboard-response","156","358914","0.0-32.0-0.2","SS1613079914574","","","null","","","","","<p><img src= images/blank.png width =""200"" height = ""200"" style = ""float:right""></p><p><img src=images/blank.png width =""800"" height = ""200""></p>","","","","","","","","","","","",""
"","2133.0949999392033","sequential-stimulus-presentation","157","361887","0.0-32.0-1.2","SS1613079914574","trial","","40","800","2933.0949999392033","images/stimuli/spore_stims/complex_08_B_c.gif","images/stimuli/spore_stims/complex_03_B_d.gif","","","","","8","complex_dissimilar","images/stimuli/spore_stims/complex_03_B_d.gif","middle","","","","",""
"","null","html-keyboard-response","158","363043","0.0-32.0-0.3","SS1613079914574","","","null","","","","","<p><img src= images/blank.png width =""200"" height = ""200"" style = ""float:right""></p><p><img src=images/blank.png width =""800"" height = ""200""></p>","","","","","","","","","","","",""
"","1531.7449998110533","sequential-stimulus-presentation","159","365390","0.0-32.0-1.3","SS1613079914574","trial","","40","800","2331.7449998110533","images/stimuli/spore_stims/complex_08_B_c.gif","images/stimuli/spore_stims/complex_03_B_d.gif","","","","","8","complex_dissimilar","images/stimuli/spore_stims/complex_08_B_c.gif","left","","","","",""
"","null","html-keyboard-response","160","366564","0.0-32.0-0.4","SS1613079914574","","","null","","","","","<p><img src= images/blank.png width =""200"" height = ""200"" style = ""float:right""></p><p><img src=images/blank.png width =""800"" height = ""200""></p>","","","","","","","","","","","",""
"","2309.624999994412","sequential-stimulus-presentation","161","369715","0.0-32.0-1.4","SS1613079914574","trial","","40","800","3109.624999994412","images/stimuli/spore_stims/complex_08_B_c.gif","images/stimuli/spore_stims/complex_03_B_d.gif","","","","","8","complex_dissimilar","images/stimuli/spore_stims/complex_03_B_d.gif","middle","","","","",""
"","null","html-keyboard-response","162","370898","0.0-32.0-0.5","SS1613079914574","","","null","","","","","<p><img src= images/blank.png width =""200"" height = ""200"" style = ""float:right""></p><p><img src=images/blank.png width =""800"" height = ""200""></p>","","","","","","","","","","","",""
"","2350.3900000359863","sequential-stimulus-presentation","163","374092","0.0-32.0-1.5","SS1613079914574","trial","","40","800","3150.3900000359863","images/stimuli/spore_stims/complex_08_B_c.gif","images/stimuli/spore_stims/complex_03_B_d.gif","","","","","8","complex_dissimilar","images/stimuli/spore_stims/complex_03_B_d.gif","middle","","","","",""
"","null","html-keyboard-response","164","375389","0.0-32.0-0.6","SS1613079914574","","","null","","","","","<p><img src= images/blank.png width =""200"" height = ""200"" style = ""float:right""></p><p><img src=images/blank.png width =""800"" height = ""200""></p>","","","","","","","","","","","",""
"","2727.845000103116","sequential-stimulus-presentation","165","378953","0.0-32.0-1.6","SS1613079914574","trial","","40","800","3527.845000103116","images/stimuli/spore_stims/complex_08_B_c.gif","images/stimuli/spore_stims/complex_03_B_d.gif","","","","","8","complex_dissimilar","images/stimuli/spore_stims/complex_03_B_d.gif","middle","","","","",""
"","null","html-keyboard-response","166","380177","0.0-32.0-0.7","SS1613079914574","","","null","","","","","<p><img src= images/blank.png width =""200"" height = ""200"" style = ""float:right""></p><p><img src=images/blank.png width =""800"" height = ""200""></p>","","","","","","","","","","","",""
"","2592.295000096783","sequential-stimulus-presentation","167","383613","0.0-32.0-1.7","SS1613079914574","trial","","40","800","3392.295000096783","images/stimuli/spore_stims/complex_08_B_c.gif","images/stimuli/spore_stims/complex_03_B_d.gif","","","","","8","complex_dissimilar","images/stimuli/spore_stims/complex_03_B_d.gif","middle","","","","",""
"","1686.0199999064207","html-keyboard-response","168","385314","0.0-33.0","SS1613079914574","pref_question","","98","","","","","<video width ='960' height = '540' style='padding-top:8%' autoplay muted><source src='images/stimuli/wall_pref.mp4' type='video/mp4'></video>","2","middle","45%","8","","","","","","","",""
"","3649.250000016764","sequential-stimulus-presentation","169","389805","0.0-34.0","SS1613079914574","pref_reveal","","40","800","4449.250000016764","null","null","","","","","8","","","","background","","","",""
"","null","html-keyboard-response","170","390754","0.0-35.0-0.0","SS1613079914574","","","null","","","","","<p><img src= images/blank.png width =""200"" height = ""200"" style = ""float:right""></p><p><img src=images/blank.png width =""800"" height = ""200""></p>","","","","","","","","","","","",""
"","2419.745000079274","sequential-stimulus-presentation","171","394008","0.0-35.0-1.0","SS1613079914574","trial","","40","800","3219.745000079274","images/stimuli/spore_stims/complex_01_A_d.gif","images/stimuli/spore_stims/complex_01_B_d.gif","","","","","9","complex_similar","images/stimuli/spore_stims/complex_01_B_d.gif","left","","","","",""
"","null","html-keyboard-response","172","395285","0.0-35.0-0.1","SS1613079914574","","","null","","","","","<p><img src= images/blank.png width =""200"" height = ""200"" style = ""float:right""></p><p><img src=images/blank.png width =""800"" height = ""200""></p>","","","","","","","","","","","",""
"","1767.7350000012666","sequential-stimulus-presentation","173","397868","0.0-35.0-1.1","SS1613079914574","trial","","40","800","2567.7350000012666","images/stimuli/spore_stims/complex_01_A_d.gif","images/stimuli/spore_stims/complex_01_B_d.gif","","","","","9","complex_similar","images/stimuli/spore_stims/complex_01_B_d.gif","left","","","","",""
"","null","html-keyboard-response","174","398742","0.0-35.0-0.2","SS1613079914574","","","null","","","","","<p><img src= images/blank.png width =""200"" height = ""200"" style = ""float:right""></p><p><img src=images/blank.png width =""800"" height = ""200""></p>","","","","","","","","","","","",""
"","2078.620000043884","sequential-stimulus-presentation","175","401667","0.0-35.0-1.2","SS1613079914574","trial","","40","800","2878.620000043884","images/stimuli/spore_stims/complex_01_A_d.gif","images/stimuli/spore_stims/complex_01_B_d.gif","","","","","9","complex_similar","images/stimuli/spore_stims/complex_01_B_d.gif","left","","","","",""
"","null","html-keyboard-response","176","402831","0.0-35.0-0.3","SS1613079914574","","","null","","","","","<p><img src= images/blank.png width =""200"" height = ""200"" style = ""float:right""></p><p><img src=images/blank.png width =""800"" height = ""200""></p>","","","","","","","","","","","",""
"","1928.5049999598414","sequential-stimulus-presentation","177","405607","0.0-35.0-1.3","SS1613079914574","trial","","40","800","2728.5049999598414","images/stimuli/spore_stims/complex_01_A_d.gif","images/stimuli/spore_stims/complex_01_B_d.gif","","","","","9","complex_similar","images/stimuli/spore_stims/complex_01_B_d.gif","left","","","","",""
"","null","html-keyboard-response","178","406755","0.0-35.0-0.4","SS1613079914574","","","null","","","","","<p><img src= images/blank.png width =""200"" height = ""200"" style = ""float:right""></p><p><img src=images/blank.png width =""800"" height = ""200""></p>","","","","","","","","","","","",""
"","1516.0900000482798","sequential-stimulus-presentation","179","409112","0.0-35.0-1.4","SS1613079914574","trial","","40","800","2316.0900000482798","images/stimuli/spore_stims/complex_01_A_d.gif","images/stimuli/spore_stims/complex_01_B_d.gif","","","","","9","complex_similar","images/stimuli/spore_stims/complex_01_B_d.gif","left","","","","",""
"","null","html-keyboard-response","180","410222","0.0-35.0-0.5","SS1613079914574","","","null","","","","","<p><img src= images/blank.png width =""200"" height = ""200"" style = ""float:right""></p><p><img src=images/blank.png width =""800"" height = ""200""></p>","","","","","","","","","","","",""
"","1626.9849999807775","sequential-stimulus-presentation","181","412695","0.0-35.0-1.5","SS1613079914574","trial","","40","800","2426.9849999807775","images/stimuli/spore_stims/complex_01_A_d.gif","images/stimuli/spore_stims/complex_01_B_d.gif","","","","","9","complex_similar","images/stimuli/spore_stims/complex_01_B_d.gif","left","","","","",""
"","null","html-keyboard-response","182","413854","0.0-35.0-0.6","SS1613079914574","","","null","","","","","<p><img src= images/blank.png width =""200"" height = ""200"" style = ""float:right""></p><p><img src=images/blank.png width =""800"" height = ""200""></p>","","","","","","","","","","","",""
"","1629.2350001167506","sequential-stimulus-presentation","183","416315","0.0-35.0-1.6","SS1613079914574","trial","","40","800","2429.2350001167506","images/stimuli/spore_stims/complex_01_A_d.gif","images/stimuli/spore_stims/complex_01_B_d.gif","","","","","9","complex_similar","images/stimuli/spore_stims/complex_01_A_d.gif","right","","","","",""
"","null","html-keyboard-response","184","417374","0.0-35.0-0.7","SS1613079914574","","","null","","","","","<p><img src= images/blank.png width =""200"" height = ""200"" style = ""float:right""></p><p><img src=images/blank.png width =""800"" height = ""200""></p>","","","","","","","","","","","",""
"","1268.7399999704212","sequential-stimulus-presentation","185","419487","0.0-35.0-1.7","SS1613079914574","trial","","40","800","2068.739999970421","images/stimuli/spore_stims/complex_01_A_d.gif","images/stimuli/spore_stims/complex_01_B_d.gif","","","","","9","complex_similar","images/stimuli/spore_stims/complex_01_B_d.gif","left","","","","",""
"","1745.8550001028925","html-keyboard-response","186","421273","0.0-36.0","SS1613079914574","pref_question","","99","","","","","<video width ='960' height = '540' style='padding-top:8%' autoplay muted><source src='images/stimuli/wall_pref.mp4' type='video/mp4'></video>","3","right","66%","9","","","","","","","",""
"","2467.0499998610467","sequential-stimulus-presentation","187","424566","0.0-37.0","SS1613079914574","pref_reveal","","40","800","3267.0499998610467","null","null","","","","","9","","","","deviant","","","",""
"","null","html-keyboard-response","188","425779","0.0-38.0-0.0","SS1613079914574","","","null","","","","","<p><img src= images/blank.png width =""200"" height = ""200"" style = ""float:right""></p><p><img src=images/blank.png width =""800"" height = ""200""></p>","","","","","","","","","","","",""
"","1874.6399998199195","sequential-stimulus-presentation","189","428499","0.0-38.0-1.0","SS1613079914574","trial","","40","800","2674.6399998199195","images/stimuli/spore_stims/complex_04_A_b.gif","images/stimuli/spore_stims/complex_14_B_c.gif","","","","","10","complex_dissimilar","images/stimuli/spore_stims/complex_14_B_c.gif","left","","","","",""
"","null","html-keyboard-response","190","429618","0.0-38.0-0.1","SS1613079914574","","","null","","","","","<p><img src= images/blank.png width =""200"" height = ""200"" style = ""float:right""></p><p><img src=images/blank.png width =""800"" height = ""200""></p>","","","","","","","","","","","",""
"","1473.1350000947714","sequential-stimulus-presentation","191","431934","0.0-38.0-1.1","SS1613079914574","trial","","40","800","2273.1350000947714","images/stimuli/spore_stims/complex_04_A_b.gif","images/stimuli/spore_stims/complex_14_B_c.gif","","","","","10","complex_dissimilar","images/stimuli/spore_stims/complex_14_B_c.gif","left","","","","",""
"","null","html-keyboard-response","192","432976","0.0-38.0-0.2","SS1613079914574","","","null","","","","","<p><img src= images/blank.png width =""200"" height = ""200"" style = ""float:right""></p><p><img src=images/blank.png width =""800"" height = ""200""></p>","","","","","","","","","","","",""
"","1235.5850001331419","sequential-stimulus-presentation","193","435036","0.0-38.0-1.2","SS1613079914574","trial","","40","800","2035.5850001331419","images/stimuli/spore_stims/complex_04_A_b.gif","images/stimuli/spore_stims/complex_14_B_c.gif","","","","","10","complex_dissimilar","images/stimuli/spore_stims/complex_14_B_c.gif","left","","","","",""
"","null","html-keyboard-response","194","435880","0.0-38.0-0.3","SS1613079914574","","","null","","","","","<p><img src= images/blank.png width =""200"" height = ""200"" style = ""float:right""></p><p><img src=images/blank.png width =""800"" height = ""200""></p>","","","","","","","","","","","",""
"","1274.0400000475347","sequential-stimulus-presentation","195","438004","0.0-38.0-1.3","SS1613079914574","trial","","40","800","2074.0400000475347","images/stimuli/spore_stims/complex_04_A_b.gif","images/stimuli/spore_stims/complex_14_B_c.gif","","","","","10","complex_dissimilar","images/stimuli/spore_stims/complex_14_B_c.gif","left","","","","",""
"","null","html-keyboard-response","196","439306","0.0-38.0-0.4","SS1613079914574","","","null","","","","","<p><img src= images/blank.png width =""200"" height = ""200"" style = ""float:right""></p><p><img src=images/blank.png width =""800"" height = ""200""></p>","","","","","","","","","","","",""
"","930.8499998878688","sequential-stimulus-presentation","197","441050","0.0-38.0-1.4","SS1613079914574","trial","","40","800","1730.8499998878688","images/stimuli/spore_stims/complex_04_A_b.gif","images/stimuli/spore_stims/complex_14_B_c.gif","","","","","10","complex_dissimilar","images/stimuli/spore_stims/complex_14_B_c.gif","left","","","","",""
"","null","html-keyboard-response","198","441912","0.0-38.0-0.5","SS1613079914574","","","null","","","","","<p><img src= images/blank.png width =""200"" height = ""200"" style = ""float:right""></p><p><img src=images/blank.png width =""800"" height = ""200""></p>","","","","","","","","","","","",""
"","1172.2949999384582","sequential-stimulus-presentation","199","443932","0.0-38.0-1.5","SS1613079914574","trial","","40","800","1972.2949999384582","images/stimuli/spore_stims/complex_04_A_b.gif","images/stimuli/spore_stims/complex_14_B_c.gif","","","","","10","complex_dissimilar","images/stimuli/spore_stims/complex_14_B_c.gif","left","","","","",""
"","null","html-keyboard-response","200","445022","0.0-38.0-0.6","SS1613079914574","","","null","","","","","<p><img src= images/blank.png width =""200"" height = ""200"" style = ""float:right""></p><p><img src=images/blank.png width =""800"" height = ""200""></p>","","","","","","","","","","","",""
"","1407.7900000847876","sequential-stimulus-presentation","201","447278","0.0-38.0-1.6","SS1613079914574","trial","","40","800","2207.7900000847876","images/stimuli/spore_stims/complex_04_A_b.gif","images/stimuli/spore_stims/complex_14_B_c.gif","","","","","10","complex_dissimilar","images/stimuli/spore_stims/complex_14_B_c.gif","left","","","","",""
"","null","html-keyboard-response","202","448576","0.0-38.0-0.7","SS1613079914574","","","null","","","","","<p><img src= images/blank.png width =""200"" height = ""200"" style = ""float:right""></p><p><img src=images/blank.png width =""800"" height = ""200""></p>","","","","","","","","","","","",""
"","1106.154999928549","sequential-stimulus-presentation","203","450525","0.0-38.0-1.7","SS1613079914574","trial","","40","800","1906.154999928549","images/stimuli/spore_stims/complex_04_A_b.gif","images/stimuli/spore_stims/complex_14_B_c.gif","","","","","10","complex_dissimilar","images/stimuli/spore_stims/complex_04_A_b.gif","right","","","","",""
"","1629.0249999146909","html-keyboard-response","204","452197","0.0-39.0","SS1613079914574","pref_question","","97","","","","","<video width ='960' height = '540' style='padding-top:8%' autoplay muted><source src='images/stimuli/wall_pref.mp4' type='video/mp4'></video>","1","left","25%","10","","","","","","","",""
"","1344.2050002049655","sequential-stimulus-presentation","205","454356","0.0-40.0","SS1613079914574","pref_reveal","","40","800","2144.2050002049655","null","null","","","","","10","","","","background","","","",""
"","null","html-keyboard-response","206","455190","0.0-41.0-0.0","SS1613079914574","","","null","","","","","<p><img src= images/blank.png width =""200"" height = ""200"" style = ""float:right""></p><p><img src=images/blank.png width =""800"" height = ""200""></p>","","","","","","","","","","","",""
"","1601.9599998835474","sequential-stimulus-presentation","207","457627","0.0-41.0-1.0","SS1613079914574","trial","","40","800","2401.9599998835474","images/stimuli/spore_stims/simple_20_B_b.gif","images/stimuli/spore_stims/simple_08_B_b.gif","","","","","11","simple_dissimilar","images/stimuli/spore_stims/simple_08_B_b.gif","left","","","","",""
"","null","html-keyboard-response","208","458467","0.0-41.0-0.1","SS1613079914574","","","null","","","","","<p><img src= images/blank.png width =""200"" height = ""200"" style = ""float:right""></p><p><img src=images/blank.png width =""800"" height = ""200""></p>","","","","","","","","","","","",""
"","661.2249999307096","sequential-stimulus-presentation","209","459980","0.0-41.0-1.1","SS1613079914574","trial","","40","800","1461.2249999307096","images/stimuli/spore_stims/simple_20_B_b.gif","images/stimuli/spore_stims/simple_08_B_b.gif","","","","","11","simple_dissimilar","images/stimuli/spore_stims/simple_08_B_b.gif","left","","","","",""
"","null","html-keyboard-response","210","461056","0.0-41.0-0.2","SS1613079914574","","","null","","","","","<p><img src= images/blank.png width =""200"" height = ""200"" style = ""float:right""></p><p><img src=images/blank.png width =""800"" height = ""200""></p>","","","","","","","","","","","",""
"","568.6200000345707","sequential-stimulus-presentation","211","462470","0.0-41.0-1.2","SS1613079914574","trial","","40","800","1368.6200000345707","images/stimuli/spore_stims/simple_20_B_b.gif","images/stimuli/spore_stims/simple_08_B_b.gif","","","","","11","simple_dissimilar","images/stimuli/spore_stims/simple_08_B_b.gif","left","","","","",""
"","null","html-keyboard-response","212","463335","0.0-41.0-0.3","SS1613079914574","","","null","","","","","<p><img src= images/blank.png width =""200"" height = ""200"" style = ""float:right""></p><p><img src=images/blank.png width =""800"" height = ""200""></p>","","","","","","","","","","","",""
"","1124.0900000557303","sequential-stimulus-presentation","213","465277","0.0-41.0-1.3","SS1613079914574","trial","","40","800","1924.0900000557303","images/stimuli/spore_stims/simple_20_B_b.gif","images/stimuli/spore_stims/simple_08_B_b.gif","","","","","11","simple_dissimilar","images/stimuli/spore_stims/simple_20_B_b.gif","middle","","","","",""
"","null","html-keyboard-response","214","466226","0.0-41.0-0.4","SS1613079914574","","","null","","","","","<p><img src= images/blank.png width =""200"" height = ""200"" style = ""float:right""></p><p><img src=images/blank.png width =""800"" height = ""200""></p>","","","","","","","","","","","",""
"","766.1399999633431","sequential-stimulus-presentation","215","467838","0.0-41.0-1.4","SS1613079914574","trial","","40","800","1566.1399999633431","images/stimuli/spore_stims/simple_20_B_b.gif","images/stimuli/spore_stims/simple_08_B_b.gif","","","","","11","simple_dissimilar","images/stimuli/spore_stims/simple_08_B_b.gif","left","","","","",""
"","null","html-keyboard-response","216","468847","0.0-41.0-0.5","SS1613079914574","","","null","","","","","<p><img src= images/blank.png width =""200"" height = ""200"" style = ""float:right""></p><p><img src=images/blank.png width =""800"" height = ""200""></p>","","","","","","","","","","","",""
"","1248.09499992989","sequential-stimulus-presentation","217","470928","0.0-41.0-1.5","SS1613079914574","trial","","40","800","2048.09499992989","images/stimuli/spore_stims/simple_20_B_b.gif","images/stimuli/spore_stims/simple_08_B_b.gif","","","","","11","simple_dissimilar","images/stimuli/spore_stims/simple_08_B_b.gif","left","","","","",""
"","null","html-keyboard-response","218","472187","0.0-41.0-0.6","SS1613079914574","","","null","","","","","<p><img src= images/blank.png width =""200"" height = ""200"" style = ""float:right""></p><p><img src=images/blank.png width =""800"" height = ""200""></p>","","","","","","","","","","","",""
"","1610.605000052601","sequential-stimulus-presentation","219","474642","0.0-41.0-1.6","SS1613079914574","trial","","40","800","2410.605000052601","images/stimuli/spore_stims/simple_20_B_b.gif","images/stimuli/spore_stims/simple_08_B_b.gif","","","","","11","simple_dissimilar","images/stimuli/spore_stims/simple_08_B_b.gif","left","","","","",""
"","null","html-keyboard-response","220","475788","0.0-41.0-0.7","SS1613079914574","","","null","","","","","<p><img src= images/blank.png width =""200"" height = ""200"" style = ""float:right""></p><p><img src=images/blank.png width =""800"" height = ""200""></p>","","","","","","","","","","","",""
"","965.1499998290092","sequential-stimulus-presentation","221","477599","0.0-41.0-1.7","SS1613079914574","trial","","40","800","1765.1499998290092","images/stimuli/spore_stims/simple_20_B_b.gif","images/stimuli/spore_stims/simple_08_B_b.gif","","","","","11","simple_dissimilar","images/stimuli/spore_stims/simple_08_B_b.gif","left","","","","",""
"","1476.6250001266599","html-keyboard-response","222","479113","0.0-42.0","SS1613079914574","pref_question","","99","","","","","<video width ='960' height = '540' style='padding-top:8%' autoplay muted><source src='images/stimuli/wall_pref.mp4' type='video/mp4'></video>","3","right","66%","11","","","","","","","",""
"","2374.904999975115","sequential-stimulus-presentation","223","482319","0.0-43.0","SS1613079914574","pref_reveal","","40","800","3174.904999975115","null","null","","","","","11","","","","novel","","","",""
"","null","html-keyboard-response","224","483477","0.0-44.0-0.0","SS1613079914574","","","null","","","","","<p><img src= images/blank.png width =""200"" height = ""200"" style = ""float:right""></p><p><img src=images/blank.png width =""800"" height = ""200""></p>","","","","","","","","","","","",""
"","602.7150000445545","sequential-stimulus-presentation","225","484920","0.0-44.0-1.0","SS1613079914574","trial","","40","800","1402.7150000445545","images/stimuli/spore_stims/simple_10_B_d.gif","images/stimuli/spore_stims/simple_19_B_d.gif","","","","","12","simple_dissimilar","images/stimuli/spore_stims/simple_19_B_d.gif","left","","","","",""
"","null","html-keyboard-response","226","486132","0.0-44.0-0.1","SS1613079914574","","","null","","","","","<p><img src= images/blank.png width =""200"" height = ""200"" style = ""float:right""></p><p><img src=images/blank.png width =""800"" height = ""200""></p>","","","","","","","","","","","",""
"","1480.2200000267476","sequential-stimulus-presentation","227","488462","0.0-44.0-1.1","SS1613079914574","trial","","40","800","2280.2200000267476","images/stimuli/spore_stims/simple_10_B_d.gif","images/stimuli/spore_stims/simple_19_B_d.gif","","","","","12","simple_dissimilar","images/stimuli/spore_stims/simple_19_B_d.gif","left","","","","",""
"","null","html-keyboard-response","228","489653","0.0-44.0-0.2","SS1613079914574","","","null","","","","","<p><img src= images/blank.png width =""200"" height = ""200"" style = ""float:right""></p><p><img src=images/blank.png width =""800"" height = ""200""></p>","","","","","","","","","","","",""
"","1194.9499999172986","sequential-stimulus-presentation","229","491694","0.0-44.0-1.2","SS1613079914574","trial","","40","800","1994.9499999172986","images/stimuli/spore_stims/simple_10_B_d.gif","images/stimuli/spore_stims/simple_19_B_d.gif","","","","","12","simple_dissimilar","images/stimuli/spore_stims/simple_19_B_d.gif","left","","","","",""
"","null","html-keyboard-response","230","493000","0.0-44.0-0.3","SS1613079914574","","","null","","","","","<p><img src= images/blank.png width =""200"" height = ""200"" style = ""float:right""></p><p><img src=images/blank.png width =""800"" height = ""200""></p>","","","","","","","","","","","",""
"","901.0349998716265","sequential-stimulus-presentation","231","494751","0.0-44.0-1.3","SS1613079914574","trial","","40","800","1701.0349998716265","images/stimuli/spore_stims/simple_10_B_d.gif","images/stimuli/spore_stims/simple_19_B_d.gif","","","","","12","simple_dissimilar","images/stimuli/spore_stims/simple_19_B_d.gif","left","","","","",""
"","null","html-keyboard-response","232","495719","0.0-44.0-0.4","SS1613079914574","","","null","","","","","<p><img src= images/blank.png width =""200"" height = ""200"" style = ""float:right""></p><p><img src=images/blank.png width =""800"" height = ""200""></p>","","","","","","","","","","","",""
"","1234.110000077635","sequential-stimulus-presentation","233","497785","0.0-44.0-1.4","SS1613079914574","trial","","40","800","2034.110000077635","images/stimuli/spore_stims/simple_10_B_d.gif","images/stimuli/spore_stims/simple_19_B_d.gif","","","","","12","simple_dissimilar","images/stimuli/spore_stims/simple_19_B_d.gif","left","","","","",""
"","null","html-keyboard-response","234","498629","0.0-44.0-0.5","SS1613079914574","","","null","","","","","<p><img src= images/blank.png width =""200"" height = ""200"" style = ""float:right""></p><p><img src=images/blank.png width =""800"" height = ""200""></p>","","","","","","","","","","","",""
"","1481.9800001569092","sequential-stimulus-presentation","235","500949","0.0-44.0-1.5","SS1613079914574","trial","","40","800","2281.980000156909","images/stimuli/spore_stims/simple_10_B_d.gif","images/stimuli/spore_stims/simple_19_B_d.gif","","","","","12","simple_dissimilar","images/stimuli/spore_stims/simple_19_B_d.gif","left","","","","",""
"","null","html-keyboard-response","236","502087","0.0-44.0-0.6","SS1613079914574","","","null","","","","","<p><img src= images/blank.png width =""200"" height = ""200"" style = ""float:right""></p><p><img src=images/blank.png width =""800"" height = ""200""></p>","","","","","","","","","","","",""
"","1871.5450000017881","sequential-stimulus-presentation","237","504813","0.0-44.0-1.6","SS1613079914574","trial","","40","800","2671.545000001788","images/stimuli/spore_stims/simple_10_B_d.gif","images/stimuli/spore_stims/simple_19_B_d.gif","","","","","12","simple_dissimilar","images/stimuli/spore_stims/simple_10_B_d.gif","middle","","","","",""
"","null","html-keyboard-response","238","505954","0.0-44.0-0.7","SS1613079914574","","","null","","","","","<p><img src= images/blank.png width =""200"" height = ""200"" style = ""float:right""></p><p><img src=images/blank.png width =""800"" height = ""200""></p>","","","","","","","","","","","",""
"","1045.4349999781698","sequential-stimulus-presentation","239","507837","0.0-44.0-1.7","SS1613079914574","trial","","40","800","1845.4349999781698","images/stimuli/spore_stims/simple_10_B_d.gif","images/stimuli/spore_stims/simple_19_B_d.gif","","","","","12","simple_dissimilar","images/stimuli/spore_stims/simple_19_B_d.gif","left","","","","",""
"","1539.4900001119822","html-keyboard-response","240","509416","0.0-45.0","SS1613079914574","pref_question","","98","","","","","<video width ='960' height = '540' style='padding-top:8%' autoplay muted><source src='images/stimuli/wall_pref.mp4' type='video/mp4'></video>","2","middle","45%","12","","","","","","","",""
"","2198.080000001937","sequential-stimulus-presentation","241","512462","0.0-46.0","SS1613079914574","pref_reveal","","40","800","2998.080000001937","null","null","","","","","12","","","","deviant","","","",""
"","null","html-keyboard-response","242","513720","0.0-47.0-0.0","SS1613079914574","","","null","","","","","<p><img src= images/blank.png width =""200"" height = ""200"" style = ""float:right""></p><p><img src=images/blank.png width =""800"" height = ""200""></p>","","","","","","","","","","","",""
"","1488.090000115335","sequential-stimulus-presentation","243","516030","0.0-47.0-1.0","SS1613079914574","trial","","40","800","2288.090000115335","images/stimuli/spore_stims/simple_03_A_d.gif","images/stimuli/spore_stims/simple_03_B_d.gif","","","","","13","simple_similar","images/stimuli/spore_stims/simple_03_B_d.gif","middle","","","","",""
"","null","html-keyboard-response","244","517120","0.0-47.0-0.1","SS1613079914574","","","null","","","","","<p><img src= images/blank.png width =""200"" height = ""200"" style = ""float:right""></p><p><img src=images/blank.png width =""800"" height = ""200""></p>","","","","","","","","","","","",""
"","1146.9100001268089","sequential-stimulus-presentation","245","519121","0.0-47.0-1.1","SS1613079914574","trial","","40","800","1946.9100001268089","images/stimuli/spore_stims/simple_03_A_d.gif","images/stimuli/spore_stims/simple_03_B_d.gif","","","","","13","simple_similar","images/stimuli/spore_stims/simple_03_B_d.gif","middle","","","","",""
"","null","html-keyboard-response","246","519995","0.0-47.0-0.2","SS1613079914574","","","null","","","","","<p><img src= images/blank.png width =""200"" height = ""200"" style = ""float:right""></p><p><img src=images/blank.png width =""800"" height = ""200""></p>","","","","","","","","","","","",""
"","1693.144999910146","sequential-stimulus-presentation","247","522524","0.0-47.0-1.2","SS1613079914574","trial","","40","800","2493.144999910146","images/stimuli/spore_stims/simple_03_A_d.gif","images/stimuli/spore_stims/simple_03_B_d.gif","","","","","13","simple_similar","images/stimuli/spore_stims/simple_03_B_d.gif","middle","","","","",""
"","null","html-keyboard-response","248","523775","0.0-47.0-0.3","SS1613079914574","","","null","","","","","<p><img src= images/blank.png width =""200"" height = ""200"" style = ""float:right""></p><p><img src=images/blank.png width =""800"" height = ""200""></p>","","","","","","","","","","","",""
"","1198.839999968186","sequential-stimulus-presentation","249","525810","0.0-47.0-1.3","SS1613079914574","trial","","40","800","1998.839999968186","images/stimuli/spore_stims/simple_03_A_d.gif","images/stimuli/spore_stims/simple_03_B_d.gif","","","","","13","simple_similar","images/stimuli/spore_stims/simple_03_B_d.gif","middle","","","","",""
"","null","html-keyboard-response","250","526798","0.0-47.0-0.4","SS1613079914574","","","null","","","","","<p><img src= images/blank.png width =""200"" height = ""200"" style = ""float:right""></p><p><img src=images/blank.png width =""800"" height = ""200""></p>","","","","","","","","","","","",""
"","1430.9149999171495","sequential-stimulus-presentation","251","529072","0.0-47.0-1.4","SS1613079914574","trial","","40","800","2230.9149999171495","images/stimuli/spore_stims/simple_03_A_d.gif","images/stimuli/spore_stims/simple_03_B_d.gif","","","","","13","simple_similar","images/stimuli/spore_stims/simple_03_B_d.gif","middle","","","","",""
"","null","html-keyboard-response","252","530295","0.0-47.0-0.5","SS1613079914574","","","null","","","","","<p><img src= images/blank.png width =""200"" height = ""200"" style = ""float:right""></p><p><img src=images/blank.png width =""800"" height = ""200""></p>","","","","","","","","","","","",""
"","1064.1449999529868","sequential-stimulus-presentation","253","532210","0.0-47.0-1.5","SS1613079914574","trial","","40","800","1864.1449999529868","images/stimuli/spore_stims/simple_03_A_d.gif","images/stimuli/spore_stims/simple_03_B_d.gif","","","","","13","simple_similar","images/stimuli/spore_stims/simple_03_B_d.gif","middle","","","","",""
"","null","html-keyboard-response","254","533513","0.0-47.0-0.6","SS1613079914574","","","null","","","","","<p><img src= images/blank.png width =""200"" height = ""200"" style = ""float:right""></p><p><img src=images/blank.png width =""800"" height = ""200""></p>","","","","","","","","","","","",""
"","1561.1449999269098","sequential-stimulus-presentation","255","535919","0.0-47.0-1.6","SS1613079914574","trial","","40","800","2361.14499992691","images/stimuli/spore_stims/simple_03_A_d.gif","images/stimuli/spore_stims/simple_03_B_d.gif","","","","","13","simple_similar","images/stimuli/spore_stims/simple_03_B_d.gif","middle","","","","",""
"","null","html-keyboard-response","256","537308","0.0-47.0-0.7","SS1613079914574","","","null","","","","","<p><img src= images/blank.png width =""200"" height = ""200"" style = ""float:right""></p><p><img src=images/blank.png width =""800"" height = ""200""></p>","","","","","","","","","","","",""
"","2194.4549998734146","sequential-stimulus-presentation","257","540319","0.0-47.0-1.7","SS1613079914574","trial","","40","800","2994.4549998734146","images/stimuli/spore_stims/simple_03_A_d.gif","images/stimuli/spore_stims/simple_03_B_d.gif","","","","","13","simple_similar","images/stimuli/spore_stims/simple_03_A_d.gif","left","","","","",""
"","1618.2150000240654","html-keyboard-response","258","541985","0.0-48.0","SS1613079914574","pref_question","","99","","","","","<video width ='960' height = '540' style='padding-top:8%' autoplay muted><source src='images/stimuli/wall_pref.mp4' type='video/mp4'></video>","3","right","66%","13","","","","","","","",""
"","1529.6300000045449","sequential-stimulus-presentation","259","544350","0.0-49.0","SS1613079914574","pref_reveal","","40","800","2329.630000004545","null","null","","","","","13","","","","novel","","","",""
"","null","html-keyboard-response","260","545296","0.0-50.0-0.0","SS1613079914574","","","null","","","","","<p><img src= images/blank.png width =""200"" height = ""200"" style = ""float:right""></p><p><img src=images/blank.png width =""800"" height = ""200""></p>","","","","","","","","","","","",""
"","2251.219999976456","sequential-stimulus-presentation","261","548367","0.0-50.0-1.0","SS1613079914574","trial","","40","800","3051.219999976456","images/stimuli/spore_stims/complex_07_A_a.gif","images/stimuli/spore_stims/complex_06_A_a.gif","","","","","14","complex_dissimilar","images/stimuli/spore_stims/complex_06_A_a.gif","middle","","","","",""
"","null","html-keyboard-response","262","549429","0.0-50.0-0.1","SS1613079914574","","","null","","","","","<p><img src= images/blank.png width =""200"" height = ""200"" style = ""float:right""></p><p><img src=images/blank.png width =""800"" height = ""200""></p>","","","","","","","","","","","",""
"","2120.5100000370294","sequential-stimulus-presentation","263","552382","0.0-50.0-1.1","SS1613079914574","trial","","40","800","2920.5100000370294","images/stimuli/spore_stims/complex_07_A_a.gif","images/stimuli/spore_stims/complex_06_A_a.gif","","","","","14","complex_dissimilar","images/stimuli/spore_stims/complex_06_A_a.gif","middle","","","","",""
"","null","html-keyboard-response","264","553700","0.0-50.0-0.2","SS1613079914574","","","null","","","","","<p><img src= images/blank.png width =""200"" height = ""200"" style = ""float:right""></p><p><img src=images/blank.png width =""800"" height = ""200""></p>","","","","","","","","","","","",""
"","2292.644999921322","sequential-stimulus-presentation","265","556839","0.0-50.0-1.2","SS1613079914574","trial","","40","800","3092.644999921322","images/stimuli/spore_stims/complex_07_A_a.gif","images/stimuli/spore_stims/complex_06_A_a.gif","","","","","14","complex_dissimilar","images/stimuli/spore_stims/complex_06_A_a.gif","middle","","","","",""
"","null","html-keyboard-response","266","557820","0.0-50.0-0.3","SS1613079914574","","","null","","","","","<p><img src= images/blank.png width =""200"" height = ""200"" style = ""float:right""></p><p><img src=images/blank.png width =""800"" height = ""200""></p>","","","","","","","","","","","",""
"","2134.8299998790026","sequential-stimulus-presentation","267","560795","0.0-50.0-1.3","SS1613079914574","trial","","40","800","2934.8299998790026","images/stimuli/spore_stims/complex_07_A_a.gif","images/stimuli/spore_stims/complex_06_A_a.gif","","","","","14","complex_dissimilar","images/stimuli/spore_stims/complex_06_A_a.gif","middle","","","","",""
"","null","html-keyboard-response","268","562022","0.0-50.0-0.4","SS1613079914574","","","null","","","","","<p><img src= images/blank.png width =""200"" height = ""200"" style = ""float:right""></p><p><img src=images/blank.png width =""800"" height = ""200""></p>","","","","","","","","","","","",""
"","2002.4550000671297","sequential-stimulus-presentation","269","564862","0.0-50.0-1.4","SS1613079914574","trial","","40","800","2802.4550000671297","images/stimuli/spore_stims/complex_07_A_a.gif","images/stimuli/spore_stims/complex_06_A_a.gif","","","","","14","complex_dissimilar","images/stimuli/spore_stims/complex_06_A_a.gif","middle","","","","",""
"","null","html-keyboard-response","270","565965","0.0-50.0-0.5","SS1613079914574","","","null","","","","","<p><img src= images/blank.png width =""200"" height = ""200"" style = ""float:right""></p><p><img src=images/blank.png width =""800"" height = ""200""></p>","","","","","","","","","","","",""
"","1948.3699998818338","sequential-stimulus-presentation","271","568764","0.0-50.0-1.5","SS1613079914574","trial","","40","800","2748.369999881834","images/stimuli/spore_stims/complex_07_A_a.gif","images/stimuli/spore_stims/complex_06_A_a.gif","","","","","14","complex_dissimilar","images/stimuli/spore_stims/complex_06_A_a.gif","middle","","","","",""
"","null","html-keyboard-response","272","570100","0.0-50.0-0.6","SS1613079914574","","","null","","","","","<p><img src= images/blank.png width =""200"" height = ""200"" style = ""float:right""></p><p><img src=images/blank.png width =""800"" height = ""200""></p>","","","","","","","","","","","",""
"","1933.530000038445","sequential-stimulus-presentation","273","572867","0.0-50.0-1.6","SS1613079914574","trial","","40","800","2733.530000038445","images/stimuli/spore_stims/complex_07_A_a.gif","images/stimuli/spore_stims/complex_06_A_a.gif","","","","","14","complex_dissimilar","images/stimuli/spore_stims/complex_06_A_a.gif","middle","","","","",""
"","null","html-keyboard-response","274","573860","0.0-50.0-0.7","SS1613079914574","","","null","","","","","<p><img src= images/blank.png width =""200"" height = ""200"" style = ""float:right""></p><p><img src=images/blank.png width =""800"" height = ""200""></p>","","","","","","","","","","","",""
"","2073.7299998290837","sequential-stimulus-presentation","275","576758","0.0-50.0-1.7","SS1613079914574","trial","","40","800","2873.7299998290837","images/stimuli/spore_stims/complex_07_A_a.gif","images/stimuli/spore_stims/complex_06_A_a.gif","","","","","14","complex_dissimilar","images/stimuli/spore_stims/complex_07_A_a.gif","right","","","","",""
"","1831.0200001578778","html-keyboard-response","276","578623","0.0-51.0","SS1613079914574","pref_question","","99","","","","","<video width ='960' height = '540' style='padding-top:8%' autoplay muted><source src='images/stimuli/wall_pref.mp4' type='video/mp4'></video>","3","right","66%","14","","","","","","","",""
"","2377.684999955818","sequential-stimulus-presentation","277","581830","0.0-52.0","SS1613079914574","pref_reveal","","40","800","3177.684999955818","null","null","","","","","14","","","","deviant","","","",""
"","null","html-keyboard-response","278","583049","0.0-53.0-0.0","SS1613079914574","","","null","","","","","<p><img src= images/blank.png width =""200"" height = ""200"" style = ""float:right""></p><p><img src=images/blank.png width =""800"" height = ""200""></p>","","","","","","","","","","","",""
"","2466.9749999884516","sequential-stimulus-presentation","279","586359","0.0-53.0-1.0","SS1613079914574","trial","","40","800","3266.9749999884516","images/stimuli/spore_stims/simple_12_B_d.gif","images/stimuli/spore_stims/simple_12_A_d.gif","","","","","15","simple_similar","images/stimuli/spore_stims/simple_12_A_d.gif","left","","","","",""
"","null","html-keyboard-response","280","587431","0.0-53.0-0.1","SS1613079914574","","","null","","","","","<p><img src= images/blank.png width =""200"" height = ""200"" style = ""float:right""></p><p><img src=images/blank.png width =""800"" height = ""200""></p>","","","","","","","","","","","",""
"","2789.3099999055266","sequential-stimulus-presentation","281","591040","0.0-53.0-1.1","SS1613079914574","trial","","40","800","3589.3099999055266","images/stimuli/spore_stims/simple_12_B_d.gif","images/stimuli/spore_stims/simple_12_A_d.gif","","","","","15","simple_similar","images/stimuli/spore_stims/simple_12_A_d.gif","left","","","","",""
"","null","html-keyboard-response","282","591904","0.0-53.0-0.2","SS1613079914574","","","null","","","","","<p><img src= images/blank.png width =""200"" height = ""200"" style = ""float:right""></p><p><img src=images/blank.png width =""800"" height = ""200""></p>","","","","","","","","","","","",""
"","1485.3900000452995","sequential-stimulus-presentation","283","594226","0.0-53.0-1.2","SS1613079914574","trial","","40","800","2285.3900000452995","images/stimuli/spore_stims/simple_12_B_d.gif","images/stimuli/spore_stims/simple_12_A_d.gif","","","","","15","simple_similar","images/stimuli/spore_stims/simple_12_A_d.gif","left","","","","",""
"","null","html-keyboard-response","284","595548","0.0-53.0-0.3","SS1613079914574","","","null","","","","","<p><img src= images/blank.png width =""200"" height = ""200"" style = ""float:right""></p><p><img src=images/blank.png width =""800"" height = ""200""></p>","","","","","","","","","","","",""
"","1431.3050000928342","sequential-stimulus-presentation","285","597798","0.0-53.0-1.3","SS1613079914574","trial","","40","800","2231.3050000928342","images/stimuli/spore_stims/simple_12_B_d.gif","images/stimuli/spore_stims/simple_12_A_d.gif","","","","","15","simple_similar","images/stimuli/spore_stims/simple_12_B_d.gif","middle","","","","",""
"","null","html-keyboard-response","286","598897","0.0-53.0-0.4","SS1613079914574","","","null","","","","","<p><img src= images/blank.png width =""200"" height = ""200"" style = ""float:right""></p><p><img src=images/blank.png width =""800"" height = ""200""></p>","","","","","","","","","","","",""
"","1681.1450000386685","sequential-stimulus-presentation","287","601413","0.0-53.0-1.4","SS1613079914574","trial","","40","800","2481.1450000386685","images/stimuli/spore_stims/simple_12_B_d.gif","images/stimuli/spore_stims/simple_12_A_d.gif","","","","","15","simple_similar","images/stimuli/spore_stims/simple_12_A_d.gif","left","","","","",""
"","null","html-keyboard-response","288","602647","0.0-53.0-0.5","SS1613079914574","","","null","","","","","<p><img src= images/blank.png width =""200"" height = ""200"" style = ""float:right""></p><p><img src=images/blank.png width =""800"" height = ""200""></p>","","","","","","","","","","","",""
"","1551.9049998838454","sequential-stimulus-presentation","289","605033","0.0-53.0-1.5","SS1613079914574","trial","","40","800","2351.9049998838454","images/stimuli/spore_stims/simple_12_B_d.gif","images/stimuli/spore_stims/simple_12_A_d.gif","","","","","15","simple_similar","images/stimuli/spore_stims/simple_12_A_d.gif","left","","","","",""
"","null","html-keyboard-response","290","606009","0.0-53.0-0.6","SS1613079914574","","","null","","","","","<p><img src= images/blank.png width =""200"" height = ""200"" style = ""float:right""></p><p><img src=images/blank.png width =""800"" height = ""200""></p>","","","","","","","","","","","",""
"","1104.0100001264364","sequential-stimulus-presentation","291","607954","0.0-53.0-1.6","SS1613079914574","trial","","40","800","1904.0100001264364","images/stimuli/spore_stims/simple_12_B_d.gif","images/stimuli/spore_stims/simple_12_A_d.gif","","","","","15","simple_similar","images/stimuli/spore_stims/simple_12_A_d.gif","left","","","","",""
"","null","html-keyboard-response","292","609056","0.0-53.0-0.7","SS1613079914574","","","null","","","","","<p><img src= images/blank.png width =""200"" height = ""200"" style = ""float:right""></p><p><img src=images/blank.png width =""800"" height = ""200""></p>","","","","","","","","","","","",""
"","983.8950000703335","sequential-stimulus-presentation","293","610886","0.0-53.0-1.7","SS1613079914574","trial","","40","800","1783.8950000703335","images/stimuli/spore_stims/simple_12_B_d.gif","images/stimuli/spore_stims/simple_12_A_d.gif","","","","","15","simple_similar","images/stimuli/spore_stims/simple_12_A_d.gif","left","","","","",""
"","2106.2300000339746","html-keyboard-response","294","613017","0.0-54.0","SS1613079914574","pref_question","","98","","","","","<video width ='960' height = '540' style='padding-top:8%' autoplay muted><source src='images/stimuli/wall_pref.mp4' type='video/mp4'></video>","2","middle","45%","15","","","","","","","",""
"","1630.204999819398","sequential-stimulus-presentation","295","615475","0.0-55.0","SS1613079914574","pref_reveal","","40","800","2430.204999819398","null","null","","","","","15","","","","deviant","","","",""
"","null","html-keyboard-response","296","616757","0.0-56.0-0.0","SS1613079914574","","","null","","","","","<p><img src= images/blank.png width =""200"" height = ""200"" style = ""float:right""></p><p><img src=images/blank.png width =""800"" height = ""200""></p>","","","","","","","","","","","",""
"","2238.0750000011176","sequential-stimulus-presentation","297","619845","0.0-56.0-1.0","SS1613079914574","trial","","40","800","3038.0750000011176","images/stimuli/spore_stims/simple_18_B_d.gif","images/stimuli/spore_stims/simple_16_B_b.gif","","","","","16","simple_dissimilar","images/stimuli/spore_stims/simple_16_B_b.gif","left","","","","",""
"","null","html-keyboard-response","298","620985","0.0-56.0-0.1","SS1613079914574","","","null","","","","","<p><img src= images/blank.png width =""200"" height = ""200"" style = ""float:right""></p><p><img src=images/blank.png width =""800"" height = ""200""></p>","","","","","","","","","","","",""
"","1584.8100001458079","sequential-stimulus-presentation","299","623437","0.0-56.0-1.1","SS1613079914574","trial","","40","800","2384.810000145808","images/stimuli/spore_stims/simple_18_B_d.gif","images/stimuli/spore_stims/simple_16_B_b.gif","","","","","16","simple_dissimilar","images/stimuli/spore_stims/simple_16_B_b.gif","left","","","","",""
"","null","html-keyboard-response","300","624329","0.0-56.0-0.2","SS1613079914574","","","null","","","","","<p><img src= images/blank.png width =""200"" height = ""200"" style = ""float:right""></p><p><img src=images/blank.png width =""800"" height = ""200""></p>","","","","","","","","","","","",""
"","1227.299999911338","sequential-stimulus-presentation","301","626397","0.0-56.0-1.2","SS1613079914574","trial","","40","800","2027.299999911338","images/stimuli/spore_stims/simple_18_B_d.gif","images/stimuli/spore_stims/simple_16_B_b.gif","","","","","16","simple_dissimilar","images/stimuli/spore_stims/simple_16_B_b.gif","left","","","","",""
"","null","html-keyboard-response","302","627402","0.0-56.0-0.3","SS1613079914574","","","null","","","","","<p><img src= images/blank.png width =""200"" height = ""200"" style = ""float:right""></p><p><img src=images/blank.png width =""800"" height = ""200""></p>","","","","","","","","","","","",""
"","795.380000025034","sequential-stimulus-presentation","303","629029","0.0-56.0-1.3","SS1613079914574","trial","","40","800","1595.380000025034","images/stimuli/spore_stims/simple_18_B_d.gif","images/stimuli/spore_stims/simple_16_B_b.gif","","","","","16","simple_dissimilar","images/stimuli/spore_stims/simple_16_B_b.gif","left","","","","",""
"","null","html-keyboard-response","304","630244","0.0-56.0-0.4","SS1613079914574","","","null","","","","","<p><img src= images/blank.png width =""200"" height = ""200"" style = ""float:right""></p><p><img src=images/blank.png width =""800"" height = ""200""></p>","","","","","","","","","","","",""
"","914.3300000578165","sequential-stimulus-presentation","305","631997","0.0-56.0-1.4","SS1613079914574","trial","","40","800","1714.3300000578165","images/stimuli/spore_stims/simple_18_B_d.gif","images/stimuli/spore_stims/simple_16_B_b.gif","","","","","16","simple_dissimilar","images/stimuli/spore_stims/simple_16_B_b.gif","left","","","","",""
"","null","html-keyboard-response","306","633296","0.0-56.0-0.5","SS1613079914574","","","null","","","","","<p><img src= images/blank.png width =""200"" height = ""200"" style = ""float:right""></p><p><img src=images/blank.png width =""800"" height = ""200""></p>","","","","","","","","","","","",""
"","1433.659999864176","sequential-stimulus-presentation","307","635548","0.0-56.0-1.5","SS1613079914574","trial","","40","800","2233.659999864176","images/stimuli/spore_stims/simple_18_B_d.gif","images/stimuli/spore_stims/simple_16_B_b.gif","","","","","16","simple_dissimilar","images/stimuli/spore_stims/simple_18_B_d.gif","right","","","","",""
"","null","html-keyboard-response","308","636716","0.0-56.0-0.6","SS1613079914574","","","null","","","","","<p><img src= images/blank.png width =""200"" height = ""200"" style = ""float:right""></p><p><img src=images/blank.png width =""800"" height = ""200""></p>","","","","","","","","","","","",""
"","935.3099998552352","sequential-stimulus-presentation","309","638494","0.0-56.0-1.6","SS1613079914574","trial","","40","800","1735.3099998552352","images/stimuli/spore_stims/simple_18_B_d.gif","images/stimuli/spore_stims/simple_16_B_b.gif","","","","","16","simple_dissimilar","images/stimuli/spore_stims/simple_16_B_b.gif","left","","","","",""
"","null","html-keyboard-response","310","639797","0.0-56.0-0.7","SS1613079914574","","","null","","","","","<p><img src= images/blank.png width =""200"" height = ""200"" style = ""float:right""></p><p><img src=images/blank.png width =""800"" height = ""200""></p>","","","","","","","","","","","",""
"","538.0400000140071","sequential-stimulus-presentation","311","641188","0.0-56.0-1.7","SS1613079914574","trial","","40","800","1338.040000014007","images/stimuli/spore_stims/simple_18_B_d.gif","images/stimuli/spore_stims/simple_16_B_b.gif","","","","","16","simple_dissimilar","images/stimuli/spore_stims/simple_16_B_b.gif","left","","","","",""
