"view_history","rt","trial_type","trial_index","time_elapsed","internal_node_id","subject","stimulus_type","trial_stimulus","key_press","minimum_viewing_duration","trial_looking_time","block_deviant","block_background","stimulus","wall_pref","location","location_percent","block_number","block_type","stimulus_displayed","position_displayed","stim_type_selected","responses","question_order","stimulus_left","stimulus_right"
"[{""page_index"":0,""viewing_time"":2407.970000000205}]","2408.2950000010896","instructions","0","2409","0.0-0.0","SS1613080445005","","","","","","","","","","","","","","","","","","","",""
"[{""page_index"":0,""viewing_time"":10605.280000017956},{""page_index"":1,""viewing_time"":4376.699999993434}]","14982.160000014119","instructions","1","19403","0.0-1.0","SS1613080445005","instructions","","","","","","","","","","","","","","","","","","",""
"","3404.840000002878","sequential-stimulus-presentation","2","23613","0.0-2.0","SS1613080445005","","","40","800","4204.840000002878","null","null","","","","","","","","","","","","",""
"","2446.7400000139605","sequential-stimulus-presentation","3","26870","0.0-3.0","SS1613080445005","","","40","800","3246.7400000139605","null","null","","","","","","","","","","","","",""
"[{""page_index"":0,""viewing_time"":4127.375000010943}]","4127.565000002505","instructions","4","30998","0.0-4.0","SS1613080445005","instructions","","","","","","","","","","","","","","","","","","",""
"","6543.459999986226","html-keyboard-response","5","37543","0.0-5.0","SS1613080445005","instructions","","97","","","","","<video width ='960' height = '540' autoplay muted><source src='images/stimuli/wall_pref.mp4' type='video/mp4'></video>","1","left","25%","","","","","","","","",""
"","1875.7000000041444","sequential-stimulus-presentation","6","40232","0.0-6.0","SS1613080445005","pref_reveal","","40","800","2675.7000000041444","null","null","","","","","","","","","","","","",""
"[{""page_index"":0,""viewing_time"":3319.7700000018813},{""page_index"":1,""viewing_time"":3064.4150000007357},{""page_index"":2,""viewing_time"":840.5749999801628},{""page_index"":3,""viewing_time"":743.81500002346}]","7968.679999990854","instructions","7","48201","0.0-7.0","SS1613080445005","instructions","","","","","","","","","","","","","","","","","","",""
"","null","html-keyboard-response","8","49045","0.0-8.0-0.0","SS1613080445005","","","null","","","","","<p><img src= images/blank.png width =""200"" height = ""200"" style = ""float:right""></p><p><img src=images/blank.png width =""800"" height = ""200""></p>","","","","","","","","","","","",""
"","336.4000000001397","sequential-stimulus-presentation","9","50185","0.0-8.0-1.0","SS1613080445005","trial","","40","800","1136.4000000001397","images/stimuli/spore_stims/complex_13_B_b.gif","images/stimuli/spore_stims/complex_13_A_b.gif","","","","","0","complex_similar","images/stimuli/spore_stims/complex_13_A_b.gif","middle","","","","",""
"","null","html-keyboard-response","10","51064","0.0-8.0-0.1","SS1613080445005","","","null","","","","","<p><img src= images/blank.png width =""200"" height = ""200"" style = ""float:right""></p><p><img src=images/blank.png width =""800"" height = ""200""></p>","","","","","","","","","","","",""
"","1741.9450000161305","sequential-stimulus-presentation","11","53610","0.0-8.0-1.1","SS1613080445005","trial","","40","800","2541.9450000161305","images/stimuli/spore_stims/complex_13_B_b.gif","images/stimuli/spore_stims/complex_13_A_b.gif","","","","","0","complex_similar","images/stimuli/spore_stims/complex_13_A_b.gif","middle","","","","",""
"","null","html-keyboard-response","12","54619","0.0-8.0-0.2","SS1613080445005","","","null","","","","","<p><img src= images/blank.png width =""200"" height = ""200"" style = ""float:right""></p><p><img src=images/blank.png width =""800"" height = ""200""></p>","","","","","","","","","","","",""
"","825.8200000273064","sequential-stimulus-presentation","13","56250","0.0-8.0-1.2","SS1613080445005","trial","","40","800","1625.8200000273064","images/stimuli/spore_stims/complex_13_B_b.gif","images/stimuli/spore_stims/complex_13_A_b.gif","","","","","0","complex_similar","images/stimuli/spore_stims/complex_13_A_b.gif","middle","","","","",""
"","null","html-keyboard-response","14","57265","0.0-8.0-0.3","SS1613080445005","","","null","","","","","<p><img src= images/blank.png width =""200"" height = ""200"" style = ""float:right""></p><p><img src=images/blank.png width =""800"" height = ""200""></p>","","","","","","","","","","","",""
"","857.2850000055041","sequential-stimulus-presentation","15","58931","0.0-8.0-1.3","SS1613080445005","trial","","40","800","1657.2850000055041","images/stimuli/spore_stims/complex_13_B_b.gif","images/stimuli/spore_stims/complex_13_A_b.gif","","","","","0","complex_similar","images/stimuli/spore_stims/complex_13_A_b.gif","middle","","","","",""
"","null","html-keyboard-response","16","60027","0.0-8.0-0.4","SS1613080445005","","","null","","","","","<p><img src= images/blank.png width =""200"" height = ""200"" style = ""float:right""></p><p><img src=images/blank.png width =""800"" height = ""200""></p>","","","","","","","","","","","",""
"","4337.924999999814","sequential-stimulus-presentation","17","65180","0.0-8.0-1.4","SS1613080445005","trial","","40","800","5137.924999999814","images/stimuli/spore_stims/complex_13_B_b.gif","images/stimuli/spore_stims/complex_13_A_b.gif","","","","","0","complex_similar","images/stimuli/spore_stims/complex_13_A_b.gif","middle","","","","",""
"","null","html-keyboard-response","18","66116","0.0-8.0-0.5","SS1613080445005","","","null","","","","","<p><img src= images/blank.png width =""200"" height = ""200"" style = ""float:right""></p><p><img src=images/blank.png width =""800"" height = ""200""></p>","","","","","","","","","","","",""
"","2883.84500000393","sequential-stimulus-presentation","19","69805","0.0-8.0-1.5","SS1613080445005","trial","","40","800","3683.84500000393","images/stimuli/spore_stims/complex_13_B_b.gif","images/stimuli/spore_stims/complex_13_A_b.gif","","","","","0","complex_similar","images/stimuli/spore_stims/complex_13_A_b.gif","middle","","","","",""
"","null","html-keyboard-response","20","70967","0.0-8.0-0.6","SS1613080445005","","","null","","","","","<p><img src= images/blank.png width =""200"" height = ""200"" style = ""float:right""></p><p><img src=images/blank.png width =""800"" height = ""200""></p>","","","","","","","","","","","",""
"","3680.899999977555","sequential-stimulus-presentation","21","75453","0.0-8.0-1.6","SS1613080445005","trial","","40","800","4480.899999977555","images/stimuli/spore_stims/complex_13_B_b.gif","images/stimuli/spore_stims/complex_13_A_b.gif","","","","","0","complex_similar","images/stimuli/spore_stims/complex_13_B_b.gif","left","","","","",""
"","null","html-keyboard-response","22","76726","0.0-8.0-0.7","SS1613080445005","","","null","","","","","<p><img src= images/blank.png width =""200"" height = ""200"" style = ""float:right""></p><p><img src=images/blank.png width =""800"" height = ""200""></p>","","","","","","","","","","","",""
"","4349.060000007739","sequential-stimulus-presentation","23","81887","0.0-8.0-1.7","SS1613080445005","trial","","40","800","5149.060000007739","images/stimuli/spore_stims/complex_13_B_b.gif","images/stimuli/spore_stims/complex_13_A_b.gif","","","","","0","complex_similar","images/stimuli/spore_stims/complex_13_A_b.gif","middle","","","","",""
"","2174.280000006547","html-keyboard-response","24","84063","0.0-9.0","SS1613080445005","pref_question","","99","","","","","<video width ='960' height = '540' style='padding-top:8%' autoplay muted><source src='images/stimuli/wall_pref.mp4' type='video/mp4'></video>","3","right","66%","0","","","","","","","",""
"","4395.985000010114","sequential-stimulus-presentation","25","89263","0.0-10.0","SS1613080445005","pref_reveal","","40","800","5195.985000010114","null","null","","","","","0","","","","novel","","","",""
"","null","html-keyboard-response","26","90134","0.0-11.0-0.0","SS1613080445005","","","null","","","","","<p><img src= images/blank.png width =""200"" height = ""200"" style = ""float:right""></p><p><img src=images/blank.png width =""800"" height = ""200""></p>","","","","","","","","","","","",""
"","3357.380000001285","sequential-stimulus-presentation","27","94297","0.0-11.0-1.0","SS1613080445005","trial","","40","800","4157.380000001285","images/stimuli/spore_stims/complex_17_B_c.gif","images/stimuli/spore_stims/complex_17_A_c.gif","","","","","1","complex_similar","images/stimuli/spore_stims/complex_17_A_c.gif","right","","","","",""
"","null","html-keyboard-response","28","95288","0.0-11.0-0.1","SS1613080445005","","","null","","","","","<p><img src= images/blank.png width =""200"" height = ""200"" style = ""float:right""></p><p><img src=images/blank.png width =""800"" height = ""200""></p>","","","","","","","","","","","",""
"","3309.049999981653","sequential-stimulus-presentation","29","99401","0.0-11.0-1.1","SS1613080445005","trial","","40","800","4109.049999981653","images/stimuli/spore_stims/complex_17_B_c.gif","images/stimuli/spore_stims/complex_17_A_c.gif","","","","","1","complex_similar","images/stimuli/spore_stims/complex_17_A_c.gif","right","","","","",""
"","null","html-keyboard-response","30","100244","0.0-11.0-0.2","SS1613080445005","","","null","","","","","<p><img src= images/blank.png width =""200"" height = ""200"" style = ""float:right""></p><p><img src=images/blank.png width =""800"" height = ""200""></p>","","","","","","","","","","","",""
"","3101.6149999923073","sequential-stimulus-presentation","31","104162","0.0-11.0-1.2","SS1613080445005","trial","","40","800","3901.6149999923073","images/stimuli/spore_stims/complex_17_B_c.gif","images/stimuli/spore_stims/complex_17_A_c.gif","","","","","1","complex_similar","images/stimuli/spore_stims/complex_17_B_c.gif","middle","","","","",""
"","null","html-keyboard-response","32","105131","0.0-11.0-0.3","SS1613080445005","","","null","","","","","<p><img src= images/blank.png width =""200"" height = ""200"" style = ""float:right""></p><p><img src=images/blank.png width =""800"" height = ""200""></p>","","","","","","","","","","","",""
"","3293.6599999957252","sequential-stimulus-presentation","33","109243","0.0-11.0-1.3","SS1613080445005","trial","","40","800","4093.6599999957252","images/stimuli/spore_stims/complex_17_B_c.gif","images/stimuli/spore_stims/complex_17_A_c.gif","","","","","1","complex_similar","images/stimuli/spore_stims/complex_17_A_c.gif","right","","","","",""
"","null","html-keyboard-response","34","110238","0.0-11.0-0.4","SS1613080445005","","","null","","","","","<p><img src= images/blank.png width =""200"" height = ""200"" style = ""float:right""></p><p><img src=images/blank.png width =""800"" height = ""200""></p>","","","","","","","","","","","",""
"","2034.285000001546","sequential-stimulus-presentation","35","113075","0.0-11.0-1.4","SS1613080445005","trial","","40","800","2834.285000001546","images/stimuli/spore_stims/complex_17_B_c.gif","images/stimuli/spore_stims/complex_17_A_c.gif","","","","","1","complex_similar","images/stimuli/spore_stims/complex_17_A_c.gif","right","","","","",""
"","null","html-keyboard-response","36","114371","0.0-11.0-0.5","SS1613080445005","","","null","","","","","<p><img src= images/blank.png width =""200"" height = ""200"" style = ""float:right""></p><p><img src=images/blank.png width =""800"" height = ""200""></p>","","","","","","","","","","","",""
"","2729.3249999929685","sequential-stimulus-presentation","37","117908","0.0-11.0-1.5","SS1613080445005","trial","","40","800","3529.3249999929685","images/stimuli/spore_stims/complex_17_B_c.gif","images/stimuli/spore_stims/complex_17_A_c.gif","","","","","1","complex_similar","images/stimuli/spore_stims/complex_17_A_c.gif","right","","","","",""
"","null","html-keyboard-response","38","118886","0.0-11.0-0.6","SS1613080445005","","","null","","","","","<p><img src= images/blank.png width =""200"" height = ""200"" style = ""float:right""></p><p><img src=images/blank.png width =""800"" height = ""200""></p>","","","","","","","","","","","",""
"","2161.064999992959","sequential-stimulus-presentation","39","121853","0.0-11.0-1.6","SS1613080445005","trial","","40","800","2961.064999992959","images/stimuli/spore_stims/complex_17_B_c.gif","images/stimuli/spore_stims/complex_17_A_c.gif","","","","","1","complex_similar","images/stimuli/spore_stims/complex_17_A_c.gif","right","","","","",""
"","null","html-keyboard-response","40","122961","0.0-11.0-0.7","SS1613080445005","","","null","","","","","<p><img src= images/blank.png width =""200"" height = ""200"" style = ""float:right""></p><p><img src=images/blank.png width =""800"" height = ""200""></p>","","","","","","","","","","","",""
"","1901.930000021821","sequential-stimulus-presentation","41","125669","0.0-11.0-1.7","SS1613080445005","trial","","40","800","2701.930000021821","images/stimuli/spore_stims/complex_17_B_c.gif","images/stimuli/spore_stims/complex_17_A_c.gif","","","","","1","complex_similar","images/stimuli/spore_stims/complex_17_A_c.gif","right","","","","",""
"","2030.5700000026263","html-keyboard-response","42","127702","0.0-12.0","SS1613080445005","pref_question","","97","","","","","<video width ='960' height = '540' style='padding-top:8%' autoplay muted><source src='images/stimuli/wall_pref.mp4' type='video/mp4'></video>","1","left","25%","1","","","","","","","",""
"","3695.9999999962747","sequential-stimulus-presentation","43","132207","0.0-13.0","SS1613080445005","pref_reveal","","40","800","4495.999999996275","null","null","","","","","1","","","","novel","","","",""
"","null","html-keyboard-response","44","133100","0.0-14.0-0.0","SS1613080445005","","","null","","","","","<p><img src= images/blank.png width =""200"" height = ""200"" style = ""float:right""></p><p><img src=images/blank.png width =""800"" height = ""200""></p>","","","","","","","","","","","",""
"","3664.4049999886192","sequential-stimulus-presentation","45","137576","0.0-14.0-1.0","SS1613080445005","trial","","40","800","4464.404999988619","images/stimuli/spore_stims/simple_03_B_d.gif","images/stimuli/spore_stims/simple_12_A_a.gif","","","","","2","simple_dissimilar","images/stimuli/spore_stims/simple_12_A_a.gif","right","","","","",""
"","null","html-keyboard-response","46","138414","0.0-14.0-0.1","SS1613080445005","","","null","","","","","<p><img src= images/blank.png width =""200"" height = ""200"" style = ""float:right""></p><p><img src=images/blank.png width =""800"" height = ""200""></p>","","","","","","","","","","","",""
"","3479.334999981802","sequential-stimulus-presentation","47","142697","0.0-14.0-1.1","SS1613080445005","trial","","40","800","4279.334999981802","images/stimuli/spore_stims/simple_03_B_d.gif","images/stimuli/spore_stims/simple_12_A_a.gif","","","","","2","simple_dissimilar","images/stimuli/spore_stims/simple_12_A_a.gif","right","","","","",""
"","null","html-keyboard-response","48","143736","0.0-14.0-0.2","SS1613080445005","","","null","","","","","<p><img src= images/blank.png width =""200"" height = ""200"" style = ""float:right""></p><p><img src=images/blank.png width =""800"" height = ""200""></p>","","","","","","","","","","","",""
"","3185.735000006389","sequential-stimulus-presentation","49","147737","0.0-14.0-1.2","SS1613080445005","trial","","40","800","3985.735000006389","images/stimuli/spore_stims/simple_03_B_d.gif","images/stimuli/spore_stims/simple_12_A_a.gif","","","","","2","simple_dissimilar","images/stimuli/spore_stims/simple_12_A_a.gif","right","","","","",""
"","null","html-keyboard-response","50","148600","0.0-14.0-0.3","SS1613080445005","","","null","","","","","<p><img src= images/blank.png width =""200"" height = ""200"" style = ""float:right""></p><p><img src=images/blank.png width =""800"" height = ""200""></p>","","","","","","","","","","","",""
"","3316.6849999979604","sequential-stimulus-presentation","51","152730","0.0-14.0-1.3","SS1613080445005","trial","","40","800","4116.68499999796","images/stimuli/spore_stims/simple_03_B_d.gif","images/stimuli/spore_stims/simple_12_A_a.gif","","","","","2","simple_dissimilar","images/stimuli/spore_stims/simple_12_A_a.gif","right","","","","",""
"","null","html-keyboard-response","52","153653","0.0-14.0-0.4","SS1613080445005","","","null","","","","","<p><img src= images/blank.png width =""200"" height = ""200"" style = ""float:right""></p><p><img src=images/blank.png width =""800"" height = ""200""></p>","","","","","","","","","","","",""
"","2721.4099999982864","sequential-stimulus-presentation","53","157178","0.0-14.0-1.4","SS1613080445005","trial","","40","800","3521.4099999982864","images/stimuli/spore_stims/simple_03_B_d.gif","images/stimuli/spore_stims/simple_12_A_a.gif","","","","","2","simple_dissimilar","images/stimuli/spore_stims/simple_12_A_a.gif","right","","","","",""
"","null","html-keyboard-response","54","158384","0.0-14.0-0.5","SS1613080445005","","","null","","","","","<p><img src= images/blank.png width =""200"" height = ""200"" style = ""float:right""></p><p><img src=images/blank.png width =""800"" height = ""200""></p>","","","","","","","","","","","",""
"","3355.0999999861233","sequential-stimulus-presentation","55","162555","0.0-14.0-1.5","SS1613080445005","trial","","40","800","4155.099999986123","images/stimuli/spore_stims/simple_03_B_d.gif","images/stimuli/spore_stims/simple_12_A_a.gif","","","","","2","simple_dissimilar","images/stimuli/spore_stims/simple_03_B_d.gif","middle","","","","",""
"","null","html-keyboard-response","56","163760","0.0-14.0-0.6","SS1613080445005","","","null","","","","","<p><img src= images/blank.png width =""200"" height = ""200"" style = ""float:right""></p><p><img src=images/blank.png width =""800"" height = ""200""></p>","","","","","","","","","","","",""
"","2153.244999994058","sequential-stimulus-presentation","57","166717","0.0-14.0-1.6","SS1613080445005","trial","","40","800","2953.244999994058","images/stimuli/spore_stims/simple_03_B_d.gif","images/stimuli/spore_stims/simple_12_A_a.gif","","","","","2","simple_dissimilar","images/stimuli/spore_stims/simple_12_A_a.gif","right","","","","",""
"","null","html-keyboard-response","58","167974","0.0-14.0-0.7","SS1613080445005","","","null","","","","","<p><img src= images/blank.png width =""200"" height = ""200"" style = ""float:right""></p><p><img src=images/blank.png width =""800"" height = ""200""></p>","","","","","","","","","","","",""
"","1947.5450000027195","sequential-stimulus-presentation","59","170725","0.0-14.0-1.7","SS1613080445005","trial","","40","800","2747.5450000027195","images/stimuli/spore_stims/simple_03_B_d.gif","images/stimuli/spore_stims/simple_12_A_a.gif","","","","","2","simple_dissimilar","images/stimuli/spore_stims/simple_12_A_a.gif","right","","","","",""
"","2566.370000015013","html-keyboard-response","60","173293","0.0-15.0","SS1613080445005","pref_question","","98","","","","","<video width ='960' height = '540' style='padding-top:8%' autoplay muted><source src='images/stimuli/wall_pref.mp4' type='video/mp4'></video>","2","middle","45%","2","","","","","","","",""
"","1750.1700000138953","sequential-stimulus-presentation","61","175853","0.0-16.0","SS1613080445005","pref_reveal","","40","800","2550.1700000138953","null","null","","","","","2","","","","deviant","","","",""
"","null","html-keyboard-response","62","176975","0.0-17.0-0.0","SS1613080445005","","","null","","","","","<p><img src= images/blank.png width =""200"" height = ""200"" style = ""float:right""></p><p><img src=images/blank.png width =""800"" height = ""200""></p>","","","","","","","","","","","",""
"","3433.6849999963306","sequential-stimulus-presentation","63","181223","0.0-17.0-1.0","SS1613080445005","trial","","40","800","4233.684999996331","images/stimuli/spore_stims/complex_16_B_c.gif","images/stimuli/spore_stims/complex_16_A_c.gif","","","","","3","complex_similar","images/stimuli/spore_stims/complex_16_A_c.gif","left","","","","",""
"","null","html-keyboard-response","64","182379","0.0-17.0-0.1","SS1613080445005","","","null","","","","","<p><img src= images/blank.png width =""200"" height = ""200"" style = ""float:right""></p><p><img src=images/blank.png width =""800"" height = ""200""></p>","","","","","","","","","","","",""
"","2785.9750000061467","sequential-stimulus-presentation","65","185975","0.0-17.0-1.1","SS1613080445005","trial","","40","800","3585.9750000061467","images/stimuli/spore_stims/complex_16_B_c.gif","images/stimuli/spore_stims/complex_16_A_c.gif","","","","","3","complex_similar","images/stimuli/spore_stims/complex_16_A_c.gif","left","","","","",""
"","null","html-keyboard-response","66","187012","0.0-17.0-0.2","SS1613080445005","","","null","","","","","<p><img src= images/blank.png width =""200"" height = ""200"" style = ""float:right""></p><p><img src=images/blank.png width =""800"" height = ""200""></p>","","","","","","","","","","","",""
"","3394.704999984242","sequential-stimulus-presentation","67","191216","0.0-17.0-1.2","SS1613080445005","trial","","40","800","4194.704999984242","images/stimuli/spore_stims/complex_16_B_c.gif","images/stimuli/spore_stims/complex_16_A_c.gif","","","","","3","complex_similar","images/stimuli/spore_stims/complex_16_A_c.gif","left","","","","",""
"","null","html-keyboard-response","68","192305","0.0-17.0-0.3","SS1613080445005","","","null","","","","","<p><img src= images/blank.png width =""200"" height = ""200"" style = ""float:right""></p><p><img src=images/blank.png width =""800"" height = ""200""></p>","","","","","","","","","","","",""
"","2521.1600000038743","sequential-stimulus-presentation","69","195641","0.0-17.0-1.3","SS1613080445005","trial","","40","800","3321.1600000038743","images/stimuli/spore_stims/complex_16_B_c.gif","images/stimuli/spore_stims/complex_16_A_c.gif","","","","","3","complex_similar","images/stimuli/spore_stims/complex_16_B_c.gif","right","","","","",""
"","null","html-keyboard-response","70","196694","0.0-17.0-0.4","SS1613080445005","","","null","","","","","<p><img src= images/blank.png width =""200"" height = ""200"" style = ""float:right""></p><p><img src=images/blank.png width =""800"" height = ""200""></p>","","","","","","","","","","","",""
"","2780.6649999984074","sequential-stimulus-presentation","71","200281","0.0-17.0-1.4","SS1613080445005","trial","","40","800","3580.6649999984074","images/stimuli/spore_stims/complex_16_B_c.gif","images/stimuli/spore_stims/complex_16_A_c.gif","","","","","3","complex_similar","images/stimuli/spore_stims/complex_16_A_c.gif","left","","","","",""
"","null","html-keyboard-response","72","201225","0.0-17.0-0.5","SS1613080445005","","","null","","","","","<p><img src= images/blank.png width =""200"" height = ""200"" style = ""float:right""></p><p><img src=images/blank.png width =""800"" height = ""200""></p>","","","","","","","","","","","",""
"","2070.1850000186823","sequential-stimulus-presentation","73","204098","0.0-17.0-1.5","SS1613080445005","trial","","40","800","2870.1850000186823","images/stimuli/spore_stims/complex_16_B_c.gif","images/stimuli/spore_stims/complex_16_A_c.gif","","","","","3","complex_similar","images/stimuli/spore_stims/complex_16_A_c.gif","left","","","","",""
"","null","html-keyboard-response","74","205406","0.0-17.0-0.6","SS1613080445005","","","null","","","","","<p><img src= images/blank.png width =""200"" height = ""200"" style = ""float:right""></p><p><img src=images/blank.png width =""800"" height = ""200""></p>","","","","","","","","","","","",""
"","2513.4799999941606","sequential-stimulus-presentation","75","208723","0.0-17.0-1.6","SS1613080445005","trial","","40","800","3313.4799999941606","images/stimuli/spore_stims/complex_16_B_c.gif","images/stimuli/spore_stims/complex_16_A_c.gif","","","","","3","complex_similar","images/stimuli/spore_stims/complex_16_A_c.gif","left","","","","",""
"","null","html-keyboard-response","76","210026","0.0-17.0-0.7","SS1613080445005","","","null","","","","","<p><img src= images/blank.png width =""200"" height = ""200"" style = ""float:right""></p><p><img src=images/blank.png width =""800"" height = ""200""></p>","","","","","","","","","","","",""
"","1860.9850000066217","sequential-stimulus-presentation","77","212692","0.0-17.0-1.7","SS1613080445005","trial","","40","800","2660.9850000066217","images/stimuli/spore_stims/complex_16_B_c.gif","images/stimuli/spore_stims/complex_16_A_c.gif","","","","","3","complex_similar","images/stimuli/spore_stims/complex_16_A_c.gif","left","","","","",""
"","4334.685000008903","html-keyboard-response","78","217028","0.0-18.0","SS1613080445005","pref_question","","99","","","","","<video width ='960' height = '540' style='padding-top:8%' autoplay muted><source src='images/stimuli/wall_pref.mp4' type='video/mp4'></video>","3","right","66%","3","","","","","","","",""
"","3763.3400000049733","sequential-stimulus-presentation","79","221598","0.0-19.0","SS1613080445005","pref_reveal","","40","800","4563.340000004973","null","null","","","","","3","","","","deviant","","","",""
"","null","html-keyboard-response","80","222552","0.0-20.0-0.0","SS1613080445005","","","null","","","","","<p><img src= images/blank.png width =""200"" height = ""200"" style = ""float:right""></p><p><img src=images/blank.png width =""800"" height = ""200""></p>","","","","","","","","","","","",""
"","3572.9599999904167","sequential-stimulus-presentation","81","226934","0.0-20.0-1.0","SS1613080445005","trial","","40","800","4372.959999990417","images/stimuli/spore_stims/simple_17_B_c.gif","images/stimuli/spore_stims/simple_17_A_c.gif","","","","","4","simple_similar","images/stimuli/spore_stims/simple_17_A_c.gif","right","","","","",""
"","null","html-keyboard-response","82","227862","0.0-20.0-0.1","SS1613080445005","","","null","","","","","<p><img src= images/blank.png width =""200"" height = ""200"" style = ""float:right""></p><p><img src=images/blank.png width =""800"" height = ""200""></p>","","","","","","","","","","","",""
"","3116.965000022901","sequential-stimulus-presentation","83","231783","0.0-20.0-1.1","SS1613080445005","trial","","40","800","3916.965000022901","images/stimuli/spore_stims/simple_17_B_c.gif","images/stimuli/spore_stims/simple_17_A_c.gif","","","","","4","simple_similar","images/stimuli/spore_stims/simple_17_A_c.gif","right","","","","",""
"","null","html-keyboard-response","84","232766","0.0-20.0-0.2","SS1613080445005","","","null","","","","","<p><img src= images/blank.png width =""200"" height = ""200"" style = ""float:right""></p><p><img src=images/blank.png width =""800"" height = ""200""></p>","","","","","","","","","","","",""
"","3479.239999986021","sequential-stimulus-presentation","85","237055","0.0-20.0-1.2","SS1613080445005","trial","","40","800","4279.239999986021","images/stimuli/spore_stims/simple_17_B_c.gif","images/stimuli/spore_stims/simple_17_A_c.gif","","","","","4","simple_similar","images/stimuli/spore_stims/simple_17_B_c.gif","middle","","","","",""
"","null","html-keyboard-response","86","238224","0.0-20.0-0.3","SS1613080445005","","","null","","","","","<p><img src= images/blank.png width =""200"" height = ""200"" style = ""float:right""></p><p><img src=images/blank.png width =""800"" height = ""200""></p>","","","","","","","","","","","",""
"","4303.870000003371","sequential-stimulus-presentation","87","243345","0.0-20.0-1.3","SS1613080445005","trial","","40","800","5103.870000003371","images/stimuli/spore_stims/simple_17_B_c.gif","images/stimuli/spore_stims/simple_17_A_c.gif","","","","","4","simple_similar","images/stimuli/spore_stims/simple_17_A_c.gif","right","","","","",""
"","null","html-keyboard-response","88","244585","0.0-20.0-0.4","SS1613080445005","","","null","","","","","<p><img src= images/blank.png width =""200"" height = ""200"" style = ""float:right""></p><p><img src=images/blank.png width =""800"" height = ""200""></p>","","","","","","","","","","","",""
"","3856.514999992214","sequential-stimulus-presentation","89","249250","0.0-20.0-1.4","SS1613080445005","trial","","40","800","4656.514999992214","images/stimuli/spore_stims/simple_17_B_c.gif","images/stimuli/spore_stims/simple_17_A_c.gif","","","","","4","simple_similar","images/stimuli/spore_stims/simple_17_A_c.gif","right","","","","",""
"","null","html-keyboard-response","90","250185","0.0-20.0-0.5","SS1613080445005","","","null","","","","","<p><img src= images/blank.png width =""200"" height = ""200"" style = ""float:right""></p><p><img src=images/blank.png width =""800"" height = ""200""></p>","","","","","","","","","","","",""
"","2298.4700000088196","sequential-stimulus-presentation","91","253298","0.0-20.0-1.5","SS1613080445005","trial","","40","800","3098.4700000088196","images/stimuli/spore_stims/simple_17_B_c.gif","images/stimuli/spore_stims/simple_17_A_c.gif","","","","","4","simple_similar","images/stimuli/spore_stims/simple_17_A_c.gif","right","","","","",""
"","null","html-keyboard-response","92","254469","0.0-20.0-0.6","SS1613080445005","","","null","","","","","<p><img src= images/blank.png width =""200"" height = ""200"" style = ""float:right""></p><p><img src=images/blank.png width =""800"" height = ""200""></p>","","","","","","","","","","","",""
"","3234.3999999866355","sequential-stimulus-presentation","93","258508","0.0-20.0-1.6","SS1613080445005","trial","","40","800","4034.3999999866355","images/stimuli/spore_stims/simple_17_B_c.gif","images/stimuli/spore_stims/simple_17_A_c.gif","","","","","4","simple_similar","images/stimuli/spore_stims/simple_17_A_c.gif","right","","","","",""
"","null","html-keyboard-response","94","259430","0.0-20.0-0.7","SS1613080445005","","","null","","","","","<p><img src= images/blank.png width =""200"" height = ""200"" style = ""float:right""></p><p><img src=images/blank.png width =""800"" height = ""200""></p>","","","","","","","","","","","",""
"","3738.119999994524","sequential-stimulus-presentation","95","263972","0.0-20.0-1.7","SS1613080445005","trial","","40","800","4538.119999994524","images/stimuli/spore_stims/simple_17_B_c.gif","images/stimuli/spore_stims/simple_17_A_c.gif","","","","","4","simple_similar","images/stimuli/spore_stims/simple_17_A_c.gif","right","","","","",""
"","1845.8999999857042","html-keyboard-response","96","265820","0.0-21.0","SS1613080445005","pref_question","","98","","","","","<video width ='960' height = '540' style='padding-top:8%' autoplay muted><source src='images/stimuli/wall_pref.mp4' type='video/mp4'></video>","2","middle","45%","4","","","","","","","",""
"","3122.475000011036","sequential-stimulus-presentation","97","269763","0.0-22.0","SS1613080445005","pref_reveal","","40","800","3922.475000011036","null","null","","","","","4","","","","deviant","","","",""
"","null","html-keyboard-response","98","271027","0.0-23.0-0.0","SS1613080445005","","","null","","","","","<p><img src= images/blank.png width =""200"" height = ""200"" style = ""float:right""></p><p><img src=images/blank.png width =""800"" height = ""200""></p>","","","","","","","","","","","",""
"","3444.740000006277","sequential-stimulus-presentation","99","275278","0.0-23.0-1.0","SS1613080445005","trial","","40","800","4244.740000006277","images/stimuli/spore_stims/complex_04_A_d.gif","images/stimuli/spore_stims/complex_07_B_a.gif","","","","","5","complex_dissimilar","images/stimuli/spore_stims/complex_07_B_a.gif","right","","","","",""
"","null","html-keyboard-response","100","276498","0.0-23.0-0.1","SS1613080445005","","","null","","","","","<p><img src= images/blank.png width =""200"" height = ""200"" style = ""float:right""></p><p><img src=images/blank.png width =""800"" height = ""200""></p>","","","","","","","","","","","",""
"","3447.2900000109803","sequential-stimulus-presentation","101","280751","0.0-23.0-1.1","SS1613080445005","trial","","40","800","4247.29000001098","images/stimuli/spore_stims/complex_04_A_d.gif","images/stimuli/spore_stims/complex_07_B_a.gif","","","","","5","complex_dissimilar","images/stimuli/spore_stims/complex_07_B_a.gif","right","","","","",""
"","null","html-keyboard-response","102","281606","0.0-23.0-0.2","SS1613080445005","","","null","","","","","<p><img src= images/blank.png width =""200"" height = ""200"" style = ""float:right""></p><p><img src=images/blank.png width =""800"" height = ""200""></p>","","","","","","","","","","","",""
"","1638.2849999936298","sequential-stimulus-presentation","103","284055","0.0-23.0-1.2","SS1613080445005","trial","","40","800","2438.2849999936298","images/stimuli/spore_stims/complex_04_A_d.gif","images/stimuli/spore_stims/complex_07_B_a.gif","","","","","5","complex_dissimilar","images/stimuli/spore_stims/complex_07_B_a.gif","right","","","","",""
"","null","html-keyboard-response","104","285344","0.0-23.0-0.3","SS1613080445005","","","null","","","","","<p><img src= images/blank.png width =""200"" height = ""200"" style = ""float:right""></p><p><img src=images/blank.png width =""800"" height = ""200""></p>","","","","","","","","","","","",""
"","1588.3500000054482","sequential-stimulus-presentation","105","287736","0.0-23.0-1.3","SS1613080445005","trial","","40","800","2388.3500000054482","images/stimuli/spore_stims/complex_04_A_d.gif","images/stimuli/spore_stims/complex_07_B_a.gif","","","","","5","complex_dissimilar","images/stimuli/spore_stims/complex_07_B_a.gif","right","","","","",""
"","null","html-keyboard-response","106","288785","0.0-23.0-0.4","SS1613080445005","","","null","","","","","<p><img src= images/blank.png width =""200"" height = ""200"" style = ""float:right""></p><p><img src=images/blank.png width =""800"" height = ""200""></p>","","","","","","","","","","","",""
"","1626.9850000098813","sequential-stimulus-presentation","107","291217","0.0-23.0-1.4","SS1613080445005","trial","","40","800","2426.9850000098813","images/stimuli/spore_stims/complex_04_A_d.gif","images/stimuli/spore_stims/complex_07_B_a.gif","","","","","5","complex_dissimilar","images/stimuli/spore_stims/complex_04_A_d.gif","middle","","","","",""
"","null","html-keyboard-response","108","292067","0.0-23.0-0.5","SS1613080445005","","","null","","","","","<p><img src= images/blank.png width =""200"" height = ""200"" style = ""float:right""></p><p><img src=images/blank.png width =""800"" height = ""200""></p>","","","","","","","","","","","",""
"","1248.9749999949709","sequential-stimulus-presentation","109","294129","0.0-23.0-1.5","SS1613080445005","trial","","40","800","2048.974999994971","images/stimuli/spore_stims/complex_04_A_d.gif","images/stimuli/spore_stims/complex_07_B_a.gif","","","","","5","complex_dissimilar","images/stimuli/spore_stims/complex_07_B_a.gif","right","","","","",""
"","null","html-keyboard-response","110","295081","0.0-23.0-0.6","SS1613080445005","","","null","","","","","<p><img src= images/blank.png width =""200"" height = ""200"" style = ""float:right""></p><p><img src=images/blank.png width =""800"" height = ""200""></p>","","","","","","","","","","","",""
"","2079.1150000004563","sequential-stimulus-presentation","111","297977","0.0-23.0-1.6","SS1613080445005","trial","","40","800","2879.1150000004563","images/stimuli/spore_stims/complex_04_A_d.gif","images/stimuli/spore_stims/complex_07_B_a.gif","","","","","5","complex_dissimilar","images/stimuli/spore_stims/complex_07_B_a.gif","right","","","","",""
"","null","html-keyboard-response","112","298981","0.0-23.0-0.7","SS1613080445005","","","null","","","","","<p><img src= images/blank.png width =""200"" height = ""200"" style = ""float:right""></p><p><img src=images/blank.png width =""800"" height = ""200""></p>","","","","","","","","","","","",""
"","1527.0750000199769","sequential-stimulus-presentation","113","301322","0.0-23.0-1.7","SS1613080445005","trial","","40","800","2327.075000019977","images/stimuli/spore_stims/complex_04_A_d.gif","images/stimuli/spore_stims/complex_07_B_a.gif","","","","","5","complex_dissimilar","images/stimuli/spore_stims/complex_07_B_a.gif","right","","","","",""
"","3861.9550000003073","html-keyboard-response","114","305187","0.0-24.0","SS1613080445005","pref_question","","97","","","","","<video width ='960' height = '540' style='padding-top:8%' autoplay muted><source src='images/stimuli/wall_pref.mp4' type='video/mp4'></video>","1","left","25%","5","","","","","","","",""
"","2015.5800000065938","sequential-stimulus-presentation","115","308019","0.0-25.0","SS1613080445005","pref_reveal","","40","800","2815.5800000065938","null","null","","","","","5","","","","novel","","","",""
"","null","html-keyboard-response","116","309177","0.0-26.0-0.0","SS1613080445005","","","null","","","","","<p><img src= images/blank.png width =""200"" height = ""200"" style = ""float:right""></p><p><img src=images/blank.png width =""800"" height = ""200""></p>","","","","","","","","","","","",""
"","2597.7750000020023","sequential-stimulus-presentation","117","312580","0.0-26.0-1.0","SS1613080445005","trial","","40","800","3397.7750000020023","images/stimuli/spore_stims/simple_05_A_d.gif","images/stimuli/spore_stims/simple_05_B_d.gif","","","","","6","simple_similar","images/stimuli/spore_stims/simple_05_B_d.gif","left","","","","",""
"","null","html-keyboard-response","118","313575","0.0-26.0-0.1","SS1613080445005","","","null","","","","","<p><img src= images/blank.png width =""200"" height = ""200"" style = ""float:right""></p><p><img src=images/blank.png width =""800"" height = ""200""></p>","","","","","","","","","","","",""
"","2783.5550000017975","sequential-stimulus-presentation","119","317172","0.0-26.0-1.1","SS1613080445005","trial","","40","800","3583.5550000017975","images/stimuli/spore_stims/simple_05_A_d.gif","images/stimuli/spore_stims/simple_05_B_d.gif","","","","","6","simple_similar","images/stimuli/spore_stims/simple_05_B_d.gif","left","","","","",""
"","null","html-keyboard-response","120","318181","0.0-26.0-0.2","SS1613080445005","","","null","","","","","<p><img src= images/blank.png width =""200"" height = ""200"" style = ""float:right""></p><p><img src=images/blank.png width =""800"" height = ""200""></p>","","","","","","","","","","","",""
"","2513.620000012452","sequential-stimulus-presentation","121","321501","0.0-26.0-1.2","SS1613080445005","trial","","40","800","3313.620000012452","images/stimuli/spore_stims/simple_05_A_d.gif","images/stimuli/spore_stims/simple_05_B_d.gif","","","","","6","simple_similar","images/stimuli/spore_stims/simple_05_B_d.gif","left","","","","",""
"","null","html-keyboard-response","122","322576","0.0-26.0-0.3","SS1613080445005","","","null","","","","","<p><img src= images/blank.png width =""200"" height = ""200"" style = ""float:right""></p><p><img src=images/blank.png width =""800"" height = ""200""></p>","","","","","","","","","","","",""
"","2812.099999981001","sequential-stimulus-presentation","123","326198","0.0-26.0-1.3","SS1613080445005","trial","","40","800","3612.099999981001","images/stimuli/spore_stims/simple_05_A_d.gif","images/stimuli/spore_stims/simple_05_B_d.gif","","","","","6","simple_similar","images/stimuli/spore_stims/simple_05_A_d.gif","middle","","","","",""
"","null","html-keyboard-response","124","327183","0.0-26.0-0.4","SS1613080445005","","","null","","","","","<p><img src= images/blank.png width =""200"" height = ""200"" style = ""float:right""></p><p><img src=images/blank.png width =""800"" height = ""200""></p>","","","","","","","","","","","",""
"","3478.960000007646","sequential-stimulus-presentation","125","331479","0.0-26.0-1.4","SS1613080445005","trial","","40","800","4278.960000007646","images/stimuli/spore_stims/simple_05_A_d.gif","images/stimuli/spore_stims/simple_05_B_d.gif","","","","","6","simple_similar","images/stimuli/spore_stims/simple_05_B_d.gif","left","","","","",""
"","null","html-keyboard-response","126","332313","0.0-26.0-0.5","SS1613080445005","","","null","","","","","<p><img src= images/blank.png width =""200"" height = ""200"" style = ""float:right""></p><p><img src=images/blank.png width =""800"" height = ""200""></p>","","","","","","","","","","","",""
"","4016.029999998864","sequential-stimulus-presentation","127","337144","0.0-26.0-1.5","SS1613080445005","trial","","40","800","4816.029999998864","images/stimuli/spore_stims/simple_05_A_d.gif","images/stimuli/spore_stims/simple_05_B_d.gif","","","","","6","simple_similar","images/stimuli/spore_stims/simple_05_B_d.gif","left","","","","",""
"","null","html-keyboard-response","128","338246","0.0-26.0-0.6","SS1613080445005","","","null","","","","","<p><img src= images/blank.png width =""200"" height = ""200"" style = ""float:right""></p><p><img src=images/blank.png width =""800"" height = ""200""></p>","","","","","","","","","","","",""
"","4805.094999988796","sequential-stimulus-presentation","129","343857","0.0-26.0-1.6","SS1613080445005","trial","","40","800","5605.094999988796","images/stimuli/spore_stims/simple_05_A_d.gif","images/stimuli/spore_stims/simple_05_B_d.gif","","","","","6","simple_similar","images/stimuli/spore_stims/simple_05_B_d.gif","left","","","","",""
"","null","html-keyboard-response","130","344916","0.0-26.0-0.7","SS1613080445005","","","null","","","","","<p><img src= images/blank.png width =""200"" height = ""200"" style = ""float:right""></p><p><img src=images/blank.png width =""800"" height = ""200""></p>","","","","","","","","","","","",""
"","3653.5250000015367","sequential-stimulus-presentation","131","349378","0.0-26.0-1.7","SS1613080445005","trial","","40","800","4453.525000001537","images/stimuli/spore_stims/simple_05_A_d.gif","images/stimuli/spore_stims/simple_05_B_d.gif","","","","","6","simple_similar","images/stimuli/spore_stims/simple_05_B_d.gif","left","","","","",""
"","2645.3999999794178","html-keyboard-response","132","352026","0.0-27.0","SS1613080445005","pref_question","","97","","","","","<video width ='960' height = '540' style='padding-top:8%' autoplay muted><source src='images/stimuli/wall_pref.mp4' type='video/mp4'></video>","1","left","25%","6","","","","","","","",""
"","3298.964999994496","sequential-stimulus-presentation","133","356131","0.0-28.0","SS1613080445005","pref_reveal","","40","800","4098.964999994496","null","null","","","","","6","","","","background","","","",""
"","null","html-keyboard-response","134","357050","0.0-29.0-0.0","SS1613080445005","","","null","","","","","<p><img src= images/blank.png width =""200"" height = ""200"" style = ""float:right""></p><p><img src=images/blank.png width =""800"" height = ""200""></p>","","","","","","","","","","","",""
"","3576.5149999933783","sequential-stimulus-presentation","135","361444","0.0-29.0-1.0","SS1613080445005","trial","","40","800","4376.514999993378","images/stimuli/spore_stims/simple_02_B_b.gif","images/stimuli/spore_stims/simple_06_B_a.gif","","","","","7","simple_dissimilar","images/stimuli/spore_stims/simple_06_B_a.gif","middle","","","","",""
"","null","html-keyboard-response","136","362378","0.0-29.0-0.1","SS1613080445005","","","null","","","","","<p><img src= images/blank.png width =""200"" height = ""200"" style = ""float:right""></p><p><img src=images/blank.png width =""800"" height = ""200""></p>","","","","","","","","","","","",""
"","1271.4900000137277","sequential-stimulus-presentation","137","364468","0.0-29.0-1.1","SS1613080445005","trial","","40","800","2071.4900000137277","images/stimuli/spore_stims/simple_02_B_b.gif","images/stimuli/spore_stims/simple_06_B_a.gif","","","","","7","simple_dissimilar","images/stimuli/spore_stims/simple_06_B_a.gif","middle","","","","",""
"","null","html-keyboard-response","138","365378","0.0-29.0-0.2","SS1613080445005","","","null","","","","","<p><img src= images/blank.png width =""200"" height = ""200"" style = ""float:right""></p><p><img src=images/blank.png width =""800"" height = ""200""></p>","","","","","","","","","","","",""
"","958.6799999815412","sequential-stimulus-presentation","139","367141","0.0-29.0-1.2","SS1613080445005","trial","","40","800","1758.6799999815412","images/stimuli/spore_stims/simple_02_B_b.gif","images/stimuli/spore_stims/simple_06_B_a.gif","","","","","7","simple_dissimilar","images/stimuli/spore_stims/simple_06_B_a.gif","middle","","","","",""
"","null","html-keyboard-response","140","368179","0.0-29.0-0.3","SS1613080445005","","","null","","","","","<p><img src= images/blank.png width =""200"" height = ""200"" style = ""float:right""></p><p><img src=images/blank.png width =""800"" height = ""200""></p>","","","","","","","","","","","",""
"","1391.170000017155","sequential-stimulus-presentation","141","370389","0.0-29.0-1.3","SS1613080445005","trial","","40","800","2191.170000017155","images/stimuli/spore_stims/simple_02_B_b.gif","images/stimuli/spore_stims/simple_06_B_a.gif","","","","","7","simple_dissimilar","images/stimuli/spore_stims/simple_06_B_a.gif","middle","","","","",""
"","null","html-keyboard-response","142","371400","0.0-29.0-0.4","SS1613080445005","","","null","","","","","<p><img src= images/blank.png width =""200"" height = ""200"" style = ""float:right""></p><p><img src=images/blank.png width =""800"" height = ""200""></p>","","","","","","","","","","","",""
"","1893.160000006901","sequential-stimulus-presentation","143","374110","0.0-29.0-1.4","SS1613080445005","trial","","40","800","2693.160000006901","images/stimuli/spore_stims/simple_02_B_b.gif","images/stimuli/spore_stims/simple_06_B_a.gif","","","","","7","simple_dissimilar","images/stimuli/spore_stims/simple_06_B_a.gif","middle","","","","",""
"","null","html-keyboard-response","144","375035","0.0-29.0-0.5","SS1613080445005","","","null","","","","","<p><img src= images/blank.png width =""200"" height = ""200"" style = ""float:right""></p><p><img src=images/blank.png width =""800"" height = ""200""></p>","","","","","","","","","","","",""
"","1107.7799999911804","sequential-stimulus-presentation","145","376950","0.0-29.0-1.5","SS1613080445005","trial","","40","800","1907.7799999911804","images/stimuli/spore_stims/simple_02_B_b.gif","images/stimuli/spore_stims/simple_06_B_a.gif","","","","","7","simple_dissimilar","images/stimuli/spore_stims/simple_02_B_b.gif","left","","","","",""
"","null","html-keyboard-response","146","378011","0.0-29.0-0.6","SS1613080445005","","","null","","","","","<p><img src= images/blank.png width =""200"" height = ""200"" style = ""float:right""></p><p><img src=images/blank.png width =""800"" height = ""200""></p>","","","","","","","","","","","",""
"","1374.5749999943655","sequential-stimulus-presentation","147","380191","0.0-29.0-1.6","SS1613080445005","trial","","40","800","2174.5749999943655","images/stimuli/spore_stims/simple_02_B_b.gif","images/stimuli/spore_stims/simple_06_B_a.gif","","","","","7","simple_dissimilar","images/stimuli/spore_stims/simple_06_B_a.gif","middle","","","","",""
"","null","html-keyboard-response","148","381195","0.0-29.0-0.7","SS1613080445005","","","null","","","","","<p><img src= images/blank.png width =""200"" height = ""200"" style = ""float:right""></p><p><img src=images/blank.png width =""800"" height = ""200""></p>","","","","","","","","","","","",""
"","1917.9049999802373","sequential-stimulus-presentation","149","383927","0.0-29.0-1.7","SS1613080445005","trial","","40","800","2717.9049999802373","images/stimuli/spore_stims/simple_02_B_b.gif","images/stimuli/spore_stims/simple_06_B_a.gif","","","","","7","simple_dissimilar","images/stimuli/spore_stims/simple_06_B_a.gif","middle","","","","",""
"","3286.1250000132713","html-keyboard-response","150","387216","0.0-30.0","SS1613080445005","pref_question","","98","","","","","<video width ='960' height = '540' style='padding-top:8%' autoplay muted><source src='images/stimuli/wall_pref.mp4' type='video/mp4'></video>","2","middle","45%","7","","","","","","","",""
"","1768.2099999801721","sequential-stimulus-presentation","151","389800","0.0-31.0","SS1613080445005","pref_reveal","","40","800","2568.209999980172","null","null","","","","","7","","","","background","","","",""
"","null","html-keyboard-response","152","390928","0.0-32.0-0.0","SS1613080445005","","","null","","","","","<p><img src= images/blank.png width =""200"" height = ""200"" style = ""float:right""></p><p><img src=images/blank.png width =""800"" height = ""200""></p>","","","","","","","","","","","",""
"","2803.27999999281","sequential-stimulus-presentation","153","394537","0.0-32.0-1.0","SS1613080445005","trial","","40","800","3603.27999999281","images/stimuli/spore_stims/simple_13_B_d.gif","images/stimuli/spore_stims/simple_19_A_c.gif","","","","","8","simple_dissimilar","images/stimuli/spore_stims/simple_19_A_c.gif","middle","","","","",""
"","null","html-keyboard-response","154","395447","0.0-32.0-0.1","SS1613080445005","","","null","","","","","<p><img src= images/blank.png width =""200"" height = ""200"" style = ""float:right""></p><p><img src=images/blank.png width =""800"" height = ""200""></p>","","","","","","","","","","","",""
"","3873.810000019148","sequential-stimulus-presentation","155","400130","0.0-32.0-1.1","SS1613080445005","trial","","40","800","4673.810000019148","images/stimuli/spore_stims/simple_13_B_d.gif","images/stimuli/spore_stims/simple_19_A_c.gif","","","","","8","simple_dissimilar","images/stimuli/spore_stims/simple_19_A_c.gif","middle","","","","",""
"","null","html-keyboard-response","156","400947","0.0-32.0-0.2","SS1613080445005","","","null","","","","","<p><img src= images/blank.png width =""200"" height = ""200"" style = ""float:right""></p><p><img src=images/blank.png width =""800"" height = ""200""></p>","","","","","","","","","","","",""
"","7464.344999985769","sequential-stimulus-presentation","157","409227","0.0-32.0-1.2","SS1613080445005","trial","","40","800","8264.34499998577","images/stimuli/spore_stims/simple_13_B_d.gif","images/stimuli/spore_stims/simple_19_A_c.gif","","","","","8","simple_dissimilar","images/stimuli/spore_stims/simple_19_A_c.gif","middle","","","","",""
"","null","html-keyboard-response","158","410319","0.0-32.0-0.3","SS1613080445005","","","null","","","","","<p><img src= images/blank.png width =""200"" height = ""200"" style = ""float:right""></p><p><img src=images/blank.png width =""800"" height = ""200""></p>","","","","","","","","","","","",""
"","1143.1849999935366","sequential-stimulus-presentation","159","412268","0.0-32.0-1.3","SS1613080445005","trial","","40","800","1943.1849999935366","images/stimuli/spore_stims/simple_13_B_d.gif","images/stimuli/spore_stims/simple_19_A_c.gif","","","","","8","simple_dissimilar","images/stimuli/spore_stims/simple_19_A_c.gif","middle","","","","",""
"","null","html-keyboard-response","160","413223","0.0-32.0-0.4","SS1613080445005","","","null","","","","","<p><img src= images/blank.png width =""200"" height = ""200"" style = ""float:right""></p><p><img src=images/blank.png width =""800"" height = ""200""></p>","","","","","","","","","","","",""
"","1200.3350000013597","sequential-stimulus-presentation","161","415228","0.0-32.0-1.4","SS1613080445005","trial","","40","800","2000.3350000013597","images/stimuli/spore_stims/simple_13_B_d.gif","images/stimuli/spore_stims/simple_19_A_c.gif","","","","","8","simple_dissimilar","images/stimuli/spore_stims/simple_19_A_c.gif","middle","","","","",""
"","null","html-keyboard-response","162","416101","0.0-32.0-0.5","SS1613080445005","","","null","","","","","<p><img src= images/blank.png width =""200"" height = ""200"" style = ""float:right""></p><p><img src=images/blank.png width =""800"" height = ""200""></p>","","","","","","","","","","","",""
"","1897.3950000072364","sequential-stimulus-presentation","163","418813","0.0-32.0-1.5","SS1613080445005","trial","","40","800","2697.3950000072364","images/stimuli/spore_stims/simple_13_B_d.gif","images/stimuli/spore_stims/simple_19_A_c.gif","","","","","8","simple_dissimilar","images/stimuli/spore_stims/simple_19_A_c.gif","middle","","","","",""
"","null","html-keyboard-response","164","419633","0.0-32.0-0.6","SS1613080445005","","","null","","","","","<p><img src= images/blank.png width =""200"" height = ""200"" style = ""float:right""></p><p><img src=images/blank.png width =""800"" height = ""200""></p>","","","","","","","","","","","",""
"","2227.115000016056","sequential-stimulus-presentation","165","422678","0.0-32.0-1.6","SS1613080445005","trial","","40","800","3027.115000016056","images/stimuli/spore_stims/simple_13_B_d.gif","images/stimuli/spore_stims/simple_19_A_c.gif","","","","","8","simple_dissimilar","images/stimuli/spore_stims/simple_19_A_c.gif","middle","","","","",""
"","null","html-keyboard-response","166","423903","0.0-32.0-0.7","SS1613080445005","","","null","","","","","<p><img src= images/blank.png width =""200"" height = ""200"" style = ""float:right""></p><p><img src=images/blank.png width =""800"" height = ""200""></p>","","","","","","","","","","","",""
"","4571.460000006482","sequential-stimulus-presentation","167","429287","0.0-32.0-1.7","SS1613080445005","trial","","40","800","5371.460000006482","images/stimuli/spore_stims/simple_13_B_d.gif","images/stimuli/spore_stims/simple_19_A_c.gif","","","","","8","simple_dissimilar","images/stimuli/spore_stims/simple_13_B_d.gif","right","","","","",""
"","1941.290000017034","html-keyboard-response","168","431231","0.0-33.0","SS1613080445005","pref_question","","49","","","","","<video width ='960' height = '540' style='padding-top:8%' autoplay muted><source src='images/stimuli/wall_pref.mp4' type='video/mp4'></video>","1","left","25%","8","","","","","","","",""
"","3652.3699999961536","sequential-stimulus-presentation","169","435696","0.0-34.0","SS1613080445005","pref_reveal","","40","800","4452.369999996154","null","null","","","","","8","","","","novel","","","",""
"","null","html-keyboard-response","170","437003","0.0-35.0-0.0","SS1613080445005","","","null","","","","","<p><img src= images/blank.png width =""200"" height = ""200"" style = ""float:right""></p><p><img src=images/blank.png width =""800"" height = ""200""></p>","","","","","","","","","","","",""
"","3693.3699999935925","sequential-stimulus-presentation","171","441505","0.0-35.0-1.0","SS1613080445005","trial","","40","800","4493.3699999935925","images/stimuli/spore_stims/complex_07_A_d.gif","images/stimuli/spore_stims/complex_01_A_d.gif","","","","","9","complex_dissimilar","images/stimuli/spore_stims/complex_01_A_d.gif","left","","","","",""
"","null","html-keyboard-response","172","442480","0.0-35.0-0.1","SS1613080445005","","","null","","","","","<p><img src= images/blank.png width =""200"" height = ""200"" style = ""float:right""></p><p><img src=images/blank.png width =""800"" height = ""200""></p>","","","","","","","","","","","",""
"","2918.680000002496","sequential-stimulus-presentation","173","446210","0.0-35.0-1.1","SS1613080445005","trial","","40","800","3718.680000002496","images/stimuli/spore_stims/complex_07_A_d.gif","images/stimuli/spore_stims/complex_01_A_d.gif","","","","","9","complex_dissimilar","images/stimuli/spore_stims/complex_01_A_d.gif","left","","","","",""
"","null","html-keyboard-response","174","447085","0.0-35.0-0.2","SS1613080445005","","","null","","","","","<p><img src= images/blank.png width =""200"" height = ""200"" style = ""float:right""></p><p><img src=images/blank.png width =""800"" height = ""200""></p>","","","","","","","","","","","",""
"","2661.164999997709","sequential-stimulus-presentation","175","450562","0.0-35.0-1.2","SS1613080445005","trial","","40","800","3461.164999997709","images/stimuli/spore_stims/complex_07_A_d.gif","images/stimuli/spore_stims/complex_01_A_d.gif","","","","","9","complex_dissimilar","images/stimuli/spore_stims/complex_07_A_d.gif","right","","","","",""
"","null","html-keyboard-response","176","451653","0.0-35.0-0.3","SS1613080445005","","","null","","","","","<p><img src= images/blank.png width =""200"" height = ""200"" style = ""float:right""></p><p><img src=images/blank.png width =""800"" height = ""200""></p>","","","","","","","","","","","",""
"","3797.5699999951757","sequential-stimulus-presentation","177","456260","0.0-35.0-1.3","SS1613080445005","trial","","40","800","4597.569999995176","images/stimuli/spore_stims/complex_07_A_d.gif","images/stimuli/spore_stims/complex_01_A_d.gif","","","","","9","complex_dissimilar","images/stimuli/spore_stims/complex_01_A_d.gif","left","","","","",""
"","null","html-keyboard-response","178","457552","0.0-35.0-0.4","SS1613080445005","","","null","","","","","<p><img src= images/blank.png width =""200"" height = ""200"" style = ""float:right""></p><p><img src=images/blank.png width =""800"" height = ""200""></p>","","","","","","","","","","","",""
"","2317.190000001574","sequential-stimulus-presentation","179","460684","0.0-35.0-1.4","SS1613080445005","trial","","40","800","3117.190000001574","images/stimuli/spore_stims/complex_07_A_d.gif","images/stimuli/spore_stims/complex_01_A_d.gif","","","","","9","complex_dissimilar","images/stimuli/spore_stims/complex_01_A_d.gif","left","","","","",""
"","null","html-keyboard-response","180","461984","0.0-35.0-0.5","SS1613080445005","","","null","","","","","<p><img src= images/blank.png width =""200"" height = ""200"" style = ""float:right""></p><p><img src=images/blank.png width =""800"" height = ""200""></p>","","","","","","","","","","","",""
"","4104.010000010021","sequential-stimulus-presentation","181","466902","0.0-35.0-1.5","SS1613080445005","trial","","40","800","4904.010000010021","images/stimuli/spore_stims/complex_07_A_d.gif","images/stimuli/spore_stims/complex_01_A_d.gif","","","","","9","complex_dissimilar","images/stimuli/spore_stims/complex_01_A_d.gif","left","","","","",""
"","null","html-keyboard-response","182","468038","0.0-35.0-0.6","SS1613080445005","","","null","","","","","<p><img src= images/blank.png width =""200"" height = ""200"" style = ""float:right""></p><p><img src=images/blank.png width =""800"" height = ""200""></p>","","","","","","","","","","","",""
"","3235.7199999969453","sequential-stimulus-presentation","183","472094","0.0-35.0-1.6","SS1613080445005","trial","","40","800","4035.7199999969453","images/stimuli/spore_stims/complex_07_A_d.gif","images/stimuli/spore_stims/complex_01_A_d.gif","","","","","9","complex_dissimilar","images/stimuli/spore_stims/complex_01_A_d.gif","left","","","","",""
"","null","html-keyboard-response","184","473362","0.0-35.0-0.7","SS1613080445005","","","null","","","","","<p><img src= images/blank.png width =""200"" height = ""200"" style = ""float:right""></p><p><img src=images/blank.png width =""800"" height = ""200""></p>","","","","","","","","","","","",""
"","2867.310000001453","sequential-stimulus-presentation","185","477047","0.0-35.0-1.7","SS1613080445005","trial","","40","800","3667.310000001453","images/stimuli/spore_stims/complex_07_A_d.gif","images/stimuli/spore_stims/complex_01_A_d.gif","","","","","9","complex_dissimilar","images/stimuli/spore_stims/complex_01_A_d.gif","left","","","","",""
"","4413.5300000198185","html-keyboard-response","186","481463","0.0-36.0","SS1613080445005","pref_question","","51","","","","","<video width ='960' height = '540' style='padding-top:8%' autoplay muted><source src='images/stimuli/wall_pref.mp4' type='video/mp4'></video>","3","right","66%","9","","","","","","","",""
"","2290.8599999791477","sequential-stimulus-presentation","187","484560","0.0-37.0","SS1613080445005","pref_reveal","","40","800","3090.8599999791477","null","null","","","","","9","","","","deviant","","","",""
"","null","html-keyboard-response","188","485835","0.0-38.0-0.0","SS1613080445005","","","null","","","","","<p><img src= images/blank.png width =""200"" height = ""200"" style = ""float:right""></p><p><img src=images/blank.png width =""800"" height = ""200""></p>","","","","","","","","","","","",""
"","1722.6799999771174","sequential-stimulus-presentation","189","488377","0.0-38.0-1.0","SS1613080445005","trial","","40","800","2522.6799999771174","images/stimuli/spore_stims/complex_14_B_c.gif","images/stimuli/spore_stims/complex_19_B_d.gif","","","","","10","complex_dissimilar","images/stimuli/spore_stims/complex_19_B_d.gif","right","","","","",""
"","null","html-keyboard-response","190","489276","0.0-38.0-0.1","SS1613080445005","","","null","","","","","<p><img src= images/blank.png width =""200"" height = ""200"" style = ""float:right""></p><p><img src=images/blank.png width =""800"" height = ""200""></p>","","","","","","","","","","","",""
"","2057.249999983469","sequential-stimulus-presentation","191","492153","0.0-38.0-1.1","SS1613080445005","trial","","40","800","2857.249999983469","images/stimuli/spore_stims/complex_14_B_c.gif","images/stimuli/spore_stims/complex_19_B_d.gif","","","","","10","complex_dissimilar","images/stimuli/spore_stims/complex_19_B_d.gif","right","","","","",""
"","null","html-keyboard-response","192","493439","0.0-38.0-0.2","SS1613080445005","","","null","","","","","<p><img src= images/blank.png width =""200"" height = ""200"" style = ""float:right""></p><p><img src=images/blank.png width =""800"" height = ""200""></p>","","","","","","","","","","","",""
"","1950.635000015609","sequential-stimulus-presentation","193","496202","0.0-38.0-1.2","SS1613080445005","trial","","40","800","2750.635000015609","images/stimuli/spore_stims/complex_14_B_c.gif","images/stimuli/spore_stims/complex_19_B_d.gif","","","","","10","complex_dissimilar","images/stimuli/spore_stims/complex_19_B_d.gif","right","","","","",""
"","null","html-keyboard-response","194","497093","0.0-38.0-0.3","SS1613080445005","","","null","","","","","<p><img src= images/blank.png width =""200"" height = ""200"" style = ""float:right""></p><p><img src=images/blank.png width =""800"" height = ""200""></p>","","","","","","","","","","","",""
"","2412.6849999884143","sequential-stimulus-presentation","195","500323","0.0-38.0-1.3","SS1613080445005","trial","","40","800","3212.6849999884143","images/stimuli/spore_stims/complex_14_B_c.gif","images/stimuli/spore_stims/complex_19_B_d.gif","","","","","10","complex_dissimilar","images/stimuli/spore_stims/complex_19_B_d.gif","right","","","","",""
"","null","html-keyboard-response","196","501186","0.0-38.0-0.4","SS1613080445005","","","null","","","","","<p><img src= images/blank.png width =""200"" height = ""200"" style = ""float:right""></p><p><img src=images/blank.png width =""800"" height = ""200""></p>","","","","","","","","","","","",""
"","3975.5699999805074","sequential-stimulus-presentation","197","505980","0.0-38.0-1.4","SS1613080445005","trial","","40","800","4775.569999980507","images/stimuli/spore_stims/complex_14_B_c.gif","images/stimuli/spore_stims/complex_19_B_d.gif","","","","","10","complex_dissimilar","images/stimuli/spore_stims/complex_14_B_c.gif","left","","","","",""
"","null","html-keyboard-response","198","506862","0.0-38.0-0.5","SS1613080445005","","","null","","","","","<p><img src= images/blank.png width =""200"" height = ""200"" style = ""float:right""></p><p><img src=images/blank.png width =""800"" height = ""200""></p>","","","","","","","","","","","",""
"","3583.4350000077393","sequential-stimulus-presentation","199","511261","0.0-38.0-1.5","SS1613080445005","trial","","40","800","4383.435000007739","images/stimuli/spore_stims/complex_14_B_c.gif","images/stimuli/spore_stims/complex_19_B_d.gif","","","","","10","complex_dissimilar","images/stimuli/spore_stims/complex_19_B_d.gif","right","","","","",""
"","null","html-keyboard-response","200","512441","0.0-38.0-0.6","SS1613080445005","","","null","","","","","<p><img src= images/blank.png width =""200"" height = ""200"" style = ""float:right""></p><p><img src=images/blank.png width =""800"" height = ""200""></p>","","","","","","","","","","","",""
"","1480.9100000129547","sequential-stimulus-presentation","201","514733","0.0-38.0-1.6","SS1613080445005","trial","","40","800","2280.9100000129547","images/stimuli/spore_stims/complex_14_B_c.gif","images/stimuli/spore_stims/complex_19_B_d.gif","","","","","10","complex_dissimilar","images/stimuli/spore_stims/complex_19_B_d.gif","right","","","","",""
"","null","html-keyboard-response","202","515973","0.0-38.0-0.7","SS1613080445005","","","null","","","","","<p><img src= images/blank.png width =""200"" height = ""200"" style = ""float:right""></p><p><img src=images/blank.png width =""800"" height = ""200""></p>","","","","","","","","","","","",""
"","1586.3250000111293","sequential-stimulus-presentation","203","518374","0.0-38.0-1.7","SS1613080445005","trial","","40","800","2386.3250000111293","images/stimuli/spore_stims/complex_14_B_c.gif","images/stimuli/spore_stims/complex_19_B_d.gif","","","","","10","complex_dissimilar","images/stimuli/spore_stims/complex_19_B_d.gif","right","","","","",""
"","3237.4699999927543","html-keyboard-response","204","521615","0.0-39.0","SS1613080445005","pref_question","","98","","","","","<video width ='960' height = '540' style='padding-top:8%' autoplay muted><source src='images/stimuli/wall_pref.mp4' type='video/mp4'></video>","2","middle","45%","10","","","","","","","",""
"","3487.135000003036","sequential-stimulus-presentation","205","525919","0.0-40.0","SS1613080445005","pref_reveal","","40","800","4287.135000003036","null","null","","","","","10","","","","novel","","","",""
"","null","html-keyboard-response","206","526929","0.0-41.0-0.0","SS1613080445005","","","null","","","","","<p><img src= images/blank.png width =""200"" height = ""200"" style = ""float:right""></p><p><img src=images/blank.png width =""800"" height = ""200""></p>","","","","","","","","","","","",""
"","3425.2099999866914","sequential-stimulus-presentation","207","531168","0.0-41.0-1.0","SS1613080445005","trial","","40","800","4225.209999986691","images/stimuli/spore_stims/simple_20_A_d.gif","images/stimuli/spore_stims/simple_20_B_d.gif","","","","","11","simple_similar","images/stimuli/spore_stims/simple_20_B_d.gif","middle","","","","",""
"","null","html-keyboard-response","208","532149","0.0-41.0-0.1","SS1613080445005","","","null","","","","","<p><img src= images/blank.png width =""200"" height = ""200"" style = ""float:right""></p><p><img src=images/blank.png width =""800"" height = ""200""></p>","","","","","","","","","","","",""
"","3930.415000009816","sequential-stimulus-presentation","209","536905","0.0-41.0-1.1","SS1613080445005","trial","","40","800","4730.415000009816","images/stimuli/spore_stims/simple_20_A_d.gif","images/stimuli/spore_stims/simple_20_B_d.gif","","","","","11","simple_similar","images/stimuli/spore_stims/simple_20_B_d.gif","middle","","","","",""
"","null","html-keyboard-response","210","538020","0.0-41.0-0.2","SS1613080445005","","","null","","","","","<p><img src= images/blank.png width =""200"" height = ""200"" style = ""float:right""></p><p><img src=images/blank.png width =""800"" height = ""200""></p>","","","","","","","","","","","",""
"","3307.6949999958742","sequential-stimulus-presentation","211","542146","0.0-41.0-1.2","SS1613080445005","trial","","40","800","4107.694999995874","images/stimuli/spore_stims/simple_20_A_d.gif","images/stimuli/spore_stims/simple_20_B_d.gif","","","","","11","simple_similar","images/stimuli/spore_stims/simple_20_B_d.gif","middle","","","","",""
"","null","html-keyboard-response","212","543298","0.0-41.0-0.3","SS1613080445005","","","null","","","","","<p><img src= images/blank.png width =""200"" height = ""200"" style = ""float:right""></p><p><img src=images/blank.png width =""800"" height = ""200""></p>","","","","","","","","","","","",""
"","2882.8949999879114","sequential-stimulus-presentation","213","546999","0.0-41.0-1.3","SS1613080445005","trial","","40","800","3682.8949999879114","images/stimuli/spore_stims/simple_20_A_d.gif","images/stimuli/spore_stims/simple_20_B_d.gif","","","","","11","simple_similar","images/stimuli/spore_stims/simple_20_B_d.gif","middle","","","","",""
"","null","html-keyboard-response","214","548155","0.0-41.0-0.4","SS1613080445005","","","null","","","","","<p><img src= images/blank.png width =""200"" height = ""200"" style = ""float:right""></p><p><img src=images/blank.png width =""800"" height = ""200""></p>","","","","","","","","","","","",""
"","953.3750000118744","sequential-stimulus-presentation","215","549915","0.0-41.0-1.4","SS1613080445005","trial","","40","800","1753.3750000118744","images/stimuli/spore_stims/simple_20_A_d.gif","images/stimuli/spore_stims/simple_20_B_d.gif","","","","","11","simple_similar","images/stimuli/spore_stims/simple_20_B_d.gif","middle","","","","",""
"","null","html-keyboard-response","216","551145","0.0-41.0-0.5","SS1613080445005","","","null","","","","","<p><img src= images/blank.png width =""200"" height = ""200"" style = ""float:right""></p><p><img src=images/blank.png width =""800"" height = ""200""></p>","","","","","","","","","","","",""
"","2209.480000019539","sequential-stimulus-presentation","217","554163","0.0-41.0-1.5","SS1613080445005","trial","","40","800","3009.480000019539","images/stimuli/spore_stims/simple_20_A_d.gif","images/stimuli/spore_stims/simple_20_B_d.gif","","","","","11","simple_similar","images/stimuli/spore_stims/simple_20_B_d.gif","middle","","","","",""
"","null","html-keyboard-response","218","555437","0.0-41.0-0.6","SS1613080445005","","","null","","","","","<p><img src= images/blank.png width =""200"" height = ""200"" style = ""float:right""></p><p><img src=images/blank.png width =""800"" height = ""200""></p>","","","","","","","","","","","",""
"","901.3750000158325","sequential-stimulus-presentation","219","557156","0.0-41.0-1.6","SS1613080445005","trial","","40","800","1701.3750000158325","images/stimuli/spore_stims/simple_20_A_d.gif","images/stimuli/spore_stims/simple_20_B_d.gif","","","","","11","simple_similar","images/stimuli/spore_stims/simple_20_B_d.gif","middle","","","","",""
"","null","html-keyboard-response","220","558353","0.0-41.0-0.7","SS1613080445005","","","null","","","","","<p><img src= images/blank.png width =""200"" height = ""200"" style = ""float:right""></p><p><img src=images/blank.png width =""800"" height = ""200""></p>","","","","","","","","","","","",""
"","1677.1750000189058","sequential-stimulus-presentation","221","560837","0.0-41.0-1.7","SS1613080445005","trial","","40","800","2477.175000018906","images/stimuli/spore_stims/simple_20_A_d.gif","images/stimuli/spore_stims/simple_20_B_d.gif","","","","","11","simple_similar","images/stimuli/spore_stims/simple_20_A_d.gif","right","","","","",""
"","1764.8550000158139","html-keyboard-response","222","562605","0.0-42.0","SS1613080445005","pref_question","","97","","","","","<video width ='960' height = '540' style='padding-top:8%' autoplay muted><source src='images/stimuli/wall_pref.mp4' type='video/mp4'></video>","1","left","25%","11","","","","","","","",""
"","2750.2000000094995","sequential-stimulus-presentation","223","566174","0.0-43.0","SS1613080445005","pref_reveal","","40","800","3550.2000000094995","null","null","","","","","11","","","","novel","","","",""
"","null","html-keyboard-response","224","567089","0.0-44.0-0.0","SS1613080445005","","","null","","","","","<p><img src= images/blank.png width =""200"" height = ""200"" style = ""float:right""></p><p><img src=images/blank.png width =""800"" height = ""200""></p>","","","","","","","","","","","",""
"","2135.2550000010524","sequential-stimulus-presentation","225","570031","0.0-44.0-1.0","SS1613080445005","trial","","40","800","2935.2550000010524","images/stimuli/spore_stims/complex_06_B_c.gif","images/stimuli/spore_stims/complex_08_B_a.gif","","","","","12","complex_dissimilar","images/stimuli/spore_stims/complex_08_B_a.gif","right","","","","",""
"","null","html-keyboard-response","226","571283","0.0-44.0-0.1","SS1613080445005","","","null","","","","","<p><img src= images/blank.png width =""200"" height = ""200"" style = ""float:right""></p><p><img src=images/blank.png width =""800"" height = ""200""></p>","","","","","","","","","","","",""
"","1800.5550000234507","sequential-stimulus-presentation","227","573902","0.0-44.0-1.1","SS1613080445005","trial","","40","800","2600.5550000234507","images/stimuli/spore_stims/complex_06_B_c.gif","images/stimuli/spore_stims/complex_08_B_a.gif","","","","","12","complex_dissimilar","images/stimuli/spore_stims/complex_08_B_a.gif","right","","","","",""
"","null","html-keyboard-response","228","575020","0.0-44.0-0.2","SS1613080445005","","","null","","","","","<p><img src= images/blank.png width =""200"" height = ""200"" style = ""float:right""></p><p><img src=images/blank.png width =""800"" height = ""200""></p>","","","","","","","","","","","",""
"","1669.6400000073481","sequential-stimulus-presentation","229","577495","0.0-44.0-1.2","SS1613080445005","trial","","40","800","2469.640000007348","images/stimuli/spore_stims/complex_06_B_c.gif","images/stimuli/spore_stims/complex_08_B_a.gif","","","","","12","complex_dissimilar","images/stimuli/spore_stims/complex_08_B_a.gif","right","","","","",""
"","null","html-keyboard-response","230","578376","0.0-44.0-0.3","SS1613080445005","","","null","","","","","<p><img src= images/blank.png width =""200"" height = ""200"" style = ""float:right""></p><p><img src=images/blank.png width =""800"" height = ""200""></p>","","","","","","","","","","","",""
"","2274.8350000183564","sequential-stimulus-presentation","231","581456","0.0-44.0-1.3","SS1613080445005","trial","","40","800","3074.8350000183564","images/stimuli/spore_stims/complex_06_B_c.gif","images/stimuli/spore_stims/complex_08_B_a.gif","","","","","12","complex_dissimilar","images/stimuli/spore_stims/complex_08_B_a.gif","right","","","","",""
"","null","html-keyboard-response","232","582530","0.0-44.0-0.4","SS1613080445005","","","null","","","","","<p><img src= images/blank.png width =""200"" height = ""200"" style = ""float:right""></p><p><img src=images/blank.png width =""800"" height = ""200""></p>","","","","","","","","","","","",""
"","1963.8550000090618","sequential-stimulus-presentation","233","585312","0.0-44.0-1.4","SS1613080445005","trial","","40","800","2763.8550000090618","images/stimuli/spore_stims/complex_06_B_c.gif","images/stimuli/spore_stims/complex_08_B_a.gif","","","","","12","complex_dissimilar","images/stimuli/spore_stims/complex_08_B_a.gif","right","","","","",""
"","null","html-keyboard-response","234","586489","0.0-44.0-0.5","SS1613080445005","","","null","","","","","<p><img src= images/blank.png width =""200"" height = ""200"" style = ""float:right""></p><p><img src=images/blank.png width =""800"" height = ""200""></p>","","","","","","","","","","","",""
"","1915.2500000200234","sequential-stimulus-presentation","235","589209","0.0-44.0-1.5","SS1613080445005","trial","","40","800","2715.2500000200234","images/stimuli/spore_stims/complex_06_B_c.gif","images/stimuli/spore_stims/complex_08_B_a.gif","","","","","12","complex_dissimilar","images/stimuli/spore_stims/complex_08_B_a.gif","right","","","","",""
"","null","html-keyboard-response","236","590145","0.0-44.0-0.6","SS1613080445005","","","null","","","","","<p><img src= images/blank.png width =""200"" height = ""200"" style = ""float:right""></p><p><img src=images/blank.png width =""800"" height = ""200""></p>","","","","","","","","","","","",""
"","3762.88000002387","sequential-stimulus-presentation","237","594714","0.0-44.0-1.6","SS1613080445005","trial","","40","800","4562.88000002387","images/stimuli/spore_stims/complex_06_B_c.gif","images/stimuli/spore_stims/complex_08_B_a.gif","","","","","12","complex_dissimilar","images/stimuli/spore_stims/complex_06_B_c.gif","middle","","","","",""
"","null","html-keyboard-response","238","595955","0.0-44.0-0.7","SS1613080445005","","","null","","","","","<p><img src= images/blank.png width =""200"" height = ""200"" style = ""float:right""></p><p><img src=images/blank.png width =""800"" height = ""200""></p>","","","","","","","","","","","",""
"","3813.690000009956","sequential-stimulus-presentation","239","600586","0.0-44.0-1.7","SS1613080445005","trial","","40","800","4613.690000009956","images/stimuli/spore_stims/complex_06_B_c.gif","images/stimuli/spore_stims/complex_08_B_a.gif","","","","","12","complex_dissimilar","images/stimuli/spore_stims/complex_08_B_a.gif","right","","","","",""
"","1444.9250000179745","html-keyboard-response","240","602035","0.0-45.0","SS1613080445005","pref_question","","97","","","","","<video width ='960' height = '540' style='padding-top:8%' autoplay muted><source src='images/stimuli/wall_pref.mp4' type='video/mp4'></video>","1","left","25%","12","","","","","","","",""
"","2057.420000026468","sequential-stimulus-presentation","241","604900","0.0-46.0","SS1613080445005","pref_reveal","","40","800","2857.420000026468","null","null","","","","","12","","","","novel","","","",""
"","null","html-keyboard-response","242","605958","0.0-47.0-0.0","SS1613080445005","","","null","","","","","<p><img src= images/blank.png width =""200"" height = ""200"" style = ""float:right""></p><p><img src=images/blank.png width =""800"" height = ""200""></p>","","","","","","","","","","","",""
"","2084.709999995539","sequential-stimulus-presentation","243","608860","0.0-47.0-1.0","SS1613080445005","trial","","40","800","2884.709999995539","images/stimuli/spore_stims/complex_20_B_b.gif","images/stimuli/spore_stims/complex_20_A_b.gif","","","","","13","complex_similar","images/stimuli/spore_stims/complex_20_A_b.gif","middle","","","","",""
"","null","html-keyboard-response","244","609797","0.0-47.0-0.1","SS1613080445005","","","null","","","","","<p><img src= images/blank.png width =""200"" height = ""200"" style = ""float:right""></p><p><img src=images/blank.png width =""800"" height = ""200""></p>","","","","","","","","","","","",""
"","1980.7649999856949","sequential-stimulus-presentation","245","612596","0.0-47.0-1.1","SS1613080445005","trial","","40","800","2780.764999985695","images/stimuli/spore_stims/complex_20_B_b.gif","images/stimuli/spore_stims/complex_20_A_b.gif","","","","","13","complex_similar","images/stimuli/spore_stims/complex_20_A_b.gif","middle","","","","",""
"","null","html-keyboard-response","246","613879","0.0-47.0-0.2","SS1613080445005","","","null","","","","","<p><img src= images/blank.png width =""200"" height = ""200"" style = ""float:right""></p><p><img src=images/blank.png width =""800"" height = ""200""></p>","","","","","","","","","","","",""
"","1931.8050000001676","sequential-stimulus-presentation","247","616630","0.0-47.0-1.2","SS1613080445005","trial","","40","800","2731.8050000001676","images/stimuli/spore_stims/complex_20_B_b.gif","images/stimuli/spore_stims/complex_20_A_b.gif","","","","","13","complex_similar","images/stimuli/spore_stims/complex_20_B_b.gif","right","","","","",""
"","null","html-keyboard-response","248","617732","0.0-47.0-0.3","SS1613080445005","","","null","","","","","<p><img src= images/blank.png width =""200"" height = ""200"" style = ""float:right""></p><p><img src=images/blank.png width =""800"" height = ""200""></p>","","","","","","","","","","","",""
"","1960.6499999936204","sequential-stimulus-presentation","249","620510","0.0-47.0-1.3","SS1613080445005","trial","","40","800","2760.6499999936204","images/stimuli/spore_stims/complex_20_B_b.gif","images/stimuli/spore_stims/complex_20_A_b.gif","","","","","13","complex_similar","images/stimuli/spore_stims/complex_20_A_b.gif","middle","","","","",""
"","null","html-keyboard-response","250","621480","0.0-47.0-0.4","SS1613080445005","","","null","","","","","<p><img src= images/blank.png width =""200"" height = ""200"" style = ""float:right""></p><p><img src=images/blank.png width =""800"" height = ""200""></p>","","","","","","","","","","","",""
"","2104.220000008354","sequential-stimulus-presentation","251","624390","0.0-47.0-1.4","SS1613080445005","trial","","40","800","2904.220000008354","images/stimuli/spore_stims/complex_20_B_b.gif","images/stimuli/spore_stims/complex_20_A_b.gif","","","","","13","complex_similar","images/stimuli/spore_stims/complex_20_A_b.gif","middle","","","","",""
"","null","html-keyboard-response","252","625442","0.0-47.0-0.5","SS1613080445005","","","null","","","","","<p><img src= images/blank.png width =""200"" height = ""200"" style = ""float:right""></p><p><img src=images/blank.png width =""800"" height = ""200""></p>","","","","","","","","","","","",""
"","1841.5299999760464","sequential-stimulus-presentation","253","628095","0.0-47.0-1.5","SS1613080445005","trial","","40","800","2641.5299999760464","images/stimuli/spore_stims/complex_20_B_b.gif","images/stimuli/spore_stims/complex_20_A_b.gif","","","","","13","complex_similar","images/stimuli/spore_stims/complex_20_A_b.gif","middle","","","","",""
"","null","html-keyboard-response","254","629026","0.0-47.0-0.6","SS1613080445005","","","null","","","","","<p><img src= images/blank.png width =""200"" height = ""200"" style = ""float:right""></p><p><img src=images/blank.png width =""800"" height = ""200""></p>","","","","","","","","","","","",""
"","1962.5400000077207","sequential-stimulus-presentation","255","631807","0.0-47.0-1.6","SS1613080445005","trial","","40","800","2762.5400000077207","images/stimuli/spore_stims/complex_20_B_b.gif","images/stimuli/spore_stims/complex_20_A_b.gif","","","","","13","complex_similar","images/stimuli/spore_stims/complex_20_A_b.gif","middle","","","","",""
"","null","html-keyboard-response","256","632878","0.0-47.0-0.7","SS1613080445005","","","null","","","","","<p><img src= images/blank.png width =""200"" height = ""200"" style = ""float:right""></p><p><img src=images/blank.png width =""800"" height = ""200""></p>","","","","","","","","","","","",""
"","1772.5750000099652","sequential-stimulus-presentation","257","635457","0.0-47.0-1.7","SS1613080445005","trial","","40","800","2572.575000009965","images/stimuli/spore_stims/complex_20_B_b.gif","images/stimuli/spore_stims/complex_20_A_b.gif","","","","","13","complex_similar","images/stimuli/spore_stims/complex_20_A_b.gif","middle","","","","",""
"","1583.6449999769684","html-keyboard-response","258","637049","0.0-48.0","SS1613080445005","pref_question","","97","","","","","<video width ='960' height = '540' style='padding-top:8%' autoplay muted><source src='images/stimuli/wall_pref.mp4' type='video/mp4'></video>","1","left","25%","13","","","","","","","",""
"","1892.0199999993201","sequential-stimulus-presentation","259","639754","0.0-49.0","SS1613080445005","pref_reveal","","40","800","2692.01999999932","null","null","","","","","13","","","","novel","","","",""
"","null","html-keyboard-response","260","640897","0.0-50.0-0.0","SS1613080445005","","","null","","","","","<p><img src= images/blank.png width =""200"" height = ""200"" style = ""float:right""></p><p><img src=images/blank.png width =""800"" height = ""200""></p>","","","","","","","","","","","",""
"","3371.610000001965","sequential-stimulus-presentation","261","645082","0.0-50.0-1.0","SS1613080445005","trial","","40","800","4171.610000001965","images/stimuli/spore_stims/simple_02_A_c.gif","images/stimuli/spore_stims/simple_03_A_c.gif","","","","","14","simple_dissimilar","images/stimuli/spore_stims/simple_03_A_c.gif","left","","","","",""
"","null","html-keyboard-response","262","645905","0.0-50.0-0.1","SS1613080445005","","","null","","","","","<p><img src= images/blank.png width =""200"" height = ""200"" style = ""float:right""></p><p><img src=images/blank.png width =""800"" height = ""200""></p>","","","","","","","","","","","",""
"","2438.5499999916647","sequential-stimulus-presentation","263","649163","0.0-50.0-1.1","SS1613080445005","trial","","40","800","3238.5499999916647","images/stimuli/spore_stims/simple_02_A_c.gif","images/stimuli/spore_stims/simple_03_A_c.gif","","","","","14","simple_dissimilar","images/stimuli/spore_stims/simple_03_A_c.gif","left","","","","",""
"","null","html-keyboard-response","264","650228","0.0-50.0-0.2","SS1613080445005","","","null","","","","","<p><img src= images/blank.png width =""200"" height = ""200"" style = ""float:right""></p><p><img src=images/blank.png width =""800"" height = ""200""></p>","","","","","","","","","","","",""
"","3395.5750000022817","sequential-stimulus-presentation","265","654437","0.0-50.0-1.2","SS1613080445005","trial","","40","800","4195.575000002282","images/stimuli/spore_stims/simple_02_A_c.gif","images/stimuli/spore_stims/simple_03_A_c.gif","","","","","14","simple_dissimilar","images/stimuli/spore_stims/simple_02_A_c.gif","right","","","","",""
"","null","html-keyboard-response","266","655262","0.0-50.0-0.3","SS1613080445005","","","null","","","","","<p><img src= images/blank.png width =""200"" height = ""200"" style = ""float:right""></p><p><img src=images/blank.png width =""800"" height = ""200""></p>","","","","","","","","","","","",""
"","3321.5150000178255","sequential-stimulus-presentation","267","659389","0.0-50.0-1.3","SS1613080445005","trial","","40","800","4121.5150000178255","images/stimuli/spore_stims/simple_02_A_c.gif","images/stimuli/spore_stims/simple_03_A_c.gif","","","","","14","simple_dissimilar","images/stimuli/spore_stims/simple_03_A_c.gif","left","","","","",""
"","null","html-keyboard-response","268","660207","0.0-50.0-0.4","SS1613080445005","","","null","","","","","<p><img src= images/blank.png width =""200"" height = ""200"" style = ""float:right""></p><p><img src=images/blank.png width =""800"" height = ""200""></p>","","","","","","","","","","","",""
"","3377.3899999796413","sequential-stimulus-presentation","269","664389","0.0-50.0-1.4","SS1613080445005","trial","","40","800","4177.389999979641","images/stimuli/spore_stims/simple_02_A_c.gif","images/stimuli/spore_stims/simple_03_A_c.gif","","","","","14","simple_dissimilar","images/stimuli/spore_stims/simple_03_A_c.gif","left","","","","",""
"","null","html-keyboard-response","270","665234","0.0-50.0-0.5","SS1613080445005","","","null","","","","","<p><img src= images/blank.png width =""200"" height = ""200"" style = ""float:right""></p><p><img src=images/blank.png width =""800"" height = ""200""></p>","","","","","","","","","","","",""
"","1971.1850000021514","sequential-stimulus-presentation","271","668015","0.0-50.0-1.5","SS1613080445005","trial","","40","800","2771.1850000021514","images/stimuli/spore_stims/simple_02_A_c.gif","images/stimuli/spore_stims/simple_03_A_c.gif","","","","","14","simple_dissimilar","images/stimuli/spore_stims/simple_03_A_c.gif","left","","","","",""
"","null","html-keyboard-response","272","668948","0.0-50.0-0.6","SS1613080445005","","","null","","","","","<p><img src= images/blank.png width =""200"" height = ""200"" style = ""float:right""></p><p><img src=images/blank.png width =""800"" height = ""200""></p>","","","","","","","","","","","",""
"","3858.37500001071","sequential-stimulus-presentation","273","673623","0.0-50.0-1.6","SS1613080445005","trial","","40","800","4658.37500001071","images/stimuli/spore_stims/simple_02_A_c.gif","images/stimuli/spore_stims/simple_03_A_c.gif","","","","","14","simple_dissimilar","images/stimuli/spore_stims/simple_03_A_c.gif","left","","","","",""
"","null","html-keyboard-response","274","674710","0.0-50.0-0.7","SS1613080445005","","","null","","","","","<p><img src= images/blank.png width =""200"" height = ""200"" style = ""float:right""></p><p><img src=images/blank.png width =""800"" height = ""200""></p>","","","","","","","","","","","",""
"","2954.5000000216532","sequential-stimulus-presentation","275","678472","0.0-50.0-1.7","SS1613080445005","trial","","40","800","3754.5000000216532","images/stimuli/spore_stims/simple_02_A_c.gif","images/stimuli/spore_stims/simple_03_A_c.gif","","","","","14","simple_dissimilar","images/stimuli/spore_stims/simple_03_A_c.gif","left","","","","",""
"","1540.2450000110548","html-keyboard-response","276","680016","0.0-51.0","SS1613080445005","pref_question","","99","","","","","<video width ='960' height = '540' style='padding-top:8%' autoplay muted><source src='images/stimuli/wall_pref.mp4' type='video/mp4'></video>","3","right","66%","14","","","","","","","",""
"","2116.024999995716","sequential-stimulus-presentation","277","682944","0.0-52.0","SS1613080445005","pref_reveal","","40","800","2916.024999995716","null","null","","","","","14","","","","deviant","","","",""
"","null","html-keyboard-response","278","683780","0.0-53.0-0.0","SS1613080445005","","","null","","","","","<p><img src= images/blank.png width =""200"" height = ""200"" style = ""float:right""></p><p><img src=images/blank.png width =""800"" height = ""200""></p>","","","","","","","","","","","",""
"","2237.3849999858066","sequential-stimulus-presentation","279","686825","0.0-53.0-1.0","SS1613080445005","trial","","40","800","3037.3849999858066","images/stimuli/spore_stims/simple_16_B_d.gif","images/stimuli/spore_stims/simple_16_A_d.gif","","","","","15","simple_similar","images/stimuli/spore_stims/simple_16_A_d.gif","middle","","","","",""
"","null","html-keyboard-response","280","687646","0.0-53.0-0.1","SS1613080445005","","","null","","","","","<p><img src= images/blank.png width =""200"" height = ""200"" style = ""float:right""></p><p><img src=images/blank.png width =""800"" height = ""200""></p>","","","","","","","","","","","",""
"","2162.7450000087265","sequential-stimulus-presentation","281","690626","0.0-53.0-1.1","SS1613080445005","trial","","40","800","2962.7450000087265","images/stimuli/spore_stims/simple_16_B_d.gif","images/stimuli/spore_stims/simple_16_A_d.gif","","","","","15","simple_similar","images/stimuli/spore_stims/simple_16_A_d.gif","middle","","","","",""
"","null","html-keyboard-response","282","691797","0.0-53.0-0.2","SS1613080445005","","","null","","","","","<p><img src= images/blank.png width =""200"" height = ""200"" style = ""float:right""></p><p><img src=images/blank.png width =""800"" height = ""200""></p>","","","","","","","","","","","",""
"","2071.395000006305","sequential-stimulus-presentation","283","694682","0.0-53.0-1.2","SS1613080445005","trial","","40","800","2871.395000006305","images/stimuli/spore_stims/simple_16_B_d.gif","images/stimuli/spore_stims/simple_16_A_d.gif","","","","","15","simple_similar","images/stimuli/spore_stims/simple_16_B_d.gif","left","","","","",""
"","null","html-keyboard-response","284","695766","0.0-53.0-0.3","SS1613080445005","","","null","","","","","<p><img src= images/blank.png width =""200"" height = ""200"" style = ""float:right""></p><p><img src=images/blank.png width =""800"" height = ""200""></p>","","","","","","","","","","","",""
"","2061.0299999825656","sequential-stimulus-presentation","285","698643","0.0-53.0-1.3","SS1613080445005","trial","","40","800","2861.0299999825656","images/stimuli/spore_stims/simple_16_B_d.gif","images/stimuli/spore_stims/simple_16_A_d.gif","","","","","15","simple_similar","images/stimuli/spore_stims/simple_16_A_d.gif","middle","","","","",""
"","null","html-keyboard-response","286","699511","0.0-53.0-0.4","SS1613080445005","","","null","","","","","<p><img src= images/blank.png width =""200"" height = ""200"" style = ""float:right""></p><p><img src=images/blank.png width =""800"" height = ""200""></p>","","","","","","","","","","","",""
"","2161.2249999889173","sequential-stimulus-presentation","287","702492","0.0-53.0-1.4","SS1613080445005","trial","","40","800","2961.2249999889173","images/stimuli/spore_stims/simple_16_B_d.gif","images/stimuli/spore_stims/simple_16_A_d.gif","","","","","15","simple_similar","images/stimuli/spore_stims/simple_16_A_d.gif","middle","","","","",""
"","null","html-keyboard-response","288","703639","0.0-53.0-0.5","SS1613080445005","","","null","","","","","<p><img src= images/blank.png width =""200"" height = ""200"" style = ""float:right""></p><p><img src=images/blank.png width =""800"" height = ""200""></p>","","","","","","","","","","","",""
"","2054.3649999890476","sequential-stimulus-presentation","289","706508","0.0-53.0-1.5","SS1613080445005","trial","","40","800","2854.3649999890476","images/stimuli/spore_stims/simple_16_B_d.gif","images/stimuli/spore_stims/simple_16_A_d.gif","","","","","15","simple_similar","images/stimuli/spore_stims/simple_16_A_d.gif","middle","","","","",""
"","null","html-keyboard-response","290","707738","0.0-53.0-0.6","SS1613080445005","","","null","","","","","<p><img src= images/blank.png width =""200"" height = ""200"" style = ""float:right""></p><p><img src=images/blank.png width =""800"" height = ""200""></p>","","","","","","","","","","","",""
"","2028.939999989234","sequential-stimulus-presentation","291","710573","0.0-53.0-1.6","SS1613080445005","trial","","40","800","2828.939999989234","images/stimuli/spore_stims/simple_16_B_d.gif","images/stimuli/spore_stims/simple_16_A_d.gif","","","","","15","simple_similar","images/stimuli/spore_stims/simple_16_A_d.gif","middle","","","","",""
"","null","html-keyboard-response","292","711601","0.0-53.0-0.7","SS1613080445005","","","null","","","","","<p><img src= images/blank.png width =""200"" height = ""200"" style = ""float:right""></p><p><img src=images/blank.png width =""800"" height = ""200""></p>","","","","","","","","","","","",""
"","2124.770000024","sequential-stimulus-presentation","293","714542","0.0-53.0-1.7","SS1613080445005","trial","","40","800","2924.770000024","images/stimuli/spore_stims/simple_16_B_d.gif","images/stimuli/spore_stims/simple_16_A_d.gif","","","","","15","simple_similar","images/stimuli/spore_stims/simple_16_A_d.gif","middle","","","","",""
"","1443.9450000063516","html-keyboard-response","294","715990","0.0-54.0","SS1613080445005","pref_question","","98","","","","","<video width ='960' height = '540' style='padding-top:8%' autoplay muted><source src='images/stimuli/wall_pref.mp4' type='video/mp4'></video>","2","middle","45%","15","","","","","","","",""
"","2106.6899999859743","sequential-stimulus-presentation","295","718910","0.0-55.0","SS1613080445005","pref_reveal","","40","800","2906.6899999859743","null","null","","","","","15","","","","background","","","",""
"","null","html-keyboard-response","296","720031","0.0-56.0-0.0","SS1613080445005","","","null","","","","","<p><img src= images/blank.png width =""200"" height = ""200"" style = ""float:right""></p><p><img src=images/blank.png width =""800"" height = ""200""></p>","","","","","","","","","","","",""
"","2560.6149999948684","sequential-stimulus-presentation","297","723399","0.0-56.0-1.0","SS1613080445005","trial","","40","800","3360.6149999948684","images/stimuli/spore_stims/complex_18_B_c.gif","images/stimuli/spore_stims/complex_18_A_c.gif","","","","","16","complex_similar","images/stimuli/spore_stims/complex_18_A_c.gif","right","","","","",""
"","null","html-keyboard-response","298","724295","0.0-56.0-0.1","SS1613080445005","","","null","","","","","<p><img src= images/blank.png width =""200"" height = ""200"" style = ""float:right""></p><p><img src=images/blank.png width =""800"" height = ""200""></p>","","","","","","","","","","","",""
"","2008.1399999908172","sequential-stimulus-presentation","299","727112","0.0-56.0-1.1","SS1613080445005","trial","","40","800","2808.139999990817","images/stimuli/spore_stims/complex_18_B_c.gif","images/stimuli/spore_stims/complex_18_A_c.gif","","","","","16","complex_similar","images/stimuli/spore_stims/complex_18_A_c.gif","right","","","","",""
"","null","html-keyboard-response","300","728291","0.0-56.0-0.2","SS1613080445005","","","null","","","","","<p><img src= images/blank.png width =""200"" height = ""200"" style = ""float:right""></p><p><img src=images/blank.png width =""800"" height = ""200""></p>","","","","","","","","","","","",""
"","2209.504999977071","sequential-stimulus-presentation","301","731320","0.0-56.0-1.2","SS1613080445005","trial","","40","800","3009.504999977071","images/stimuli/spore_stims/complex_18_B_c.gif","images/stimuli/spore_stims/complex_18_A_c.gif","","","","","16","complex_similar","images/stimuli/spore_stims/complex_18_A_c.gif","right","","","","",""
"","null","html-keyboard-response","302","732512","0.0-56.0-0.3","SS1613080445005","","","null","","","","","<p><img src= images/blank.png width =""200"" height = ""200"" style = ""float:right""></p><p><img src=images/blank.png width =""800"" height = ""200""></p>","","","","","","","","","","","",""
"","1670.384999975795","sequential-stimulus-presentation","303","735001","0.0-56.0-1.3","SS1613080445005","trial","","40","800","2470.384999975795","images/stimuli/spore_stims/complex_18_B_c.gif","images/stimuli/spore_stims/complex_18_A_c.gif","","","","","16","complex_similar","images/stimuli/spore_stims/complex_18_A_c.gif","right","","","","",""
"","null","html-keyboard-response","304","736166","0.0-56.0-0.4","SS1613080445005","","","null","","","","","<p><img src= images/blank.png width =""200"" height = ""200"" style = ""float:right""></p><p><img src=images/blank.png width =""800"" height = ""200""></p>","","","","","","","","","","","",""
"","2592.9999999934807","sequential-stimulus-presentation","305","739570","0.0-56.0-1.4","SS1613080445005","trial","","40","800","3392.9999999934807","images/stimuli/spore_stims/complex_18_B_c.gif","images/stimuli/spore_stims/complex_18_A_c.gif","","","","","16","complex_similar","images/stimuli/spore_stims/complex_18_A_c.gif","right","","","","",""
"","null","html-keyboard-response","306","740470","0.0-56.0-0.5","SS1613080445005","","","null","","","","","<p><img src= images/blank.png width =""200"" height = ""200"" style = ""float:right""></p><p><img src=images/blank.png width =""800"" height = ""200""></p>","","","","","","","","","","","",""
"","5620.254999987083","sequential-stimulus-presentation","307","746907","0.0-56.0-1.5","SS1613080445005","trial","","40","800","6420.254999987083","images/stimuli/spore_stims/complex_18_B_c.gif","images/stimuli/spore_stims/complex_18_A_c.gif","","","","","16","complex_similar","images/stimuli/spore_stims/complex_18_B_c.gif","middle","","","","",""
"","null","html-keyboard-response","308","748106","0.0-56.0-0.6","SS1613080445005","","","null","","","","","<p><img src= images/blank.png width =""200"" height = ""200"" style = ""float:right""></p><p><img src=images/blank.png width =""800"" height = ""200""></p>","","","","","","","","","","","",""
"","3172.9250000207685","sequential-stimulus-presentation","309","752092","0.0-56.0-1.6","SS1613080445005","trial","","40","800","3972.9250000207685","images/stimuli/spore_stims/complex_18_B_c.gif","images/stimuli/spore_stims/complex_18_A_c.gif","","","","","16","complex_similar","images/stimuli/spore_stims/complex_18_A_c.gif","right","","","","",""
"","null","html-keyboard-response","310","753172","0.0-56.0-0.7","SS1613080445005","","","null","","","","","<p><img src= images/blank.png width =""200"" height = ""200"" style = ""float:right""></p><p><img src=images/blank.png width =""800"" height = ""200""></p>","","","","","","","","","","","",""
"","4033.3799999789335","sequential-stimulus-presentation","311","758013","0.0-56.0-1.7","SS1613080445005","trial","","40","800","4833.3799999789335","images/stimuli/spore_stims/complex_18_B_c.gif","images/stimuli/spore_stims/complex_18_A_c.gif","","","","","16","complex_similar","images/stimuli/spore_stims/complex_18_A_c.gif","right","","","","",""
"","1315.7000000064727","html-keyboard-response","312","759333","0.0-57.0","SS1613080445005","pref_question","","97","","","","","<video width ='960' height = '540' style='padding-top:8%' autoplay muted><source src='images/stimuli/wall_pref.mp4' type='video/mp4'></video>","1","left","25%","16","","","","","","","",""
