"view_history","rt","trial_type","trial_index","time_elapsed","internal_node_id","subject","stimulus_type","trial_stimulus","key_press","minimum_viewing_duration","trial_looking_time","block_deviant","block_background","stimulus","wall_pref","location","location_percent","block_number","block_type","stimulus_displayed","position_displayed","stim_type_selected","responses","question_order","stimulus_left","stimulus_right"
"[{""page_index"":0,""viewing_time"":566596.0000000196}]","566596.9999999506","instructions","0","566615","0.0-0.0","SS1613140251993","","","","","","","","","","","","","","","","","","","",""
"[{""page_index"":0,""viewing_time"":3734.000000054948},{""page_index"":1,""viewing_time"":13116.000000038184}]","16851.000000024214","instructions","1","585471","0.0-1.0","SS1613140251993","instructions","","","","","","","","","","","","","","","","","","",""
"","8575.00000006985","sequential-stimulus-presentation","2","594853","0.0-2.0","SS1613140251993","","","40","800","9375.00000006985","null","null","","","","","","","","","","","","",""
"","1621.999999973923","sequential-stimulus-presentation","3","597280","0.0-3.0","SS1613140251993","","","40","800","2421.999999973923","null","null","","","","","","","","","","","","",""
"[{""page_index"":0,""viewing_time"":3010.000000009313}]","3010.9999999403954","instructions","4","600292","0.0-4.0","SS1613140251993","instructions","","","","","","","","","","","","","","","","","","",""
"","15538.999999989755","html-keyboard-response","5","615843","0.0-5.0","SS1613140251993","instructions","","97","","","","","<video width ='960' height = '540' autoplay muted><source src='images/stimuli/wall_pref.mp4' type='video/mp4'></video>","1","left","25%","","","","","","","","",""
"","4645.000000018626","sequential-stimulus-presentation","6","621291","0.0-6.0","SS1613140251993","pref_reveal","","40","800","5445.000000018626","null","null","","","","","","","","","","","","",""
"[{""page_index"":0,""viewing_time"":3219.000000040978},{""page_index"":1,""viewing_time"":2822.000000043772},{""page_index"":2,""viewing_time"":1388.9999999664724},{""page_index"":3,""viewing_time"":1052.0000000251457}]","8482.000000076368","instructions","7","629774","0.0-7.0","SS1613140251993","instructions","","","","","","","","","","","","","","","","","","",""
"","null","html-keyboard-response","8","631020","0.0-8.0-0.0","SS1613140251993","","","null","","","","","<p><img src= images/blank.png width =""200"" height = ""200"" style = ""float:right""></p><p><img src=images/blank.png width =""800"" height = ""200""></p>","","","","","","","","","","","",""
"","2236.9999999646097","sequential-stimulus-presentation","9","634062","0.0-8.0-1.0","SS1613140251993","trial","","40","800","3036.9999999646097","images/stimuli/spore_stims/simple_04_A_b.gif","images/stimuli/spore_stims/simple_01_A_b.gif","","","","","0","simple_dissimilar","images/stimuli/spore_stims/simple_01_A_b.gif","right","","","","",""
"","null","html-keyboard-response","10","635287","0.0-8.0-0.1","SS1613140251993","","","null","","","","","<p><img src= images/blank.png width =""200"" height = ""200"" style = ""float:right""></p><p><img src=images/blank.png width =""800"" height = ""200""></p>","","","","","","","","","","","",""
"","897.9999999282882","sequential-stimulus-presentation","11","636990","0.0-8.0-1.1","SS1613140251993","trial","","40","800","1697.9999999282882","images/stimuli/spore_stims/simple_04_A_b.gif","images/stimuli/spore_stims/simple_01_A_b.gif","","","","","0","simple_dissimilar","images/stimuli/spore_stims/simple_01_A_b.gif","right","","","","",""
"","null","html-keyboard-response","12","637822","0.0-8.0-0.2","SS1613140251993","","","null","","","","","<p><img src= images/blank.png width =""200"" height = ""200"" style = ""float:right""></p><p><img src=images/blank.png width =""800"" height = ""200""></p>","","","","","","","","","","","",""
"","191.99999992270023","sequential-stimulus-presentation","13","638822","0.0-8.0-1.2","SS1613140251993","trial","","40","800","991.9999999227002","images/stimuli/spore_stims/simple_04_A_b.gif","images/stimuli/spore_stims/simple_01_A_b.gif","","","","","0","simple_dissimilar","images/stimuli/spore_stims/simple_01_A_b.gif","right","","","","",""
"","null","html-keyboard-response","14","639839","0.0-8.0-0.3","SS1613140251993","","","null","","","","","<p><img src= images/blank.png width =""200"" height = ""200"" style = ""float:right""></p><p><img src=images/blank.png width =""800"" height = ""200""></p>","","","","","","","","","","","",""
"","60.999999986961484","sequential-stimulus-presentation","15","640741","0.0-8.0-1.3","SS1613140251993","trial","","40","800","860.9999999869615","images/stimuli/spore_stims/simple_04_A_b.gif","images/stimuli/spore_stims/simple_01_A_b.gif","","","","","0","simple_dissimilar","images/stimuli/spore_stims/simple_01_A_b.gif","right","","","","",""
"","null","html-keyboard-response","16","641609","0.0-8.0-0.4","SS1613140251993","","","null","","","","","<p><img src= images/blank.png width =""200"" height = ""200"" style = ""float:right""></p><p><img src=images/blank.png width =""800"" height = ""200""></p>","","","","","","","","","","","",""
"","56.00000009872019","sequential-stimulus-presentation","17","642486","0.0-8.0-1.4","SS1613140251993","trial","","40","800","856.0000000987202","images/stimuli/spore_stims/simple_04_A_b.gif","images/stimuli/spore_stims/simple_01_A_b.gif","","","","","0","simple_dissimilar","images/stimuli/spore_stims/simple_01_A_b.gif","right","","","","",""
"","null","html-keyboard-response","18","643557","0.0-8.0-0.5","SS1613140251993","","","null","","","","","<p><img src= images/blank.png width =""200"" height = ""200"" style = ""float:right""></p><p><img src=images/blank.png width =""800"" height = ""200""></p>","","","","","","","","","","","",""
"","207.99999998416752","sequential-stimulus-presentation","19","644570","0.0-8.0-1.5","SS1613140251993","trial","","40","800","1007.9999999841675","images/stimuli/spore_stims/simple_04_A_b.gif","images/stimuli/spore_stims/simple_01_A_b.gif","","","","","0","simple_dissimilar","images/stimuli/spore_stims/simple_01_A_b.gif","right","","","","",""
"","null","html-keyboard-response","20","645496","0.0-8.0-0.6","SS1613140251993","","","null","","","","","<p><img src= images/blank.png width =""200"" height = ""200"" style = ""float:right""></p><p><img src=images/blank.png width =""800"" height = ""200""></p>","","","","","","","","","","","",""
"","1261.0000000568107","sequential-stimulus-presentation","21","647561","0.0-8.0-1.6","SS1613140251993","trial","","40","800","2061.0000000568107","images/stimuli/spore_stims/simple_04_A_b.gif","images/stimuli/spore_stims/simple_01_A_b.gif","","","","","0","simple_dissimilar","images/stimuli/spore_stims/simple_04_A_b.gif","middle","","","","",""
"","null","html-keyboard-response","22","648466","0.0-8.0-0.7","SS1613140251993","","","null","","","","","<p><img src= images/blank.png width =""200"" height = ""200"" style = ""float:right""></p><p><img src=images/blank.png width =""800"" height = ""200""></p>","","","","","","","","","","","",""
"","1380.0000000046566","sequential-stimulus-presentation","23","650652","0.0-8.0-1.7","SS1613140251993","trial","","40","800","2180.0000000046566","images/stimuli/spore_stims/simple_04_A_b.gif","images/stimuli/spore_stims/simple_01_A_b.gif","","","","","0","simple_dissimilar","images/stimuli/spore_stims/simple_01_A_b.gif","right","","","","",""
"","4863.000000012107","html-keyboard-response","24","655522","0.0-9.0","SS1613140251993","pref_question","","98","","","","","<video width ='960' height = '540' style='padding-top:8%' autoplay muted><source src='images/stimuli/wall_pref.mp4' type='video/mp4'></video>","2","middle","45%","0","","","","","","","",""
"","3771.999999997206","sequential-stimulus-presentation","25","660112","0.0-10.0","SS1613140251993","pref_reveal","","40","800","4571.999999997206","null","null","","","","","0","","","","deviant","","","",""
"","null","html-keyboard-response","26","661093","0.0-11.0-0.0","SS1613140251993","","","null","","","","","<p><img src= images/blank.png width =""200"" height = ""200"" style = ""float:right""></p><p><img src=images/blank.png width =""800"" height = ""200""></p>","","","","","","","","","","","",""
"","561.9999999180436","sequential-stimulus-presentation","27","662462","0.0-11.0-1.0","SS1613140251993","trial","","40","800","1361.9999999180436","images/stimuli/spore_stims/simple_11_A_c.gif","images/stimuli/spore_stims/simple_11_B_c.gif","","","","","1","simple_similar","images/stimuli/spore_stims/simple_11_B_c.gif","left","","","","",""
"","null","html-keyboard-response","28","663304","0.0-11.0-0.1","SS1613140251993","","","null","","","","","<p><img src= images/blank.png width =""200"" height = ""200"" style = ""float:right""></p><p><img src=images/blank.png width =""800"" height = ""200""></p>","","","","","","","","","","","",""
"","1590.9999998984858","sequential-stimulus-presentation","29","665701","0.0-11.0-1.1","SS1613140251993","trial","","40","800","2390.999999898486","images/stimuli/spore_stims/simple_11_A_c.gif","images/stimuli/spore_stims/simple_11_B_c.gif","","","","","1","simple_similar","images/stimuli/spore_stims/simple_11_B_c.gif","left","","","","",""
"","null","html-keyboard-response","30","666935","0.0-11.0-0.2","SS1613140251993","","","null","","","","","<p><img src= images/blank.png width =""200"" height = ""200"" style = ""float:right""></p><p><img src=images/blank.png width =""800"" height = ""200""></p>","","","","","","","","","","","",""
"","782.0000000065193","sequential-stimulus-presentation","31","668522","0.0-11.0-1.2","SS1613140251993","trial","","40","800","1582.0000000065193","images/stimuli/spore_stims/simple_11_A_c.gif","images/stimuli/spore_stims/simple_11_B_c.gif","","","","","1","simple_similar","images/stimuli/spore_stims/simple_11_B_c.gif","left","","","","",""
"","null","html-keyboard-response","32","669602","0.0-11.0-0.3","SS1613140251993","","","null","","","","","<p><img src= images/blank.png width =""200"" height = ""200"" style = ""float:right""></p><p><img src=images/blank.png width =""800"" height = ""200""></p>","","","","","","","","","","","",""
"","317.9999999701977","sequential-stimulus-presentation","33","670733","0.0-11.0-1.3","SS1613140251993","trial","","40","800","1117.9999999701977","images/stimuli/spore_stims/simple_11_A_c.gif","images/stimuli/spore_stims/simple_11_B_c.gif","","","","","1","simple_similar","images/stimuli/spore_stims/simple_11_B_c.gif","left","","","","",""
"","null","html-keyboard-response","34","671677","0.0-11.0-0.4","SS1613140251993","","","null","","","","","<p><img src= images/blank.png width =""200"" height = ""200"" style = ""float:right""></p><p><img src=images/blank.png width =""800"" height = ""200""></p>","","","","","","","","","","","",""
"","219.0000000409782","sequential-stimulus-presentation","35","672702","0.0-11.0-1.4","SS1613140251993","trial","","40","800","1019.0000000409782","images/stimuli/spore_stims/simple_11_A_c.gif","images/stimuli/spore_stims/simple_11_B_c.gif","","","","","1","simple_similar","images/stimuli/spore_stims/simple_11_B_c.gif","left","","","","",""
"","null","html-keyboard-response","36","673631","0.0-11.0-0.5","SS1613140251993","","","null","","","","","<p><img src= images/blank.png width =""200"" height = ""200"" style = ""float:right""></p><p><img src=images/blank.png width =""800"" height = ""200""></p>","","","","","","","","","","","",""
"","234.00000005494803","sequential-stimulus-presentation","37","674672","0.0-11.0-1.5","SS1613140251993","trial","","40","800","1034.000000054948","images/stimuli/spore_stims/simple_11_A_c.gif","images/stimuli/spore_stims/simple_11_B_c.gif","","","","","1","simple_similar","images/stimuli/spore_stims/simple_11_B_c.gif","left","","","","",""
"","null","html-keyboard-response","38","675640","0.0-11.0-0.6","SS1613140251993","","","null","","","","","<p><img src= images/blank.png width =""200"" height = ""200"" style = ""float:right""></p><p><img src=images/blank.png width =""800"" height = ""200""></p>","","","","","","","","","","","",""
"","2258.999999961816","sequential-stimulus-presentation","39","678703","0.0-11.0-1.6","SS1613140251993","trial","","40","800","3058.999999961816","images/stimuli/spore_stims/simple_11_A_c.gif","images/stimuli/spore_stims/simple_11_B_c.gif","","","","","1","simple_similar","images/stimuli/spore_stims/simple_11_B_c.gif","left","","","","",""
"","null","html-keyboard-response","40","679716","0.0-11.0-0.7","SS1613140251993","","","null","","","","","<p><img src= images/blank.png width =""200"" height = ""200"" style = ""float:right""></p><p><img src=images/blank.png width =""800"" height = ""200""></p>","","","","","","","","","","","",""
"","270.9999999497086","sequential-stimulus-presentation","41","680794","0.0-11.0-1.7","SS1613140251993","trial","","40","800","1070.9999999497086","images/stimuli/spore_stims/simple_11_A_c.gif","images/stimuli/spore_stims/simple_11_B_c.gif","","","","","1","simple_similar","images/stimuli/spore_stims/simple_11_A_c.gif","right","","","","",""
"","5609.99999998603","html-keyboard-response","42","686415","0.0-12.0","SS1613140251993","pref_question","","98","","","","","<video width ='960' height = '540' style='padding-top:8%' autoplay muted><source src='images/stimuli/wall_pref.mp4' type='video/mp4'></video>","2","middle","45%","1","","","","","","","",""
"","1420.0000000419095","sequential-stimulus-presentation","43","688640","0.0-13.0","SS1613140251993","pref_reveal","","40","800","2220.0000000419095","null","null","","","","","1","","","","novel","","","",""
"","null","html-keyboard-response","44","689807","0.0-14.0-0.0","SS1613140251993","","","null","","","","","<p><img src= images/blank.png width =""200"" height = ""200"" style = ""float:right""></p><p><img src=images/blank.png width =""800"" height = ""200""></p>","","","","","","","","","","","",""
"","454.00000002700835","sequential-stimulus-presentation","45","691071","0.0-14.0-1.0","SS1613140251993","trial","","40","800","1254.0000000270084","images/stimuli/spore_stims/complex_19_A_b.gif","images/stimuli/spore_stims/complex_19_B_b.gif","","","","","2","complex_similar","images/stimuli/spore_stims/complex_19_B_b.gif","left","","","","",""
"","null","html-keyboard-response","46","692358","0.0-14.0-0.1","SS1613140251993","","","null","","","","","<p><img src= images/blank.png width =""200"" height = ""200"" style = ""float:right""></p><p><img src=images/blank.png width =""800"" height = ""200""></p>","","","","","","","","","","","",""
"","2.9999999096617103","sequential-stimulus-presentation","47","693180","0.0-14.0-1.1","SS1613140251993","trial","","40","800","802.9999999096617","images/stimuli/spore_stims/complex_19_A_b.gif","images/stimuli/spore_stims/complex_19_B_b.gif","","","","","2","complex_similar","images/stimuli/spore_stims/complex_19_B_b.gif","left","","","","",""
"","null","html-keyboard-response","48","694380","0.0-14.0-0.2","SS1613140251993","","","null","","","","","<p><img src= images/blank.png width =""200"" height = ""200"" style = ""float:right""></p><p><img src=images/blank.png width =""800"" height = ""200""></p>","","","","","","","","","","","",""
"","250","sequential-stimulus-presentation","49","695435","0.0-14.0-1.2","SS1613140251993","trial","","40","800","1050","images/stimuli/spore_stims/complex_19_A_b.gif","images/stimuli/spore_stims/complex_19_B_b.gif","","","","","2","complex_similar","images/stimuli/spore_stims/complex_19_B_b.gif","left","","","","",""
"","null","html-keyboard-response","50","696536","0.0-14.0-0.3","SS1613140251993","","","null","","","","","<p><img src= images/blank.png width =""200"" height = ""200"" style = ""float:right""></p><p><img src=images/blank.png width =""800"" height = ""200""></p>","","","","","","","","","","","",""
"","418.00000006332994","sequential-stimulus-presentation","51","697760","0.0-14.0-1.3","SS1613140251993","trial","","40","800","1218.00000006333","images/stimuli/spore_stims/complex_19_A_b.gif","images/stimuli/spore_stims/complex_19_B_b.gif","","","","","2","complex_similar","images/stimuli/spore_stims/complex_19_B_b.gif","left","","","","",""
"","null","html-keyboard-response","52","698653","0.0-14.0-0.4","SS1613140251993","","","null","","","","","<p><img src= images/blank.png width =""200"" height = ""200"" style = ""float:right""></p><p><img src=images/blank.png width =""800"" height = ""200""></p>","","","","","","","","","","","",""
"","361.99999996460974","sequential-stimulus-presentation","53","699821","0.0-14.0-1.4","SS1613140251993","trial","","40","800","1161.9999999646097","images/stimuli/spore_stims/complex_19_A_b.gif","images/stimuli/spore_stims/complex_19_B_b.gif","","","","","2","complex_similar","images/stimuli/spore_stims/complex_19_B_b.gif","left","","","","",""
"","null","html-keyboard-response","54","700756","0.0-14.0-0.5","SS1613140251993","","","null","","","","","<p><img src= images/blank.png width =""200"" height = ""200"" style = ""float:right""></p><p><img src=images/blank.png width =""800"" height = ""200""></p>","","","","","","","","","","","",""
"","537.0000000111759","sequential-stimulus-presentation","55","702098","0.0-14.0-1.5","SS1613140251993","trial","","40","800","1337.0000000111759","images/stimuli/spore_stims/complex_19_A_b.gif","images/stimuli/spore_stims/complex_19_B_b.gif","","","","","2","complex_similar","images/stimuli/spore_stims/complex_19_B_b.gif","left","","","","",""
"","null","html-keyboard-response","56","703220","0.0-14.0-0.6","SS1613140251993","","","null","","","","","<p><img src= images/blank.png width =""200"" height = ""200"" style = ""float:right""></p><p><img src=images/blank.png width =""800"" height = ""200""></p>","","","","","","","","","","","",""
"","248.99999995250255","sequential-stimulus-presentation","57","704278","0.0-14.0-1.6","SS1613140251993","trial","","40","800","1048.9999999525025","images/stimuli/spore_stims/complex_19_A_b.gif","images/stimuli/spore_stims/complex_19_B_b.gif","","","","","2","complex_similar","images/stimuli/spore_stims/complex_19_A_b.gif","middle","","","","",""
"","null","html-keyboard-response","58","705510","0.0-14.0-0.7","SS1613140251993","","","null","","","","","<p><img src= images/blank.png width =""200"" height = ""200"" style = ""float:right""></p><p><img src=images/blank.png width =""800"" height = ""200""></p>","","","","","","","","","","","",""
"","13.000000035390258","sequential-stimulus-presentation","59","706330","0.0-14.0-1.7","SS1613140251993","trial","","40","800","813.0000000353903","images/stimuli/spore_stims/complex_19_A_b.gif","images/stimuli/spore_stims/complex_19_B_b.gif","","","","","2","complex_similar","images/stimuli/spore_stims/complex_19_B_b.gif","left","","","","",""
"","2738.000000012107","html-keyboard-response","60","709084","0.0-15.0","SS1613140251993","pref_question","","98","","","","","<video width ='960' height = '540' style='padding-top:8%' autoplay muted><source src='images/stimuli/wall_pref.mp4' type='video/mp4'></video>","2","middle","45%","2","","","","","","","",""
"","1206.000000005588","sequential-stimulus-presentation","61","711098","0.0-16.0","SS1613140251993","pref_reveal","","40","800","2006.000000005588","null","null","","","","","2","","","","deviant","","","",""
"","null","html-keyboard-response","62","711952","0.0-17.0-0.0","SS1613140251993","","","null","","","","","<p><img src= images/blank.png width =""200"" height = ""200"" style = ""float:right""></p><p><img src=images/blank.png width =""800"" height = ""200""></p>","","","","","","","","","","","",""
"","520.0000000186265","sequential-stimulus-presentation","63","713280","0.0-17.0-1.0","SS1613140251993","trial","","40","800","1320.0000000186265","images/stimuli/spore_stims/simple_18_A_b.gif","images/stimuli/spore_stims/simple_18_B_b.gif","","","","","3","simple_similar","images/stimuli/spore_stims/simple_18_B_b.gif","middle","","","","",""
"","null","html-keyboard-response","64","714490","0.0-17.0-0.1","SS1613140251993","","","null","","","","","<p><img src= images/blank.png width =""200"" height = ""200"" style = ""float:right""></p><p><img src=images/blank.png width =""800"" height = ""200""></p>","","","","","","","","","","","",""
"","236.0000000335276","sequential-stimulus-presentation","65","715530","0.0-17.0-1.1","SS1613140251993","trial","","40","800","1036.0000000335276","images/stimuli/spore_stims/simple_18_A_b.gif","images/stimuli/spore_stims/simple_18_B_b.gif","","","","","3","simple_similar","images/stimuli/spore_stims/simple_18_B_b.gif","middle","","","","",""
"","null","html-keyboard-response","66","716803","0.0-17.0-0.2","SS1613140251993","","","null","","","","","<p><img src= images/blank.png width =""200"" height = ""200"" style = ""float:right""></p><p><img src=images/blank.png width =""800"" height = ""200""></p>","","","","","","","","","","","",""
"","152.00000000186265","sequential-stimulus-presentation","67","717760","0.0-17.0-1.2","SS1613140251993","trial","","40","800","952.0000000018626","images/stimuli/spore_stims/simple_18_A_b.gif","images/stimuli/spore_stims/simple_18_B_b.gif","","","","","3","simple_similar","images/stimuli/spore_stims/simple_18_B_b.gif","middle","","","","",""
"","null","html-keyboard-response","68","718600","0.0-17.0-0.3","SS1613140251993","","","null","","","","","<p><img src= images/blank.png width =""200"" height = ""200"" style = ""float:right""></p><p><img src=images/blank.png width =""800"" height = ""200""></p>","","","","","","","","","","","",""
"","1.0000000474974513","sequential-stimulus-presentation","69","719409","0.0-17.0-1.3","SS1613140251993","trial","","40","800","801.0000000474975","images/stimuli/spore_stims/simple_18_A_b.gif","images/stimuli/spore_stims/simple_18_B_b.gif","","","","","3","simple_similar","images/stimuli/spore_stims/simple_18_B_b.gif","middle","","","","",""
"","null","html-keyboard-response","70","720349","0.0-17.0-0.4","SS1613140251993","","","null","","","","","<p><img src= images/blank.png width =""200"" height = ""200"" style = ""float:right""></p><p><img src=images/blank.png width =""800"" height = ""200""></p>","","","","","","","","","","","",""
"","1179.0000000037253","sequential-stimulus-presentation","71","722337","0.0-17.0-1.4","SS1613140251993","trial","","40","800","1979.0000000037253","images/stimuli/spore_stims/simple_18_A_b.gif","images/stimuli/spore_stims/simple_18_B_b.gif","","","","","3","simple_similar","images/stimuli/spore_stims/simple_18_B_b.gif","middle","","","","",""
"","null","html-keyboard-response","72","723500","0.0-17.0-0.5","SS1613140251993","","","null","","","","","<p><img src= images/blank.png width =""200"" height = ""200"" style = ""float:right""></p><p><img src=images/blank.png width =""800"" height = ""200""></p>","","","","","","","","","","","",""
"","1114.9999999906868","sequential-stimulus-presentation","73","725419","0.0-17.0-1.5","SS1613140251993","trial","","40","800","1914.9999999906868","images/stimuli/spore_stims/simple_18_A_b.gif","images/stimuli/spore_stims/simple_18_B_b.gif","","","","","3","simple_similar","images/stimuli/spore_stims/simple_18_B_b.gif","middle","","","","",""
"","null","html-keyboard-response","74","726396","0.0-17.0-0.6","SS1613140251993","","","null","","","","","<p><img src= images/blank.png width =""200"" height = ""200"" style = ""float:right""></p><p><img src=images/blank.png width =""800"" height = ""200""></p>","","","","","","","","","","","",""
"","277.00000000186265","sequential-stimulus-presentation","75","727485","0.0-17.0-1.6","SS1613140251993","trial","","40","800","1077.0000000018626","images/stimuli/spore_stims/simple_18_A_b.gif","images/stimuli/spore_stims/simple_18_B_b.gif","","","","","3","simple_similar","images/stimuli/spore_stims/simple_18_A_b.gif","right","","","","",""
"","null","html-keyboard-response","76","728346","0.0-17.0-0.7","SS1613140251993","","","null","","","","","<p><img src= images/blank.png width =""200"" height = ""200"" style = ""float:right""></p><p><img src=images/blank.png width =""800"" height = ""200""></p>","","","","","","","","","","","",""
"","562.0000000344589","sequential-stimulus-presentation","77","729716","0.0-17.0-1.7","SS1613140251993","trial","","40","800","1362.000000034459","images/stimuli/spore_stims/simple_18_A_b.gif","images/stimuli/spore_stims/simple_18_B_b.gif","","","","","3","simple_similar","images/stimuli/spore_stims/simple_18_B_b.gif","middle","","","","",""
"","1716.0000000149012","html-keyboard-response","78","731439","0.0-18.0","SS1613140251993","pref_question","","98","","","","","<video width ='960' height = '540' style='padding-top:8%' autoplay muted><source src='images/stimuli/wall_pref.mp4' type='video/mp4'></video>","2","middle","45%","3","","","","","","","",""
"","19193.99999990128","sequential-stimulus-presentation","79","751440","0.0-19.0","SS1613140251993","pref_reveal","","40","800","19993.99999990128","null","null","","","","","3","","","","background","","","",""
"","null","html-keyboard-response","80","752267","0.0-20.0-0.0","SS1613140251993","","","null","","","","","<p><img src= images/blank.png width =""200"" height = ""200"" style = ""float:right""></p><p><img src=images/blank.png width =""800"" height = ""200""></p>","","","","","","","","","","","",""
"","556.999999913387","sequential-stimulus-presentation","81","753641","0.0-20.0-1.0","SS1613140251993","trial","","40","800","1356.999999913387","images/stimuli/spore_stims/simple_16_B_d.gif","images/stimuli/spore_stims/simple_12_B_b.gif","","","","","4","simple_dissimilar","images/stimuli/spore_stims/simple_12_B_b.gif","right","","","","",""
"","null","html-keyboard-response","82","754742","0.0-20.0-0.1","SS1613140251993","","","null","","","","","<p><img src= images/blank.png width =""200"" height = ""200"" style = ""float:right""></p><p><img src=images/blank.png width =""800"" height = ""200""></p>","","","","","","","","","","","",""
"","314.0000000130385","sequential-stimulus-presentation","83","755865","0.0-20.0-1.1","SS1613140251993","trial","","40","800","1114.0000000130385","images/stimuli/spore_stims/simple_16_B_d.gif","images/stimuli/spore_stims/simple_12_B_b.gif","","","","","4","simple_dissimilar","images/stimuli/spore_stims/simple_12_B_b.gif","right","","","","",""
"","null","html-keyboard-response","84","756773","0.0-20.0-0.2","SS1613140251993","","","null","","","","","<p><img src= images/blank.png width =""200"" height = ""200"" style = ""float:right""></p><p><img src=images/blank.png width =""800"" height = ""200""></p>","","","","","","","","","","","",""
"","452.0000000484288","sequential-stimulus-presentation","85","758031","0.0-20.0-1.2","SS1613140251993","trial","","40","800","1252.0000000484288","images/stimuli/spore_stims/simple_16_B_d.gif","images/stimuli/spore_stims/simple_12_B_b.gif","","","","","4","simple_dissimilar","images/stimuli/spore_stims/simple_12_B_b.gif","right","","","","",""
"","null","html-keyboard-response","86","759150","0.0-20.0-0.3","SS1613140251993","","","null","","","","","<p><img src= images/blank.png width =""200"" height = ""200"" style = ""float:right""></p><p><img src=images/blank.png width =""800"" height = ""200""></p>","","","","","","","","","","","",""
"","515.0000000139698","sequential-stimulus-presentation","87","760472","0.0-20.0-1.3","SS1613140251993","trial","","40","800","1315.0000000139698","images/stimuli/spore_stims/simple_16_B_d.gif","images/stimuli/spore_stims/simple_12_B_b.gif","","","","","4","simple_dissimilar","images/stimuli/spore_stims/simple_12_B_b.gif","right","","","","",""
"","null","html-keyboard-response","88","761762","0.0-20.0-0.4","SS1613140251993","","","null","","","","","<p><img src= images/blank.png width =""200"" height = ""200"" style = ""float:right""></p><p><img src=images/blank.png width =""800"" height = ""200""></p>","","","","","","","","","","","",""
"","554.0000000037253","sequential-stimulus-presentation","89","763121","0.0-20.0-1.4","SS1613140251993","trial","","40","800","1354.0000000037253","images/stimuli/spore_stims/simple_16_B_d.gif","images/stimuli/spore_stims/simple_12_B_b.gif","","","","","4","simple_dissimilar","images/stimuli/spore_stims/simple_12_B_b.gif","right","","","","",""
"","null","html-keyboard-response","90","764276","0.0-20.0-0.5","SS1613140251993","","","null","","","","","<p><img src= images/blank.png width =""200"" height = ""200"" style = ""float:right""></p><p><img src=images/blank.png width =""800"" height = ""200""></p>","","","","","","","","","","","",""
"","515.0000000139698","sequential-stimulus-presentation","91","765601","0.0-20.0-1.5","SS1613140251993","trial","","40","800","1315.0000000139698","images/stimuli/spore_stims/simple_16_B_d.gif","images/stimuli/spore_stims/simple_12_B_b.gif","","","","","4","simple_dissimilar","images/stimuli/spore_stims/simple_16_B_d.gif","left","","","","",""
"","null","html-keyboard-response","92","766479","0.0-20.0-0.6","SS1613140251993","","","null","","","","","<p><img src= images/blank.png width =""200"" height = ""200"" style = ""float:right""></p><p><img src=images/blank.png width =""800"" height = ""200""></p>","","","","","","","","","","","",""
"","474.99999997671694","sequential-stimulus-presentation","93","767761","0.0-20.0-1.6","SS1613140251993","trial","","40","800","1274.999999976717","images/stimuli/spore_stims/simple_16_B_d.gif","images/stimuli/spore_stims/simple_12_B_b.gif","","","","","4","simple_dissimilar","images/stimuli/spore_stims/simple_12_B_b.gif","right","","","","",""
"","null","html-keyboard-response","94","768684","0.0-20.0-0.7","SS1613140251993","","","null","","","","","<p><img src= images/blank.png width =""200"" height = ""200"" style = ""float:right""></p><p><img src=images/blank.png width =""800"" height = ""200""></p>","","","","","","","","","","","",""
"","179.99999993480742","sequential-stimulus-presentation","95","769671","0.0-20.0-1.7","SS1613140251993","trial","","40","800","979.9999999348074","images/stimuli/spore_stims/simple_16_B_d.gif","images/stimuli/spore_stims/simple_12_B_b.gif","","","","","4","simple_dissimilar","images/stimuli/spore_stims/simple_12_B_b.gif","right","","","","",""
"","1970.9999999031425","html-keyboard-response","96","771645","0.0-21.0","SS1613140251993","pref_question","","99","","","","","<video width ='960' height = '540' style='padding-top:8%' autoplay muted><source src='images/stimuli/wall_pref.mp4' type='video/mp4'></video>","3","right","66%","4","","","","","","","",""
"","2165.000000037253","sequential-stimulus-presentation","97","774652","0.0-22.0","SS1613140251993","pref_reveal","","40","800","2965.000000037253","null","null","","","","","4","","","","background","","","",""
"","null","html-keyboard-response","98","775672","0.0-23.0-0.0","SS1613140251993","","","null","","","","","<p><img src= images/blank.png width =""200"" height = ""200"" style = ""float:right""></p><p><img src=images/blank.png width =""800"" height = ""200""></p>","","","","","","","","","","","",""
"","70.00000006519258","sequential-stimulus-presentation","99","776551","0.0-23.0-1.0","SS1613140251993","trial","","40","800","870.0000000651926","images/stimuli/spore_stims/simple_17_A_c.gif","images/stimuli/spore_stims/simple_17_B_c.gif","","","","","5","simple_similar","images/stimuli/spore_stims/simple_17_B_c.gif","middle","","","","",""
"","null","html-keyboard-response","100","777797","0.0-23.0-0.1","SS1613140251993","","","null","","","","","<p><img src= images/blank.png width =""200"" height = ""200"" style = ""float:right""></p><p><img src=images/blank.png width =""800"" height = ""200""></p>","","","","","","","","","","","",""
"","36.99999989476055","sequential-stimulus-presentation","101","778640","0.0-23.0-1.1","SS1613140251993","trial","","40","800","836.9999998947605","images/stimuli/spore_stims/simple_17_A_c.gif","images/stimuli/spore_stims/simple_17_B_c.gif","","","","","5","simple_similar","images/stimuli/spore_stims/simple_17_B_c.gif","middle","","","","",""
"","null","html-keyboard-response","102","779568","0.0-23.0-0.2","SS1613140251993","","","null","","","","","<p><img src= images/blank.png width =""200"" height = ""200"" style = ""float:right""></p><p><img src=images/blank.png width =""800"" height = ""200""></p>","","","","","","","","","","","",""
"","295.99999997299165","sequential-stimulus-presentation","103","780672","0.0-23.0-1.2","SS1613140251993","trial","","40","800","1095.9999999729916","images/stimuli/spore_stims/simple_17_A_c.gif","images/stimuli/spore_stims/simple_17_B_c.gif","","","","","5","simple_similar","images/stimuli/spore_stims/simple_17_B_c.gif","middle","","","","",""
"","null","html-keyboard-response","104","781890","0.0-23.0-0.3","SS1613140251993","","","null","","","","","<p><img src= images/blank.png width =""200"" height = ""200"" style = ""float:right""></p><p><img src=images/blank.png width =""800"" height = ""200""></p>","","","","","","","","","","","",""
"","131.9999999832362","sequential-stimulus-presentation","105","782830","0.0-23.0-1.3","SS1613140251993","trial","","40","800","931.9999999832362","images/stimuli/spore_stims/simple_17_A_c.gif","images/stimuli/spore_stims/simple_17_B_c.gif","","","","","5","simple_similar","images/stimuli/spore_stims/simple_17_B_c.gif","middle","","","","",""
"","null","html-keyboard-response","106","783965","0.0-23.0-0.4","SS1613140251993","","","null","","","","","<p><img src= images/blank.png width =""200"" height = ""200"" style = ""float:right""></p><p><img src=images/blank.png width =""800"" height = ""200""></p>","","","","","","","","","","","",""
"","50.99999997764826","sequential-stimulus-presentation","107","784822","0.0-23.0-1.4","SS1613140251993","trial","","40","800","850.9999999776483","images/stimuli/spore_stims/simple_17_A_c.gif","images/stimuli/spore_stims/simple_17_B_c.gif","","","","","5","simple_similar","images/stimuli/spore_stims/simple_17_B_c.gif","middle","","","","",""
"","null","html-keyboard-response","108","785885","0.0-23.0-0.5","SS1613140251993","","","null","","","","","<p><img src= images/blank.png width =""200"" height = ""200"" style = ""float:right""></p><p><img src=images/blank.png width =""800"" height = ""200""></p>","","","","","","","","","","","",""
"","1360.0000001024455","sequential-stimulus-presentation","109","788062","0.0-23.0-1.5","SS1613140251993","trial","","40","800","2160.0000001024455","images/stimuli/spore_stims/simple_17_A_c.gif","images/stimuli/spore_stims/simple_17_B_c.gif","","","","","5","simple_similar","images/stimuli/spore_stims/simple_17_A_c.gif","right","","","","",""
"","null","html-keyboard-response","110","789172","0.0-23.0-0.6","SS1613140251993","","","null","","","","","<p><img src= images/blank.png width =""200"" height = ""200"" style = ""float:right""></p><p><img src=images/blank.png width =""800"" height = ""200""></p>","","","","","","","","","","","",""
"","565.000000060536","sequential-stimulus-presentation","111","790546","0.0-23.0-1.6","SS1613140251993","trial","","40","800","1365.000000060536","images/stimuli/spore_stims/simple_17_A_c.gif","images/stimuli/spore_stims/simple_17_B_c.gif","","","","","5","simple_similar","images/stimuli/spore_stims/simple_17_B_c.gif","middle","","","","",""
"","null","html-keyboard-response","112","791371","0.0-23.0-0.7","SS1613140251993","","","null","","","","","<p><img src= images/blank.png width =""200"" height = ""200"" style = ""float:right""></p><p><img src=images/blank.png width =""800"" height = ""200""></p>","","","","","","","","","","","",""
"","864.0000000596046","sequential-stimulus-presentation","113","793039","0.0-23.0-1.7","SS1613140251993","trial","","40","800","1664.0000000596046","images/stimuli/spore_stims/simple_17_A_c.gif","images/stimuli/spore_stims/simple_17_B_c.gif","","","","","5","simple_similar","images/stimuli/spore_stims/simple_17_B_c.gif","middle","","","","",""
"","2483.9999999385327","html-keyboard-response","114","795534","0.0-24.0","SS1613140251993","pref_question","","99","","","","","<video width ='960' height = '540' style='padding-top:8%' autoplay muted><source src='images/stimuli/wall_pref.mp4' type='video/mp4'></video>","3","right","66%","5","","","","","","","",""
"","1503.9999999571592","sequential-stimulus-presentation","115","797843","0.0-25.0","SS1613140251993","pref_reveal","","40","800","2303.999999957159","null","null","","","","","5","","","","deviant","","","",""
"","null","html-keyboard-response","116","798867","0.0-26.0-0.0","SS1613140251993","","","null","","","","","<p><img src= images/blank.png width =""200"" height = ""200"" style = ""float:right""></p><p><img src=images/blank.png width =""800"" height = ""200""></p>","","","","","","","","","","","",""
"","1638.0000000353903","sequential-stimulus-presentation","117","801313","0.0-26.0-1.0","SS1613140251993","trial","","40","800","2438.0000000353903","images/stimuli/spore_stims/simple_08_A_c.gif","images/stimuli/spore_stims/simple_05_B_b.gif","","","","","6","simple_dissimilar","images/stimuli/spore_stims/simple_05_B_b.gif","left","","","","",""
"","null","html-keyboard-response","118","802125","0.0-26.0-0.1","SS1613140251993","","","null","","","","","<p><img src= images/blank.png width =""200"" height = ""200"" style = ""float:right""></p><p><img src=images/blank.png width =""800"" height = ""200""></p>","","","","","","","","","","","",""
"","3069.9999999487773","sequential-stimulus-presentation","119","806004","0.0-26.0-1.1","SS1613140251993","trial","","40","800","3869.9999999487773","images/stimuli/spore_stims/simple_08_A_c.gif","images/stimuli/spore_stims/simple_05_B_b.gif","","","","","6","simple_dissimilar","images/stimuli/spore_stims/simple_05_B_b.gif","left","","","","",""
"","null","html-keyboard-response","120","806971","0.0-26.0-0.2","SS1613140251993","","","null","","","","","<p><img src= images/blank.png width =""200"" height = ""200"" style = ""float:right""></p><p><img src=images/blank.png width =""800"" height = ""200""></p>","","","","","","","","","","","",""
"","388.00000003539026","sequential-stimulus-presentation","121","808163","0.0-26.0-1.2","SS1613140251993","trial","","40","800","1188.0000000353903","images/stimuli/spore_stims/simple_08_A_c.gif","images/stimuli/spore_stims/simple_05_B_b.gif","","","","","6","simple_dissimilar","images/stimuli/spore_stims/simple_05_B_b.gif","left","","","","",""
"","null","html-keyboard-response","122","809233","0.0-26.0-0.3","SS1613140251993","","","null","","","","","<p><img src= images/blank.png width =""200"" height = ""200"" style = ""float:right""></p><p><img src=images/blank.png width =""800"" height = ""200""></p>","","","","","","","","","","","",""
"","204.00000002700835","sequential-stimulus-presentation","123","810245","0.0-26.0-1.3","SS1613140251993","trial","","40","800","1004.0000000270084","images/stimuli/spore_stims/simple_08_A_c.gif","images/stimuli/spore_stims/simple_05_B_b.gif","","","","","6","simple_dissimilar","images/stimuli/spore_stims/simple_05_B_b.gif","left","","","","",""
"","null","html-keyboard-response","124","811173","0.0-26.0-0.4","SS1613140251993","","","null","","","","","<p><img src= images/blank.png width =""200"" height = ""200"" style = ""float:right""></p><p><img src=images/blank.png width =""800"" height = ""200""></p>","","","","","","","","","","","",""
"","1939.9999999441206","sequential-stimulus-presentation","125","813925","0.0-26.0-1.4","SS1613140251993","trial","","40","800","2739.9999999441206","images/stimuli/spore_stims/simple_08_A_c.gif","images/stimuli/spore_stims/simple_05_B_b.gif","","","","","6","simple_dissimilar","images/stimuli/spore_stims/simple_05_B_b.gif","left","","","","",""
"","null","html-keyboard-response","126","815096","0.0-26.0-0.5","SS1613140251993","","","null","","","","","<p><img src= images/blank.png width =""200"" height = ""200"" style = ""float:right""></p><p><img src=images/blank.png width =""800"" height = ""200""></p>","","","","","","","","","","","",""
"","257.9999999143183","sequential-stimulus-presentation","127","816162","0.0-26.0-1.5","SS1613140251993","trial","","40","800","1057.9999999143183","images/stimuli/spore_stims/simple_08_A_c.gif","images/stimuli/spore_stims/simple_05_B_b.gif","","","","","6","simple_dissimilar","images/stimuli/spore_stims/simple_05_B_b.gif","left","","","","",""
"","null","html-keyboard-response","128","817265","0.0-26.0-0.6","SS1613140251993","","","null","","","","","<p><img src= images/blank.png width =""200"" height = ""200"" style = ""float:right""></p><p><img src=images/blank.png width =""800"" height = ""200""></p>","","","","","","","","","","","",""
"","1442.0000000391155","sequential-stimulus-presentation","129","819514","0.0-26.0-1.6","SS1613140251993","trial","","40","800","2242.0000000391155","images/stimuli/spore_stims/simple_08_A_c.gif","images/stimuli/spore_stims/simple_05_B_b.gif","","","","","6","simple_dissimilar","images/stimuli/spore_stims/simple_05_B_b.gif","left","","","","",""
"","null","html-keyboard-response","130","820517","0.0-26.0-0.7","SS1613140251993","","","null","","","","","<p><img src= images/blank.png width =""200"" height = ""200"" style = ""float:right""></p><p><img src=images/blank.png width =""800"" height = ""200""></p>","","","","","","","","","","","",""
"","43.999999994412065","sequential-stimulus-presentation","131","821374","0.0-26.0-1.7","SS1613140251993","trial","","40","800","843.9999999944121","images/stimuli/spore_stims/simple_08_A_c.gif","images/stimuli/spore_stims/simple_05_B_b.gif","","","","","6","simple_dissimilar","images/stimuli/spore_stims/simple_08_A_c.gif","right","","","","",""
"","1854.0000000502914","html-keyboard-response","132","823234","0.0-27.0","SS1613140251993","pref_question","","98","","","","","<video width ='960' height = '540' style='padding-top:8%' autoplay muted><source src='images/stimuli/wall_pref.mp4' type='video/mp4'></video>","2","middle","45%","6","","","","","","","",""
"","172.0000000204891","sequential-stimulus-presentation","133","824222","0.0-28.0","SS1613140251993","pref_reveal","","40","800","972.0000000204891","null","null","","","","","6","","","","novel","","","",""
"","null","html-keyboard-response","134","825136","0.0-29.0-0.0","SS1613140251993","","","null","","","","","<p><img src= images/blank.png width =""200"" height = ""200"" style = ""float:right""></p><p><img src=images/blank.png width =""800"" height = ""200""></p>","","","","","","","","","","","",""
"","234.00000005494803","sequential-stimulus-presentation","135","826184","0.0-29.0-1.0","SS1613140251993","trial","","40","800","1034.000000054948","images/stimuli/spore_stims/simple_20_B_a.gif","images/stimuli/spore_stims/simple_20_A_a.gif","","","","","7","simple_similar","images/stimuli/spore_stims/simple_20_A_a.gif","middle","","","","",""
"","null","html-keyboard-response","136","827087","0.0-29.0-0.1","SS1613140251993","","","null","","","","","<p><img src= images/blank.png width =""200"" height = ""200"" style = ""float:right""></p><p><img src=images/blank.png width =""800"" height = ""200""></p>","","","","","","","","","","","",""
"","96.00000001955777","sequential-stimulus-presentation","137","827994","0.0-29.0-1.1","SS1613140251993","trial","","40","800","896.0000000195578","images/stimuli/spore_stims/simple_20_B_a.gif","images/stimuli/spore_stims/simple_20_A_a.gif","","","","","7","simple_similar","images/stimuli/spore_stims/simple_20_A_a.gif","middle","","","","",""
"","null","html-keyboard-response","138","829166","0.0-29.0-0.2","SS1613140251993","","","null","","","","","<p><img src= images/blank.png width =""200"" height = ""200"" style = ""float:right""></p><p><img src=images/blank.png width =""800"" height = ""200""></p>","","","","","","","","","","","",""
"","98.99999992921948","sequential-stimulus-presentation","139","830082","0.0-29.0-1.2","SS1613140251993","trial","","40","800","898.9999999292195","images/stimuli/spore_stims/simple_20_B_a.gif","images/stimuli/spore_stims/simple_20_A_a.gif","","","","","7","simple_similar","images/stimuli/spore_stims/simple_20_A_a.gif","middle","","","","",""
"","null","html-keyboard-response","140","831083","0.0-29.0-0.3","SS1613140251993","","","null","","","","","<p><img src= images/blank.png width =""200"" height = ""200"" style = ""float:right""></p><p><img src=images/blank.png width =""800"" height = ""200""></p>","","","","","","","","","","","",""
"","84.00000003166497","sequential-stimulus-presentation","141","831972","0.0-29.0-1.3","SS1613140251993","trial","","40","800","884.000000031665","images/stimuli/spore_stims/simple_20_B_a.gif","images/stimuli/spore_stims/simple_20_A_a.gif","","","","","7","simple_similar","images/stimuli/spore_stims/simple_20_A_a.gif","middle","","","","",""
"","null","html-keyboard-response","142","833006","0.0-29.0-0.4","SS1613140251993","","","null","","","","","<p><img src= images/blank.png width =""200"" height = ""200"" style = ""float:right""></p><p><img src=images/blank.png width =""800"" height = ""200""></p>","","","","","","","","","","","",""
"","116.00000003818423","sequential-stimulus-presentation","143","833932","0.0-29.0-1.4","SS1613140251993","trial","","40","800","916.0000000381842","images/stimuli/spore_stims/simple_20_B_a.gif","images/stimuli/spore_stims/simple_20_A_a.gif","","","","","7","simple_similar","images/stimuli/spore_stims/simple_20_B_a.gif","left","","","","",""
"","null","html-keyboard-response","144","834841","0.0-29.0-0.5","SS1613140251993","","","null","","","","","<p><img src= images/blank.png width =""200"" height = ""200"" style = ""float:right""></p><p><img src=images/blank.png width =""800"" height = ""200""></p>","","","","","","","","","","","",""
"","635.0000000093132","sequential-stimulus-presentation","145","836284","0.0-29.0-1.5","SS1613140251993","trial","","40","800","1435.0000000093132","images/stimuli/spore_stims/simple_20_B_a.gif","images/stimuli/spore_stims/simple_20_A_a.gif","","","","","7","simple_similar","images/stimuli/spore_stims/simple_20_A_a.gif","middle","","","","",""
"","null","html-keyboard-response","146","837152","0.0-29.0-0.6","SS1613140251993","","","null","","","","","<p><img src= images/blank.png width =""200"" height = ""200"" style = ""float:right""></p><p><img src=images/blank.png width =""800"" height = ""200""></p>","","","","","","","","","","","",""
"","209.00000003166497","sequential-stimulus-presentation","147","838173","0.0-29.0-1.6","SS1613140251993","trial","","40","800","1009.000000031665","images/stimuli/spore_stims/simple_20_B_a.gif","images/stimuli/spore_stims/simple_20_A_a.gif","","","","","7","simple_similar","images/stimuli/spore_stims/simple_20_A_a.gif","middle","","","","",""
"","null","html-keyboard-response","148","839365","0.0-29.0-0.7","SS1613140251993","","","null","","","","","<p><img src= images/blank.png width =""200"" height = ""200"" style = ""float:right""></p><p><img src=images/blank.png width =""800"" height = ""200""></p>","","","","","","","","","","","",""
"","243.0000000167638","sequential-stimulus-presentation","149","840413","0.0-29.0-1.7","SS1613140251993","trial","","40","800","1043.0000000167638","images/stimuli/spore_stims/simple_20_B_a.gif","images/stimuli/spore_stims/simple_20_A_a.gif","","","","","7","simple_similar","images/stimuli/spore_stims/simple_20_A_a.gif","middle","","","","",""
"","1628.000000026077","html-keyboard-response","150","842053","0.0-30.0","SS1613140251993","pref_question","","99","","","","","<video width ='960' height = '540' style='padding-top:8%' autoplay muted><source src='images/stimuli/wall_pref.mp4' type='video/mp4'></video>","3","right","66%","7","","","","","","","",""
"","351.9999999552965","sequential-stimulus-presentation","151","843212","0.0-31.0","SS1613140251993","pref_reveal","","40","800","1151.9999999552965","null","null","","","","","7","","","","novel","","","",""
"","null","html-keyboard-response","152","844502","0.0-32.0-0.0","SS1613140251993","","","null","","","","","<p><img src= images/blank.png width =""200"" height = ""200"" style = ""float:right""></p><p><img src=images/blank.png width =""800"" height = ""200""></p>","","","","","","","","","","","",""
"","125","sequential-stimulus-presentation","153","845455","0.0-32.0-1.0","SS1613140251993","trial","","40","800","925","images/stimuli/spore_stims/complex_12_A_d.gif","images/stimuli/spore_stims/complex_12_B_d.gif","","","","","8","complex_similar","images/stimuli/spore_stims/complex_12_B_d.gif","middle","","","","",""
"","null","html-keyboard-response","154","846606","0.0-32.0-0.1","SS1613140251993","","","null","","","","","<p><img src= images/blank.png width =""200"" height = ""200"" style = ""float:right""></p><p><img src=images/blank.png width =""800"" height = ""200""></p>","","","","","","","","","","","",""
"","366.99999996926636","sequential-stimulus-presentation","155","847786","0.0-32.0-1.1","SS1613140251993","trial","","40","800","1166.9999999692664","images/stimuli/spore_stims/complex_12_A_d.gif","images/stimuli/spore_stims/complex_12_B_d.gif","","","","","8","complex_similar","images/stimuli/spore_stims/complex_12_B_d.gif","middle","","","","",""
"","null","html-keyboard-response","156","848817","0.0-32.0-0.2","SS1613140251993","","","null","","","","","<p><img src= images/blank.png width =""200"" height = ""200"" style = ""float:right""></p><p><img src=images/blank.png width =""800"" height = ""200""></p>","","","","","","","","","","","",""
"","1505.9999999357387","sequential-stimulus-presentation","157","851130","0.0-32.0-1.2","SS1613140251993","trial","","40","800","2305.9999999357387","images/stimuli/spore_stims/complex_12_A_d.gif","images/stimuli/spore_stims/complex_12_B_d.gif","","","","","8","complex_similar","images/stimuli/spore_stims/complex_12_B_d.gif","middle","","","","",""
"","null","html-keyboard-response","158","852172","0.0-32.0-0.3","SS1613140251993","","","null","","","","","<p><img src= images/blank.png width =""200"" height = ""200"" style = ""float:right""></p><p><img src=images/blank.png width =""800"" height = ""200""></p>","","","","","","","","","","","",""
"","1169.9999999254942","sequential-stimulus-presentation","159","854154","0.0-32.0-1.3","SS1613140251993","trial","","40","800","1969.9999999254942","images/stimuli/spore_stims/complex_12_A_d.gif","images/stimuli/spore_stims/complex_12_B_d.gif","","","","","8","complex_similar","images/stimuli/spore_stims/complex_12_B_d.gif","middle","","","","",""
"","null","html-keyboard-response","160","855382","0.0-32.0-0.4","SS1613140251993","","","null","","","","","<p><img src= images/blank.png width =""200"" height = ""200"" style = ""float:right""></p><p><img src=images/blank.png width =""800"" height = ""200""></p>","","","","","","","","","","","",""
"","434.0000000083819","sequential-stimulus-presentation","161","856623","0.0-32.0-1.4","SS1613140251993","trial","","40","800","1234.000000008382","images/stimuli/spore_stims/complex_12_A_d.gif","images/stimuli/spore_stims/complex_12_B_d.gif","","","","","8","complex_similar","images/stimuli/spore_stims/complex_12_B_d.gif","middle","","","","",""
"","null","html-keyboard-response","162","857682","0.0-32.0-0.5","SS1613140251993","","","null","","","","","<p><img src= images/blank.png width =""200"" height = ""200"" style = ""float:right""></p><p><img src=images/blank.png width =""800"" height = ""200""></p>","","","","","","","","","","","",""
"","271.99999999720603","sequential-stimulus-presentation","163","858766","0.0-32.0-1.5","SS1613140251993","trial","","40","800","1071.999999997206","images/stimuli/spore_stims/complex_12_A_d.gif","images/stimuli/spore_stims/complex_12_B_d.gif","","","","","8","complex_similar","images/stimuli/spore_stims/complex_12_B_d.gif","middle","","","","",""
"","null","html-keyboard-response","164","859825","0.0-32.0-0.6","SS1613140251993","","","null","","","","","<p><img src= images/blank.png width =""200"" height = ""200"" style = ""float:right""></p><p><img src=images/blank.png width =""800"" height = ""200""></p>","","","","","","","","","","","",""
"","3655.999999959022","sequential-stimulus-presentation","165","864284","0.0-32.0-1.6","SS1613140251993","trial","","40","800","4455.999999959022","images/stimuli/spore_stims/complex_12_A_d.gif","images/stimuli/spore_stims/complex_12_B_d.gif","","","","","8","complex_similar","images/stimuli/spore_stims/complex_12_B_d.gif","middle","","","","",""
"","null","html-keyboard-response","166","865572","0.0-32.0-0.7","SS1613140251993","","","null","","","","","<p><img src= images/blank.png width =""200"" height = ""200"" style = ""float:right""></p><p><img src=images/blank.png width =""800"" height = ""200""></p>","","","","","","","","","","","",""
"","984.9999999860302","sequential-stimulus-presentation","167","867373","0.0-32.0-1.7","SS1613140251993","trial","","40","800","1784.9999999860302","images/stimuli/spore_stims/complex_12_A_d.gif","images/stimuli/spore_stims/complex_12_B_d.gif","","","","","8","complex_similar","images/stimuli/spore_stims/complex_12_A_d.gif","right","","","","",""
"","5272.999999928288","html-keyboard-response","168","872661","0.0-33.0","SS1613140251993","pref_question","","99","","","","","<video width ='960' height = '540' style='padding-top:8%' autoplay muted><source src='images/stimuli/wall_pref.mp4' type='video/mp4'></video>","3","right","66%","8","","","","","","","",""
"","279.00000009685755","sequential-stimulus-presentation","169","873749","0.0-34.0","SS1613140251993","pref_reveal","","40","800","1079.0000000968575","null","null","","","","","8","","","","deviant","","","",""
"","null","html-keyboard-response","170","874596","0.0-35.0-0.0","SS1613140251993","","","null","","","","","<p><img src= images/blank.png width =""200"" height = ""200"" style = ""float:right""></p><p><img src=images/blank.png width =""800"" height = ""200""></p>","","","","","","","","","","","",""
"","140.00000001396984","sequential-stimulus-presentation","171","875553","0.0-35.0-1.0","SS1613140251993","trial","","40","800","940.0000000139698","images/stimuli/spore_stims/simple_12_A_d.gif","images/stimuli/spore_stims/simple_10_B_a.gif","","","","","9","simple_dissimilar","images/stimuli/spore_stims/simple_10_B_a.gif","middle","","","","",""
"","null","html-keyboard-response","172","876804","0.0-35.0-0.1","SS1613140251993","","","null","","","","","<p><img src= images/blank.png width =""200"" height = ""200"" style = ""float:right""></p><p><img src=images/blank.png width =""800"" height = ""200""></p>","","","","","","","","","","","",""
"","54.99999993480742","sequential-stimulus-presentation","173","877663","0.0-35.0-1.1","SS1613140251993","trial","","40","800","854.9999999348074","images/stimuli/spore_stims/simple_12_A_d.gif","images/stimuli/spore_stims/simple_10_B_a.gif","","","","","9","simple_dissimilar","images/stimuli/spore_stims/simple_10_B_a.gif","middle","","","","",""
"","null","html-keyboard-response","174","878607","0.0-35.0-0.2","SS1613140251993","","","null","","","","","<p><img src= images/blank.png width =""200"" height = ""200"" style = ""float:right""></p><p><img src=images/blank.png width =""800"" height = ""200""></p>","","","","","","","","","","","",""
"","24.000000092200935","sequential-stimulus-presentation","175","879444","0.0-35.0-1.2","SS1613140251993","trial","","40","800","824.0000000922009","images/stimuli/spore_stims/simple_12_A_d.gif","images/stimuli/spore_stims/simple_10_B_a.gif","","","","","9","simple_dissimilar","images/stimuli/spore_stims/simple_12_A_d.gif","right","","","","",""
"","null","html-keyboard-response","176","880413","0.0-35.0-0.3","SS1613140251993","","","null","","","","","<p><img src= images/blank.png width =""200"" height = ""200"" style = ""float:right""></p><p><img src=images/blank.png width =""800"" height = ""200""></p>","","","","","","","","","","","",""
"","30.000000027939677","sequential-stimulus-presentation","177","881253","0.0-35.0-1.3","SS1613140251993","trial","","40","800","830.0000000279397","images/stimuli/spore_stims/simple_12_A_d.gif","images/stimuli/spore_stims/simple_10_B_a.gif","","","","","9","simple_dissimilar","images/stimuli/spore_stims/simple_10_B_a.gif","middle","","","","",""
"","null","html-keyboard-response","178","882271","0.0-35.0-0.4","SS1613140251993","","","null","","","","","<p><img src= images/blank.png width =""200"" height = ""200"" style = ""float:right""></p><p><img src=images/blank.png width =""800"" height = ""200""></p>","","","","","","","","","","","",""
"","152.00000000186265","sequential-stimulus-presentation","179","883231","0.0-35.0-1.4","SS1613140251993","trial","","40","800","952.0000000018626","images/stimuli/spore_stims/simple_12_A_d.gif","images/stimuli/spore_stims/simple_10_B_a.gif","","","","","9","simple_dissimilar","images/stimuli/spore_stims/simple_10_B_a.gif","middle","","","","",""
"","null","html-keyboard-response","180","884495","0.0-35.0-0.5","SS1613140251993","","","null","","","","","<p><img src= images/blank.png width =""200"" height = ""200"" style = ""float:right""></p><p><img src=images/blank.png width =""800"" height = ""200""></p>","","","","","","","","","","","",""
"","263.00000003539026","sequential-stimulus-presentation","181","885564","0.0-35.0-1.5","SS1613140251993","trial","","40","800","1063.0000000353903","images/stimuli/spore_stims/simple_12_A_d.gif","images/stimuli/spore_stims/simple_10_B_a.gif","","","","","9","simple_dissimilar","images/stimuli/spore_stims/simple_10_B_a.gif","middle","","","","",""
"","null","html-keyboard-response","182","886429","0.0-35.0-0.6","SS1613140251993","","","null","","","","","<p><img src= images/blank.png width =""200"" height = ""200"" style = ""float:right""></p><p><img src=images/blank.png width =""800"" height = ""200""></p>","","","","","","","","","","","",""
"","96.9999999506399","sequential-stimulus-presentation","183","887334","0.0-35.0-1.6","SS1613140251993","trial","","40","800","896.9999999506399","images/stimuli/spore_stims/simple_12_A_d.gif","images/stimuli/spore_stims/simple_10_B_a.gif","","","","","9","simple_dissimilar","images/stimuli/spore_stims/simple_10_B_a.gif","middle","","","","",""
"","null","html-keyboard-response","184","888141","0.0-35.0-0.7","SS1613140251993","","","null","","","","","<p><img src= images/blank.png width =""200"" height = ""200"" style = ""float:right""></p><p><img src=images/blank.png width =""800"" height = ""200""></p>","","","","","","","","","","","",""
"","180.99999998230487","sequential-stimulus-presentation","185","889127","0.0-35.0-1.7","SS1613140251993","trial","","40","800","980.9999999823049","images/stimuli/spore_stims/simple_12_A_d.gif","images/stimuli/spore_stims/simple_10_B_a.gif","","","","","9","simple_dissimilar","images/stimuli/spore_stims/simple_10_B_a.gif","middle","","","","",""
"","1661.9999998947605","html-keyboard-response","186","890796","0.0-36.0","SS1613140251993","pref_question","","99","","","","","<video width ='960' height = '540' style='padding-top:8%' autoplay muted><source src='images/stimuli/wall_pref.mp4' type='video/mp4'></video>","3","right","66%","9","","","","","","","",""
"","442.00000003911555","sequential-stimulus-presentation","187","892044","0.0-37.0","SS1613140251993","pref_reveal","","40","800","1242.0000000391155","null","null","","","","","9","","","","deviant","","","",""
"","null","html-keyboard-response","188","893002","0.0-38.0-0.0","SS1613140251993","","","null","","","","","<p><img src= images/blank.png width =""200"" height = ""200"" style = ""float:right""></p><p><img src=images/blank.png width =""800"" height = ""200""></p>","","","","","","","","","","","",""
"","5910.999999963678","sequential-stimulus-presentation","189","899725","0.0-38.0-1.0","SS1613140251993","trial","","40","800","6710.999999963678","images/stimuli/spore_stims/complex_15_B_c.gif","images/stimuli/spore_stims/complex_02_B_a.gif","","","","","10","complex_dissimilar","images/stimuli/spore_stims/complex_02_B_a.gif","middle","","","","",""
"","null","html-keyboard-response","190","900881","0.0-38.0-0.1","SS1613140251993","","","null","","","","","<p><img src= images/blank.png width =""200"" height = ""200"" style = ""float:right""></p><p><img src=images/blank.png width =""800"" height = ""200""></p>","","","","","","","","","","","",""
"","188.9999998966232","sequential-stimulus-presentation","191","901877","0.0-38.0-1.1","SS1613140251993","trial","","40","800","988.9999998966232","images/stimuli/spore_stims/complex_15_B_c.gif","images/stimuli/spore_stims/complex_02_B_a.gif","","","","","10","complex_dissimilar","images/stimuli/spore_stims/complex_02_B_a.gif","middle","","","","",""
"","null","html-keyboard-response","192","902900","0.0-38.0-0.2","SS1613140251993","","","null","","","","","<p><img src= images/blank.png width =""200"" height = ""200"" style = ""float:right""></p><p><img src=images/blank.png width =""800"" height = ""200""></p>","","","","","","","","","","","",""
"","157.00000000651926","sequential-stimulus-presentation","193","903868","0.0-38.0-1.2","SS1613140251993","trial","","40","800","957.0000000065193","images/stimuli/spore_stims/complex_15_B_c.gif","images/stimuli/spore_stims/complex_02_B_a.gif","","","","","10","complex_dissimilar","images/stimuli/spore_stims/complex_02_B_a.gif","middle","","","","",""
"","null","html-keyboard-response","194","904700","0.0-38.0-0.3","SS1613140251993","","","null","","","","","<p><img src= images/blank.png width =""200"" height = ""200"" style = ""float:right""></p><p><img src=images/blank.png width =""800"" height = ""200""></p>","","","","","","","","","","","",""
"","239.99999999068677","sequential-stimulus-presentation","195","905744","0.0-38.0-1.3","SS1613140251993","trial","","40","800","1039.9999999906868","images/stimuli/spore_stims/complex_15_B_c.gif","images/stimuli/spore_stims/complex_02_B_a.gif","","","","","10","complex_dissimilar","images/stimuli/spore_stims/complex_02_B_a.gif","middle","","","","",""
"","null","html-keyboard-response","196","907040","0.0-38.0-0.4","SS1613140251993","","","null","","","","","<p><img src= images/blank.png width =""200"" height = ""200"" style = ""float:right""></p><p><img src=images/blank.png width =""800"" height = ""200""></p>","","","","","","","","","","","",""
"","28.000000049360096","sequential-stimulus-presentation","197","907874","0.0-38.0-1.4","SS1613140251993","trial","","40","800","828.0000000493601","images/stimuli/spore_stims/complex_15_B_c.gif","images/stimuli/spore_stims/complex_02_B_a.gif","","","","","10","complex_dissimilar","images/stimuli/spore_stims/complex_02_B_a.gif","middle","","","","",""
"","null","html-keyboard-response","198","909055","0.0-38.0-0.5","SS1613140251993","","","null","","","","","<p><img src= images/blank.png width =""200"" height = ""200"" style = ""float:right""></p><p><img src=images/blank.png width =""800"" height = ""200""></p>","","","","","","","","","","","",""
"","134.0000000782311","sequential-stimulus-presentation","199","909995","0.0-38.0-1.5","SS1613140251993","trial","","40","800","934.0000000782311","images/stimuli/spore_stims/complex_15_B_c.gif","images/stimuli/spore_stims/complex_02_B_a.gif","","","","","10","complex_dissimilar","images/stimuli/spore_stims/complex_02_B_a.gif","middle","","","","",""
"","null","html-keyboard-response","200","911170","0.0-38.0-0.6","SS1613140251993","","","null","","","","","<p><img src= images/blank.png width =""200"" height = ""200"" style = ""float:right""></p><p><img src=images/blank.png width =""800"" height = ""200""></p>","","","","","","","","","","","",""
"","282.9999999376014","sequential-stimulus-presentation","201","912265","0.0-38.0-1.6","SS1613140251993","trial","","40","800","1082.9999999376014","images/stimuli/spore_stims/complex_15_B_c.gif","images/stimuli/spore_stims/complex_02_B_a.gif","","","","","10","complex_dissimilar","images/stimuli/spore_stims/complex_15_B_c.gif","left","","","","",""
"","null","html-keyboard-response","202","913474","0.0-38.0-0.7","SS1613140251993","","","null","","","","","<p><img src= images/blank.png width =""200"" height = ""200"" style = ""float:right""></p><p><img src=images/blank.png width =""800"" height = ""200""></p>","","","","","","","","","","","",""
"","250.99999993108213","sequential-stimulus-presentation","203","914534","0.0-38.0-1.7","SS1613140251993","trial","","40","800","1050.9999999310821","images/stimuli/spore_stims/complex_15_B_c.gif","images/stimuli/spore_stims/complex_02_B_a.gif","","","","","10","complex_dissimilar","images/stimuli/spore_stims/complex_02_B_a.gif","middle","","","","",""
"","1667.0000000158325","html-keyboard-response","204","916206","0.0-39.0","SS1613140251993","pref_question","","99","","","","","<video width ='960' height = '540' style='padding-top:8%' autoplay muted><source src='images/stimuli/wall_pref.mp4' type='video/mp4'></video>","3","right","66%","10","","","","","","","",""
"","109.00000005494803","sequential-stimulus-presentation","205","917124","0.0-40.0","SS1613140251993","pref_reveal","","40","800","909.000000054948","null","null","","","","","10","","","","novel","","","",""
"","null","html-keyboard-response","206","918386","0.0-41.0-0.0","SS1613140251993","","","null","","","","","<p><img src= images/blank.png width =""200"" height = ""200"" style = ""float:right""></p><p><img src=images/blank.png width =""800"" height = ""200""></p>","","","","","","","","","","","",""
"","138.00000003539026","sequential-stimulus-presentation","207","919335","0.0-41.0-1.0","SS1613140251993","trial","","40","800","938.0000000353903","images/stimuli/spore_stims/simple_15_B_a.gif","images/stimuli/spore_stims/simple_08_B_a.gif","","","","","11","simple_dissimilar","images/stimuli/spore_stims/simple_08_B_a.gif","middle","","","","",""
"","null","html-keyboard-response","208","920181","0.0-41.0-0.1","SS1613140251993","","","null","","","","","<p><img src= images/blank.png width =""200"" height = ""200"" style = ""float:right""></p><p><img src=images/blank.png width =""800"" height = ""200""></p>","","","","","","","","","","","",""
"","77.9999999795109","sequential-stimulus-presentation","209","921066","0.0-41.0-1.1","SS1613140251993","trial","","40","800","877.9999999795109","images/stimuli/spore_stims/simple_15_B_a.gif","images/stimuli/spore_stims/simple_08_B_a.gif","","","","","11","simple_dissimilar","images/stimuli/spore_stims/simple_08_B_a.gif","middle","","","","",""
"","null","html-keyboard-response","210","922041","0.0-41.0-0.2","SS1613140251993","","","null","","","","","<p><img src= images/blank.png width =""200"" height = ""200"" style = ""float:right""></p><p><img src=images/blank.png width =""800"" height = ""200""></p>","","","","","","","","","","","",""
"","280.9999999590218","sequential-stimulus-presentation","211","923135","0.0-41.0-1.2","SS1613140251993","trial","","40","800","1080.9999999590218","images/stimuli/spore_stims/simple_15_B_a.gif","images/stimuli/spore_stims/simple_08_B_a.gif","","","","","11","simple_dissimilar","images/stimuli/spore_stims/simple_15_B_a.gif","right","","","","",""
"","null","html-keyboard-response","212","924119","0.0-41.0-0.3","SS1613140251993","","","null","","","","","<p><img src= images/blank.png width =""200"" height = ""200"" style = ""float:right""></p><p><img src=images/blank.png width =""800"" height = ""200""></p>","","","","","","","","","","","",""
"","104.00000005029142","sequential-stimulus-presentation","213","925035","0.0-41.0-1.3","SS1613140251993","trial","","40","800","904.0000000502914","images/stimuli/spore_stims/simple_15_B_a.gif","images/stimuli/spore_stims/simple_08_B_a.gif","","","","","11","simple_dissimilar","images/stimuli/spore_stims/simple_08_B_a.gif","middle","","","","",""
"","null","html-keyboard-response","214","925941","0.0-41.0-0.4","SS1613140251993","","","null","","","","","<p><img src= images/blank.png width =""200"" height = ""200"" style = ""float:right""></p><p><img src=images/blank.png width =""800"" height = ""200""></p>","","","","","","","","","","","",""
"","185.99999998696148","sequential-stimulus-presentation","215","926935","0.0-41.0-1.4","SS1613140251993","trial","","40","800","985.9999999869615","images/stimuli/spore_stims/simple_15_B_a.gif","images/stimuli/spore_stims/simple_08_B_a.gif","","","","","11","simple_dissimilar","images/stimuli/spore_stims/simple_08_B_a.gif","middle","","","","",""
"","null","html-keyboard-response","216","927913","0.0-41.0-0.5","SS1613140251993","","","null","","","","","<p><img src= images/blank.png width =""200"" height = ""200"" style = ""float:right""></p><p><img src=images/blank.png width =""800"" height = ""200""></p>","","","","","","","","","","","",""
"","120.99999992642552","sequential-stimulus-presentation","217","928846","0.0-41.0-1.5","SS1613140251993","trial","","40","800","920.9999999264255","images/stimuli/spore_stims/simple_15_B_a.gif","images/stimuli/spore_stims/simple_08_B_a.gif","","","","","11","simple_dissimilar","images/stimuli/spore_stims/simple_08_B_a.gif","middle","","","","",""
"","null","html-keyboard-response","218","929989","0.0-41.0-0.6","SS1613140251993","","","null","","","","","<p><img src= images/blank.png width =""200"" height = ""200"" style = ""float:right""></p><p><img src=images/blank.png width =""800"" height = ""200""></p>","","","","","","","","","","","",""
"","3.9999999571591616","sequential-stimulus-presentation","219","930804","0.0-41.0-1.6","SS1613140251993","trial","","40","800","803.9999999571592","images/stimuli/spore_stims/simple_15_B_a.gif","images/stimuli/spore_stims/simple_08_B_a.gif","","","","","11","simple_dissimilar","images/stimuli/spore_stims/simple_08_B_a.gif","middle","","","","",""
"","null","html-keyboard-response","220","931872","0.0-41.0-0.7","SS1613140251993","","","null","","","","","<p><img src= images/blank.png width =""200"" height = ""200"" style = ""float:right""></p><p><img src=images/blank.png width =""800"" height = ""200""></p>","","","","","","","","","","","",""
"","156.00000007543713","sequential-stimulus-presentation","221","932835","0.0-41.0-1.7","SS1613140251993","trial","","40","800","956.0000000754371","images/stimuli/spore_stims/simple_15_B_a.gif","images/stimuli/spore_stims/simple_08_B_a.gif","","","","","11","simple_dissimilar","images/stimuli/spore_stims/simple_08_B_a.gif","middle","","","","",""
"","1493.999999947846","html-keyboard-response","222","934341","0.0-42.0","SS1613140251993","pref_question","","99","","","","","<video width ='960' height = '540' style='padding-top:8%' autoplay muted><source src='images/stimuli/wall_pref.mp4' type='video/mp4'></video>","3","right","66%","11","","","","","","","",""
"","42.99999994691461","sequential-stimulus-presentation","223","935194","0.0-43.0","SS1613140251993","pref_reveal","","40","800","842.9999999469146","null","null","","","","","11","","","","deviant","","","",""
"","null","html-keyboard-response","224","936113","0.0-44.0-0.0","SS1613140251993","","","null","","","","","<p><img src= images/blank.png width =""200"" height = ""200"" style = ""float:right""></p><p><img src=images/blank.png width =""800"" height = ""200""></p>","","","","","","","","","","","",""
"","162.00000001117587","sequential-stimulus-presentation","225","937085","0.0-44.0-1.0","SS1613140251993","trial","","40","800","962.0000000111759","images/stimuli/spore_stims/complex_16_A_a.gif","images/stimuli/spore_stims/complex_07_A_a.gif","","","","","12","complex_dissimilar","images/stimuli/spore_stims/complex_07_A_a.gif","left","","","","",""
"","null","html-keyboard-response","226","938170","0.0-44.0-0.1","SS1613140251993","","","null","","","","","<p><img src= images/blank.png width =""200"" height = ""200"" style = ""float:right""></p><p><img src=images/blank.png width =""800"" height = ""200""></p>","","","","","","","","","","","",""
"","176.9999999087304","sequential-stimulus-presentation","227","939154","0.0-44.0-1.1","SS1613140251993","trial","","40","800","976.9999999087304","images/stimuli/spore_stims/complex_16_A_a.gif","images/stimuli/spore_stims/complex_07_A_a.gif","","","","","12","complex_dissimilar","images/stimuli/spore_stims/complex_07_A_a.gif","left","","","","",""
"","null","html-keyboard-response","228","940402","0.0-44.0-0.2","SS1613140251993","","","null","","","","","<p><img src= images/blank.png width =""200"" height = ""200"" style = ""float:right""></p><p><img src=images/blank.png width =""800"" height = ""200""></p>","","","","","","","","","","","",""
"","45.999999972991645","sequential-stimulus-presentation","229","941255","0.0-44.0-1.2","SS1613140251993","trial","","40","800","845.9999999729916","images/stimuli/spore_stims/complex_16_A_a.gif","images/stimuli/spore_stims/complex_07_A_a.gif","","","","","12","complex_dissimilar","images/stimuli/spore_stims/complex_07_A_a.gif","left","","","","",""
"","null","html-keyboard-response","230","942123","0.0-44.0-0.3","SS1613140251993","","","null","","","","","<p><img src= images/blank.png width =""200"" height = ""200"" style = ""float:right""></p><p><img src=images/blank.png width =""800"" height = ""200""></p>","","","","","","","","","","","",""
"","91.99999994598329","sequential-stimulus-presentation","231","943025","0.0-44.0-1.3","SS1613140251993","trial","","40","800","891.9999999459833","images/stimuli/spore_stims/complex_16_A_a.gif","images/stimuli/spore_stims/complex_07_A_a.gif","","","","","12","complex_dissimilar","images/stimuli/spore_stims/complex_07_A_a.gif","left","","","","",""
"","null","html-keyboard-response","232","943834","0.0-44.0-0.4","SS1613140251993","","","null","","","","","<p><img src= images/blank.png width =""200"" height = ""200"" style = ""float:right""></p><p><img src=images/blank.png width =""800"" height = ""200""></p>","","","","","","","","","","","",""
"","54.00000000372529","sequential-stimulus-presentation","233","944694","0.0-44.0-1.4","SS1613140251993","trial","","40","800","854.0000000037253","images/stimuli/spore_stims/complex_16_A_a.gif","images/stimuli/spore_stims/complex_07_A_a.gif","","","","","12","complex_dissimilar","images/stimuli/spore_stims/complex_07_A_a.gif","left","","","","",""
"","null","html-keyboard-response","234","945930","0.0-44.0-0.5","SS1613140251993","","","null","","","","","<p><img src= images/blank.png width =""200"" height = ""200"" style = ""float:right""></p><p><img src=images/blank.png width =""800"" height = ""200""></p>","","","","","","","","","","","",""
"","33.99999998509884","sequential-stimulus-presentation","235","946776","0.0-44.0-1.5","SS1613140251993","trial","","40","800","833.9999999850988","images/stimuli/spore_stims/complex_16_A_a.gif","images/stimuli/spore_stims/complex_07_A_a.gif","","","","","12","complex_dissimilar","images/stimuli/spore_stims/complex_16_A_a.gif","right","","","","",""
"","null","html-keyboard-response","236","947815","0.0-44.0-0.6","SS1613140251993","","","null","","","","","<p><img src= images/blank.png width =""200"" height = ""200"" style = ""float:right""></p><p><img src=images/blank.png width =""800"" height = ""200""></p>","","","","","","","","","","","",""
"","266.9999999925494","sequential-stimulus-presentation","237","948896","0.0-44.0-1.6","SS1613140251993","trial","","40","800","1066.9999999925494","images/stimuli/spore_stims/complex_16_A_a.gif","images/stimuli/spore_stims/complex_07_A_a.gif","","","","","12","complex_dissimilar","images/stimuli/spore_stims/complex_07_A_a.gif","left","","","","",""
"","null","html-keyboard-response","238","949882","0.0-44.0-0.7","SS1613140251993","","","null","","","","","<p><img src= images/blank.png width =""200"" height = ""200"" style = ""float:right""></p><p><img src=images/blank.png width =""800"" height = ""200""></p>","","","","","","","","","","","",""
"","258.9999999618158","sequential-stimulus-presentation","239","950948","0.0-44.0-1.7","SS1613140251993","trial","","40","800","1058.9999999618158","images/stimuli/spore_stims/complex_16_A_a.gif","images/stimuli/spore_stims/complex_07_A_a.gif","","","","","12","complex_dissimilar","images/stimuli/spore_stims/complex_07_A_a.gif","left","","","","",""
"","2182.9999999608845","html-keyboard-response","240","953138","0.0-45.0","SS1613140251993","pref_question","","98","","","","","<video width ='960' height = '540' style='padding-top:8%' autoplay muted><source src='images/stimuli/wall_pref.mp4' type='video/mp4'></video>","2","middle","45%","12","","","","","","","",""
"","619.9999999953434","sequential-stimulus-presentation","241","954568","0.0-46.0","SS1613140251993","pref_reveal","","40","800","1419.9999999953434","null","null","","","","","12","","","","novel","","","",""
"","null","html-keyboard-response","242","955802","0.0-47.0-0.0","SS1613140251993","","","null","","","","","<p><img src= images/blank.png width =""200"" height = ""200"" style = ""float:right""></p><p><img src=images/blank.png width =""800"" height = ""200""></p>","","","","","","","","","","","",""
"","1673.9999999990687","sequential-stimulus-presentation","243","958287","0.0-47.0-1.0","SS1613140251993","trial","","40","800","2473.9999999990687","images/stimuli/spore_stims/complex_20_A_c.gif","images/stimuli/spore_stims/complex_20_B_b.gif","","","","","13","complex_dissimilar","images/stimuli/spore_stims/complex_20_B_b.gif","right","","","","",""
"","null","html-keyboard-response","244","959127","0.0-47.0-0.1","SS1613140251993","","","null","","","","","<p><img src= images/blank.png width =""200"" height = ""200"" style = ""float:right""></p><p><img src=images/blank.png width =""800"" height = ""200""></p>","","","","","","","","","","","",""
"","269.0000000875443","sequential-stimulus-presentation","245","960205","0.0-47.0-1.1","SS1613140251993","trial","","40","800","1069.0000000875443","images/stimuli/spore_stims/complex_20_A_c.gif","images/stimuli/spore_stims/complex_20_B_b.gif","","","","","13","complex_dissimilar","images/stimuli/spore_stims/complex_20_B_b.gif","right","","","","",""
"","null","html-keyboard-response","246","961361","0.0-47.0-0.2","SS1613140251993","","","null","","","","","<p><img src= images/blank.png width =""200"" height = ""200"" style = ""float:right""></p><p><img src=images/blank.png width =""800"" height = ""200""></p>","","","","","","","","","","","",""
"","35.99999996367842","sequential-stimulus-presentation","247","962215","0.0-47.0-1.2","SS1613140251993","trial","","40","800","835.9999999636784","images/stimuli/spore_stims/complex_20_A_c.gif","images/stimuli/spore_stims/complex_20_B_b.gif","","","","","13","complex_dissimilar","images/stimuli/spore_stims/complex_20_A_c.gif","middle","","","","",""
"","null","html-keyboard-response","248","963409","0.0-47.0-0.3","SS1613140251993","","","null","","","","","<p><img src= images/blank.png width =""200"" height = ""200"" style = ""float:right""></p><p><img src=images/blank.png width =""800"" height = ""200""></p>","","","","","","","","","","","",""
"","185.00000005587935","sequential-stimulus-presentation","249","964423","0.0-47.0-1.3","SS1613140251993","trial","","40","800","985.0000000558794","images/stimuli/spore_stims/complex_20_A_c.gif","images/stimuli/spore_stims/complex_20_B_b.gif","","","","","13","complex_dissimilar","images/stimuli/spore_stims/complex_20_B_b.gif","right","","","","",""
"","null","html-keyboard-response","250","965728","0.0-47.0-0.4","SS1613140251993","","","null","","","","","<p><img src= images/blank.png width =""200"" height = ""200"" style = ""float:right""></p><p><img src=images/blank.png width =""800"" height = ""200""></p>","","","","","","","","","","","",""
"","150.00000002328306","sequential-stimulus-presentation","251","966687","0.0-47.0-1.4","SS1613140251993","trial","","40","800","950.0000000232831","images/stimuli/spore_stims/complex_20_A_c.gif","images/stimuli/spore_stims/complex_20_B_b.gif","","","","","13","complex_dissimilar","images/stimuli/spore_stims/complex_20_B_b.gif","right","","","","",""
"","null","html-keyboard-response","252","967866","0.0-47.0-0.5","SS1613140251993","","","null","","","","","<p><img src= images/blank.png width =""200"" height = ""200"" style = ""float:right""></p><p><img src=images/blank.png width =""800"" height = ""200""></p>","","","","","","","","","","","",""
"","245.99999992642552","sequential-stimulus-presentation","253","968921","0.0-47.0-1.5","SS1613140251993","trial","","40","800","1045.9999999264255","images/stimuli/spore_stims/complex_20_A_c.gif","images/stimuli/spore_stims/complex_20_B_b.gif","","","","","13","complex_dissimilar","images/stimuli/spore_stims/complex_20_B_b.gif","right","","","","",""
"","null","html-keyboard-response","254","969911","0.0-47.0-0.6","SS1613140251993","","","null","","","","","<p><img src= images/blank.png width =""200"" height = ""200"" style = ""float:right""></p><p><img src=images/blank.png width =""800"" height = ""200""></p>","","","","","","","","","","","",""
"","180.00000005122274","sequential-stimulus-presentation","255","970898","0.0-47.0-1.6","SS1613140251993","trial","","40","800","980.0000000512227","images/stimuli/spore_stims/complex_20_A_c.gif","images/stimuli/spore_stims/complex_20_B_b.gif","","","","","13","complex_dissimilar","images/stimuli/spore_stims/complex_20_B_b.gif","right","","","","",""
"","null","html-keyboard-response","256","972014","0.0-47.0-0.7","SS1613140251993","","","null","","","","","<p><img src= images/blank.png width =""200"" height = ""200"" style = ""float:right""></p><p><img src=images/blank.png width =""800"" height = ""200""></p>","","","","","","","","","","","",""
"","65.00000006053597","sequential-stimulus-presentation","257","972886","0.0-47.0-1.7","SS1613140251993","trial","","40","800","865.000000060536","images/stimuli/spore_stims/complex_20_A_c.gif","images/stimuli/spore_stims/complex_20_B_b.gif","","","","","13","complex_dissimilar","images/stimuli/spore_stims/complex_20_B_b.gif","right","","","","",""
"","1611.9999999646097","html-keyboard-response","258","974509","0.0-48.0","SS1613140251993","pref_question","","97","","","","","<video width ='960' height = '540' style='padding-top:8%' autoplay muted><source src='images/stimuli/wall_pref.mp4' type='video/mp4'></video>","1","left","25%","13","","","","","","","",""
"","444.99999994877726","sequential-stimulus-presentation","259","975766","0.0-49.0","SS1613140251993","pref_reveal","","40","800","1244.9999999487773","null","null","","","","","13","","","","novel","","","",""
"","null","html-keyboard-response","260","976756","0.0-50.0-0.0","SS1613140251993","","","null","","","","","<p><img src= images/blank.png width =""200"" height = ""200"" style = ""float:right""></p><p><img src=images/blank.png width =""800"" height = ""200""></p>","","","","","","","","","","","",""
"","54.00000000372529","sequential-stimulus-presentation","261","977647","0.0-50.0-1.0","SS1613140251993","trial","","40","800","854.0000000037253","images/stimuli/spore_stims/complex_17_A_d.gif","images/stimuli/spore_stims/complex_17_B_d.gif","","","","","14","complex_similar","images/stimuli/spore_stims/complex_17_B_d.gif","left","","","","",""
"","null","html-keyboard-response","262","978579","0.0-50.0-0.1","SS1613140251993","","","null","","","","","<p><img src= images/blank.png width =""200"" height = ""200"" style = ""float:right""></p><p><img src=images/blank.png width =""800"" height = ""200""></p>","","","","","","","","","","","",""
"","154.99999991152436","sequential-stimulus-presentation","263","979545","0.0-50.0-1.1","SS1613140251993","trial","","40","800","954.9999999115244","images/stimuli/spore_stims/complex_17_A_d.gif","images/stimuli/spore_stims/complex_17_B_d.gif","","","","","14","complex_similar","images/stimuli/spore_stims/complex_17_B_d.gif","left","","","","",""
"","null","html-keyboard-response","264","980796","0.0-50.0-0.2","SS1613140251993","","","null","","","","","<p><img src= images/blank.png width =""200"" height = ""200"" style = ""float:right""></p><p><img src=images/blank.png width =""800"" height = ""200""></p>","","","","","","","","","","","",""
"","347.99999999813735","sequential-stimulus-presentation","265","981956","0.0-50.0-1.2","SS1613140251993","trial","","40","800","1147.9999999981374","images/stimuli/spore_stims/complex_17_A_d.gif","images/stimuli/spore_stims/complex_17_B_d.gif","","","","","14","complex_similar","images/stimuli/spore_stims/complex_17_B_d.gif","left","","","","",""
"","null","html-keyboard-response","266","982957","0.0-50.0-0.3","SS1613140251993","","","null","","","","","<p><img src= images/blank.png width =""200"" height = ""200"" style = ""float:right""></p><p><img src=images/blank.png width =""800"" height = ""200""></p>","","","","","","","","","","","",""
"","77.9999999795109","sequential-stimulus-presentation","267","983846","0.0-50.0-1.3","SS1613140251993","trial","","40","800","877.9999999795109","images/stimuli/spore_stims/complex_17_A_d.gif","images/stimuli/spore_stims/complex_17_B_d.gif","","","","","14","complex_similar","images/stimuli/spore_stims/complex_17_B_d.gif","left","","","","",""
"","null","html-keyboard-response","268","984686","0.0-50.0-0.4","SS1613140251993","","","null","","","","","<p><img src= images/blank.png width =""200"" height = ""200"" style = ""float:right""></p><p><img src=images/blank.png width =""800"" height = ""200""></p>","","","","","","","","","","","",""
"","62.999999965541065","sequential-stimulus-presentation","269","985574","0.0-50.0-1.4","SS1613140251993","trial","","40","800","862.9999999655411","images/stimuli/spore_stims/complex_17_A_d.gif","images/stimuli/spore_stims/complex_17_B_d.gif","","","","","14","complex_similar","images/stimuli/spore_stims/complex_17_A_d.gif","right","","","","",""
"","null","html-keyboard-response","270","986878","0.0-50.0-0.5","SS1613140251993","","","null","","","","","<p><img src= images/blank.png width =""200"" height = ""200"" style = ""float:right""></p><p><img src=images/blank.png width =""800"" height = ""200""></p>","","","","","","","","","","","",""
"","168.99999999441206","sequential-stimulus-presentation","271","987891","0.0-50.0-1.5","SS1613140251993","trial","","40","800","968.9999999944121","images/stimuli/spore_stims/complex_17_A_d.gif","images/stimuli/spore_stims/complex_17_B_d.gif","","","","","14","complex_similar","images/stimuli/spore_stims/complex_17_B_d.gif","left","","","","",""
"","null","html-keyboard-response","272","988747","0.0-50.0-0.6","SS1613140251993","","","null","","","","","<p><img src= images/blank.png width =""200"" height = ""200"" style = ""float:right""></p><p><img src=images/blank.png width =""800"" height = ""200""></p>","","","","","","","","","","","",""
"","2.9999999096617103","sequential-stimulus-presentation","273","989557","0.0-50.0-1.6","SS1613140251993","trial","","40","800","802.9999999096617","images/stimuli/spore_stims/complex_17_A_d.gif","images/stimuli/spore_stims/complex_17_B_d.gif","","","","","14","complex_similar","images/stimuli/spore_stims/complex_17_B_d.gif","left","","","","",""
"","null","html-keyboard-response","274","990466","0.0-50.0-0.7","SS1613140251993","","","null","","","","","<p><img src= images/blank.png width =""200"" height = ""200"" style = ""float:right""></p><p><img src=images/blank.png width =""800"" height = ""200""></p>","","","","","","","","","","","",""
"","72.99999997485429","sequential-stimulus-presentation","275","991346","0.0-50.0-1.7","SS1613140251993","trial","","40","800","872.9999999748543","images/stimuli/spore_stims/complex_17_A_d.gif","images/stimuli/spore_stims/complex_17_B_d.gif","","","","","14","complex_similar","images/stimuli/spore_stims/complex_17_B_d.gif","left","","","","",""
"","1535.9999999636784","html-keyboard-response","276","992896","0.0-51.0","SS1613140251993","pref_question","","98","","","","","<video width ='960' height = '540' style='padding-top:8%' autoplay muted><source src='images/stimuli/wall_pref.mp4' type='video/mp4'></video>","2","middle","45%","14","","","","","","","",""
"","76.00000000093132","sequential-stimulus-presentation","277","993796","0.0-52.0","SS1613140251993","pref_reveal","","40","800","876.0000000009313","null","null","","","","","14","","","","novel","","","",""
"","null","html-keyboard-response","278","994767","0.0-53.0-0.0","SS1613140251993","","","null","","","","","<p><img src= images/blank.png width =""200"" height = ""200"" style = ""float:right""></p><p><img src=images/blank.png width =""800"" height = ""200""></p>","","","","","","","","","","","",""
"","35.99999996367842","sequential-stimulus-presentation","279","995617","0.0-53.0-1.0","SS1613140251993","trial","","40","800","835.9999999636784","images/stimuli/spore_stims/simple_06_A_c.gif","images/stimuli/spore_stims/simple_06_B_c.gif","","","","","15","simple_similar","images/stimuli/spore_stims/simple_06_B_c.gif","middle","","","","",""
"","null","html-keyboard-response","280","996771","0.0-53.0-0.1","SS1613140251993","","","null","","","","","<p><img src= images/blank.png width =""200"" height = ""200"" style = ""float:right""></p><p><img src=images/blank.png width =""800"" height = ""200""></p>","","","","","","","","","","","",""
"","65.00000006053597","sequential-stimulus-presentation","281","997648","0.0-53.0-1.1","SS1613140251993","trial","","40","800","865.000000060536","images/stimuli/spore_stims/simple_06_A_c.gif","images/stimuli/spore_stims/simple_06_B_c.gif","","","","","15","simple_similar","images/stimuli/spore_stims/simple_06_B_c.gif","middle","","","","",""
"","null","html-keyboard-response","282","998947","0.0-53.0-0.2","SS1613140251993","","","null","","","","","<p><img src= images/blank.png width =""200"" height = ""200"" style = ""float:right""></p><p><img src=images/blank.png width =""800"" height = ""200""></p>","","","","","","","","","","","",""
"","139.0000000828877","sequential-stimulus-presentation","283","999940","0.0-53.0-1.2","SS1613140251993","trial","","40","800","939.0000000828877","images/stimuli/spore_stims/simple_06_A_c.gif","images/stimuli/spore_stims/simple_06_B_c.gif","","","","","15","simple_similar","images/stimuli/spore_stims/simple_06_B_c.gif","middle","","","","",""
"","null","html-keyboard-response","284","1001221","0.0-53.0-0.3","SS1613140251993","","","null","","","","","<p><img src= images/blank.png width =""200"" height = ""200"" style = ""float:right""></p><p><img src=images/blank.png width =""800"" height = ""200""></p>","","","","","","","","","","","",""
"","175.00000004656613","sequential-stimulus-presentation","285","1002205","0.0-53.0-1.3","SS1613140251993","trial","","40","800","975.0000000465661","images/stimuli/spore_stims/simple_06_A_c.gif","images/stimuli/spore_stims/simple_06_B_c.gif","","","","","15","simple_similar","images/stimuli/spore_stims/simple_06_B_c.gif","middle","","","","",""
"","null","html-keyboard-response","286","1003340","0.0-53.0-0.4","SS1613140251993","","","null","","","","","<p><img src= images/blank.png width =""200"" height = ""200"" style = ""float:right""></p><p><img src=images/blank.png width =""800"" height = ""200""></p>","","","","","","","","","","","",""
"","106.99999995995313","sequential-stimulus-presentation","287","1004257","0.0-53.0-1.4","SS1613140251993","trial","","40","800","906.9999999599531","images/stimuli/spore_stims/simple_06_A_c.gif","images/stimuli/spore_stims/simple_06_B_c.gif","","","","","15","simple_similar","images/stimuli/spore_stims/simple_06_B_c.gif","middle","","","","",""
"","null","html-keyboard-response","288","1005323","0.0-53.0-0.5","SS1613140251993","","","null","","","","","<p><img src= images/blank.png width =""200"" height = ""200"" style = ""float:right""></p><p><img src=images/blank.png width =""800"" height = ""200""></p>","","","","","","","","","","","",""
"","84.9999999627471","sequential-stimulus-presentation","289","1006246","0.0-53.0-1.5","SS1613140251993","trial","","40","800","884.9999999627471","images/stimuli/spore_stims/simple_06_A_c.gif","images/stimuli/spore_stims/simple_06_B_c.gif","","","","","15","simple_similar","images/stimuli/spore_stims/simple_06_B_c.gif","middle","","","","",""
"","null","html-keyboard-response","290","1007064","0.0-53.0-0.6","SS1613140251993","","","null","","","","","<p><img src= images/blank.png width =""200"" height = ""200"" style = ""float:right""></p><p><img src=images/blank.png width =""800"" height = ""200""></p>","","","","","","","","","","","",""
"","159.99999991618097","sequential-stimulus-presentation","291","1008036","0.0-53.0-1.6","SS1613140251993","trial","","40","800","959.999999916181","images/stimuli/spore_stims/simple_06_A_c.gif","images/stimuli/spore_stims/simple_06_B_c.gif","","","","","15","simple_similar","images/stimuli/spore_stims/simple_06_B_c.gif","middle","","","","",""
"","null","html-keyboard-response","292","1009283","0.0-53.0-0.7","SS1613140251993","","","null","","","","","<p><img src= images/blank.png width =""200"" height = ""200"" style = ""float:right""></p><p><img src=images/blank.png width =""800"" height = ""200""></p>","","","","","","","","","","","",""
"","92.99999999348074","sequential-stimulus-presentation","293","1010196","0.0-53.0-1.7","SS1613140251993","trial","","40","800","892.9999999934807","images/stimuli/spore_stims/simple_06_A_c.gif","images/stimuli/spore_stims/simple_06_B_c.gif","","","","","15","simple_similar","images/stimuli/spore_stims/simple_06_A_c.gif","right","","","","",""
"","2091.000000014901","html-keyboard-response","294","1012292","0.0-54.0","SS1613140251993","pref_question","","97","","","","","<video width ='960' height = '540' style='padding-top:8%' autoplay muted><source src='images/stimuli/wall_pref.mp4' type='video/mp4'></video>","1","left","25%","15","","","","","","","",""
"","70.00000006519258","sequential-stimulus-presentation","295","1013171","0.0-55.0","SS1613140251993","pref_reveal","","40","800","870.0000000651926","null","null","","","","","15","","","","novel","","","",""
"","null","html-keyboard-response","296","1014186","0.0-56.0-0.0","SS1613140251993","","","null","","","","","<p><img src= images/blank.png width =""200"" height = ""200"" style = ""float:right""></p><p><img src=images/blank.png width =""800"" height = ""200""></p>","","","","","","","","","","","",""
"","197.00000004377216","sequential-stimulus-presentation","297","1015217","0.0-56.0-1.0","SS1613140251993","trial","","40","800","997.0000000437722","images/stimuli/spore_stims/complex_02_A_c.gif","images/stimuli/spore_stims/complex_05_B_d.gif","","","","","16","complex_dissimilar","images/stimuli/spore_stims/complex_05_B_d.gif","middle","","","","",""
"","null","html-keyboard-response","298","1016308","0.0-56.0-0.1","SS1613140251993","","","null","","","","","<p><img src= images/blank.png width =""200"" height = ""200"" style = ""float:right""></p><p><img src=images/blank.png width =""800"" height = ""200""></p>","","","","","","","","","","","",""
"","109.00000005494803","sequential-stimulus-presentation","299","1017226","0.0-56.0-1.1","SS1613140251993","trial","","40","800","909.000000054948","images/stimuli/spore_stims/complex_02_A_c.gif","images/stimuli/spore_stims/complex_05_B_d.gif","","","","","16","complex_dissimilar","images/stimuli/spore_stims/complex_05_B_d.gif","middle","","","","",""
"","null","html-keyboard-response","300","1018509","0.0-56.0-0.2","SS1613140251993","","","null","","","","","<p><img src= images/blank.png width =""200"" height = ""200"" style = ""float:right""></p><p><img src=images/blank.png width =""800"" height = ""200""></p>","","","","","","","","","","","",""
"","27.000000001862645","sequential-stimulus-presentation","301","1019366","0.0-56.0-1.2","SS1613140251993","trial","","40","800","827.0000000018626","images/stimuli/spore_stims/complex_02_A_c.gif","images/stimuli/spore_stims/complex_05_B_d.gif","","","","","16","complex_dissimilar","images/stimuli/spore_stims/complex_02_A_c.gif","right","","","","",""
"","null","html-keyboard-response","302","1020201","0.0-56.0-0.3","SS1613140251993","","","null","","","","","<p><img src= images/blank.png width =""200"" height = ""200"" style = ""float:right""></p><p><img src=images/blank.png width =""800"" height = ""200""></p>","","","","","","","","","","","",""
"","207.0000000530854","sequential-stimulus-presentation","303","1021215","0.0-56.0-1.3","SS1613140251993","trial","","40","800","1007.0000000530854","images/stimuli/spore_stims/complex_02_A_c.gif","images/stimuli/spore_stims/complex_05_B_d.gif","","","","","16","complex_dissimilar","images/stimuli/spore_stims/complex_05_B_d.gif","middle","","","","",""
"","null","html-keyboard-response","304","1022045","0.0-56.0-0.4","SS1613140251993","","","null","","","","","<p><img src= images/blank.png width =""200"" height = ""200"" style = ""float:right""></p><p><img src=images/blank.png width =""800"" height = ""200""></p>","","","","","","","","","","","",""
"","24.000000092200935","sequential-stimulus-presentation","305","1022876","0.0-56.0-1.4","SS1613140251993","trial","","40","800","824.0000000922009","images/stimuli/spore_stims/complex_02_A_c.gif","images/stimuli/spore_stims/complex_05_B_d.gif","","","","","16","complex_dissimilar","images/stimuli/spore_stims/complex_05_B_d.gif","middle","","","","",""
"","null","html-keyboard-response","306","1024055","0.0-56.0-0.5","SS1613140251993","","","null","","","","","<p><img src= images/blank.png width =""200"" height = ""200"" style = ""float:right""></p><p><img src=images/blank.png width =""800"" height = ""200""></p>","","","","","","","","","","","",""
"","702.9999999795109","sequential-stimulus-presentation","307","1025566","0.0-56.0-1.5","SS1613140251993","trial","","40","800","1502.999999979511","images/stimuli/spore_stims/complex_02_A_c.gif","images/stimuli/spore_stims/complex_05_B_d.gif","","","","","16","complex_dissimilar","images/stimuli/spore_stims/complex_05_B_d.gif","middle","","","","",""
"","null","html-keyboard-response","308","1026653","0.0-56.0-0.6","SS1613140251993","","","null","","","","","<p><img src= images/blank.png width =""200"" height = ""200"" style = ""float:right""></p><p><img src=images/blank.png width =""800"" height = ""200""></p>","","","","","","","","","","","",""
"","136.9999999878928","sequential-stimulus-presentation","309","1027599","0.0-56.0-1.6","SS1613140251993","trial","","40","800","936.9999999878928","images/stimuli/spore_stims/complex_02_A_c.gif","images/stimuli/spore_stims/complex_05_B_d.gif","","","","","16","complex_dissimilar","images/stimuli/spore_stims/complex_05_B_d.gif","middle","","","","",""
"","null","html-keyboard-response","310","1028745","0.0-56.0-0.7","SS1613140251993","","","null","","","","","<p><img src= images/blank.png width =""200"" height = ""200"" style = ""float:right""></p><p><img src=images/blank.png width =""800"" height = ""200""></p>","","","","","","","","","","","",""
"","91.99999994598329","sequential-stimulus-presentation","311","1029645","0.0-56.0-1.7","SS1613140251993","trial","","40","800","891.9999999459833","images/stimuli/spore_stims/complex_02_A_c.gif","images/stimuli/spore_stims/complex_05_B_d.gif","","","","","16","complex_dissimilar","images/stimuli/spore_stims/complex_05_B_d.gif","middle","","","","",""
"","3057.9999999608845","html-keyboard-response","312","1032708","0.0-57.0","SS1613140251993","pref_question","","98","","","","","<video width ='960' height = '540' style='padding-top:8%' autoplay muted><source src='images/stimuli/wall_pref.mp4' type='video/mp4'></video>","2","middle","45%","16","","","","","","","",""
