"view_history","rt","trial_type","trial_index","time_elapsed","internal_node_id","subject","stimulus_type","trial_stimulus","key_press","minimum_viewing_duration","trial_looking_time","block_deviant","block_background","stimulus","wall_pref","location","location_percent","block_number","block_type","stimulus_displayed","position_displayed","stim_type_selected"
"[{""page_index"":0,""viewing_time"":18669.214999998076}]","18670.93499999828","instructions","0","18675","0.0-0.0","SS1613081810644","","","","","","","","","","","","","","","",""
"[{""page_index"":0,""viewing_time"":34829.375000001164},{""page_index"":1,""viewing_time"":17634.20000000042}]","52464.27500000209","instructions","1","73146","0.0-1.0","SS1613081810644","instructions","","","","","","","","","","","","","","",""
"","9154.230000000098","sequential-stimulus-presentation","2","83117","0.0-2.0","SS1613081810644","","","40","800","9954.230000000098","null","null","","","","","","","","",""
"","1051.630000001751","sequential-stimulus-presentation","3","84982","0.0-3.0","SS1613081810644","","","40","800","1851.630000001751","null","null","","","","","","","","",""
"[{""page_index"":0,""viewing_time"":2347.6399999999558}]","2348.0600000002596","instructions","4","87336","0.0-4.0","SS1613081810644","instructions","","","","","","","","","","","","","","",""
"","9301.24000000069","html-keyboard-response","5","96647","0.0-5.0","SS1613081810644","instructions","","49","","","","","<video width ='960' height = '540' autoplay muted><source src='images/stimuli/wall_pref.mp4' type='video/mp4'></video>","1","left","25%","","","","",""
"","6675.794999999198","sequential-stimulus-presentation","6","104136","0.0-6.0","SS1613081810644","pref_reveal","","40","800","7475.794999999198","null","null","","","","","","","","",""
"[{""page_index"":0,""viewing_time"":25531.93999999712},{""page_index"":1,""viewing_time"":2023.0850000007194},{""page_index"":2,""viewing_time"":1896.1999999992258},{""page_index"":3,""viewing_time"":1420.910000000731}]","30874.00499999785","instructions","7","135022","0.0-7.0","SS1613081810644","instructions","","","","","","","","","","","","","","",""
"","null","html-keyboard-response","8","136253","0.0-8.0-0.0","SS1613081810644","","","null","","","","","<p><img src= images/blank.png width =""200"" height = ""200"" style = ""float:right""></p><p><img src=images/blank.png width =""800"" height = ""200""></p>","","","","","","","",""
"","4027.699999998731","sequential-stimulus-presentation","9","141095","0.0-8.0-1.0","SS1613081810644","trial","","40","800","4827.699999998731","images/stimuli/spore_stims/simple_02_B_c.gif","images/stimuli/spore_stims/simple_13_B_b.gif","","","","","0","simple_dissimilar","images/stimuli/spore_stims/simple_13_B_b.gif","right",""
"","null","html-keyboard-response","10","142198","0.0-8.0-0.1","SS1613081810644","","","null","","","","","<p><img src= images/blank.png width =""200"" height = ""200"" style = ""float:right""></p><p><img src=images/blank.png width =""800"" height = ""200""></p>","","","","","","","",""
"","2527.3550000019895","sequential-stimulus-presentation","11","145542","0.0-8.0-1.1","SS1613081810644","trial","","40","800","3327.3550000019895","images/stimuli/spore_stims/simple_02_B_c.gif","images/stimuli/spore_stims/simple_13_B_b.gif","","","","","0","simple_dissimilar","images/stimuli/spore_stims/simple_13_B_b.gif","right",""
"","null","html-keyboard-response","12","146715","0.0-8.0-0.2","SS1613081810644","","","null","","","","","<p><img src= images/blank.png width =""200"" height = ""200"" style = ""float:right""></p><p><img src=images/blank.png width =""800"" height = ""200""></p>","","","","","","","",""
"","1848.200000000361","sequential-stimulus-presentation","13","149389","0.0-8.0-1.2","SS1613081810644","trial","","40","800","2648.200000000361","images/stimuli/spore_stims/simple_02_B_c.gif","images/stimuli/spore_stims/simple_13_B_b.gif","","","","","0","simple_dissimilar","images/stimuli/spore_stims/simple_02_B_c.gif","middle",""
"","null","html-keyboard-response","14","150248","0.0-8.0-0.3","SS1613081810644","","","null","","","","","<p><img src= images/blank.png width =""200"" height = ""200"" style = ""float:right""></p><p><img src=images/blank.png width =""800"" height = ""200""></p>","","","","","","","",""
"","2882.564999999886","sequential-stimulus-presentation","15","153943","0.0-8.0-1.3","SS1613081810644","trial","","40","800","3682.564999999886","images/stimuli/spore_stims/simple_02_B_c.gif","images/stimuli/spore_stims/simple_13_B_b.gif","","","","","0","simple_dissimilar","images/stimuli/spore_stims/simple_13_B_b.gif","right",""
"","null","html-keyboard-response","16","154849","0.0-8.0-0.4","SS1613081810644","","","null","","","","","<p><img src= images/blank.png width =""200"" height = ""200"" style = ""float:right""></p><p><img src=images/blank.png width =""800"" height = ""200""></p>","","","","","","","",""
"","2815.549999999348","sequential-stimulus-presentation","17","158495","0.0-8.0-1.4","SS1613081810644","trial","","40","800","3615.549999999348","images/stimuli/spore_stims/simple_02_B_c.gif","images/stimuli/spore_stims/simple_13_B_b.gif","","","","","0","simple_dissimilar","images/stimuli/spore_stims/simple_13_B_b.gif","right",""
"","null","html-keyboard-response","18","159691","0.0-8.0-0.5","SS1613081810644","","","null","","","","","<p><img src= images/blank.png width =""200"" height = ""200"" style = ""float:right""></p><p><img src=images/blank.png width =""800"" height = ""200""></p>","","","","","","","",""
"","2481.49999999805","sequential-stimulus-presentation","19","163015","0.0-8.0-1.5","SS1613081810644","trial","","40","800","3281.49999999805","images/stimuli/spore_stims/simple_02_B_c.gif","images/stimuli/spore_stims/simple_13_B_b.gif","","","","","0","simple_dissimilar","images/stimuli/spore_stims/simple_13_B_b.gif","right",""
"","null","html-keyboard-response","20","164116","0.0-8.0-0.6","SS1613081810644","","","null","","","","","<p><img src= images/blank.png width =""200"" height = ""200"" style = ""float:right""></p><p><img src=images/blank.png width =""800"" height = ""200""></p>","","","","","","","",""
"","857.4049999988347","sequential-stimulus-presentation","21","165860","0.0-8.0-1.6","SS1613081810644","trial","","40","800","1657.4049999988347","images/stimuli/spore_stims/simple_02_B_c.gif","images/stimuli/spore_stims/simple_13_B_b.gif","","","","","0","simple_dissimilar","images/stimuli/spore_stims/simple_13_B_b.gif","right",""
"","null","html-keyboard-response","22","167071","0.0-8.0-0.7","SS1613081810644","","","null","","","","","<p><img src= images/blank.png width =""200"" height = ""200"" style = ""float:right""></p><p><img src=images/blank.png width =""800"" height = ""200""></p>","","","","","","","",""
"","2184.0699999993376","sequential-stimulus-presentation","23","170112","0.0-8.0-1.7","SS1613081810644","trial","","40","800","2984.0699999993376","images/stimuli/spore_stims/simple_02_B_c.gif","images/stimuli/spore_stims/simple_13_B_b.gif","","","","","0","simple_dissimilar","images/stimuli/spore_stims/simple_13_B_b.gif","right",""
"","8.709999998245621","html-keyboard-response","24","170199","0.0-9.0","SS1613081810644","pref_question","","51","","","","","<video width ='960' height = '540' style='padding-top:8%' autoplay muted><source src='images/stimuli/wall_pref.mp4' type='video/mp4'></video>","3","right","66%","0","","","",""
"","3603.5499999998137","sequential-stimulus-presentation","25","174696","0.0-10.0","SS1613081810644","pref_reveal","","40","800","4403.549999999814","null","null","","","","","0","","","","background"
"","null","html-keyboard-response","26","175887","0.0-11.0-0.0","SS1613081810644","","","null","","","","","<p><img src= images/blank.png width =""200"" height = ""200"" style = ""float:right""></p><p><img src=images/blank.png width =""800"" height = ""200""></p>","","","","","","","",""
"","1157.8200000003562","sequential-stimulus-presentation","27","177887","0.0-11.0-1.0","SS1613081810644","trial","","40","800","1957.8200000003562","images/stimuli/spore_stims/simple_08_A_d.gif","images/stimuli/spore_stims/simple_20_A_d.gif","","","","","1","simple_dissimilar","images/stimuli/spore_stims/simple_20_A_d.gif","middle",""
"","null","html-keyboard-response","28","178799","0.0-11.0-0.1","SS1613081810644","","","null","","","","","<p><img src= images/blank.png width =""200"" height = ""200"" style = ""float:right""></p><p><img src=images/blank.png width =""800"" height = ""200""></p>","","","","","","","",""
"","2190.9149999992223","sequential-stimulus-presentation","29","181911","0.0-11.0-1.1","SS1613081810644","trial","","40","800","2990.9149999992223","images/stimuli/spore_stims/simple_08_A_d.gif","images/stimuli/spore_stims/simple_20_A_d.gif","","","","","1","simple_dissimilar","images/stimuli/spore_stims/simple_20_A_d.gif","middle",""
"","null","html-keyboard-response","30","183312","0.0-11.0-0.2","SS1613081810644","","","null","","","","","<p><img src= images/blank.png width =""200"" height = ""200"" style = ""float:right""></p><p><img src=images/blank.png width =""800"" height = ""200""></p>","","","","","","","",""
"","39.88499999832129","sequential-stimulus-presentation","31","184277","0.0-11.0-1.2","SS1613081810644","trial","","40","800","839.8849999983213","images/stimuli/spore_stims/simple_08_A_d.gif","images/stimuli/spore_stims/simple_20_A_d.gif","","","","","1","simple_dissimilar","images/stimuli/spore_stims/simple_08_A_d.gif","right",""
"","null","html-keyboard-response","32","185557","0.0-11.0-0.3","SS1613081810644","","","null","","","","","<p><img src= images/blank.png width =""200"" height = ""200"" style = ""float:right""></p><p><img src=images/blank.png width =""800"" height = ""200""></p>","","","","","","","",""
"","708.3149999998568","sequential-stimulus-presentation","33","187234","0.0-11.0-1.3","SS1613081810644","trial","","40","800","1508.3149999998568","images/stimuli/spore_stims/simple_08_A_d.gif","images/stimuli/spore_stims/simple_20_A_d.gif","","","","","1","simple_dissimilar","images/stimuli/spore_stims/simple_20_A_d.gif","middle",""
"","null","html-keyboard-response","34","188621","0.0-11.0-0.4","SS1613081810644","","","null","","","","","<p><img src= images/blank.png width =""200"" height = ""200"" style = ""float:right""></p><p><img src=images/blank.png width =""800"" height = ""200""></p>","","","","","","","",""
"","2875.3600000018196","sequential-stimulus-presentation","35","192496","0.0-11.0-1.4","SS1613081810644","trial","","40","800","3675.3600000018196","images/stimuli/spore_stims/simple_08_A_d.gif","images/stimuli/spore_stims/simple_20_A_d.gif","","","","","1","simple_dissimilar","images/stimuli/spore_stims/simple_20_A_d.gif","middle",""
"","null","html-keyboard-response","36","193893","0.0-11.0-0.5","SS1613081810644","","","null","","","","","<p><img src= images/blank.png width =""200"" height = ""200"" style = ""float:right""></p><p><img src=images/blank.png width =""800"" height = ""200""></p>","","","","","","","",""
"","191.4150000011432","sequential-stimulus-presentation","37","194991","0.0-11.0-1.5","SS1613081810644","trial","","40","800","991.4150000011432","images/stimuli/spore_stims/simple_08_A_d.gif","images/stimuli/spore_stims/simple_20_A_d.gif","","","","","1","simple_dissimilar","images/stimuli/spore_stims/simple_20_A_d.gif","middle",""
"","null","html-keyboard-response","38","196193","0.0-11.0-0.6","SS1613081810644","","","null","","","","","<p><img src= images/blank.png width =""200"" height = ""200"" style = ""float:right""></p><p><img src=images/blank.png width =""800"" height = ""200""></p>","","","","","","","",""
"","3244.024999999965","sequential-stimulus-presentation","39","200716","0.0-11.0-1.6","SS1613081810644","trial","","40","800","4044.024999999965","images/stimuli/spore_stims/simple_08_A_d.gif","images/stimuli/spore_stims/simple_20_A_d.gif","","","","","1","simple_dissimilar","images/stimuli/spore_stims/simple_20_A_d.gif","middle",""
"","null","html-keyboard-response","40","201659","0.0-11.0-0.7","SS1613081810644","","","null","","","","","<p><img src= images/blank.png width =""200"" height = ""200"" style = ""float:right""></p><p><img src=images/blank.png width =""800"" height = ""200""></p>","","","","","","","",""
"","77.27499999964493","sequential-stimulus-presentation","41","202659","0.0-11.0-1.7","SS1613081810644","trial","","40","800","877.2749999996449","images/stimuli/spore_stims/simple_08_A_d.gif","images/stimuli/spore_stims/simple_20_A_d.gif","","","","","1","simple_dissimilar","images/stimuli/spore_stims/simple_20_A_d.gif","middle",""
"","280.7549999997718","html-keyboard-response","42","203066","0.0-12.0","SS1613081810644","pref_question","","50","","","","","<video width ='960' height = '540' style='padding-top:8%' autoplay muted><source src='images/stimuli/wall_pref.mp4' type='video/mp4'></video>","2","middle","45%","1","","","",""
"","327.6850000002014","sequential-stimulus-presentation","43","204508","0.0-13.0","SS1613081810644","pref_reveal","","40","800","1127.6850000002014","null","null","","","","","1","","","","background"
"","null","html-keyboard-response","44","205915","0.0-14.0-0.0","SS1613081810644","","","null","","","","","<p><img src= images/blank.png width =""200"" height = ""200"" style = ""float:right""></p><p><img src=images/blank.png width =""800"" height = ""200""></p>","","","","","","","",""
"","384.00000000183354","sequential-stimulus-presentation","45","207396","0.0-14.0-1.0","SS1613081810644","trial","","40","800","1184.0000000018335","images/stimuli/spore_stims/complex_10_A_a.gif","images/stimuli/spore_stims/complex_10_B_a.gif","","","","","2","complex_similar","images/stimuli/spore_stims/complex_10_B_a.gif","middle",""
"","null","html-keyboard-response","46","208568","0.0-14.0-0.1","SS1613081810644","","","null","","","","","<p><img src= images/blank.png width =""200"" height = ""200"" style = ""float:right""></p><p><img src=images/blank.png width =""800"" height = ""200""></p>","","","","","","","",""
"","851.0049999968032","sequential-stimulus-presentation","47","210368","0.0-14.0-1.1","SS1613081810644","trial","","40","800","1651.0049999968032","images/stimuli/spore_stims/complex_10_A_a.gif","images/stimuli/spore_stims/complex_10_B_a.gif","","","","","2","complex_similar","images/stimuli/spore_stims/complex_10_B_a.gif","middle",""
"","null","html-keyboard-response","48","211497","0.0-14.0-0.2","SS1613081810644","","","null","","","","","<p><img src= images/blank.png width =""200"" height = ""200"" style = ""float:right""></p><p><img src=images/blank.png width =""800"" height = ""200""></p>","","","","","","","",""
"","95.28999999747612","sequential-stimulus-presentation","49","212709","0.0-14.0-1.2","SS1613081810644","trial","","40","800","895.2899999974761","images/stimuli/spore_stims/complex_10_A_a.gif","images/stimuli/spore_stims/complex_10_B_a.gif","","","","","2","complex_similar","images/stimuli/spore_stims/complex_10_A_a.gif","left",""
"","null","html-keyboard-response","50","213775","0.0-14.0-0.3","SS1613081810644","","","null","","","","","<p><img src= images/blank.png width =""200"" height = ""200"" style = ""float:right""></p><p><img src=images/blank.png width =""800"" height = ""200""></p>","","","","","","","",""
"","783.0600000015693","sequential-stimulus-presentation","51","215442","0.0-14.0-1.3","SS1613081810644","trial","","40","800","1583.0600000015693","images/stimuli/spore_stims/complex_10_A_a.gif","images/stimuli/spore_stims/complex_10_B_a.gif","","","","","2","complex_similar","images/stimuli/spore_stims/complex_10_B_a.gif","middle",""
"","null","html-keyboard-response","52","216452","0.0-14.0-0.4","SS1613081810644","","","null","","","","","<p><img src= images/blank.png width =""200"" height = ""200"" style = ""float:right""></p><p><img src=images/blank.png width =""800"" height = ""200""></p>","","","","","","","",""
"","3015.2950000010605","sequential-stimulus-presentation","53","220374","0.0-14.0-1.4","SS1613081810644","trial","","40","800","3815.2950000010605","images/stimuli/spore_stims/complex_10_A_a.gif","images/stimuli/spore_stims/complex_10_B_a.gif","","","","","2","complex_similar","images/stimuli/spore_stims/complex_10_B_a.gif","middle",""
"","null","html-keyboard-response","54","221820","0.0-14.0-0.5","SS1613081810644","","","null","","","","","<p><img src= images/blank.png width =""200"" height = ""200"" style = ""float:right""></p><p><img src=images/blank.png width =""800"" height = ""200""></p>","","","","","","","",""
"","138.05000000138534","sequential-stimulus-presentation","55","222850","0.0-14.0-1.5","SS1613081810644","trial","","40","800","938.0500000013853","images/stimuli/spore_stims/complex_10_A_a.gif","images/stimuli/spore_stims/complex_10_B_a.gif","","","","","2","complex_similar","images/stimuli/spore_stims/complex_10_B_a.gif","middle",""
"","null","html-keyboard-response","56","224021","0.0-14.0-0.6","SS1613081810644","","","null","","","","","<p><img src= images/blank.png width =""200"" height = ""200"" style = ""float:right""></p><p><img src=images/blank.png width =""800"" height = ""200""></p>","","","","","","","",""
"","757.594999999099","sequential-stimulus-presentation","57","225707","0.0-14.0-1.6","SS1613081810644","trial","","40","800","1557.594999999099","images/stimuli/spore_stims/complex_10_A_a.gif","images/stimuli/spore_stims/complex_10_B_a.gif","","","","","2","complex_similar","images/stimuli/spore_stims/complex_10_B_a.gif","middle",""
"","null","html-keyboard-response","58","226600","0.0-14.0-0.7","SS1613081810644","","","null","","","","","<p><img src= images/blank.png width =""200"" height = ""200"" style = ""float:right""></p><p><img src=images/blank.png width =""800"" height = ""200""></p>","","","","","","","",""
"","516.4850000001024","sequential-stimulus-presentation","59","228066","0.0-14.0-1.7","SS1613081810644","trial","","40","800","1316.4850000001024","images/stimuli/spore_stims/complex_10_A_a.gif","images/stimuli/spore_stims/complex_10_B_a.gif","","","","","2","complex_similar","images/stimuli/spore_stims/complex_10_B_a.gif","middle",""
"","555.9250000005704","html-keyboard-response","60","228716","0.0-15.0","SS1613081810644","pref_question","","50","","","","","<video width ='960' height = '540' style='padding-top:8%' autoplay muted><source src='images/stimuli/wall_pref.mp4' type='video/mp4'></video>","2","middle","45%","2","","","",""
"","261.02499999979045","sequential-stimulus-presentation","61","229930","0.0-16.0","SS1613081810644","pref_reveal","","40","800","1061.0249999997905","null","null","","","","","2","","","","background"
"","null","html-keyboard-response","62","231059","0.0-17.0-0.0","SS1613081810644","","","null","","","","","<p><img src= images/blank.png width =""200"" height = ""200"" style = ""float:right""></p><p><img src=images/blank.png width =""800"" height = ""200""></p>","","","","","","","",""
"","1439.3649999983609","sequential-stimulus-presentation","63","233459","0.0-17.0-1.0","SS1613081810644","trial","","40","800","2239.364999998361","images/stimuli/spore_stims/simple_07_B_d.gif","images/stimuli/spore_stims/simple_18_B_d.gif","","","","","3","simple_dissimilar","images/stimuli/spore_stims/simple_18_B_d.gif","left",""
"","null","html-keyboard-response","64","234644","0.0-17.0-0.1","SS1613081810644","","","null","","","","","<p><img src= images/blank.png width =""200"" height = ""200"" style = ""float:right""></p><p><img src=images/blank.png width =""800"" height = ""200""></p>","","","","","","","",""
"","206.3400000006659","sequential-stimulus-presentation","65","235745","0.0-17.0-1.1","SS1613081810644","trial","","40","800","1006.3400000006659","images/stimuli/spore_stims/simple_07_B_d.gif","images/stimuli/spore_stims/simple_18_B_d.gif","","","","","3","simple_dissimilar","images/stimuli/spore_stims/simple_18_B_d.gif","left",""
"","null","html-keyboard-response","66","236816","0.0-17.0-0.2","SS1613081810644","","","null","","","","","<p><img src= images/blank.png width =""200"" height = ""200"" style = ""float:right""></p><p><img src=images/blank.png width =""800"" height = ""200""></p>","","","","","","","",""
"","78.96500000054948","sequential-stimulus-presentation","67","237789","0.0-17.0-1.2","SS1613081810644","trial","","40","800","878.9650000005495","images/stimuli/spore_stims/simple_07_B_d.gif","images/stimuli/spore_stims/simple_18_B_d.gif","","","","","3","simple_dissimilar","images/stimuli/spore_stims/simple_18_B_d.gif","left",""
"","null","html-keyboard-response","68","239052","0.0-17.0-0.3","SS1613081810644","","","null","","","","","<p><img src= images/blank.png width =""200"" height = ""200"" style = ""float:right""></p><p><img src=images/blank.png width =""800"" height = ""200""></p>","","","","","","","",""
"","105.66000000108033","sequential-stimulus-presentation","69","240064","0.0-17.0-1.3","SS1613081810644","trial","","40","800","905.6600000010803","images/stimuli/spore_stims/simple_07_B_d.gif","images/stimuli/spore_stims/simple_18_B_d.gif","","","","","3","simple_dissimilar","images/stimuli/spore_stims/simple_18_B_d.gif","left",""
"","null","html-keyboard-response","70","241266","0.0-17.0-0.4","SS1613081810644","","","null","","","","","<p><img src= images/blank.png width =""200"" height = ""200"" style = ""float:right""></p><p><img src=images/blank.png width =""800"" height = ""200""></p>","","","","","","","",""
"","555.7450000015087","sequential-stimulus-presentation","71","242722","0.0-17.0-1.4","SS1613081810644","trial","","40","800","1355.7450000015087","images/stimuli/spore_stims/simple_07_B_d.gif","images/stimuli/spore_stims/simple_18_B_d.gif","","","","","3","simple_dissimilar","images/stimuli/spore_stims/simple_18_B_d.gif","left",""
"","null","html-keyboard-response","72","243981","0.0-17.0-0.5","SS1613081810644","","","null","","","","","<p><img src= images/blank.png width =""200"" height = ""200"" style = ""float:right""></p><p><img src=images/blank.png width =""800"" height = ""200""></p>","","","","","","","",""
"","5082.300000001793","sequential-stimulus-presentation","73","250031","0.0-17.0-1.5","SS1613081810644","trial","","40","800","5882.300000001793","images/stimuli/spore_stims/simple_07_B_d.gif","images/stimuli/spore_stims/simple_18_B_d.gif","","","","","3","simple_dissimilar","images/stimuli/spore_stims/simple_18_B_d.gif","left",""
"","null","html-keyboard-response","74","250921","0.0-17.0-0.6","SS1613081810644","","","null","","","","","<p><img src= images/blank.png width =""200"" height = ""200"" style = ""float:right""></p><p><img src=images/blank.png width =""800"" height = ""200""></p>","","","","","","","",""
"","183.95499999681488","sequential-stimulus-presentation","75","252056","0.0-17.0-1.6","SS1613081810644","trial","","40","800","983.9549999968149","images/stimuli/spore_stims/simple_07_B_d.gif","images/stimuli/spore_stims/simple_18_B_d.gif","","","","","3","simple_dissimilar","images/stimuli/spore_stims/simple_07_B_d.gif","right",""
"","null","html-keyboard-response","76","253074","0.0-17.0-0.7","SS1613081810644","","","null","","","","","<p><img src= images/blank.png width =""200"" height = ""200"" style = ""float:right""></p><p><img src=images/blank.png width =""800"" height = ""200""></p>","","","","","","","",""
"","742.1649999996298","sequential-stimulus-presentation","77","254732","0.0-17.0-1.7","SS1613081810644","trial","","40","800","1542.1649999996298","images/stimuli/spore_stims/simple_07_B_d.gif","images/stimuli/spore_stims/simple_18_B_d.gif","","","","","3","simple_dissimilar","images/stimuli/spore_stims/simple_18_B_d.gif","left",""
"","3.489999999117572","html-keyboard-response","78","255060","0.0-18.0","SS1613081810644","pref_question","","49","","","","","<video width ='960' height = '540' style='padding-top:8%' autoplay muted><source src='images/stimuli/wall_pref.mp4' type='video/mp4'></video>","1","left","25%","3","","","",""
"","1113.6149999983609","sequential-stimulus-presentation","79","257279","0.0-19.0","SS1613081810644","pref_reveal","","40","800","1913.6149999983609","null","null","","","","","3","","","","background"
"","null","html-keyboard-response","80","258397","0.0-20.0-0.0","SS1613081810644","","","null","","","","","<p><img src= images/blank.png width =""200"" height = ""200"" style = ""float:right""></p><p><img src=images/blank.png width =""800"" height = ""200""></p>","","","","","","","",""
"","796.6549999982817","sequential-stimulus-presentation","81","260361","0.0-20.0-1.0","SS1613081810644","trial","","40","800","1596.6549999982817","images/stimuli/spore_stims/simple_15_B_c.gif","images/stimuli/spore_stims/simple_15_A_c.gif","","","","","4","simple_similar","images/stimuli/spore_stims/simple_15_A_c.gif","middle",""
"","null","html-keyboard-response","82","261548","0.0-20.0-0.1","SS1613081810644","","","null","","","","","<p><img src= images/blank.png width =""200"" height = ""200"" style = ""float:right""></p><p><img src=images/blank.png width =""800"" height = ""200""></p>","","","","","","","",""
"","378.10499999980675","sequential-stimulus-presentation","83","262942","0.0-20.0-1.1","SS1613081810644","trial","","40","800","1178.1049999998068","images/stimuli/spore_stims/simple_15_B_c.gif","images/stimuli/spore_stims/simple_15_A_c.gif","","","","","4","simple_similar","images/stimuli/spore_stims/simple_15_A_c.gif","middle",""
"","null","html-keyboard-response","84","264419","0.0-20.0-0.2","SS1613081810644","","","null","","","","","<p><img src= images/blank.png width =""200"" height = ""200"" style = ""float:right""></p><p><img src=images/blank.png width =""800"" height = ""200""></p>","","","","","","","",""
"","277.409999998752","sequential-stimulus-presentation","85","265860","0.0-20.0-1.2","SS1613081810644","trial","","40","800","1077.409999998752","images/stimuli/spore_stims/simple_15_B_c.gif","images/stimuli/spore_stims/simple_15_A_c.gif","","","","","4","simple_similar","images/stimuli/spore_stims/simple_15_B_c.gif","left",""
"","null","html-keyboard-response","86","266942","0.0-20.0-0.3","SS1613081810644","","","null","","","","","<p><img src= images/blank.png width =""200"" height = ""200"" style = ""float:right""></p><p><img src=images/blank.png width =""800"" height = ""200""></p>","","","","","","","",""
"","143.9200000022538","sequential-stimulus-presentation","87","268197","0.0-20.0-1.3","SS1613081810644","trial","","40","800","943.9200000022538","images/stimuli/spore_stims/simple_15_B_c.gif","images/stimuli/spore_stims/simple_15_A_c.gif","","","","","4","simple_similar","images/stimuli/spore_stims/simple_15_A_c.gif","middle",""
"","null","html-keyboard-response","88","269806","0.0-20.0-0.4","SS1613081810644","","","null","","","","","<p><img src= images/blank.png width =""200"" height = ""200"" style = ""float:right""></p><p><img src=images/blank.png width =""800"" height = ""200""></p>","","","","","","","",""
"","49.070000000996515","sequential-stimulus-presentation","89","270887","0.0-20.0-1.4","SS1613081810644","trial","","40","800","849.0700000009965","images/stimuli/spore_stims/simple_15_B_c.gif","images/stimuli/spore_stims/simple_15_A_c.gif","","","","","4","simple_similar","images/stimuli/spore_stims/simple_15_A_c.gif","middle",""
"","null","html-keyboard-response","90","272236","0.0-20.0-0.5","SS1613081810644","","","null","","","","","<p><img src= images/blank.png width =""200"" height = ""200"" style = ""float:right""></p><p><img src=images/blank.png width =""800"" height = ""200""></p>","","","","","","","",""
"","337.7500000024447","sequential-stimulus-presentation","91","273809","0.0-20.0-1.5","SS1613081810644","trial","","40","800","1137.7500000024447","images/stimuli/spore_stims/simple_15_B_c.gif","images/stimuli/spore_stims/simple_15_A_c.gif","","","","","4","simple_similar","images/stimuli/spore_stims/simple_15_A_c.gif","middle",""
"","null","html-keyboard-response","92","274744","0.0-20.0-0.6","SS1613081810644","","","null","","","","","<p><img src= images/blank.png width =""200"" height = ""200"" style = ""float:right""></p><p><img src=images/blank.png width =""800"" height = ""200""></p>","","","","","","","",""
"","513.985000001383","sequential-stimulus-presentation","93","276248","0.0-20.0-1.6","SS1613081810644","trial","","40","800","1313.985000001383","images/stimuli/spore_stims/simple_15_B_c.gif","images/stimuli/spore_stims/simple_15_A_c.gif","","","","","4","simple_similar","images/stimuli/spore_stims/simple_15_A_c.gif","middle",""
"","null","html-keyboard-response","94","277587","0.0-20.0-0.7","SS1613081810644","","","null","","","","","<p><img src= images/blank.png width =""200"" height = ""200"" style = ""float:right""></p><p><img src=images/blank.png width =""800"" height = ""200""></p>","","","","","","","",""
"","80.2399999992922","sequential-stimulus-presentation","95","278620","0.0-20.0-1.7","SS1613081810644","trial","","40","800","880.2399999992922","images/stimuli/spore_stims/simple_15_B_c.gif","images/stimuli/spore_stims/simple_15_A_c.gif","","","","","4","simple_similar","images/stimuli/spore_stims/simple_15_A_c.gif","middle",""
"","154.69999999913853","html-keyboard-response","96","278904","0.0-21.0","SS1613081810644","pref_question","","49","","","","","<video width ='960' height = '540' style='padding-top:8%' autoplay muted><source src='images/stimuli/wall_pref.mp4' type='video/mp4'></video>","1","left","25%","4","","","",""
"","582.3649999983609","sequential-stimulus-presentation","97","280425","0.0-22.0","SS1613081810644","pref_reveal","","40","800","1382.3649999983609","null","null","","","","","4","","","","deviant"
"","null","html-keyboard-response","98","281413","0.0-23.0-0.0","SS1613081810644","","","null","","","","","<p><img src= images/blank.png width =""200"" height = ""200"" style = ""float:right""></p><p><img src=images/blank.png width =""800"" height = ""200""></p>","","","","","","","",""
"","4994.064999999013","sequential-stimulus-presentation","99","287620","0.0-23.0-1.0","SS1613081810644","trial","","40","800","5794.064999999013","images/stimuli/spore_stims/complex_16_A_c.gif","images/stimuli/spore_stims/complex_01_B_b.gif","","","","","5","complex_dissimilar","images/stimuli/spore_stims/complex_01_B_b.gif","middle",""
"","null","html-keyboard-response","100","288542","0.0-23.0-0.1","SS1613081810644","","","null","","","","","<p><img src= images/blank.png width =""200"" height = ""200"" style = ""float:right""></p><p><img src=images/blank.png width =""800"" height = ""200""></p>","","","","","","","",""
"","392.5249999993248","sequential-stimulus-presentation","101","289842","0.0-23.0-1.1","SS1613081810644","trial","","40","800","1192.5249999993248","images/stimuli/spore_stims/complex_16_A_c.gif","images/stimuli/spore_stims/complex_01_B_b.gif","","","","","5","complex_dissimilar","images/stimuli/spore_stims/complex_01_B_b.gif","middle",""
"","null","html-keyboard-response","102","291010","0.0-23.0-0.2","SS1613081810644","","","null","","","","","<p><img src= images/blank.png width =""200"" height = ""200"" style = ""float:right""></p><p><img src=images/blank.png width =""800"" height = ""200""></p>","","","","","","","",""
"","465.73500000155764","sequential-stimulus-presentation","103","292740","0.0-23.0-1.2","SS1613081810644","trial","","40","800","1265.7350000015576","images/stimuli/spore_stims/complex_16_A_c.gif","images/stimuli/spore_stims/complex_01_B_b.gif","","","","","5","complex_dissimilar","images/stimuli/spore_stims/complex_01_B_b.gif","middle",""
"","null","html-keyboard-response","104","294033","0.0-23.0-0.3","SS1613081810644","","","null","","","","","<p><img src= images/blank.png width =""200"" height = ""200"" style = ""float:right""></p><p><img src=images/blank.png width =""800"" height = ""200""></p>","","","","","","","",""
"","258.06999999989057","sequential-stimulus-presentation","105","295326","0.0-23.0-1.3","SS1613081810644","trial","","40","800","1058.0699999998906","images/stimuli/spore_stims/complex_16_A_c.gif","images/stimuli/spore_stims/complex_01_B_b.gif","","","","","5","complex_dissimilar","images/stimuli/spore_stims/complex_01_B_b.gif","middle",""
"","null","html-keyboard-response","106","296712","0.0-23.0-0.4","SS1613081810644","","","null","","","","","<p><img src= images/blank.png width =""200"" height = ""200"" style = ""float:right""></p><p><img src=images/blank.png width =""800"" height = ""200""></p>","","","","","","","",""
"","318.0400000019581","sequential-stimulus-presentation","107","298102","0.0-23.0-1.4","SS1613081810644","trial","","40","800","1118.040000001958","images/stimuli/spore_stims/complex_16_A_c.gif","images/stimuli/spore_stims/complex_01_B_b.gif","","","","","5","complex_dissimilar","images/stimuli/spore_stims/complex_16_A_c.gif","right",""
"","null","html-keyboard-response","108","299117","0.0-23.0-0.5","SS1613081810644","","","null","","","","","<p><img src= images/blank.png width =""200"" height = ""200"" style = ""float:right""></p><p><img src=images/blank.png width =""800"" height = ""200""></p>","","","","","","","",""
"","129.6249999977881","sequential-stimulus-presentation","109","300126","0.0-23.0-1.5","SS1613081810644","trial","","40","800","929.6249999977881","images/stimuli/spore_stims/complex_16_A_c.gif","images/stimuli/spore_stims/complex_01_B_b.gif","","","","","5","complex_dissimilar","images/stimuli/spore_stims/complex_01_B_b.gif","middle",""
"","null","html-keyboard-response","110","301621","0.0-23.0-0.6","SS1613081810644","","","null","","","","","<p><img src= images/blank.png width =""200"" height = ""200"" style = ""float:right""></p><p><img src=images/blank.png width =""800"" height = ""200""></p>","","","","","","","",""
"","560.0549999981304","sequential-stimulus-presentation","111","303379","0.0-23.0-1.6","SS1613081810644","trial","","40","800","1360.0549999981304","images/stimuli/spore_stims/complex_16_A_c.gif","images/stimuli/spore_stims/complex_01_B_b.gif","","","","","5","complex_dissimilar","images/stimuli/spore_stims/complex_01_B_b.gif","middle",""
"","null","html-keyboard-response","112","304706","0.0-23.0-0.7","SS1613081810644","","","null","","","","","<p><img src= images/blank.png width =""200"" height = ""200"" style = ""float:right""></p><p><img src=images/blank.png width =""800"" height = ""200""></p>","","","","","","","",""
"","384.2499999991269","sequential-stimulus-presentation","113","306006","0.0-23.0-1.7","SS1613081810644","trial","","40","800","1184.2499999991269","images/stimuli/spore_stims/complex_16_A_c.gif","images/stimuli/spore_stims/complex_01_B_b.gif","","","","","5","complex_dissimilar","images/stimuli/spore_stims/complex_01_B_b.gif","middle",""
"","367.62000000086846","html-keyboard-response","114","306453","0.0-24.0","SS1613081810644","pref_question","","50","","","","","<video width ='960' height = '540' style='padding-top:8%' autoplay muted><source src='images/stimuli/wall_pref.mp4' type='video/mp4'></video>","2","middle","45%","5","","","",""
"","190.4900000008638","sequential-stimulus-presentation","115","307663","0.0-25.0","SS1613081810644","pref_reveal","","40","800","990.4900000008638","null","null","","","","","5","","","","background"
"","null","html-keyboard-response","116","308952","0.0-26.0-0.0","SS1613081810644","","","null","","","","","<p><img src= images/blank.png width =""200"" height = ""200"" style = ""float:right""></p><p><img src=images/blank.png width =""800"" height = ""200""></p>","","","","","","","",""
"","327.9900000016205","sequential-stimulus-presentation","117","310410","0.0-26.0-1.0","SS1613081810644","trial","","40","800","1127.9900000016205","images/stimuli/spore_stims/simple_14_A_c.gif","images/stimuli/spore_stims/simple_14_B_c.gif","","","","","6","simple_similar","images/stimuli/spore_stims/simple_14_B_c.gif","middle",""
"","null","html-keyboard-response","118","311596","0.0-26.0-0.1","SS1613081810644","","","null","","","","","<p><img src= images/blank.png width =""200"" height = ""200"" style = ""float:right""></p><p><img src=images/blank.png width =""800"" height = ""200""></p>","","","","","","","",""
"","782.5599999996484","sequential-stimulus-presentation","119","313423","0.0-26.0-1.1","SS1613081810644","trial","","40","800","1582.5599999996484","images/stimuli/spore_stims/simple_14_A_c.gif","images/stimuli/spore_stims/simple_14_B_c.gif","","","","","6","simple_similar","images/stimuli/spore_stims/simple_14_B_c.gif","middle",""
"","null","html-keyboard-response","120","314679","0.0-26.0-0.2","SS1613081810644","","","null","","","","","<p><img src= images/blank.png width =""200"" height = ""200"" style = ""float:right""></p><p><img src=images/blank.png width =""800"" height = ""200""></p>","","","","","","","",""
"","576.1600000005565","sequential-stimulus-presentation","121","316206","0.0-26.0-1.2","SS1613081810644","trial","","40","800","1376.1600000005565","images/stimuli/spore_stims/simple_14_A_c.gif","images/stimuli/spore_stims/simple_14_B_c.gif","","","","","6","simple_similar","images/stimuli/spore_stims/simple_14_B_c.gif","middle",""
"","null","html-keyboard-response","122","317470","0.0-26.0-0.3","SS1613081810644","","","null","","","","","<p><img src= images/blank.png width =""200"" height = ""200"" style = ""float:right""></p><p><img src=images/blank.png width =""800"" height = ""200""></p>","","","","","","","",""
"","3745.555000001332","sequential-stimulus-presentation","123","322587","0.0-26.0-1.3","SS1613081810644","trial","","40","800","4545.555000001332","images/stimuli/spore_stims/simple_14_A_c.gif","images/stimuli/spore_stims/simple_14_B_c.gif","","","","","6","simple_similar","images/stimuli/spore_stims/simple_14_A_c.gif","left",""
"","null","html-keyboard-response","124","323780","0.0-26.0-0.4","SS1613081810644","","","null","","","","","<p><img src= images/blank.png width =""200"" height = ""200"" style = ""float:right""></p><p><img src=images/blank.png width =""800"" height = ""200""></p>","","","","","","","",""
"","1948.8300000012387","sequential-stimulus-presentation","125","326694","0.0-26.0-1.4","SS1613081810644","trial","","40","800","2748.8300000012387","images/stimuli/spore_stims/simple_14_A_c.gif","images/stimuli/spore_stims/simple_14_B_c.gif","","","","","6","simple_similar","images/stimuli/spore_stims/simple_14_B_c.gif","middle",""
"","null","html-keyboard-response","126","328215","0.0-26.0-0.5","SS1613081810644","","","null","","","","","<p><img src= images/blank.png width =""200"" height = ""200"" style = ""float:right""></p><p><img src=images/blank.png width =""800"" height = ""200""></p>","","","","","","","",""
"","1399.1750000022585","sequential-stimulus-presentation","127","330993","0.0-26.0-1.5","SS1613081810644","trial","","40","800","2199.1750000022585","images/stimuli/spore_stims/simple_14_A_c.gif","images/stimuli/spore_stims/simple_14_B_c.gif","","","","","6","simple_similar","images/stimuli/spore_stims/simple_14_B_c.gif","middle",""
"","null","html-keyboard-response","128","332058","0.0-26.0-0.6","SS1613081810644","","","null","","","","","<p><img src= images/blank.png width =""200"" height = ""200"" style = ""float:right""></p><p><img src=images/blank.png width =""800"" height = ""200""></p>","","","","","","","",""
"","4373.234999999055","sequential-stimulus-presentation","129","337394","0.0-26.0-1.6","SS1613081810644","trial","","40","800","5173.234999999055","images/stimuli/spore_stims/simple_14_A_c.gif","images/stimuli/spore_stims/simple_14_B_c.gif","","","","","6","simple_similar","images/stimuli/spore_stims/simple_14_B_c.gif","middle",""
"","null","html-keyboard-response","130","338456","0.0-26.0-0.7","SS1613081810644","","","null","","","","","<p><img src= images/blank.png width =""200"" height = ""200"" style = ""float:right""></p><p><img src=images/blank.png width =""800"" height = ""200""></p>","","","","","","","",""
"","1918.884999999078","sequential-stimulus-presentation","131","341390","0.0-26.0-1.7","SS1613081810644","trial","","40","800","2718.884999999078","images/stimuli/spore_stims/simple_14_A_c.gif","images/stimuli/spore_stims/simple_14_B_c.gif","","","","","6","simple_similar","images/stimuli/spore_stims/simple_14_B_c.gif","middle",""
"","4174.319999998319","html-keyboard-response","132","346277","0.0-27.0","SS1613081810644","pref_question","","50","","","","","<video width ='960' height = '540' style='padding-top:8%' autoplay muted><source src='images/stimuli/wall_pref.mp4' type='video/mp4'></video>","2","middle","45%","6","","","",""
"","2151.835000000545","sequential-stimulus-presentation","133","349442","0.0-28.0","SS1613081810644","pref_reveal","","40","800","2951.835000000545","null","null","","","","","6","","","","background"
"","null","html-keyboard-response","134","350827","0.0-29.0-0.0","SS1613081810644","","","null","","","","","<p><img src= images/blank.png width =""200"" height = ""200"" style = ""float:right""></p><p><img src=images/blank.png width =""800"" height = ""200""></p>","","","","","","","",""
"","1981.9150000003283","sequential-stimulus-presentation","135","353776","0.0-29.0-1.0","SS1613081810644","trial","","40","800","2781.9150000003283","images/stimuli/spore_stims/simple_03_A_d.gif","images/stimuli/spore_stims/simple_12_B_a.gif","","","","","7","simple_dissimilar","images/stimuli/spore_stims/simple_12_B_a.gif","middle",""
"","null","html-keyboard-response","136","355306","0.0-29.0-0.1","SS1613081810644","","","null","","","","","<p><img src= images/blank.png width =""200"" height = ""200"" style = ""float:right""></p><p><img src=images/blank.png width =""800"" height = ""200""></p>","","","","","","","",""
"","1921.6699999997509","sequential-stimulus-presentation","137","358149","0.0-29.0-1.1","SS1613081810644","trial","","40","800","2721.669999999751","images/stimuli/spore_stims/simple_03_A_d.gif","images/stimuli/spore_stims/simple_12_B_a.gif","","","","","7","simple_dissimilar","images/stimuli/spore_stims/simple_12_B_a.gif","middle",""
"","null","html-keyboard-response","138","359619","0.0-29.0-0.2","SS1613081810644","","","null","","","","","<p><img src= images/blank.png width =""200"" height = ""200"" style = ""float:right""></p><p><img src=images/blank.png width =""800"" height = ""200""></p>","","","","","","","",""
"","3292.010000000999","sequential-stimulus-presentation","139","363836","0.0-29.0-1.2","SS1613081810644","trial","","40","800","4092.010000000999","images/stimuli/spore_stims/simple_03_A_d.gif","images/stimuli/spore_stims/simple_12_B_a.gif","","","","","7","simple_dissimilar","images/stimuli/spore_stims/simple_12_B_a.gif","middle",""
"","null","html-keyboard-response","140","364814","0.0-29.0-0.3","SS1613081810644","","","null","","","","","<p><img src= images/blank.png width =""200"" height = ""200"" style = ""float:right""></p><p><img src=images/blank.png width =""800"" height = ""200""></p>","","","","","","","",""
"","732.1700000029523","sequential-stimulus-presentation","141","366765","0.0-29.0-1.3","SS1613081810644","trial","","40","800","1532.1700000029523","images/stimuli/spore_stims/simple_03_A_d.gif","images/stimuli/spore_stims/simple_12_B_a.gif","","","","","7","simple_dissimilar","images/stimuli/spore_stims/simple_12_B_a.gif","middle",""
"","null","html-keyboard-response","142","368069","0.0-29.0-0.4","SS1613081810644","","","null","","","","","<p><img src= images/blank.png width =""200"" height = ""200"" style = ""float:right""></p><p><img src=images/blank.png width =""800"" height = ""200""></p>","","","","","","","",""
"","383.52500000112923","sequential-stimulus-presentation","143","369374","0.0-29.0-1.4","SS1613081810644","trial","","40","800","1183.5250000011292","images/stimuli/spore_stims/simple_03_A_d.gif","images/stimuli/spore_stims/simple_12_B_a.gif","","","","","7","simple_dissimilar","images/stimuli/spore_stims/simple_12_B_a.gif","middle",""
"","null","html-keyboard-response","144","370478","0.0-29.0-0.5","SS1613081810644","","","null","","","","","<p><img src= images/blank.png width =""200"" height = ""200"" style = ""float:right""></p><p><img src=images/blank.png width =""800"" height = ""200""></p>","","","","","","","",""
"","1562.5049999980838","sequential-stimulus-presentation","145","372979","0.0-29.0-1.5","SS1613081810644","trial","","40","800","2362.504999998084","images/stimuli/spore_stims/simple_03_A_d.gif","images/stimuli/spore_stims/simple_12_B_a.gif","","","","","7","simple_dissimilar","images/stimuli/spore_stims/simple_03_A_d.gif","right",""
"","null","html-keyboard-response","146","374292","0.0-29.0-0.6","SS1613081810644","","","null","","","","","<p><img src= images/blank.png width =""200"" height = ""200"" style = ""float:right""></p><p><img src=images/blank.png width =""800"" height = ""200""></p>","","","","","","","",""
"","3650.8649999996414","sequential-stimulus-presentation","147","378884","0.0-29.0-1.6","SS1613081810644","trial","","40","800","4450.864999999641","images/stimuli/spore_stims/simple_03_A_d.gif","images/stimuli/spore_stims/simple_12_B_a.gif","","","","","7","simple_dissimilar","images/stimuli/spore_stims/simple_12_B_a.gif","middle",""
"","null","html-keyboard-response","148","380097","0.0-29.0-0.7","SS1613081810644","","","null","","","","","<p><img src= images/blank.png width =""200"" height = ""200"" style = ""float:right""></p><p><img src=images/blank.png width =""800"" height = ""200""></p>","","","","","","","",""
"","149.85999999771593","sequential-stimulus-presentation","149","381310","0.0-29.0-1.7","SS1613081810644","trial","","40","800","949.8599999977159","images/stimuli/spore_stims/simple_03_A_d.gif","images/stimuli/spore_stims/simple_12_B_a.gif","","","","","7","simple_dissimilar","images/stimuli/spore_stims/simple_12_B_a.gif","middle",""
