"view_history","rt","trial_type","trial_index","time_elapsed","internal_node_id","subject","stimulus_type","trial_stimulus","key_press","minimum_viewing_duration","trial_looking_time","block_deviant","block_background","stimulus","wall_pref","location","location_percent","block_number","block_type","stimulus_displayed","position_displayed","stim_type_selected","responses","question_order","stimulus_left","stimulus_right"
"[{""page_index"":0,""viewing_time"":2665.000000037253}]","2665.000000037253","instructions","0","2668","0.0-0.0","SS1613079998092","","","","","","","","","","","","","","","","","","","",""
"[{""page_index"":0,""viewing_time"":5815.000000409782},{""page_index"":1,""viewing_time"":8424.999999813735}]","14240.000000223517","instructions","1","18913","0.0-1.0","SS1613079998092","instructions","","","","","","","","","","","","","","","","","","",""
"","19228.99999981746","sequential-stimulus-presentation","2","38973","0.0-2.0","SS1613079998092","","","40","800","20028.99999981746","null","null","","","","","","","","","","","","",""
"","341.00000001490116","sequential-stimulus-presentation","3","40129","0.0-3.0","SS1613079998092","","","40","800","1141.0000000149012","null","null","","","","","","","","","","","","",""
"[{""page_index"":0,""viewing_time"":1942.9999999701977}]","1944.0000001341105","instructions","4","42076","0.0-4.0","SS1613079998092","instructions","","","","","","","","","","","","","","","","","","",""
"","5239.000000059605","html-keyboard-response","5","47321","0.0-5.0","SS1613079998092","instructions","","98","","","","","<video width ='960' height = '540' autoplay muted><source src='images/stimuli/wall_pref.mp4' type='video/mp4'></video>","2","middle","45%","","","","","","","","",""
"","5533.999999985099","sequential-stimulus-presentation","6","53661","0.0-6.0","SS1613079998092","pref_reveal","","40","800","6333.999999985099","null","null","","","","","","","","","","","","",""
"[{""page_index"":0,""viewing_time"":1987.0000001974404},{""page_index"":1,""viewing_time"":1479.9999999813735},{""page_index"":2,""viewing_time"":927.9999998398125},{""page_index"":3,""viewing_time"":720.000000204891}]","5115.999999921769","instructions","7","58780","0.0-7.0","SS1613079998092","instructions","","","","","","","","","","","","","","","","","","",""
"","null","html-keyboard-response","8","59826","0.0-8.0-0.0","SS1613079998092","","","null","","","","","<p><img src= images/blank.png width =""200"" height = ""200"" style = ""float:right""></p><p><img src=images/blank.png width =""800"" height = ""200""></p>","","","","","","","","","","","",""
"","2138.9999999664724","sequential-stimulus-presentation","9","62772","0.0-8.0-1.0","SS1613079998092","trial","","40","800","2938.9999999664724","images/stimuli/spore_stims/complex_09_A_b.gif","images/stimuli/spore_stims/complex_15_A_b.gif","","","","","0","complex_dissimilar","images/stimuli/spore_stims/complex_15_A_b.gif","middle","","","","",""
"","null","html-keyboard-response","10","63767","0.0-8.0-0.1","SS1613079998092","","","null","","","","","<p><img src= images/blank.png width =""200"" height = ""200"" style = ""float:right""></p><p><img src=images/blank.png width =""800"" height = ""200""></p>","","","","","","","","","","","",""
"","5328.999999910593","sequential-stimulus-presentation","11","69902","0.0-8.0-1.1","SS1613079998092","trial","","40","800","6128.999999910593","images/stimuli/spore_stims/complex_09_A_b.gif","images/stimuli/spore_stims/complex_15_A_b.gif","","","","","0","complex_dissimilar","images/stimuli/spore_stims/complex_15_A_b.gif","middle","","","","",""
"","null","html-keyboard-response","12","70801","0.0-8.0-0.2","SS1613079998092","","","null","","","","","<p><img src= images/blank.png width =""200"" height = ""200"" style = ""float:right""></p><p><img src=images/blank.png width =""800"" height = ""200""></p>","","","","","","","","","","","",""
"","2300.9999999776483","sequential-stimulus-presentation","13","73909","0.0-8.0-1.2","SS1613079998092","trial","","40","800","3100.9999999776483","images/stimuli/spore_stims/complex_09_A_b.gif","images/stimuli/spore_stims/complex_15_A_b.gif","","","","","0","complex_dissimilar","images/stimuli/spore_stims/complex_15_A_b.gif","middle","","","","",""
"","null","html-keyboard-response","14","74851","0.0-8.0-0.3","SS1613079998092","","","null","","","","","<p><img src= images/blank.png width =""200"" height = ""200"" style = ""float:right""></p><p><img src=images/blank.png width =""800"" height = ""200""></p>","","","","","","","","","","","",""
"","1601.000000257045","sequential-stimulus-presentation","15","77274","0.0-8.0-1.3","SS1613079998092","trial","","40","800","2401.000000257045","images/stimuli/spore_stims/complex_09_A_b.gif","images/stimuli/spore_stims/complex_15_A_b.gif","","","","","0","complex_dissimilar","images/stimuli/spore_stims/complex_15_A_b.gif","middle","","","","",""
"","null","html-keyboard-response","16","78495","0.0-8.0-0.4","SS1613079998092","","","null","","","","","<p><img src= images/blank.png width =""200"" height = ""200"" style = ""float:right""></p><p><img src=images/blank.png width =""800"" height = ""200""></p>","","","","","","","","","","","",""
"","348.000000230968","sequential-stimulus-presentation","17","79649","0.0-8.0-1.4","SS1613079998092","trial","","40","800","1148.000000230968","images/stimuli/spore_stims/complex_09_A_b.gif","images/stimuli/spore_stims/complex_15_A_b.gif","","","","","0","complex_dissimilar","images/stimuli/spore_stims/complex_09_A_b.gif","right","","","","",""
"","null","html-keyboard-response","18","80589","0.0-8.0-0.5","SS1613079998092","","","null","","","","","<p><img src= images/blank.png width =""200"" height = ""200"" style = ""float:right""></p><p><img src=images/blank.png width =""800"" height = ""200""></p>","","","","","","","","","","","",""
"","359.99999986961484","sequential-stimulus-presentation","19","81759","0.0-8.0-1.5","SS1613079998092","trial","","40","800","1159.9999998696148","images/stimuli/spore_stims/complex_09_A_b.gif","images/stimuli/spore_stims/complex_15_A_b.gif","","","","","0","complex_dissimilar","images/stimuli/spore_stims/complex_15_A_b.gif","middle","","","","",""
"","null","html-keyboard-response","20","82682","0.0-8.0-0.6","SS1613079998092","","","null","","","","","<p><img src= images/blank.png width =""200"" height = ""200"" style = ""float:right""></p><p><img src=images/blank.png width =""800"" height = ""200""></p>","","","","","","","","","","","",""
"","425.99999997764826","sequential-stimulus-presentation","21","83920","0.0-8.0-1.6","SS1613079998092","trial","","40","800","1225.9999999776483","images/stimuli/spore_stims/complex_09_A_b.gif","images/stimuli/spore_stims/complex_15_A_b.gif","","","","","0","complex_dissimilar","images/stimuli/spore_stims/complex_15_A_b.gif","middle","","","","",""
"","null","html-keyboard-response","22","85090","0.0-8.0-0.7","SS1613079998092","","","null","","","","","<p><img src= images/blank.png width =""200"" height = ""200"" style = ""float:right""></p><p><img src=images/blank.png width =""800"" height = ""200""></p>","","","","","","","","","","","",""
"","679.0000000037253","sequential-stimulus-presentation","23","86589","0.0-8.0-1.7","SS1613079998092","trial","","40","800","1479.0000000037253","images/stimuli/spore_stims/complex_09_A_b.gif","images/stimuli/spore_stims/complex_15_A_b.gif","","","","","0","complex_dissimilar","images/stimuli/spore_stims/complex_15_A_b.gif","middle","","","","",""
"","3342.9999998770654","html-keyboard-response","24","89937","0.0-9.0","SS1613079998092","pref_question","","98","","","","","<video width ='960' height = '540' style='padding-top:8%' autoplay muted><source src='images/stimuli/wall_pref.mp4' type='video/mp4'></video>","2","middle","45%","0","","","","","","","",""
"","165.0000000372529","sequential-stimulus-presentation","25","90908","0.0-10.0","SS1613079998092","pref_reveal","","40","800","965.0000000372529","null","null","","","","","0","","","","background","","","",""
"","null","html-keyboard-response","26","92069","0.0-11.0-0.0","SS1613079998092","","","null","","","","","<p><img src= images/blank.png width =""200"" height = ""200"" style = ""float:right""></p><p><img src=images/blank.png width =""800"" height = ""200""></p>","","","","","","","","","","","",""
"","903.9999996311963","sequential-stimulus-presentation","27","93777","0.0-11.0-1.0","SS1613079998092","trial","","40","800","1703.9999996311963","images/stimuli/spore_stims/simple_20_A_b.gif","images/stimuli/spore_stims/simple_16_A_a.gif","","","","","1","simple_dissimilar","images/stimuli/spore_stims/simple_16_A_a.gif","left","","","","",""
"","null","html-keyboard-response","28","94824","0.0-11.0-0.1","SS1613079998092","","","null","","","","","<p><img src= images/blank.png width =""200"" height = ""200"" style = ""float:right""></p><p><img src=images/blank.png width =""800"" height = ""200""></p>","","","","","","","","","","","",""
"","2758.0000003799796","sequential-stimulus-presentation","29","98400","0.0-11.0-1.1","SS1613079998092","trial","","40","800","3558.0000003799796","images/stimuli/spore_stims/simple_20_A_b.gif","images/stimuli/spore_stims/simple_16_A_a.gif","","","","","1","simple_dissimilar","images/stimuli/spore_stims/simple_16_A_a.gif","left","","","","",""
"","null","html-keyboard-response","30","99559","0.0-11.0-0.2","SS1613079998092","","","null","","","","","<p><img src= images/blank.png width =""200"" height = ""200"" style = ""float:right""></p><p><img src=images/blank.png width =""800"" height = ""200""></p>","","","","","","","","","","","",""
"","183.99999989196658","sequential-stimulus-presentation","31","100548","0.0-11.0-1.2","SS1613079998092","trial","","40","800","983.9999998919666","images/stimuli/spore_stims/simple_20_A_b.gif","images/stimuli/spore_stims/simple_16_A_a.gif","","","","","1","simple_dissimilar","images/stimuli/spore_stims/simple_16_A_a.gif","left","","","","",""
"","null","html-keyboard-response","32","101643","0.0-11.0-0.3","SS1613079998092","","","null","","","","","<p><img src= images/blank.png width =""200"" height = ""200"" style = ""float:right""></p><p><img src=images/blank.png width =""800"" height = ""200""></p>","","","","","","","","","","","",""
"","560.0000000558794","sequential-stimulus-presentation","33","103009","0.0-11.0-1.3","SS1613079998092","trial","","40","800","1360.0000000558794","images/stimuli/spore_stims/simple_20_A_b.gif","images/stimuli/spore_stims/simple_16_A_a.gif","","","","","1","simple_dissimilar","images/stimuli/spore_stims/simple_16_A_a.gif","left","","","","",""
"","null","html-keyboard-response","34","104245","0.0-11.0-0.4","SS1613079998092","","","null","","","","","<p><img src= images/blank.png width =""200"" height = ""200"" style = ""float:right""></p><p><img src=images/blank.png width =""800"" height = ""200""></p>","","","","","","","","","","","",""
"","103.00000011920929","sequential-stimulus-presentation","35","105160","0.0-11.0-1.4","SS1613079998092","trial","","40","800","903.0000001192093","images/stimuli/spore_stims/simple_20_A_b.gif","images/stimuli/spore_stims/simple_16_A_a.gif","","","","","1","simple_dissimilar","images/stimuli/spore_stims/simple_16_A_a.gif","left","","","","",""
"","null","html-keyboard-response","36","106220","0.0-11.0-0.5","SS1613079998092","","","null","","","","","<p><img src= images/blank.png width =""200"" height = ""200"" style = ""float:right""></p><p><img src=images/blank.png width =""800"" height = ""200""></p>","","","","","","","","","","","",""
"","694.9999998323619","sequential-stimulus-presentation","37","107722","0.0-11.0-1.5","SS1613079998092","trial","","40","800","1494.999999832362","images/stimuli/spore_stims/simple_20_A_b.gif","images/stimuli/spore_stims/simple_16_A_a.gif","","","","","1","simple_dissimilar","images/stimuli/spore_stims/simple_20_A_b.gif","right","","","","",""
"","null","html-keyboard-response","38","108844","0.0-11.0-0.6","SS1613079998092","","","null","","","","","<p><img src= images/blank.png width =""200"" height = ""200"" style = ""float:right""></p><p><img src=images/blank.png width =""800"" height = ""200""></p>","","","","","","","","","","","",""
"","2074.0000000223517","sequential-stimulus-presentation","39","111726","0.0-11.0-1.6","SS1613079998092","trial","","40","800","2874.0000000223517","images/stimuli/spore_stims/simple_20_A_b.gif","images/stimuli/spore_stims/simple_16_A_a.gif","","","","","1","simple_dissimilar","images/stimuli/spore_stims/simple_16_A_a.gif","left","","","","",""
"","null","html-keyboard-response","40","112854","0.0-11.0-0.7","SS1613079998092","","","null","","","","","<p><img src= images/blank.png width =""200"" height = ""200"" style = ""float:right""></p><p><img src=images/blank.png width =""800"" height = ""200""></p>","","","","","","","","","","","",""
"","552.000000141561","sequential-stimulus-presentation","41","114214","0.0-11.0-1.7","SS1613079998092","trial","","40","800","1352.000000141561","images/stimuli/spore_stims/simple_20_A_b.gif","images/stimuli/spore_stims/simple_16_A_a.gif","","","","","1","simple_dissimilar","images/stimuli/spore_stims/simple_16_A_a.gif","left","","","","",""
"","2597.000000067055","html-keyboard-response","42","116817","0.0-12.0","SS1613079998092","pref_question","","99","","","","","<video width ='960' height = '540' style='padding-top:8%' autoplay muted><source src='images/stimuli/wall_pref.mp4' type='video/mp4'></video>","3","right","66%","1","","","","","","","",""
"","70.99999999627471","sequential-stimulus-presentation","43","117694","0.0-13.0","SS1613079998092","pref_reveal","","40","800","870.9999999962747","null","null","","","","","1","","","","deviant","","","",""
"","null","html-keyboard-response","44","118564","0.0-14.0-0.0","SS1613079998092","","","null","","","","","<p><img src= images/blank.png width =""200"" height = ""200"" style = ""float:right""></p><p><img src=images/blank.png width =""800"" height = ""200""></p>","","","","","","","","","","","",""
"","4483.999999705702","sequential-stimulus-presentation","45","123858","0.0-14.0-1.0","SS1613079998092","trial","","40","800","5283.999999705702","images/stimuli/spore_stims/complex_18_B_a.gif","images/stimuli/spore_stims/complex_18_A_a.gif","","","","","2","complex_similar","images/stimuli/spore_stims/complex_18_A_a.gif","middle","","","","",""
"","null","html-keyboard-response","46","125138","0.0-14.0-0.1","SS1613079998092","","","null","","","","","<p><img src= images/blank.png width =""200"" height = ""200"" style = ""float:right""></p><p><img src=images/blank.png width =""800"" height = ""200""></p>","","","","","","","","","","","",""
"","2439.000000245869","sequential-stimulus-presentation","47","128407","0.0-14.0-1.1","SS1613079998092","trial","","40","800","3239.000000245869","images/stimuli/spore_stims/complex_18_B_a.gif","images/stimuli/spore_stims/complex_18_A_a.gif","","","","","2","complex_similar","images/stimuli/spore_stims/complex_18_A_a.gif","middle","","","","",""
"","null","html-keyboard-response","48","129607","0.0-14.0-0.2","SS1613079998092","","","null","","","","","<p><img src= images/blank.png width =""200"" height = ""200"" style = ""float:right""></p><p><img src=images/blank.png width =""800"" height = ""200""></p>","","","","","","","","","","","",""
"","4970.999999903142","sequential-stimulus-presentation","49","135386","0.0-14.0-1.2","SS1613079998092","trial","","40","800","5770.999999903142","images/stimuli/spore_stims/complex_18_B_a.gif","images/stimuli/spore_stims/complex_18_A_a.gif","","","","","2","complex_similar","images/stimuli/spore_stims/complex_18_A_a.gif","middle","","","","",""
"","null","html-keyboard-response","50","136367","0.0-14.0-0.3","SS1613079998092","","","null","","","","","<p><img src= images/blank.png width =""200"" height = ""200"" style = ""float:right""></p><p><img src=images/blank.png width =""800"" height = ""200""></p>","","","","","","","","","","","",""
"","575.0000001862645","sequential-stimulus-presentation","51","137747","0.0-14.0-1.3","SS1613079998092","trial","","40","800","1375.0000001862645","images/stimuli/spore_stims/complex_18_B_a.gif","images/stimuli/spore_stims/complex_18_A_a.gif","","","","","2","complex_similar","images/stimuli/spore_stims/complex_18_A_a.gif","middle","","","","",""
"","null","html-keyboard-response","52","138964","0.0-14.0-0.4","SS1613079998092","","","null","","","","","<p><img src= images/blank.png width =""200"" height = ""200"" style = ""float:right""></p><p><img src=images/blank.png width =""800"" height = ""200""></p>","","","","","","","","","","","",""
"","558.9999998919666","sequential-stimulus-presentation","53","140333","0.0-14.0-1.4","SS1613079998092","trial","","40","800","1358.9999998919666","images/stimuli/spore_stims/complex_18_B_a.gif","images/stimuli/spore_stims/complex_18_A_a.gif","","","","","2","complex_similar","images/stimuli/spore_stims/complex_18_A_a.gif","middle","","","","",""
"","null","html-keyboard-response","54","141570","0.0-14.0-0.5","SS1613079998092","","","null","","","","","<p><img src= images/blank.png width =""200"" height = ""200"" style = ""float:right""></p><p><img src=images/blank.png width =""800"" height = ""200""></p>","","","","","","","","","","","",""
"","1020.0000000186265","sequential-stimulus-presentation","55","143410","0.0-14.0-1.5","SS1613079998092","trial","","40","800","1820.0000000186265","images/stimuli/spore_stims/complex_18_B_a.gif","images/stimuli/spore_stims/complex_18_A_a.gif","","","","","2","complex_similar","images/stimuli/spore_stims/complex_18_A_a.gif","middle","","","","",""
"","null","html-keyboard-response","56","144272","0.0-14.0-0.6","SS1613079998092","","","null","","","","","<p><img src= images/blank.png width =""200"" height = ""200"" style = ""float:right""></p><p><img src=images/blank.png width =""800"" height = ""200""></p>","","","","","","","","","","","",""
"","1679.0000000037253","sequential-stimulus-presentation","57","146762","0.0-14.0-1.6","SS1613079998092","trial","","40","800","2479.0000000037253","images/stimuli/spore_stims/complex_18_B_a.gif","images/stimuli/spore_stims/complex_18_A_a.gif","","","","","2","complex_similar","images/stimuli/spore_stims/complex_18_B_a.gif","right","","","","",""
"","null","html-keyboard-response","58","147742","0.0-14.0-0.7","SS1613079998092","","","null","","","","","<p><img src= images/blank.png width =""200"" height = ""200"" style = ""float:right""></p><p><img src=images/blank.png width =""800"" height = ""200""></p>","","","","","","","","","","","",""
"","262.0000001043081","sequential-stimulus-presentation","59","148811","0.0-14.0-1.7","SS1613079998092","trial","","40","800","1062.0000001043081","images/stimuli/spore_stims/complex_18_B_a.gif","images/stimuli/spore_stims/complex_18_A_a.gif","","","","","2","complex_similar","images/stimuli/spore_stims/complex_18_A_a.gif","middle","","","","",""
"","2461.9999998249114","html-keyboard-response","60","151278","0.0-15.0","SS1613079998092","pref_question","","98","","","","","<video width ='960' height = '540' style='padding-top:8%' autoplay muted><source src='images/stimuli/wall_pref.mp4' type='video/mp4'></video>","2","middle","45%","2","","","","","","","",""
"","1439.9999999441206","sequential-stimulus-presentation","61","153527","0.0-16.0","SS1613079998092","pref_reveal","","40","800","2239.9999999441206","null","null","","","","","2","","","","background","","","",""
"","null","html-keyboard-response","62","154531","0.0-17.0-0.0","SS1613079998092","","","null","","","","","<p><img src= images/blank.png width =""200"" height = ""200"" style = ""float:right""></p><p><img src=images/blank.png width =""800"" height = ""200""></p>","","","","","","","","","","","",""
"","2540.9999997355044","sequential-stimulus-presentation","63","157914","0.0-17.0-1.0","SS1613079998092","trial","","40","800","3340.9999997355044","images/stimuli/spore_stims/complex_10_A_c.gif","images/stimuli/spore_stims/complex_10_B_c.gif","","","","","3","complex_similar","images/stimuli/spore_stims/complex_10_B_c.gif","right","","","","",""
"","null","html-keyboard-response","64","158797","0.0-17.0-0.1","SS1613079998092","","","null","","","","","<p><img src= images/blank.png width =""200"" height = ""200"" style = ""float:right""></p><p><img src=images/blank.png width =""800"" height = ""200""></p>","","","","","","","","","","","",""
"","927.9999998398125","sequential-stimulus-presentation","65","160540","0.0-17.0-1.1","SS1613079998092","trial","","40","800","1727.9999998398125","images/stimuli/spore_stims/complex_10_A_c.gif","images/stimuli/spore_stims/complex_10_B_c.gif","","","","","3","complex_similar","images/stimuli/spore_stims/complex_10_B_c.gif","right","","","","",""
"","null","html-keyboard-response","66","161533","0.0-17.0-0.2","SS1613079998092","","","null","","","","","<p><img src= images/blank.png width =""200"" height = ""200"" style = ""float:right""></p><p><img src=images/blank.png width =""800"" height = ""200""></p>","","","","","","","","","","","",""
"","480.99999967962503","sequential-stimulus-presentation","67","162824","0.0-17.0-1.2","SS1613079998092","trial","","40","800","1280.999999679625","images/stimuli/spore_stims/complex_10_A_c.gif","images/stimuli/spore_stims/complex_10_B_c.gif","","","","","3","complex_similar","images/stimuli/spore_stims/complex_10_B_c.gif","right","","","","",""
"","null","html-keyboard-response","68","163637","0.0-17.0-0.3","SS1613079998092","","","null","","","","","<p><img src= images/blank.png width =""200"" height = ""200"" style = ""float:right""></p><p><img src=images/blank.png width =""800"" height = ""200""></p>","","","","","","","","","","","",""
"","651.999999769032","sequential-stimulus-presentation","69","165102","0.0-17.0-1.3","SS1613079998092","trial","","40","800","1451.999999769032","images/stimuli/spore_stims/complex_10_A_c.gif","images/stimuli/spore_stims/complex_10_B_c.gif","","","","","3","complex_similar","images/stimuli/spore_stims/complex_10_B_c.gif","right","","","","",""
"","null","html-keyboard-response","70","166095","0.0-17.0-0.4","SS1613079998092","","","null","","","","","<p><img src= images/blank.png width =""200"" height = ""200"" style = ""float:right""></p><p><img src=images/blank.png width =""800"" height = ""200""></p>","","","","","","","","","","","",""
"","3234.999999869615","sequential-stimulus-presentation","71","170143","0.0-17.0-1.4","SS1613079998092","trial","","40","800","4034.999999869615","images/stimuli/spore_stims/complex_10_A_c.gif","images/stimuli/spore_stims/complex_10_B_c.gif","","","","","3","complex_similar","images/stimuli/spore_stims/complex_10_B_c.gif","right","","","","",""
"","null","html-keyboard-response","72","171079","0.0-17.0-0.5","SS1613079998092","","","null","","","","","<p><img src= images/blank.png width =""200"" height = ""200"" style = ""float:right""></p><p><img src=images/blank.png width =""800"" height = ""200""></p>","","","","","","","","","","","",""
"","319.00000013411045","sequential-stimulus-presentation","73","172214","0.0-17.0-1.5","SS1613079998092","trial","","40","800","1119.0000001341105","images/stimuli/spore_stims/complex_10_A_c.gif","images/stimuli/spore_stims/complex_10_B_c.gif","","","","","3","complex_similar","images/stimuli/spore_stims/complex_10_B_c.gif","right","","","","",""
"","null","html-keyboard-response","74","173439","0.0-17.0-0.6","SS1613079998092","","","null","","","","","<p><img src= images/blank.png width =""200"" height = ""200"" style = ""float:right""></p><p><img src=images/blank.png width =""800"" height = ""200""></p>","","","","","","","","","","","",""
"","938.0000000819564","sequential-stimulus-presentation","75","175184","0.0-17.0-1.6","SS1613079998092","trial","","40","800","1738.0000000819564","images/stimuli/spore_stims/complex_10_A_c.gif","images/stimuli/spore_stims/complex_10_B_c.gif","","","","","3","complex_similar","images/stimuli/spore_stims/complex_10_B_c.gif","right","","","","",""
"","null","html-keyboard-response","76","176394","0.0-17.0-0.7","SS1613079998092","","","null","","","","","<p><img src= images/blank.png width =""200"" height = ""200"" style = ""float:right""></p><p><img src=images/blank.png width =""800"" height = ""200""></p>","","","","","","","","","","","",""
"","1818.9999996684492","sequential-stimulus-presentation","77","179020","0.0-17.0-1.7","SS1613079998092","trial","","40","800","2618.999999668449","images/stimuli/spore_stims/complex_10_A_c.gif","images/stimuli/spore_stims/complex_10_B_c.gif","","","","","3","complex_similar","images/stimuli/spore_stims/complex_10_A_c.gif","middle","","","","",""
"","2351.9999999552965","html-keyboard-response","78","181377","0.0-18.0","SS1613079998092","pref_question","","97","","","","","<video width ='960' height = '540' style='padding-top:8%' autoplay muted><source src='images/stimuli/wall_pref.mp4' type='video/mp4'></video>","1","left","25%","3","","","","","","","",""
"","35.00000014901161","sequential-stimulus-presentation","79","182221","0.0-19.0","SS1613079998092","pref_reveal","","40","800","835.0000001490116","null","null","","","","","3","","","","novel","","","",""
"","null","html-keyboard-response","80","183098","0.0-20.0-0.0","SS1613079998092","","","null","","","","","<p><img src= images/blank.png width =""200"" height = ""200"" style = ""float:right""></p><p><img src=images/blank.png width =""800"" height = ""200""></p>","","","","","","","","","","","",""
"","468.0000003427267","sequential-stimulus-presentation","81","184373","0.0-20.0-1.0","SS1613079998092","trial","","40","800","1268.0000003427267","images/stimuli/spore_stims/complex_19_A_d.gif","images/stimuli/spore_stims/complex_05_A_c.gif","","","","","4","complex_dissimilar","images/stimuli/spore_stims/complex_05_A_c.gif","middle","","","","",""
"","null","html-keyboard-response","82","185598","0.0-20.0-0.1","SS1613079998092","","","null","","","","","<p><img src= images/blank.png width =""200"" height = ""200"" style = ""float:right""></p><p><img src=images/blank.png width =""800"" height = ""200""></p>","","","","","","","","","","","",""
"","566.0000001080334","sequential-stimulus-presentation","83","186977","0.0-20.0-1.1","SS1613079998092","trial","","40","800","1366.0000001080334","images/stimuli/spore_stims/complex_19_A_d.gif","images/stimuli/spore_stims/complex_05_A_c.gif","","","","","4","complex_dissimilar","images/stimuli/spore_stims/complex_05_A_c.gif","middle","","","","",""
"","null","html-keyboard-response","84","187952","0.0-20.0-0.2","SS1613079998092","","","null","","","","","<p><img src= images/blank.png width =""200"" height = ""200"" style = ""float:right""></p><p><img src=images/blank.png width =""800"" height = ""200""></p>","","","","","","","","","","","",""
"","555.0000001676381","sequential-stimulus-presentation","85","189316","0.0-20.0-1.2","SS1613079998092","trial","","40","800","1355.000000167638","images/stimuli/spore_stims/complex_19_A_d.gif","images/stimuli/spore_stims/complex_05_A_c.gif","","","","","4","complex_dissimilar","images/stimuli/spore_stims/complex_05_A_c.gif","middle","","","","",""
"","null","html-keyboard-response","86","190138","0.0-20.0-0.3","SS1613079998092","","","null","","","","","<p><img src= images/blank.png width =""200"" height = ""200"" style = ""float:right""></p><p><img src=images/blank.png width =""800"" height = ""200""></p>","","","","","","","","","","","",""
"","140.99999982863665","sequential-stimulus-presentation","87","191093","0.0-20.0-1.3","SS1613079998092","trial","","40","800","940.9999998286366","images/stimuli/spore_stims/complex_19_A_d.gif","images/stimuli/spore_stims/complex_05_A_c.gif","","","","","4","complex_dissimilar","images/stimuli/spore_stims/complex_05_A_c.gif","middle","","","","",""
"","null","html-keyboard-response","88","192307","0.0-20.0-0.4","SS1613079998092","","","null","","","","","<p><img src= images/blank.png width =""200"" height = ""200"" style = ""float:right""></p><p><img src=images/blank.png width =""800"" height = ""200""></p>","","","","","","","","","","","",""
"","188.0000000819564","sequential-stimulus-presentation","89","193325","0.0-20.0-1.4","SS1613079998092","trial","","40","800","988.0000000819564","images/stimuli/spore_stims/complex_19_A_d.gif","images/stimuli/spore_stims/complex_05_A_c.gif","","","","","4","complex_dissimilar","images/stimuli/spore_stims/complex_19_A_d.gif","left","","","","",""
"","null","html-keyboard-response","90","194290","0.0-20.0-0.5","SS1613079998092","","","null","","","","","<p><img src= images/blank.png width =""200"" height = ""200"" style = ""float:right""></p><p><img src=images/blank.png width =""800"" height = ""200""></p>","","","","","","","","","","","",""
"","6265.000000130385","sequential-stimulus-presentation","91","201363","0.0-20.0-1.5","SS1613079998092","trial","","40","800","7065.000000130385","images/stimuli/spore_stims/complex_19_A_d.gif","images/stimuli/spore_stims/complex_05_A_c.gif","","","","","4","complex_dissimilar","images/stimuli/spore_stims/complex_05_A_c.gif","middle","","","","",""
"","null","html-keyboard-response","92","202605","0.0-20.0-0.6","SS1613079998092","","","null","","","","","<p><img src= images/blank.png width =""200"" height = ""200"" style = ""float:right""></p><p><img src=images/blank.png width =""800"" height = ""200""></p>","","","","","","","","","","","",""
"","726.000000257045","sequential-stimulus-presentation","93","204147","0.0-20.0-1.6","SS1613079998092","trial","","40","800","1526.000000257045","images/stimuli/spore_stims/complex_19_A_d.gif","images/stimuli/spore_stims/complex_05_A_c.gif","","","","","4","complex_dissimilar","images/stimuli/spore_stims/complex_05_A_c.gif","middle","","","","",""
"","null","html-keyboard-response","94","205292","0.0-20.0-0.7","SS1613079998092","","","null","","","","","<p><img src= images/blank.png width =""200"" height = ""200"" style = ""float:right""></p><p><img src=images/blank.png width =""800"" height = ""200""></p>","","","","","","","","","","","",""
"","1087.9999999888241","sequential-stimulus-presentation","95","207186","0.0-20.0-1.7","SS1613079998092","trial","","40","800","1887.9999999888241","images/stimuli/spore_stims/complex_19_A_d.gif","images/stimuli/spore_stims/complex_05_A_c.gif","","","","","4","complex_dissimilar","images/stimuli/spore_stims/complex_05_A_c.gif","middle","","","","",""
"","3462.999999988824","html-keyboard-response","96","210668","0.0-21.0","SS1613079998092","pref_question","","97","","","","","<video width ='960' height = '540' style='padding-top:8%' autoplay muted><source src='images/stimuli/wall_pref.mp4' type='video/mp4'></video>","1","left","25%","4","","","","","","","",""
"","1628.9999997243285","sequential-stimulus-presentation","97","213105","0.0-22.0","SS1613079998092","pref_reveal","","40","800","2428.9999997243285","null","null","","","","","4","","","","deviant","","","",""
"","null","html-keyboard-response","98","214277","0.0-23.0-0.0","SS1613079998092","","","null","","","","","<p><img src= images/blank.png width =""200"" height = ""200"" style = ""float:right""></p><p><img src=images/blank.png width =""800"" height = ""200""></p>","","","","","","","","","","","",""
"","564.9999999441206","sequential-stimulus-presentation","99","215652","0.0-23.0-1.0","SS1613079998092","trial","","40","800","1364.9999999441206","images/stimuli/spore_stims/simple_03_B_a.gif","images/stimuli/spore_stims/simple_20_B_a.gif","","","","","5","simple_dissimilar","images/stimuli/spore_stims/simple_20_B_a.gif","middle","","","","",""
"","null","html-keyboard-response","100","216690","0.0-23.0-0.1","SS1613079998092","","","null","","","","","<p><img src= images/blank.png width =""200"" height = ""200"" style = ""float:right""></p><p><img src=images/blank.png width =""800"" height = ""200""></p>","","","","","","","","","","","",""
"","549.9999998137355","sequential-stimulus-presentation","101","218048","0.0-23.0-1.1","SS1613079998092","trial","","40","800","1349.9999998137355","images/stimuli/spore_stims/simple_03_B_a.gif","images/stimuli/spore_stims/simple_20_B_a.gif","","","","","5","simple_dissimilar","images/stimuli/spore_stims/simple_20_B_a.gif","middle","","","","",""
"","null","html-keyboard-response","102","218885","0.0-23.0-0.2","SS1613079998092","","","null","","","","","<p><img src= images/blank.png width =""200"" height = ""200"" style = ""float:right""></p><p><img src=images/blank.png width =""800"" height = ""200""></p>","","","","","","","","","","","",""
"","369.9999996460974","sequential-stimulus-presentation","103","220078","0.0-23.0-1.2","SS1613079998092","trial","","40","800","1169.9999996460974","images/stimuli/spore_stims/simple_03_B_a.gif","images/stimuli/spore_stims/simple_20_B_a.gif","","","","","5","simple_dissimilar","images/stimuli/spore_stims/simple_20_B_a.gif","middle","","","","",""
"","null","html-keyboard-response","104","221185","0.0-23.0-0.3","SS1613079998092","","","null","","","","","<p><img src= images/blank.png width =""200"" height = ""200"" style = ""float:right""></p><p><img src=images/blank.png width =""800"" height = ""200""></p>","","","","","","","","","","","",""
"","1075.0000001862645","sequential-stimulus-presentation","105","223075","0.0-23.0-1.3","SS1613079998092","trial","","40","800","1875.0000001862645","images/stimuli/spore_stims/simple_03_B_a.gif","images/stimuli/spore_stims/simple_20_B_a.gif","","","","","5","simple_dissimilar","images/stimuli/spore_stims/simple_20_B_a.gif","middle","","","","",""
"","null","html-keyboard-response","106","224130","0.0-23.0-0.4","SS1613079998092","","","null","","","","","<p><img src= images/blank.png width =""200"" height = ""200"" style = ""float:right""></p><p><img src=images/blank.png width =""800"" height = ""200""></p>","","","","","","","","","","","",""
"","1092.9999998770654","sequential-stimulus-presentation","107","226031","0.0-23.0-1.4","SS1613079998092","trial","","40","800","1892.9999998770654","images/stimuli/spore_stims/simple_03_B_a.gif","images/stimuli/spore_stims/simple_20_B_a.gif","","","","","5","simple_dissimilar","images/stimuli/spore_stims/simple_20_B_a.gif","middle","","","","",""
"","null","html-keyboard-response","108","226990","0.0-23.0-0.5","SS1613079998092","","","null","","","","","<p><img src= images/blank.png width =""200"" height = ""200"" style = ""float:right""></p><p><img src=images/blank.png width =""800"" height = ""200""></p>","","","","","","","","","","","",""
"","219.99999973922968","sequential-stimulus-presentation","109","228027","0.0-23.0-1.5","SS1613079998092","trial","","40","800","1019.9999997392297","images/stimuli/spore_stims/simple_03_B_a.gif","images/stimuli/spore_stims/simple_20_B_a.gif","","","","","5","simple_dissimilar","images/stimuli/spore_stims/simple_03_B_a.gif","right","","","","",""
"","null","html-keyboard-response","110","229065","0.0-23.0-0.6","SS1613079998092","","","null","","","","","<p><img src= images/blank.png width =""200"" height = ""200"" style = ""float:right""></p><p><img src=images/blank.png width =""800"" height = ""200""></p>","","","","","","","","","","","",""
"","1089.000000152737","sequential-stimulus-presentation","111","231009","0.0-23.0-1.6","SS1613079998092","trial","","40","800","1889.000000152737","images/stimuli/spore_stims/simple_03_B_a.gif","images/stimuli/spore_stims/simple_20_B_a.gif","","","","","5","simple_dissimilar","images/stimuli/spore_stims/simple_20_B_a.gif","middle","","","","",""
"","null","html-keyboard-response","112","231985","0.0-23.0-0.7","SS1613079998092","","","null","","","","","<p><img src= images/blank.png width =""200"" height = ""200"" style = ""float:right""></p><p><img src=images/blank.png width =""800"" height = ""200""></p>","","","","","","","","","","","",""
"","560.0000000558794","sequential-stimulus-presentation","113","233364","0.0-23.0-1.7","SS1613079998092","trial","","40","800","1360.0000000558794","images/stimuli/spore_stims/simple_03_B_a.gif","images/stimuli/spore_stims/simple_20_B_a.gif","","","","","5","simple_dissimilar","images/stimuli/spore_stims/simple_20_B_a.gif","middle","","","","",""
"","6163.99999987334","html-keyboard-response","114","239535","0.0-24.0","SS1613079998092","pref_question","","97","","","","","<video width ='960' height = '540' style='padding-top:8%' autoplay muted><source src='images/stimuli/wall_pref.mp4' type='video/mp4'></video>","1","left","25%","5","","","","","","","",""
"","27.00000023469329","sequential-stimulus-presentation","115","240371","0.0-25.0","SS1613079998092","pref_reveal","","40","800","827.0000002346933","null","null","","","","","5","","","","novel","","","",""
"","null","html-keyboard-response","116","241540","0.0-26.0-0.0","SS1613079998092","","","null","","","","","<p><img src= images/blank.png width =""200"" height = ""200"" style = ""float:right""></p><p><img src=images/blank.png width =""800"" height = ""200""></p>","","","","","","","","","","","",""
"","26.000000070780516","sequential-stimulus-presentation","117","242377","0.0-26.0-1.0","SS1613079998092","trial","","40","800","826.0000000707805","images/stimuli/spore_stims/simple_17_A_c.gif","images/stimuli/spore_stims/simple_08_A_a.gif","","","","","6","simple_dissimilar","images/stimuli/spore_stims/simple_08_A_a.gif","left","","","","",""
"","null","html-keyboard-response","118","243636","0.0-26.0-0.1","SS1613079998092","","","null","","","","","<p><img src= images/blank.png width =""200"" height = ""200"" style = ""float:right""></p><p><img src=images/blank.png width =""800"" height = ""200""></p>","","","","","","","","","","","",""
"","1222.0000000670552","sequential-stimulus-presentation","119","245677","0.0-26.0-1.1","SS1613079998092","trial","","40","800","2022.0000000670552","images/stimuli/spore_stims/simple_17_A_c.gif","images/stimuli/spore_stims/simple_08_A_a.gif","","","","","6","simple_dissimilar","images/stimuli/spore_stims/simple_08_A_a.gif","left","","","","",""
"","null","html-keyboard-response","120","246518","0.0-26.0-0.2","SS1613079998092","","","null","","","","","<p><img src= images/blank.png width =""200"" height = ""200"" style = ""float:right""></p><p><img src=images/blank.png width =""800"" height = ""200""></p>","","","","","","","","","","","",""
"","580.9999997727573","sequential-stimulus-presentation","121","247915","0.0-26.0-1.2","SS1613079998092","trial","","40","800","1380.9999997727573","images/stimuli/spore_stims/simple_17_A_c.gif","images/stimuli/spore_stims/simple_08_A_a.gif","","","","","6","simple_dissimilar","images/stimuli/spore_stims/simple_08_A_a.gif","left","","","","",""
"","null","html-keyboard-response","122","249058","0.0-26.0-0.3","SS1613079998092","","","null","","","","","<p><img src= images/blank.png width =""200"" height = ""200"" style = ""float:right""></p><p><img src=images/blank.png width =""800"" height = ""200""></p>","","","","","","","","","","","",""
"","211.99999982491136","sequential-stimulus-presentation","123","250078","0.0-26.0-1.3","SS1613079998092","trial","","40","800","1011.9999998249114","images/stimuli/spore_stims/simple_17_A_c.gif","images/stimuli/spore_stims/simple_08_A_a.gif","","","","","6","simple_dissimilar","images/stimuli/spore_stims/simple_08_A_a.gif","left","","","","",""
"","null","html-keyboard-response","124","251202","0.0-26.0-0.4","SS1613079998092","","","null","","","","","<p><img src= images/blank.png width =""200"" height = ""200"" style = ""float:right""></p><p><img src=images/blank.png width =""800"" height = ""200""></p>","","","","","","","","","","","",""
"","1442.0000002719462","sequential-stimulus-presentation","125","253458","0.0-26.0-1.4","SS1613079998092","trial","","40","800","2242.000000271946","images/stimuli/spore_stims/simple_17_A_c.gif","images/stimuli/spore_stims/simple_08_A_a.gif","","","","","6","simple_dissimilar","images/stimuli/spore_stims/simple_08_A_a.gif","left","","","","",""
"","null","html-keyboard-response","126","254630","0.0-26.0-0.5","SS1613079998092","","","null","","","","","<p><img src= images/blank.png width =""200"" height = ""200"" style = ""float:right""></p><p><img src=images/blank.png width =""800"" height = ""200""></p>","","","","","","","","","","","",""
"","672.0000002533197","sequential-stimulus-presentation","127","256109","0.0-26.0-1.5","SS1613079998092","trial","","40","800","1472.0000002533197","images/stimuli/spore_stims/simple_17_A_c.gif","images/stimuli/spore_stims/simple_08_A_a.gif","","","","","6","simple_dissimilar","images/stimuli/spore_stims/simple_08_A_a.gif","left","","","","",""
"","null","html-keyboard-response","128","257253","0.0-26.0-0.6","SS1613079998092","","","null","","","","","<p><img src= images/blank.png width =""200"" height = ""200"" style = ""float:right""></p><p><img src=images/blank.png width =""800"" height = ""200""></p>","","","","","","","","","","","",""
"","992.0000000856817","sequential-stimulus-presentation","129","259051","0.0-26.0-1.6","SS1613079998092","trial","","40","800","1792.0000000856817","images/stimuli/spore_stims/simple_17_A_c.gif","images/stimuli/spore_stims/simple_08_A_a.gif","","","","","6","simple_dissimilar","images/stimuli/spore_stims/simple_17_A_c.gif","middle","","","","",""
"","null","html-keyboard-response","130","260134","0.0-26.0-0.7","SS1613079998092","","","null","","","","","<p><img src= images/blank.png width =""200"" height = ""200"" style = ""float:right""></p><p><img src=images/blank.png width =""800"" height = ""200""></p>","","","","","","","","","","","",""
"","779.0000000968575","sequential-stimulus-presentation","131","261724","0.0-26.0-1.7","SS1613079998092","trial","","40","800","1579.0000000968575","images/stimuli/spore_stims/simple_17_A_c.gif","images/stimuli/spore_stims/simple_08_A_a.gif","","","","","6","simple_dissimilar","images/stimuli/spore_stims/simple_08_A_a.gif","left","","","","",""
"","7228.000000119209","html-keyboard-response","132","268960","0.0-27.0","SS1613079998092","pref_question","","97","","","","","<video width ='960' height = '540' style='padding-top:8%' autoplay muted><source src='images/stimuli/wall_pref.mp4' type='video/mp4'></video>","1","left","25%","6","","","","","","","",""
"","168.00000006332994","sequential-stimulus-presentation","133","269936","0.0-28.0","SS1613079998092","pref_reveal","","40","800","968.0000000633299","null","null","","","","","6","","","","background","","","",""
"","null","html-keyboard-response","134","271031","0.0-29.0-0.0","SS1613079998092","","","null","","","","","<p><img src= images/blank.png width =""200"" height = ""200"" style = ""float:right""></p><p><img src=images/blank.png width =""800"" height = ""200""></p>","","","","","","","","","","","",""
"","790.0000000372529","sequential-stimulus-presentation","135","272628","0.0-29.0-1.0","SS1613079998092","trial","","40","800","1590.000000037253","images/stimuli/spore_stims/simple_15_A_c.gif","images/stimuli/spore_stims/simple_15_B_c.gif","","","","","7","simple_similar","images/stimuli/spore_stims/simple_15_B_c.gif","middle","","","","",""
"","null","html-keyboard-response","136","273670","0.0-29.0-0.1","SS1613079998092","","","null","","","","","<p><img src= images/blank.png width =""200"" height = ""200"" style = ""float:right""></p><p><img src=images/blank.png width =""800"" height = ""200""></p>","","","","","","","","","","","",""
"","78.00000021234155","sequential-stimulus-presentation","137","274555","0.0-29.0-1.1","SS1613079998092","trial","","40","800","878.0000002123415","images/stimuli/spore_stims/simple_15_A_c.gif","images/stimuli/spore_stims/simple_15_B_c.gif","","","","","7","simple_similar","images/stimuli/spore_stims/simple_15_B_c.gif","middle","","","","",""
"","null","html-keyboard-response","138","275793","0.0-29.0-0.2","SS1613079998092","","","null","","","","","<p><img src= images/blank.png width =""200"" height = ""200"" style = ""float:right""></p><p><img src=images/blank.png width =""800"" height = ""200""></p>","","","","","","","","","","","",""
"","504.0000001899898","sequential-stimulus-presentation","139","277104","0.0-29.0-1.2","SS1613079998092","trial","","40","800","1304.0000001899898","images/stimuli/spore_stims/simple_15_A_c.gif","images/stimuli/spore_stims/simple_15_B_c.gif","","","","","7","simple_similar","images/stimuli/spore_stims/simple_15_B_c.gif","middle","","","","",""
"","null","html-keyboard-response","140","278072","0.0-29.0-0.3","SS1613079998092","","","null","","","","","<p><img src= images/blank.png width =""200"" height = ""200"" style = ""float:right""></p><p><img src=images/blank.png width =""800"" height = ""200""></p>","","","","","","","","","","","",""
"","616.0000003874302","sequential-stimulus-presentation","141","279502","0.0-29.0-1.3","SS1613079998092","trial","","40","800","1416.0000003874302","images/stimuli/spore_stims/simple_15_A_c.gif","images/stimuli/spore_stims/simple_15_B_c.gif","","","","","7","simple_similar","images/stimuli/spore_stims/simple_15_B_c.gif","middle","","","","",""
"","null","html-keyboard-response","142","280789","0.0-29.0-0.4","SS1613079998092","","","null","","","","","<p><img src= images/blank.png width =""200"" height = ""200"" style = ""float:right""></p><p><img src=images/blank.png width =""800"" height = ""200""></p>","","","","","","","","","","","",""
"","391.00000029429793","sequential-stimulus-presentation","143","281989","0.0-29.0-1.4","SS1613079998092","trial","","40","800","1191.000000294298","images/stimuli/spore_stims/simple_15_A_c.gif","images/stimuli/spore_stims/simple_15_B_c.gif","","","","","7","simple_similar","images/stimuli/spore_stims/simple_15_B_c.gif","middle","","","","",""
"","null","html-keyboard-response","144","283003","0.0-29.0-0.5","SS1613079998092","","","null","","","","","<p><img src= images/blank.png width =""200"" height = ""200"" style = ""float:right""></p><p><img src=images/blank.png width =""800"" height = ""200""></p>","","","","","","","","","","","",""
"","170.00000039115548","sequential-stimulus-presentation","145","283985","0.0-29.0-1.5","SS1613079998092","trial","","40","800","970.0000003911555","images/stimuli/spore_stims/simple_15_A_c.gif","images/stimuli/spore_stims/simple_15_B_c.gif","","","","","7","simple_similar","images/stimuli/spore_stims/simple_15_B_c.gif","middle","","","","",""
"","null","html-keyboard-response","146","284933","0.0-29.0-0.6","SS1613079998092","","","null","","","","","<p><img src= images/blank.png width =""200"" height = ""200"" style = ""float:right""></p><p><img src=images/blank.png width =""800"" height = ""200""></p>","","","","","","","","","","","",""
"","507.9999999143183","sequential-stimulus-presentation","147","286267","0.0-29.0-1.6","SS1613079998092","trial","","40","800","1307.9999999143183","images/stimuli/spore_stims/simple_15_A_c.gif","images/stimuli/spore_stims/simple_15_B_c.gif","","","","","7","simple_similar","images/stimuli/spore_stims/simple_15_B_c.gif","middle","","","","",""
"","null","html-keyboard-response","148","287376","0.0-29.0-0.7","SS1613079998092","","","null","","","","","<p><img src= images/blank.png width =""200"" height = ""200"" style = ""float:right""></p><p><img src=images/blank.png width =""800"" height = ""200""></p>","","","","","","","","","","","",""
"","694.0000001341105","sequential-stimulus-presentation","149","288880","0.0-29.0-1.7","SS1613079998092","trial","","40","800","1494.0000001341105","images/stimuli/spore_stims/simple_15_A_c.gif","images/stimuli/spore_stims/simple_15_B_c.gif","","","","","7","simple_similar","images/stimuli/spore_stims/simple_15_A_c.gif","right","","","","",""
"","1765.9999998286366","html-keyboard-response","150","290656","0.0-30.0","SS1613079998092","pref_question","","97","","","","","<video width ='960' height = '540' style='padding-top:8%' autoplay muted><source src='images/stimuli/wall_pref.mp4' type='video/mp4'></video>","1","left","25%","7","","","","","","","",""
"","6456.000000238419","sequential-stimulus-presentation","151","297921","0.0-31.0","SS1613079998092","pref_reveal","","40","800","7256.000000238419","null","null","","","","","7","","","","novel","","","",""
"","null","html-keyboard-response","152","299078","0.0-32.0-0.0","SS1613079998092","","","null","","","","","<p><img src= images/blank.png width =""200"" height = ""200"" style = ""float:right""></p><p><img src=images/blank.png width =""800"" height = ""200""></p>","","","","","","","","","","","",""
"","534.9999996833503","sequential-stimulus-presentation","153","300426","0.0-32.0-1.0","SS1613079998092","trial","","40","800","1334.9999996833503","images/stimuli/spore_stims/simple_06_A_d.gif","images/stimuli/spore_stims/simple_06_B_d.gif","","","","","8","simple_similar","images/stimuli/spore_stims/simple_06_B_d.gif","left","","","","",""
"","null","html-keyboard-response","154","301310","0.0-32.0-0.1","SS1613079998092","","","null","","","","","<p><img src= images/blank.png width =""200"" height = ""200"" style = ""float:right""></p><p><img src=images/blank.png width =""800"" height = ""200""></p>","","","","","","","","","","","",""
"","302.00000014156103","sequential-stimulus-presentation","155","302421","0.0-32.0-1.1","SS1613079998092","trial","","40","800","1102.000000141561","images/stimuli/spore_stims/simple_06_A_d.gif","images/stimuli/spore_stims/simple_06_B_d.gif","","","","","8","simple_similar","images/stimuli/spore_stims/simple_06_B_d.gif","left","","","","",""
"","null","html-keyboard-response","156","303628","0.0-32.0-0.2","SS1613079998092","","","null","","","","","<p><img src= images/blank.png width =""200"" height = ""200"" style = ""float:right""></p><p><img src=images/blank.png width =""800"" height = ""200""></p>","","","","","","","","","","","",""
"","1332.0000004023314","sequential-stimulus-presentation","157","305775","0.0-32.0-1.2","SS1613079998092","trial","","40","800","2132.0000004023314","images/stimuli/spore_stims/simple_06_A_d.gif","images/stimuli/spore_stims/simple_06_B_d.gif","","","","","8","simple_similar","images/stimuli/spore_stims/simple_06_B_d.gif","left","","","","",""
"","null","html-keyboard-response","158","307061","0.0-32.0-0.3","SS1613079998092","","","null","","","","","<p><img src= images/blank.png width =""200"" height = ""200"" style = ""float:right""></p><p><img src=images/blank.png width =""800"" height = ""200""></p>","","","","","","","","","","","",""
"","746.999999973923","sequential-stimulus-presentation","159","308625","0.0-32.0-1.3","SS1613079998092","trial","","40","800","1546.999999973923","images/stimuli/spore_stims/simple_06_A_d.gif","images/stimuli/spore_stims/simple_06_B_d.gif","","","","","8","simple_similar","images/stimuli/spore_stims/simple_06_B_d.gif","left","","","","",""
"","null","html-keyboard-response","160","309525","0.0-32.0-0.4","SS1613079998092","","","null","","","","","<p><img src= images/blank.png width =""200"" height = ""200"" style = ""float:right""></p><p><img src=images/blank.png width =""800"" height = ""200""></p>","","","","","","","","","","","",""
"","1209.999999962747","sequential-stimulus-presentation","161","311548","0.0-32.0-1.4","SS1613079998092","trial","","40","800","2009.999999962747","images/stimuli/spore_stims/simple_06_A_d.gif","images/stimuli/spore_stims/simple_06_B_d.gif","","","","","8","simple_similar","images/stimuli/spore_stims/simple_06_B_d.gif","left","","","","",""
"","null","html-keyboard-response","162","312482","0.0-32.0-0.5","SS1613079998092","","","null","","","","","<p><img src= images/blank.png width =""200"" height = ""200"" style = ""float:right""></p><p><img src=images/blank.png width =""800"" height = ""200""></p>","","","","","","","","","","","",""
"","2500","sequential-stimulus-presentation","163","315793","0.0-32.0-1.5","SS1613079998092","trial","","40","800","3300","images/stimuli/spore_stims/simple_06_A_d.gif","images/stimuli/spore_stims/simple_06_B_d.gif","","","","","8","simple_similar","images/stimuli/spore_stims/simple_06_B_d.gif","left","","","","",""
"","null","html-keyboard-response","164","316852","0.0-32.0-0.6","SS1613079998092","","","null","","","","","<p><img src= images/blank.png width =""200"" height = ""200"" style = ""float:right""></p><p><img src=images/blank.png width =""800"" height = ""200""></p>","","","","","","","","","","","",""
"","1942.9999999701977","sequential-stimulus-presentation","165","319615","0.0-32.0-1.6","SS1613079998092","trial","","40","800","2742.9999999701977","images/stimuli/spore_stims/simple_06_A_d.gif","images/stimuli/spore_stims/simple_06_B_d.gif","","","","","8","simple_similar","images/stimuli/spore_stims/simple_06_A_d.gif","right","","","","",""
"","null","html-keyboard-response","166","320779","0.0-32.0-0.7","SS1613079998092","","","null","","","","","<p><img src= images/blank.png width =""200"" height = ""200"" style = ""float:right""></p><p><img src=images/blank.png width =""800"" height = ""200""></p>","","","","","","","","","","","",""
"","729.0000002831221","sequential-stimulus-presentation","167","322362","0.0-32.0-1.7","SS1613079998092","trial","","40","800","1529.000000283122","images/stimuli/spore_stims/simple_06_A_d.gif","images/stimuli/spore_stims/simple_06_B_d.gif","","","","","8","simple_similar","images/stimuli/spore_stims/simple_06_B_d.gif","left","","","","",""
"","2436.9999999180436","html-keyboard-response","168","324808","0.0-33.0","SS1613079998092","pref_question","","97","","","","","<video width ='960' height = '540' style='padding-top:8%' autoplay muted><source src='images/stimuli/wall_pref.mp4' type='video/mp4'></video>","1","left","25%","8","","","","","","","",""
"","1930.000000167638","sequential-stimulus-presentation","169","327569","0.0-34.0","SS1613079998092","pref_reveal","","40","800","2730.000000167638","null","null","","","","","8","","","","background","","","",""
"","null","html-keyboard-response","170","328855","0.0-35.0-0.0","SS1613079998092","","","null","","","","","<p><img src= images/blank.png width =""200"" height = ""200"" style = ""float:right""></p><p><img src=images/blank.png width =""800"" height = ""200""></p>","","","","","","","","","","","",""
"","2853.999999817461","sequential-stimulus-presentation","171","332531","0.0-35.0-1.0","SS1613079998092","trial","","40","800","3653.999999817461","images/stimuli/spore_stims/simple_18_B_a.gif","images/stimuli/spore_stims/simple_18_A_a.gif","","","","","9","simple_similar","images/stimuli/spore_stims/simple_18_A_a.gif","left","","","","",""
"","null","html-keyboard-response","172","333751","0.0-35.0-0.1","SS1613079998092","","","null","","","","","<p><img src= images/blank.png width =""200"" height = ""200"" style = ""float:right""></p><p><img src=images/blank.png width =""800"" height = ""200""></p>","","","","","","","","","","","",""
"","1097.9999997653067","sequential-stimulus-presentation","173","335664","0.0-35.0-1.1","SS1613079998092","trial","","40","800","1897.9999997653067","images/stimuli/spore_stims/simple_18_B_a.gif","images/stimuli/spore_stims/simple_18_A_a.gif","","","","","9","simple_similar","images/stimuli/spore_stims/simple_18_A_a.gif","left","","","","",""
"","null","html-keyboard-response","174","336474","0.0-35.0-0.2","SS1613079998092","","","null","","","","","<p><img src= images/blank.png width =""200"" height = ""200"" style = ""float:right""></p><p><img src=images/blank.png width =""800"" height = ""200""></p>","","","","","","","","","","","",""
"","2390.9999998286366","sequential-stimulus-presentation","175","339682","0.0-35.0-1.2","SS1613079998092","trial","","40","800","3190.9999998286366","images/stimuli/spore_stims/simple_18_B_a.gif","images/stimuli/spore_stims/simple_18_A_a.gif","","","","","9","simple_similar","images/stimuli/spore_stims/simple_18_A_a.gif","left","","","","",""
"","null","html-keyboard-response","176","341070","0.0-35.0-0.3","SS1613079998092","","","null","","","","","<p><img src= images/blank.png width =""200"" height = ""200"" style = ""float:right""></p><p><img src=images/blank.png width =""800"" height = ""200""></p>","","","","","","","","","","","",""
"","3527.999999932945","sequential-stimulus-presentation","177","345405","0.0-35.0-1.3","SS1613079998092","trial","","40","800","4327.999999932945","images/stimuli/spore_stims/simple_18_B_a.gif","images/stimuli/spore_stims/simple_18_A_a.gif","","","","","9","simple_similar","images/stimuli/spore_stims/simple_18_A_a.gif","left","","","","",""
"","null","html-keyboard-response","178","346450","0.0-35.0-0.4","SS1613079998092","","","null","","","","","<p><img src= images/blank.png width =""200"" height = ""200"" style = ""float:right""></p><p><img src=images/blank.png width =""800"" height = ""200""></p>","","","","","","","","","","","",""
"","672.9999999515712","sequential-stimulus-presentation","179","347937","0.0-35.0-1.4","SS1613079998092","trial","","40","800","1472.9999999515712","images/stimuli/spore_stims/simple_18_B_a.gif","images/stimuli/spore_stims/simple_18_A_a.gif","","","","","9","simple_similar","images/stimuli/spore_stims/simple_18_A_a.gif","left","","","","",""
"","null","html-keyboard-response","180","348768","0.0-35.0-0.5","SS1613079998092","","","null","","","","","<p><img src= images/blank.png width =""200"" height = ""200"" style = ""float:right""></p><p><img src=images/blank.png width =""800"" height = ""200""></p>","","","","","","","","","","","",""
"","831.9999999366701","sequential-stimulus-presentation","181","350421","0.0-35.0-1.5","SS1613079998092","trial","","40","800","1631.99999993667","images/stimuli/spore_stims/simple_18_B_a.gif","images/stimuli/spore_stims/simple_18_A_a.gif","","","","","9","simple_similar","images/stimuli/spore_stims/simple_18_B_a.gif","right","","","","",""
"","null","html-keyboard-response","182","351456","0.0-35.0-0.6","SS1613079998092","","","null","","","","","<p><img src= images/blank.png width =""200"" height = ""200"" style = ""float:right""></p><p><img src=images/blank.png width =""800"" height = ""200""></p>","","","","","","","","","","","",""
"","836.9999998249114","sequential-stimulus-presentation","183","353111","0.0-35.0-1.6","SS1613079998092","trial","","40","800","1636.9999998249114","images/stimuli/spore_stims/simple_18_B_a.gif","images/stimuli/spore_stims/simple_18_A_a.gif","","","","","9","simple_similar","images/stimuli/spore_stims/simple_18_A_a.gif","left","","","","",""
"","null","html-keyboard-response","184","354183","0.0-35.0-0.7","SS1613079998092","","","null","","","","","<p><img src= images/blank.png width =""200"" height = ""200"" style = ""float:right""></p><p><img src=images/blank.png width =""800"" height = ""200""></p>","","","","","","","","","","","",""
"","615.0000002235174","sequential-stimulus-presentation","185","355613","0.0-35.0-1.7","SS1613079998092","trial","","40","800","1415.0000002235174","images/stimuli/spore_stims/simple_18_B_a.gif","images/stimuli/spore_stims/simple_18_A_a.gif","","","","","9","simple_similar","images/stimuli/spore_stims/simple_18_A_a.gif","left","","","","",""
"","1537.9999997094274","html-keyboard-response","186","357158","0.0-36.0","SS1613079998092","pref_question","","98","","","","","<video width ='960' height = '540' style='padding-top:8%' autoplay muted><source src='images/stimuli/wall_pref.mp4' type='video/mp4'></video>","2","middle","45%","9","","","","","","","",""
"","461.00000012665987","sequential-stimulus-presentation","187","358440","0.0-37.0","SS1613079998092","pref_reveal","","40","800","1261.0000001266599","null","null","","","","","9","","","","novel","","","",""
"","null","html-keyboard-response","188","359573","0.0-38.0-0.0","SS1613079998092","","","null","","","","","<p><img src= images/blank.png width =""200"" height = ""200"" style = ""float:right""></p><p><img src=images/blank.png width =""800"" height = ""200""></p>","","","","","","","","","","","",""
"","538.0000001750886","sequential-stimulus-presentation","189","360930","0.0-38.0-1.0","SS1613079998092","trial","","40","800","1338.0000001750886","images/stimuli/spore_stims/simple_10_A_a.gif","images/stimuli/spore_stims/simple_09_B_a.gif","","","","","10","simple_dissimilar","images/stimuli/spore_stims/simple_09_B_a.gif","middle","","","","",""
"","null","html-keyboard-response","190","362068","0.0-38.0-0.1","SS1613079998092","","","null","","","","","<p><img src= images/blank.png width =""200"" height = ""200"" style = ""float:right""></p><p><img src=images/blank.png width =""800"" height = ""200""></p>","","","","","","","","","","","",""
"","1136.9999996386468","sequential-stimulus-presentation","191","364070","0.0-38.0-1.1","SS1613079998092","trial","","40","800","1936.9999996386468","images/stimuli/spore_stims/simple_10_A_a.gif","images/stimuli/spore_stims/simple_09_B_a.gif","","","","","10","simple_dissimilar","images/stimuli/spore_stims/simple_09_B_a.gif","middle","","","","",""
"","null","html-keyboard-response","192","365218","0.0-38.0-0.2","SS1613079998092","","","null","","","","","<p><img src= images/blank.png width =""200"" height = ""200"" style = ""float:right""></p><p><img src=images/blank.png width =""800"" height = ""200""></p>","","","","","","","","","","","",""
"","921.000000089407","sequential-stimulus-presentation","193","366981","0.0-38.0-1.2","SS1613079998092","trial","","40","800","1721.000000089407","images/stimuli/spore_stims/simple_10_A_a.gif","images/stimuli/spore_stims/simple_09_B_a.gif","","","","","10","simple_dissimilar","images/stimuli/spore_stims/simple_09_B_a.gif","middle","","","","",""
"","null","html-keyboard-response","194","368181","0.0-38.0-0.3","SS1613079998092","","","null","","","","","<p><img src= images/blank.png width =""200"" height = ""200"" style = ""float:right""></p><p><img src=images/blank.png width =""800"" height = ""200""></p>","","","","","","","","","","","",""
"","3472.9999997653067","sequential-stimulus-presentation","195","372476","0.0-38.0-1.3","SS1613079998092","trial","","40","800","4272.999999765307","images/stimuli/spore_stims/simple_10_A_a.gif","images/stimuli/spore_stims/simple_09_B_a.gif","","","","","10","simple_dissimilar","images/stimuli/spore_stims/simple_09_B_a.gif","middle","","","","",""
"","null","html-keyboard-response","196","373309","0.0-38.0-0.4","SS1613079998092","","","null","","","","","<p><img src= images/blank.png width =""200"" height = ""200"" style = ""float:right""></p><p><img src=images/blank.png width =""800"" height = ""200""></p>","","","","","","","","","","","",""
"","4.000000189989805","sequential-stimulus-presentation","197","374129","0.0-38.0-1.4","SS1613079998092","trial","","40","800","804.0000001899898","images/stimuli/spore_stims/simple_10_A_a.gif","images/stimuli/spore_stims/simple_09_B_a.gif","","","","","10","simple_dissimilar","images/stimuli/spore_stims/simple_09_B_a.gif","middle","","","","",""
"","null","html-keyboard-response","198","375018","0.0-38.0-0.5","SS1613079998092","","","null","","","","","<p><img src= images/blank.png width =""200"" height = ""200"" style = ""float:right""></p><p><img src=images/blank.png width =""800"" height = ""200""></p>","","","","","","","","","","","",""
"","719.0000000409782","sequential-stimulus-presentation","199","376568","0.0-38.0-1.5","SS1613079998092","trial","","40","800","1519.0000000409782","images/stimuli/spore_stims/simple_10_A_a.gif","images/stimuli/spore_stims/simple_09_B_a.gif","","","","","10","simple_dissimilar","images/stimuli/spore_stims/simple_10_A_a.gif","left","","","","",""
"","null","html-keyboard-response","200","377451","0.0-38.0-0.6","SS1613079998092","","","null","","","","","<p><img src= images/blank.png width =""200"" height = ""200"" style = ""float:right""></p><p><img src=images/blank.png width =""800"" height = ""200""></p>","","","","","","","","","","","",""
"","575.999999884516","sequential-stimulus-presentation","201","378841","0.0-38.0-1.6","SS1613079998092","trial","","40","800","1375.999999884516","images/stimuli/spore_stims/simple_10_A_a.gif","images/stimuli/spore_stims/simple_09_B_a.gif","","","","","10","simple_dissimilar","images/stimuli/spore_stims/simple_09_B_a.gif","middle","","","","",""
"","null","html-keyboard-response","202","380064","0.0-38.0-0.7","SS1613079998092","","","null","","","","","<p><img src= images/blank.png width =""200"" height = ""200"" style = ""float:right""></p><p><img src=images/blank.png width =""800"" height = ""200""></p>","","","","","","","","","","","",""
"","547.9999999515712","sequential-stimulus-presentation","203","381423","0.0-38.0-1.7","SS1613079998092","trial","","40","800","1347.9999999515712","images/stimuli/spore_stims/simple_10_A_a.gif","images/stimuli/spore_stims/simple_09_B_a.gif","","","","","10","simple_dissimilar","images/stimuli/spore_stims/simple_09_B_a.gif","middle","","","","",""
"","1450.999999884516","html-keyboard-response","204","382883","0.0-39.0","SS1613079998092","pref_question","","97","","","","","<video width ='960' height = '540' style='padding-top:8%' autoplay muted><source src='images/stimuli/wall_pref.mp4' type='video/mp4'></video>","1","left","25%","10","","","","","","","",""
"","75.999999884516","sequential-stimulus-presentation","205","383766","0.0-40.0","SS1613079998092","pref_reveal","","40","800","875.999999884516","null","null","","","","","10","","","","deviant","","","",""
"","null","html-keyboard-response","206","384789","0.0-41.0-0.0","SS1613079998092","","","null","","","","","<p><img src= images/blank.png width =""200"" height = ""200"" style = ""float:right""></p><p><img src=images/blank.png width =""800"" height = ""200""></p>","","","","","","","","","","","",""
"","514.9999996647239","sequential-stimulus-presentation","207","386144","0.0-41.0-1.0","SS1613079998092","trial","","40","800","1314.9999996647239","images/stimuli/spore_stims/complex_20_A_c.gif","images/stimuli/spore_stims/complex_05_B_d.gif","","","","","11","complex_dissimilar","images/stimuli/spore_stims/complex_05_B_d.gif","middle","","","","",""
"","null","html-keyboard-response","208","387294","0.0-41.0-0.1","SS1613079998092","","","null","","","","","<p><img src= images/blank.png width =""200"" height = ""200"" style = ""float:right""></p><p><img src=images/blank.png width =""800"" height = ""200""></p>","","","","","","","","","","","",""
"","1348.9999999292195","sequential-stimulus-presentation","209","389469","0.0-41.0-1.1","SS1613079998092","trial","","40","800","2148.9999999292195","images/stimuli/spore_stims/complex_20_A_c.gif","images/stimuli/spore_stims/complex_05_B_d.gif","","","","","11","complex_dissimilar","images/stimuli/spore_stims/complex_05_B_d.gif","middle","","","","",""
"","null","html-keyboard-response","210","390302","0.0-41.0-0.2","SS1613079998092","","","null","","","","","<p><img src= images/blank.png width =""200"" height = ""200"" style = ""float:right""></p><p><img src=images/blank.png width =""800"" height = ""200""></p>","","","","","","","","","","","",""
"","1523.999999742955","sequential-stimulus-presentation","211","392637","0.0-41.0-1.2","SS1613079998092","trial","","40","800","2323.999999742955","images/stimuli/spore_stims/complex_20_A_c.gif","images/stimuli/spore_stims/complex_05_B_d.gif","","","","","11","complex_dissimilar","images/stimuli/spore_stims/complex_05_B_d.gif","middle","","","","",""
"","null","html-keyboard-response","212","393853","0.0-41.0-0.3","SS1613079998092","","","null","","","","","<p><img src= images/blank.png width =""200"" height = ""200"" style = ""float:right""></p><p><img src=images/blank.png width =""800"" height = ""200""></p>","","","","","","","","","","","",""
"","3023.0000000447035","sequential-stimulus-presentation","213","397691","0.0-41.0-1.3","SS1613079998092","trial","","40","800","3823.0000000447035","images/stimuli/spore_stims/complex_20_A_c.gif","images/stimuli/spore_stims/complex_05_B_d.gif","","","","","11","complex_dissimilar","images/stimuli/spore_stims/complex_05_B_d.gif","middle","","","","",""
"","null","html-keyboard-response","214","398719","0.0-41.0-0.4","SS1613079998092","","","null","","","","","<p><img src= images/blank.png width =""200"" height = ""200"" style = ""float:right""></p><p><img src=images/blank.png width =""800"" height = ""200""></p>","","","","","","","","","","","",""
"","814.0000002458692","sequential-stimulus-presentation","215","400375","0.0-41.0-1.4","SS1613079998092","trial","","40","800","1614.0000002458692","images/stimuli/spore_stims/complex_20_A_c.gif","images/stimuli/spore_stims/complex_05_B_d.gif","","","","","11","complex_dissimilar","images/stimuli/spore_stims/complex_20_A_c.gif","right","","","","",""
"","null","html-keyboard-response","216","401321","0.0-41.0-0.5","SS1613079998092","","","null","","","","","<p><img src= images/blank.png width =""200"" height = ""200"" style = ""float:right""></p><p><img src=images/blank.png width =""800"" height = ""200""></p>","","","","","","","","","","","",""
"","3308.000000193715","sequential-stimulus-presentation","217","405445","0.0-41.0-1.5","SS1613079998092","trial","","40","800","4108.000000193715","images/stimuli/spore_stims/complex_20_A_c.gif","images/stimuli/spore_stims/complex_05_B_d.gif","","","","","11","complex_dissimilar","images/stimuli/spore_stims/complex_05_B_d.gif","middle","","","","",""
"","null","html-keyboard-response","218","406751","0.0-41.0-0.6","SS1613079998092","","","null","","","","","<p><img src= images/blank.png width =""200"" height = ""200"" style = ""float:right""></p><p><img src=images/blank.png width =""800"" height = ""200""></p>","","","","","","","","","","","",""
"","217.00000017881393","sequential-stimulus-presentation","219","407781","0.0-41.0-1.6","SS1613079998092","trial","","40","800","1017.0000001788139","images/stimuli/spore_stims/complex_20_A_c.gif","images/stimuli/spore_stims/complex_05_B_d.gif","","","","","11","complex_dissimilar","images/stimuli/spore_stims/complex_05_B_d.gif","middle","","","","",""
"","null","html-keyboard-response","220","408771","0.0-41.0-0.7","SS1613079998092","","","null","","","","","<p><img src= images/blank.png width =""200"" height = ""200"" style = ""float:right""></p><p><img src=images/blank.png width =""800"" height = ""200""></p>","","","","","","","","","","","",""
"","1.0000001639127731","sequential-stimulus-presentation","221","409588","0.0-41.0-1.7","SS1613079998092","trial","","40","800","801.0000001639128","images/stimuli/spore_stims/complex_20_A_c.gif","images/stimuli/spore_stims/complex_05_B_d.gif","","","","","11","complex_dissimilar","images/stimuli/spore_stims/complex_05_B_d.gif","middle","","","","",""
"","50320.999999996275","html-keyboard-response","222","459922","0.0-42.0","SS1613079998092","pref_question","","98","","","","","<video width ='960' height = '540' style='padding-top:8%' autoplay muted><source src='images/stimuli/wall_pref.mp4' type='video/mp4'></video>","2","middle","45%","11","","","","","","","",""
"","1271.0000001825392","sequential-stimulus-presentation","223","462001","0.0-43.0","SS1613079998092","pref_reveal","","40","800","2071.000000182539","null","null","","","","","11","","","","background","","","",""
"","null","html-keyboard-response","224","463141","0.0-44.0-0.0","SS1613079998092","","","null","","","","","<p><img src= images/blank.png width =""200"" height = ""200"" style = ""float:right""></p><p><img src=images/blank.png width =""800"" height = ""200""></p>","","","","","","","","","","","",""
"","7060.000000055879","sequential-stimulus-presentation","225","471016","0.0-44.0-1.0","SS1613079998092","trial","","40","800","7860.000000055879","images/stimuli/spore_stims/simple_13_B_d.gif","images/stimuli/spore_stims/simple_13_A_d.gif","","","","","12","simple_similar","images/stimuli/spore_stims/simple_13_A_d.gif","right","","","","",""
"","null","html-keyboard-response","226","472188","0.0-44.0-0.1","SS1613079998092","","","null","","","","","<p><img src= images/blank.png width =""200"" height = ""200"" style = ""float:right""></p><p><img src=images/blank.png width =""800"" height = ""200""></p>","","","","","","","","","","","",""
"","248.00000013783574","sequential-stimulus-presentation","227","473247","0.0-44.0-1.1","SS1613079998092","trial","","40","800","1048.0000001378357","images/stimuli/spore_stims/simple_13_B_d.gif","images/stimuli/spore_stims/simple_13_A_d.gif","","","","","12","simple_similar","images/stimuli/spore_stims/simple_13_A_d.gif","right","","","","",""
"","null","html-keyboard-response","228","474268","0.0-44.0-0.2","SS1613079998092","","","null","","","","","<p><img src= images/blank.png width =""200"" height = ""200"" style = ""float:right""></p><p><img src=images/blank.png width =""800"" height = ""200""></p>","","","","","","","","","","","",""
"","498.9999998360872","sequential-stimulus-presentation","229","475588","0.0-44.0-1.2","SS1613079998092","trial","","40","800","1298.9999998360872","images/stimuli/spore_stims/simple_13_B_d.gif","images/stimuli/spore_stims/simple_13_A_d.gif","","","","","12","simple_similar","images/stimuli/spore_stims/simple_13_B_d.gif","left","","","","",""
"","null","html-keyboard-response","230","476885","0.0-44.0-0.3","SS1613079998092","","","null","","","","","<p><img src= images/blank.png width =""200"" height = ""200"" style = ""float:right""></p><p><img src=images/blank.png width =""800"" height = ""200""></p>","","","","","","","","","","","",""
"","1623.0000001378357","sequential-stimulus-presentation","231","479324","0.0-44.0-1.3","SS1613079998092","trial","","40","800","2423.0000001378357","images/stimuli/spore_stims/simple_13_B_d.gif","images/stimuli/spore_stims/simple_13_A_d.gif","","","","","12","simple_similar","images/stimuli/spore_stims/simple_13_A_d.gif","right","","","","",""
"","null","html-keyboard-response","232","480558","0.0-44.0-0.4","SS1613079998092","","","null","","","","","<p><img src= images/blank.png width =""200"" height = ""200"" style = ""float:right""></p><p><img src=images/blank.png width =""800"" height = ""200""></p>","","","","","","","","","","","",""
"","587.0000002905726","sequential-stimulus-presentation","233","481961","0.0-44.0-1.4","SS1613079998092","trial","","40","800","1387.0000002905726","images/stimuli/spore_stims/simple_13_B_d.gif","images/stimuli/spore_stims/simple_13_A_d.gif","","","","","12","simple_similar","images/stimuli/spore_stims/simple_13_A_d.gif","right","","","","",""
"","null","html-keyboard-response","234","483082","0.0-44.0-0.5","SS1613079998092","","","null","","","","","<p><img src= images/blank.png width =""200"" height = ""200"" style = ""float:right""></p><p><img src=images/blank.png width =""800"" height = ""200""></p>","","","","","","","","","","","",""
"","388.9999999664724","sequential-stimulus-presentation","235","484280","0.0-44.0-1.5","SS1613079998092","trial","","40","800","1188.9999999664724","images/stimuli/spore_stims/simple_13_B_d.gif","images/stimuli/spore_stims/simple_13_A_d.gif","","","","","12","simple_similar","images/stimuli/spore_stims/simple_13_A_d.gif","right","","","","",""
"","null","html-keyboard-response","236","485115","0.0-44.0-0.6","SS1613079998092","","","null","","","","","<p><img src= images/blank.png width =""200"" height = ""200"" style = ""float:right""></p><p><img src=images/blank.png width =""800"" height = ""200""></p>","","","","","","","","","","","",""
"","601.000000257045","sequential-stimulus-presentation","237","486527","0.0-44.0-1.6","SS1613079998092","trial","","40","800","1401.000000257045","images/stimuli/spore_stims/simple_13_B_d.gif","images/stimuli/spore_stims/simple_13_A_d.gif","","","","","12","simple_similar","images/stimuli/spore_stims/simple_13_A_d.gif","right","","","","",""
"","null","html-keyboard-response","238","487482","0.0-44.0-0.7","SS1613079998092","","","null","","","","","<p><img src= images/blank.png width =""200"" height = ""200"" style = ""float:right""></p><p><img src=images/blank.png width =""800"" height = ""200""></p>","","","","","","","","","","","",""
"","964.9999998509884","sequential-stimulus-presentation","239","489291","0.0-44.0-1.7","SS1613079998092","trial","","40","800","1764.9999998509884","images/stimuli/spore_stims/simple_13_B_d.gif","images/stimuli/spore_stims/simple_13_A_d.gif","","","","","12","simple_similar","images/stimuli/spore_stims/simple_13_A_d.gif","right","","","","",""
"","2274.0000002086163","html-keyboard-response","240","491580","0.0-45.0","SS1613079998092","pref_question","","98","","","","","<video width ='960' height = '540' style='padding-top:8%' autoplay muted><source src='images/stimuli/wall_pref.mp4' type='video/mp4'></video>","2","middle","45%","12","","","","","","","",""
"","399.00000020861626","sequential-stimulus-presentation","241","492797","0.0-46.0","SS1613079998092","pref_reveal","","40","800","1199.0000002086163","null","null","","","","","12","","","","novel","","","",""
"","null","html-keyboard-response","242","493939","0.0-47.0-0.0","SS1613079998092","","","null","","","","","<p><img src= images/blank.png width =""200"" height = ""200"" style = ""float:right""></p><p><img src=images/blank.png width =""800"" height = ""200""></p>","","","","","","","","","","","",""
"","387.0000001043081","sequential-stimulus-presentation","243","495155","0.0-47.0-1.0","SS1613079998092","trial","","40","800","1187.0000001043081","images/stimuli/spore_stims/complex_07_A_a.gif","images/stimuli/spore_stims/complex_07_B_a.gif","","","","","13","complex_similar","images/stimuli/spore_stims/complex_07_B_a.gif","left","","","","",""
"","null","html-keyboard-response","244","495972","0.0-47.0-0.1","SS1613079998092","","","null","","","","","<p><img src= images/blank.png width =""200"" height = ""200"" style = ""float:right""></p><p><img src=images/blank.png width =""800"" height = ""200""></p>","","","","","","","","","","","",""
"","657.9999998211861","sequential-stimulus-presentation","245","497447","0.0-47.0-1.1","SS1613079998092","trial","","40","800","1457.999999821186","images/stimuli/spore_stims/complex_07_A_a.gif","images/stimuli/spore_stims/complex_07_B_a.gif","","","","","13","complex_similar","images/stimuli/spore_stims/complex_07_B_a.gif","left","","","","",""
"","null","html-keyboard-response","246","498752","0.0-47.0-0.2","SS1613079998092","","","null","","","","","<p><img src= images/blank.png width =""200"" height = ""200"" style = ""float:right""></p><p><img src=images/blank.png width =""800"" height = ""200""></p>","","","","","","","","","","","",""
"","800.9999999776483","sequential-stimulus-presentation","247","500367","0.0-47.0-1.2","SS1613079998092","trial","","40","800","1600.9999999776483","images/stimuli/spore_stims/complex_07_A_a.gif","images/stimuli/spore_stims/complex_07_B_a.gif","","","","","13","complex_similar","images/stimuli/spore_stims/complex_07_B_a.gif","left","","","","",""
"","null","html-keyboard-response","248","501572","0.0-47.0-0.3","SS1613079998092","","","null","","","","","<p><img src= images/blank.png width =""200"" height = ""200"" style = ""float:right""></p><p><img src=images/blank.png width =""800"" height = ""200""></p>","","","","","","","","","","","",""
"","603.0000001192093","sequential-stimulus-presentation","249","502985","0.0-47.0-1.3","SS1613079998092","trial","","40","800","1403.0000001192093","images/stimuli/spore_stims/complex_07_A_a.gif","images/stimuli/spore_stims/complex_07_B_a.gif","","","","","13","complex_similar","images/stimuli/spore_stims/complex_07_B_a.gif","left","","","","",""
"","null","html-keyboard-response","250","504292","0.0-47.0-0.4","SS1613079998092","","","null","","","","","<p><img src= images/blank.png width =""200"" height = ""200"" style = ""float:right""></p><p><img src=images/blank.png width =""800"" height = ""200""></p>","","","","","","","","","","","",""
"","3890.000000130385","sequential-stimulus-presentation","251","509024","0.0-47.0-1.4","SS1613079998092","trial","","40","800","4690.000000130385","images/stimuli/spore_stims/complex_07_A_a.gif","images/stimuli/spore_stims/complex_07_B_a.gif","","","","","13","complex_similar","images/stimuli/spore_stims/complex_07_A_a.gif","middle","","","","",""
"","null","html-keyboard-response","252","510147","0.0-47.0-0.5","SS1613079998092","","","null","","","","","<p><img src= images/blank.png width =""200"" height = ""200"" style = ""float:right""></p><p><img src=images/blank.png width =""800"" height = ""200""></p>","","","","","","","","","","","",""
"","2341.000000014901","sequential-stimulus-presentation","253","513305","0.0-47.0-1.5","SS1613079998092","trial","","40","800","3141.000000014901","images/stimuli/spore_stims/complex_07_A_a.gif","images/stimuli/spore_stims/complex_07_B_a.gif","","","","","13","complex_similar","images/stimuli/spore_stims/complex_07_B_a.gif","left","","","","",""
"","null","html-keyboard-response","254","514367","0.0-47.0-0.6","SS1613079998092","","","null","","","","","<p><img src= images/blank.png width =""200"" height = ""200"" style = ""float:right""></p><p><img src=images/blank.png width =""800"" height = ""200""></p>","","","","","","","","","","","",""
"","7356.999999843538","sequential-stimulus-presentation","255","522540","0.0-47.0-1.6","SS1613079998092","trial","","40","800","8156.999999843538","images/stimuli/spore_stims/complex_07_A_a.gif","images/stimuli/spore_stims/complex_07_B_a.gif","","","","","13","complex_similar","images/stimuli/spore_stims/complex_07_B_a.gif","left","","","","",""
"","null","html-keyboard-response","256","523377","0.0-47.0-0.7","SS1613079998092","","","null","","","","","<p><img src= images/blank.png width =""200"" height = ""200"" style = ""float:right""></p><p><img src=images/blank.png width =""800"" height = ""200""></p>","","","","","","","","","","","",""
"","2889.999999664724","sequential-stimulus-presentation","257","527084","0.0-47.0-1.7","SS1613079998092","trial","","40","800","3689.999999664724","images/stimuli/spore_stims/complex_07_A_a.gif","images/stimuli/spore_stims/complex_07_B_a.gif","","","","","13","complex_similar","images/stimuli/spore_stims/complex_07_B_a.gif","left","","","","",""
"","9300.999999977648","html-keyboard-response","258","536394","0.0-48.0","SS1613079998092","pref_question","","98","","","","","<video width ='960' height = '540' style='padding-top:8%' autoplay muted><source src='images/stimuli/wall_pref.mp4' type='video/mp4'></video>","2","middle","45%","13","","","","","","","",""
"","850.0000000931323","sequential-stimulus-presentation","259","538063","0.0-49.0","SS1613079998092","pref_reveal","","40","800","1650.0000000931323","null","null","","","","","13","","","","deviant","","","",""
"","null","html-keyboard-response","260","538984","0.0-50.0-0.0","SS1613079998092","","","null","","","","","<p><img src= images/blank.png width =""200"" height = ""200"" style = ""float:right""></p><p><img src=images/blank.png width =""800"" height = ""200""></p>","","","","","","","","","","","",""
"","1760.9999999403954","sequential-stimulus-presentation","261","541599","0.0-50.0-1.0","SS1613079998092","trial","","40","800","2560.9999999403954","images/stimuli/spore_stims/complex_08_A_d.gif","images/stimuli/spore_stims/complex_04_B_c.gif","","","","","14","complex_dissimilar","images/stimuli/spore_stims/complex_04_B_c.gif","middle","","","","",""
"","null","html-keyboard-response","262","542767","0.0-50.0-0.1","SS1613079998092","","","null","","","","","<p><img src= images/blank.png width =""200"" height = ""200"" style = ""float:right""></p><p><img src=images/blank.png width =""800"" height = ""200""></p>","","","","","","","","","","","",""
"","1512.9999998025596","sequential-stimulus-presentation","263","545125","0.0-50.0-1.1","SS1613079998092","trial","","40","800","2312.9999998025596","images/stimuli/spore_stims/complex_08_A_d.gif","images/stimuli/spore_stims/complex_04_B_c.gif","","","","","14","complex_dissimilar","images/stimuli/spore_stims/complex_04_B_c.gif","middle","","","","",""
"","null","html-keyboard-response","264","546390","0.0-50.0-0.2","SS1613079998092","","","null","","","","","<p><img src= images/blank.png width =""200"" height = ""200"" style = ""float:right""></p><p><img src=images/blank.png width =""800"" height = ""200""></p>","","","","","","","","","","","",""
"","942.0000002719462","sequential-stimulus-presentation","265","548140","0.0-50.0-1.2","SS1613079998092","trial","","40","800","1742.0000002719462","images/stimuli/spore_stims/complex_08_A_d.gif","images/stimuli/spore_stims/complex_04_B_c.gif","","","","","14","complex_dissimilar","images/stimuli/spore_stims/complex_04_B_c.gif","middle","","","","",""
"","null","html-keyboard-response","266","549149","0.0-50.0-0.3","SS1613079998092","","","null","","","","","<p><img src= images/blank.png width =""200"" height = ""200"" style = ""float:right""></p><p><img src=images/blank.png width =""800"" height = ""200""></p>","","","","","","","","","","","",""
"","308.9999998919666","sequential-stimulus-presentation","267","550277","0.0-50.0-1.3","SS1613079998092","trial","","40","800","1108.9999998919666","images/stimuli/spore_stims/complex_08_A_d.gif","images/stimuli/spore_stims/complex_04_B_c.gif","","","","","14","complex_dissimilar","images/stimuli/spore_stims/complex_04_B_c.gif","middle","","","","",""
"","null","html-keyboard-response","268","551103","0.0-50.0-0.4","SS1613079998092","","","null","","","","","<p><img src= images/blank.png width =""200"" height = ""200"" style = ""float:right""></p><p><img src=images/blank.png width =""800"" height = ""200""></p>","","","","","","","","","","","",""
"","677.000000141561","sequential-stimulus-presentation","269","552597","0.0-50.0-1.4","SS1613079998092","trial","","40","800","1477.000000141561","images/stimuli/spore_stims/complex_08_A_d.gif","images/stimuli/spore_stims/complex_04_B_c.gif","","","","","14","complex_dissimilar","images/stimuli/spore_stims/complex_04_B_c.gif","middle","","","","",""
"","null","html-keyboard-response","270","553664","0.0-50.0-0.5","SS1613079998092","","","null","","","","","<p><img src= images/blank.png width =""200"" height = ""200"" style = ""float:right""></p><p><img src=images/blank.png width =""800"" height = ""200""></p>","","","","","","","","","","","",""
"","6.000000052154064","sequential-stimulus-presentation","271","554479","0.0-50.0-1.5","SS1613079998092","trial","","40","800","806.0000000521541","images/stimuli/spore_stims/complex_08_A_d.gif","images/stimuli/spore_stims/complex_04_B_c.gif","","","","","14","complex_dissimilar","images/stimuli/spore_stims/complex_04_B_c.gif","middle","","","","",""
"","null","html-keyboard-response","272","555782","0.0-50.0-0.6","SS1613079998092","","","null","","","","","<p><img src= images/blank.png width =""200"" height = ""200"" style = ""float:right""></p><p><img src=images/blank.png width =""800"" height = ""200""></p>","","","","","","","","","","","",""
"","958.9999997988343","sequential-stimulus-presentation","273","557574","0.0-50.0-1.6","SS1613079998092","trial","","40","800","1758.9999997988343","images/stimuli/spore_stims/complex_08_A_d.gif","images/stimuli/spore_stims/complex_04_B_c.gif","","","","","14","complex_dissimilar","images/stimuli/spore_stims/complex_08_A_d.gif","left","","","","",""
"","null","html-keyboard-response","274","558686","0.0-50.0-0.7","SS1613079998092","","","null","","","","","<p><img src= images/blank.png width =""200"" height = ""200"" style = ""float:right""></p><p><img src=images/blank.png width =""800"" height = ""200""></p>","","","","","","","","","","","",""
"","1253.000000026077","sequential-stimulus-presentation","275","560751","0.0-50.0-1.7","SS1613079998092","trial","","40","800","2053.000000026077","images/stimuli/spore_stims/complex_08_A_d.gif","images/stimuli/spore_stims/complex_04_B_c.gif","","","","","14","complex_dissimilar","images/stimuli/spore_stims/complex_04_B_c.gif","middle","","","","",""
"","2658.999999985099","html-keyboard-response","276","563421","0.0-51.0","SS1613079998092","pref_question","","98","","","","","<video width ='960' height = '540' style='padding-top:8%' autoplay muted><source src='images/stimuli/wall_pref.mp4' type='video/mp4'></video>","2","middle","45%","14","","","","","","","",""
"","604.9999999813735","sequential-stimulus-presentation","277","564841","0.0-52.0","SS1613079998092","pref_reveal","","40","800","1404.9999999813735","null","null","","","","","14","","","","background","","","",""
"","null","html-keyboard-response","278","566134","0.0-53.0-0.0","SS1613079998092","","","null","","","","","<p><img src= images/blank.png width =""200"" height = ""200"" style = ""float:right""></p><p><img src=images/blank.png width =""800"" height = ""200""></p>","","","","","","","","","","","",""
"","7195.999999996275","sequential-stimulus-presentation","279","574182","0.0-53.0-1.0","SS1613079998092","trial","","40","800","7995.999999996275","images/stimuli/spore_stims/complex_17_B_b.gif","images/stimuli/spore_stims/complex_17_A_b.gif","","","","","15","complex_similar","images/stimuli/spore_stims/complex_17_A_b.gif","right","","","","",""
"","null","html-keyboard-response","280","575464","0.0-53.0-0.1","SS1613079998092","","","null","","","","","<p><img src= images/blank.png width =""200"" height = ""200"" style = ""float:right""></p><p><img src=images/blank.png width =""800"" height = ""200""></p>","","","","","","","","","","","",""
"","3976.9999999552965","sequential-stimulus-presentation","281","580266","0.0-53.0-1.1","SS1613079998092","trial","","40","800","4776.9999999552965","images/stimuli/spore_stims/complex_17_B_b.gif","images/stimuli/spore_stims/complex_17_A_b.gif","","","","","15","complex_similar","images/stimuli/spore_stims/complex_17_A_b.gif","right","","","","",""
"","null","html-keyboard-response","282","581517","0.0-53.0-0.2","SS1613079998092","","","null","","","","","<p><img src= images/blank.png width =""200"" height = ""200"" style = ""float:right""></p><p><img src=images/blank.png width =""800"" height = ""200""></p>","","","","","","","","","","","",""
"","180.00000016763806","sequential-stimulus-presentation","283","582514","0.0-53.0-1.2","SS1613079998092","trial","","40","800","980.0000001676381","images/stimuli/spore_stims/complex_17_B_b.gif","images/stimuli/spore_stims/complex_17_A_b.gif","","","","","15","complex_similar","images/stimuli/spore_stims/complex_17_A_b.gif","right","","","","",""
"","null","html-keyboard-response","284","583345","0.0-53.0-0.3","SS1613079998092","","","null","","","","","<p><img src= images/blank.png width =""200"" height = ""200"" style = ""float:right""></p><p><img src=images/blank.png width =""800"" height = ""200""></p>","","","","","","","","","","","",""
"","7580.000000074506","sequential-stimulus-presentation","285","591735","0.0-53.0-1.3","SS1613079998092","trial","","40","800","8380.000000074506","images/stimuli/spore_stims/complex_17_B_b.gif","images/stimuli/spore_stims/complex_17_A_b.gif","","","","","15","complex_similar","images/stimuli/spore_stims/complex_17_A_b.gif","right","","","","",""
"","null","html-keyboard-response","286","592917","0.0-53.0-0.4","SS1613079998092","","","null","","","","","<p><img src= images/blank.png width =""200"" height = ""200"" style = ""float:right""></p><p><img src=images/blank.png width =""800"" height = ""200""></p>","","","","","","","","","","","",""
"","3402.999999932945","sequential-stimulus-presentation","287","597137","0.0-53.0-1.4","SS1613079998092","trial","","40","800","4202.999999932945","images/stimuli/spore_stims/complex_17_B_b.gif","images/stimuli/spore_stims/complex_17_A_b.gif","","","","","15","complex_similar","images/stimuli/spore_stims/complex_17_A_b.gif","right","","","","",""
"","null","html-keyboard-response","288","598103","0.0-53.0-0.5","SS1613079998092","","","null","","","","","<p><img src= images/blank.png width =""200"" height = ""200"" style = ""float:right""></p><p><img src=images/blank.png width =""800"" height = ""200""></p>","","","","","","","","","","","",""
"","1285.0000001490116","sequential-stimulus-presentation","289","600223","0.0-53.0-1.5","SS1613079998092","trial","","40","800","2085.0000001490116","images/stimuli/spore_stims/complex_17_B_b.gif","images/stimuli/spore_stims/complex_17_A_b.gif","","","","","15","complex_similar","images/stimuli/spore_stims/complex_17_B_b.gif","left","","","","",""
"","null","html-keyboard-response","290","601132","0.0-53.0-0.6","SS1613079998092","","","null","","","","","<p><img src= images/blank.png width =""200"" height = ""200"" style = ""float:right""></p><p><img src=images/blank.png width =""800"" height = ""200""></p>","","","","","","","","","","","",""
"","5065.999999642372","sequential-stimulus-presentation","291","607011","0.0-53.0-1.6","SS1613079998092","trial","","40","800","5865.999999642372","images/stimuli/spore_stims/complex_17_B_b.gif","images/stimuli/spore_stims/complex_17_A_b.gif","","","","","15","complex_similar","images/stimuli/spore_stims/complex_17_A_b.gif","right","","","","",""
"","null","html-keyboard-response","292","608026","0.0-53.0-0.7","SS1613079998092","","","null","","","","","<p><img src= images/blank.png width =""200"" height = ""200"" style = ""float:right""></p><p><img src=images/blank.png width =""800"" height = ""200""></p>","","","","","","","","","","","",""
"","984.0000001713634","sequential-stimulus-presentation","293","609824","0.0-53.0-1.7","SS1613079998092","trial","","40","800","1784.0000001713634","images/stimuli/spore_stims/complex_17_B_b.gif","images/stimuli/spore_stims/complex_17_A_b.gif","","","","","15","complex_similar","images/stimuli/spore_stims/complex_17_A_b.gif","right","","","","",""
"","2171.000000089407","html-keyboard-response","294","612007","0.0-54.0","SS1613079998092","pref_question","","98","","","","","<video width ='960' height = '540' style='padding-top:8%' autoplay muted><source src='images/stimuli/wall_pref.mp4' type='video/mp4'></video>","2","middle","45%","15","","","","","","","",""
"","624.0000003017485","sequential-stimulus-presentation","295","613464","0.0-55.0","SS1613079998092","pref_reveal","","40","800","1424.0000003017485","null","null","","","","","15","","","","novel","","","",""
"","null","html-keyboard-response","296","614308","0.0-56.0-0.0","SS1613079998092","","","null","","","","","<p><img src= images/blank.png width =""200"" height = ""200"" style = ""float:right""></p><p><img src=images/blank.png width =""800"" height = ""200""></p>","","","","","","","","","","","",""
"","765.0000001303852","sequential-stimulus-presentation","297","615882","0.0-56.0-1.0","SS1613079998092","trial","","40","800","1565.0000001303852","images/stimuli/spore_stims/simple_11_B_a.gif","images/stimuli/spore_stims/simple_11_A_a.gif","","","","","16","simple_similar","images/stimuli/spore_stims/simple_11_A_a.gif","right","","","","",""
"","null","html-keyboard-response","298","616819","0.0-56.0-0.1","SS1613079998092","","","null","","","","","<p><img src= images/blank.png width =""200"" height = ""200"" style = ""float:right""></p><p><img src=images/blank.png width =""800"" height = ""200""></p>","","","","","","","","","","","",""
"","2771.000000182539","sequential-stimulus-presentation","299","620409","0.0-56.0-1.1","SS1613079998092","trial","","40","800","3571.000000182539","images/stimuli/spore_stims/simple_11_B_a.gif","images/stimuli/spore_stims/simple_11_A_a.gif","","","","","16","simple_similar","images/stimuli/spore_stims/simple_11_A_a.gif","right","","","","",""
"","null","html-keyboard-response","300","621433","0.0-56.0-0.2","SS1613079998092","","","null","","","","","<p><img src= images/blank.png width =""200"" height = ""200"" style = ""float:right""></p><p><img src=images/blank.png width =""800"" height = ""200""></p>","","","","","","","","","","","",""
"","537.0000000111759","sequential-stimulus-presentation","301","622813","0.0-56.0-1.2","SS1613079998092","trial","","40","800","1337.0000000111759","images/stimuli/spore_stims/simple_11_B_a.gif","images/stimuli/spore_stims/simple_11_A_a.gif","","","","","16","simple_similar","images/stimuli/spore_stims/simple_11_A_a.gif","right","","","","",""
"","null","html-keyboard-response","302","624034","0.0-56.0-0.3","SS1613079998092","","","null","","","","","<p><img src= images/blank.png width =""200"" height = ""200"" style = ""float:right""></p><p><img src=images/blank.png width =""800"" height = ""200""></p>","","","","","","","","","","","",""
"","283.00000028684735","sequential-stimulus-presentation","303","625131","0.0-56.0-1.3","SS1613079998092","trial","","40","800","1083.0000002868474","images/stimuli/spore_stims/simple_11_B_a.gif","images/stimuli/spore_stims/simple_11_A_a.gif","","","","","16","simple_similar","images/stimuli/spore_stims/simple_11_A_a.gif","right","","","","",""
"","null","html-keyboard-response","304","626113","0.0-56.0-0.4","SS1613079998092","","","null","","","","","<p><img src= images/blank.png width =""200"" height = ""200"" style = ""float:right""></p><p><img src=images/blank.png width =""800"" height = ""200""></p>","","","","","","","","","","","",""
"","2302.000000141561","sequential-stimulus-presentation","305","629233","0.0-56.0-1.4","SS1613079998092","trial","","40","800","3102.000000141561","images/stimuli/spore_stims/simple_11_B_a.gif","images/stimuli/spore_stims/simple_11_A_a.gif","","","","","16","simple_similar","images/stimuli/spore_stims/simple_11_B_a.gif","middle","","","","",""
"","null","html-keyboard-response","306","630515","0.0-56.0-0.5","SS1613079998092","","","null","","","","","<p><img src= images/blank.png width =""200"" height = ""200"" style = ""float:right""></p><p><img src=images/blank.png width =""800"" height = ""200""></p>","","","","","","","","","","","",""
"","3455.9999997727573","sequential-stimulus-presentation","307","634781","0.0-56.0-1.5","SS1613079998092","trial","","40","800","4255.999999772757","images/stimuli/spore_stims/simple_11_B_a.gif","images/stimuli/spore_stims/simple_11_A_a.gif","","","","","16","simple_similar","images/stimuli/spore_stims/simple_11_A_a.gif","right","","","","",""
"","null","html-keyboard-response","308","635638","0.0-56.0-0.6","SS1613079998092","","","null","","","","","<p><img src= images/blank.png width =""200"" height = ""200"" style = ""float:right""></p><p><img src=images/blank.png width =""800"" height = ""200""></p>","","","","","","","","","","","",""
"","78.00000021234155","sequential-stimulus-presentation","309","636525","0.0-56.0-1.6","SS1613079998092","trial","","40","800","878.0000002123415","images/stimuli/spore_stims/simple_11_B_a.gif","images/stimuli/spore_stims/simple_11_A_a.gif","","","","","16","simple_similar","images/stimuli/spore_stims/simple_11_A_a.gif","right","","","","",""
"","null","html-keyboard-response","310","637368","0.0-56.0-0.7","SS1613079998092","","","null","","","","","<p><img src= images/blank.png width =""200"" height = ""200"" style = ""float:right""></p><p><img src=images/blank.png width =""800"" height = ""200""></p>","","","","","","","","","","","",""
"","4903.999999631196","sequential-stimulus-presentation","311","643102","0.0-56.0-1.7","SS1613079998092","trial","","40","800","5703.999999631196","images/stimuli/spore_stims/simple_11_B_a.gif","images/stimuli/spore_stims/simple_11_A_a.gif","","","","","16","simple_similar","images/stimuli/spore_stims/simple_11_A_a.gif","right","","","","",""
"","2339.9999998509884","html-keyboard-response","312","645455","0.0-57.0","SS1613079998092","pref_question","","97","","","","","<video width ='960' height = '540' style='padding-top:8%' autoplay muted><source src='images/stimuli/wall_pref.mp4' type='video/mp4'></video>","1","left","25%","16","","","","","","","",""
