"view_history","rt","trial_type","trial_index","time_elapsed","internal_node_id","subject","stimulus_type","trial_stimulus","key_press","minimum_viewing_duration","trial_looking_time","block_deviant","block_background","stimulus","wall_pref","location","location_percent","block_number","block_type","stimulus_displayed","position_displayed","stim_type_selected","responses","question_order","stimulus_left","stimulus_right"
"[{""page_index"":0,""viewing_time"":5528.999999980442}]","5532.000000006519","instructions","0","5537","0.0-0.0","SS1613084105380","","","","","","","","","","","","","","","","","","","",""
"[{""page_index"":0,""viewing_time"":7448.999999964144},{""page_index"":1,""viewing_time"":11541.000000026543}]","18991.999999969266","instructions","1","26812","0.0-1.0","SS1613084105380","instructions","","","","","","","","","","","","","","","","","","",""
"","3619.9999999953434","sequential-stimulus-presentation","2","31311","0.0-2.0","SS1613084105380","","","40","800","4419.999999995343","null","null","","","","","","","","","","","","",""
"","3819.000000017695","sequential-stimulus-presentation","3","36270","0.0-3.0","SS1613084105380","","","40","800","4619.000000017695","null","null","","","","","","","","","","","","",""
"[{""page_index"":0,""viewing_time"":4525.999999954365}]","4527.000000001863","instructions","4","40809","0.0-4.0","SS1613084105380","instructions","","","","","","","","","","","","","","","","","","",""
"","9049.999999988358","html-keyboard-response","5","49879","0.0-5.0","SS1613084105380","instructions","","98","","","","","<video width ='960' height = '540' autoplay muted><source src='images/stimuli/wall_pref.mp4' type='video/mp4'></video>","2","middle","45%","","","","","","","","",""
"","1561.0000000451691","sequential-stimulus-presentation","6","52874","0.0-6.0","SS1613084105380","pref_reveal","","40","800","2361.000000045169","null","null","","","","","","","","","","","","",""
"[{""page_index"":0,""viewing_time"":5068.9999999594875},{""page_index"":1,""viewing_time"":4056.0000000405125},{""page_index"":2,""viewing_time"":3185.9999999869615},{""page_index"":3,""viewing_time"":1683.000000019092}]","13995.999999984633","instructions","7","66880","0.0-7.0","SS1613084105380","instructions","","","","","","","","","","","","","","","","","","",""
"","null","html-keyboard-response","8","68113","0.0-8.0-0.0","SS1613084105380","","","null","","","","","<p><img src= images/blank.png width =""200"" height = ""200"" style = ""float:right""></p><p><img src=images/blank.png width =""800"" height = ""200""></p>","","","","","","","","","","","",""
"","1931.9999999715947","sequential-stimulus-presentation","9","71045","0.0-8.0-1.0","SS1613084105380","trial","","40","800","2731.9999999715947","images/stimuli/spore_stims/complex_05_A_d.gif","images/stimuli/spore_stims/complex_14_B_a.gif","","","","","0","complex_dissimilar","images/stimuli/spore_stims/complex_14_B_a.gif","left","","","","",""
"","null","html-keyboard-response","10","72108","0.0-8.0-0.1","SS1613084105380","","","null","","","","","<p><img src= images/blank.png width =""200"" height = ""200"" style = ""float:right""></p><p><img src=images/blank.png width =""800"" height = ""200""></p>","","","","","","","","","","","",""
"","1070.000000006985","sequential-stimulus-presentation","11","74023","0.0-8.0-1.1","SS1613084105380","trial","","40","800","1870.000000006985","images/stimuli/spore_stims/complex_05_A_d.gif","images/stimuli/spore_stims/complex_14_B_a.gif","","","","","0","complex_dissimilar","images/stimuli/spore_stims/complex_14_B_a.gif","left","","","","",""
"","null","html-keyboard-response","12","74941","0.0-8.0-0.2","SS1613084105380","","","null","","","","","<p><img src= images/blank.png width =""200"" height = ""200"" style = ""float:right""></p><p><img src=images/blank.png width =""800"" height = ""200""></p>","","","","","","","","","","","",""
"","1697.9999999748543","sequential-stimulus-presentation","13","77519","0.0-8.0-1.2","SS1613084105380","trial","","40","800","2497.9999999748543","images/stimuli/spore_stims/complex_05_A_d.gif","images/stimuli/spore_stims/complex_14_B_a.gif","","","","","0","complex_dissimilar","images/stimuli/spore_stims/complex_14_B_a.gif","left","","","","",""
"","null","html-keyboard-response","14","78639","0.0-8.0-0.3","SS1613084105380","","","null","","","","","<p><img src= images/blank.png width =""200"" height = ""200"" style = ""float:right""></p><p><img src=images/blank.png width =""800"" height = ""200""></p>","","","","","","","","","","","",""
"","806.9999999715947","sequential-stimulus-presentation","15","80807","0.0-8.0-1.3","SS1613084105380","trial","","40","800","1606.9999999715947","images/stimuli/spore_stims/complex_05_A_d.gif","images/stimuli/spore_stims/complex_14_B_a.gif","","","","","0","complex_dissimilar","images/stimuli/spore_stims/complex_14_B_a.gif","left","","","","",""
"","null","html-keyboard-response","16","82065","0.0-8.0-0.4","SS1613084105380","","","null","","","","","<p><img src= images/blank.png width =""200"" height = ""200"" style = ""float:right""></p><p><img src=images/blank.png width =""800"" height = ""200""></p>","","","","","","","","","","","",""
"","11.999999987892807","sequential-stimulus-presentation","17","83449","0.0-8.0-1.4","SS1613084105380","trial","","40","800","811.9999999878928","images/stimuli/spore_stims/complex_05_A_d.gif","images/stimuli/spore_stims/complex_14_B_a.gif","","","","","0","complex_dissimilar","images/stimuli/spore_stims/complex_14_B_a.gif","left","","","","",""
"","null","html-keyboard-response","18","84576","0.0-8.0-0.5","SS1613084105380","","","null","","","","","<p><img src= images/blank.png width =""200"" height = ""200"" style = ""float:right""></p><p><img src=images/blank.png width =""800"" height = ""200""></p>","","","","","","","","","","","",""
"","415.0000000372529","sequential-stimulus-presentation","19","86011","0.0-8.0-1.5","SS1613084105380","trial","","40","800","1215.000000037253","images/stimuli/spore_stims/complex_05_A_d.gif","images/stimuli/spore_stims/complex_14_B_a.gif","","","","","0","complex_dissimilar","images/stimuli/spore_stims/complex_14_B_a.gif","left","","","","",""
"","null","html-keyboard-response","20","87351","0.0-8.0-0.6","SS1613084105380","","","null","","","","","<p><img src= images/blank.png width =""200"" height = ""200"" style = ""float:right""></p><p><img src=images/blank.png width =""800"" height = ""200""></p>","","","","","","","","","","","",""
"","4610.99999997532","sequential-stimulus-presentation","21","92785","0.0-8.0-1.6","SS1613084105380","trial","","40","800","5410.99999997532","images/stimuli/spore_stims/complex_05_A_d.gif","images/stimuli/spore_stims/complex_14_B_a.gif","","","","","0","complex_dissimilar","images/stimuli/spore_stims/complex_05_A_d.gif","middle","","","","",""
"","null","html-keyboard-response","22","93673","0.0-8.0-0.7","SS1613084105380","","","null","","","","","<p><img src= images/blank.png width =""200"" height = ""200"" style = ""float:right""></p><p><img src=images/blank.png width =""800"" height = ""200""></p>","","","","","","","","","","","",""
"","824.0000000223517","sequential-stimulus-presentation","23","95924","0.0-8.0-1.7","SS1613084105380","trial","","40","800","1624.0000000223517","images/stimuli/spore_stims/complex_05_A_d.gif","images/stimuli/spore_stims/complex_14_B_a.gif","","","","","0","complex_dissimilar","images/stimuli/spore_stims/complex_14_B_a.gif","left","","","","",""
"","3612.9999999538995","html-keyboard-response","24","99553","0.0-9.0","SS1613084105380","pref_question","","99","","","","","<video width ='960' height = '540' style='padding-top:8%' autoplay muted><source src='images/stimuli/wall_pref.mp4' type='video/mp4'></video>","3","right","66%","0","","","","","","","",""
"","1446.9999999855645","sequential-stimulus-presentation","25","101859","0.0-10.0","SS1613084105380","pref_reveal","","40","800","2246.9999999855645","null","null","","","","","0","","","","novel","","","",""
"","null","html-keyboard-response","26","103345","0.0-11.0-0.0","SS1613084105380","","","null","","","","","<p><img src= images/blank.png width =""200"" height = ""200"" style = ""float:right""></p><p><img src=images/blank.png width =""800"" height = ""200""></p>","","","","","","","","","","","",""
"","324.00000002235174","sequential-stimulus-presentation","27","105063","0.0-11.0-1.0","SS1613084105380","trial","","40","800","1124.0000000223517","images/stimuli/spore_stims/complex_13_B_c.gif","images/stimuli/spore_stims/complex_13_A_c.gif","","","","","1","complex_similar","images/stimuli/spore_stims/complex_13_A_c.gif","left","","","","",""
"","null","html-keyboard-response","28","106207","0.0-11.0-0.1","SS1613084105380","","","null","","","","","<p><img src= images/blank.png width =""200"" height = ""200"" style = ""float:right""></p><p><img src=images/blank.png width =""800"" height = ""200""></p>","","","","","","","","","","","",""
"","16.00000000325963","sequential-stimulus-presentation","29","107864","0.0-11.0-1.1","SS1613084105380","trial","","40","800","816.0000000032596","images/stimuli/spore_stims/complex_13_B_c.gif","images/stimuli/spore_stims/complex_13_A_c.gif","","","","","1","complex_similar","images/stimuli/spore_stims/complex_13_A_c.gif","left","","","","",""
"","null","html-keyboard-response","30","109178","0.0-11.0-0.2","SS1613084105380","","","null","","","","","<p><img src= images/blank.png width =""200"" height = ""200"" style = ""float:right""></p><p><img src=images/blank.png width =""800"" height = ""200""></p>","","","","","","","","","","","",""
"","103.00000000279397","sequential-stimulus-presentation","31","110949","0.0-11.0-1.2","SS1613084105380","trial","","40","800","903.000000002794","images/stimuli/spore_stims/complex_13_B_c.gif","images/stimuli/spore_stims/complex_13_A_c.gif","","","","","1","complex_similar","images/stimuli/spore_stims/complex_13_A_c.gif","left","","","","",""
"","null","html-keyboard-response","32","112074","0.0-11.0-0.3","SS1613084105380","","","null","","","","","<p><img src= images/blank.png width =""200"" height = ""200"" style = ""float:right""></p><p><img src=images/blank.png width =""800"" height = ""200""></p>","","","","","","","","","","","",""
"","849.9999999767169","sequential-stimulus-presentation","33","114113","0.0-11.0-1.3","SS1613084105380","trial","","40","800","1649.999999976717","images/stimuli/spore_stims/complex_13_B_c.gif","images/stimuli/spore_stims/complex_13_A_c.gif","","","","","1","complex_similar","images/stimuli/spore_stims/complex_13_A_c.gif","left","","","","",""
"","null","html-keyboard-response","34","115088","0.0-11.0-0.4","SS1613084105380","","","null","","","","","<p><img src= images/blank.png width =""200"" height = ""200"" style = ""float:right""></p><p><img src=images/blank.png width =""800"" height = ""200""></p>","","","","","","","","","","","",""
"","2685.0000000558794","sequential-stimulus-presentation","35","118881","0.0-11.0-1.4","SS1613084105380","trial","","40","800","3485.0000000558794","images/stimuli/spore_stims/complex_13_B_c.gif","images/stimuli/spore_stims/complex_13_A_c.gif","","","","","1","complex_similar","images/stimuli/spore_stims/complex_13_B_c.gif","middle","","","","",""
"","null","html-keyboard-response","36","120206","0.0-11.0-0.5","SS1613084105380","","","null","","","","","<p><img src= images/blank.png width =""200"" height = ""200"" style = ""float:right""></p><p><img src=images/blank.png width =""800"" height = ""200""></p>","","","","","","","","","","","",""
"","32.00000000651926","sequential-stimulus-presentation","37","122077","0.0-11.0-1.5","SS1613084105380","trial","","40","800","832.0000000065193","images/stimuli/spore_stims/complex_13_B_c.gif","images/stimuli/spore_stims/complex_13_A_c.gif","","","","","1","complex_similar","images/stimuli/spore_stims/complex_13_A_c.gif","left","","","","",""
"","null","html-keyboard-response","38","123058","0.0-11.0-0.6","SS1613084105380","","","null","","","","","<p><img src= images/blank.png width =""200"" height = ""200"" style = ""float:right""></p><p><img src=images/blank.png width =""800"" height = ""200""></p>","","","","","","","","","","","",""
"","296.99999996228144","sequential-stimulus-presentation","39","124547","0.0-11.0-1.6","SS1613084105380","trial","","40","800","1096.9999999622814","images/stimuli/spore_stims/complex_13_B_c.gif","images/stimuli/spore_stims/complex_13_A_c.gif","","","","","1","complex_similar","images/stimuli/spore_stims/complex_13_A_c.gif","left","","","","",""
"","null","html-keyboard-response","40","125756","0.0-11.0-0.7","SS1613084105380","","","null","","","","","<p><img src= images/blank.png width =""200"" height = ""200"" style = ""float:right""></p><p><img src=images/blank.png width =""800"" height = ""200""></p>","","","","","","","","","","","",""
"","282.99999999580905","sequential-stimulus-presentation","41","127646","0.0-11.0-1.7","SS1613084105380","trial","","40","800","1082.999999995809","images/stimuli/spore_stims/complex_13_B_c.gif","images/stimuli/spore_stims/complex_13_A_c.gif","","","","","1","complex_similar","images/stimuli/spore_stims/complex_13_A_c.gif","left","","","","",""
"","1886.9999999878928","html-keyboard-response","42","129542","0.0-12.0","SS1613084105380","pref_question","","99","","","","","<video width ='960' height = '540' style='padding-top:8%' autoplay muted><source src='images/stimuli/wall_pref.mp4' type='video/mp4'></video>","3","right","66%","1","","","","","","","",""
"","2041.0000000265427","sequential-stimulus-presentation","43","133242","0.0-13.0","SS1613084105380","pref_reveal","","40","800","2841.0000000265427","null","null","","","","","1","","","","novel","","","",""
"","null","html-keyboard-response","44","134919","0.0-14.0-0.0","SS1613084105380","","","null","","","","","<p><img src= images/blank.png width =""200"" height = ""200"" style = ""float:right""></p><p><img src=images/blank.png width =""800"" height = ""200""></p>","","","","","","","","","","","",""
"","1865.9999999799766","sequential-stimulus-presentation","45","138334","0.0-14.0-1.0","SS1613084105380","trial","","40","800","2665.9999999799766","images/stimuli/spore_stims/simple_14_A_c.gif","images/stimuli/spore_stims/simple_14_B_c.gif","","","","","2","simple_similar","images/stimuli/spore_stims/simple_14_B_c.gif","left","","","","",""
"","null","html-keyboard-response","46","139400","0.0-14.0-0.1","SS1613084105380","","","null","","","","","<p><img src= images/blank.png width =""200"" height = ""200"" style = ""float:right""></p><p><img src=images/blank.png width =""800"" height = ""200""></p>","","","","","","","","","","","",""
"","23.999999975785613","sequential-stimulus-presentation","47","140861","0.0-14.0-1.1","SS1613084105380","trial","","40","800","823.9999999757856","images/stimuli/spore_stims/simple_14_A_c.gif","images/stimuli/spore_stims/simple_14_B_c.gif","","","","","2","simple_similar","images/stimuli/spore_stims/simple_14_B_c.gif","left","","","","",""
"","null","html-keyboard-response","48","142264","0.0-14.0-0.2","SS1613084105380","","","null","","","","","<p><img src= images/blank.png width =""200"" height = ""200"" style = ""float:right""></p><p><img src=images/blank.png width =""800"" height = ""200""></p>","","","","","","","","","","","",""
"","251.00000004749745","sequential-stimulus-presentation","49","143689","0.0-14.0-1.2","SS1613084105380","trial","","40","800","1051.0000000474975","images/stimuli/spore_stims/simple_14_A_c.gif","images/stimuli/spore_stims/simple_14_B_c.gif","","","","","2","simple_similar","images/stimuli/spore_stims/simple_14_B_c.gif","left","","","","",""
"","null","html-keyboard-response","50","144843","0.0-14.0-0.3","SS1613084105380","","","null","","","","","<p><img src= images/blank.png width =""200"" height = ""200"" style = ""float:right""></p><p><img src=images/blank.png width =""800"" height = ""200""></p>","","","","","","","","","","","",""
"","5.000000004656613","sequential-stimulus-presentation","51","146211","0.0-14.0-1.3","SS1613084105380","trial","","40","800","805.0000000046566","images/stimuli/spore_stims/simple_14_A_c.gif","images/stimuli/spore_stims/simple_14_B_c.gif","","","","","2","simple_similar","images/stimuli/spore_stims/simple_14_B_c.gif","left","","","","",""
"","null","html-keyboard-response","52","147154","0.0-14.0-0.4","SS1613084105380","","","null","","","","","<p><img src= images/blank.png width =""200"" height = ""200"" style = ""float:right""></p><p><img src=images/blank.png width =""800"" height = ""200""></p>","","","","","","","","","","","",""
"","501.9999999785796","sequential-stimulus-presentation","53","149072","0.0-14.0-1.4","SS1613084105380","trial","","40","800","1301.9999999785796","images/stimuli/spore_stims/simple_14_A_c.gif","images/stimuli/spore_stims/simple_14_B_c.gif","","","","","2","simple_similar","images/stimuli/spore_stims/simple_14_B_c.gif","left","","","","",""
"","null","html-keyboard-response","54","150248","0.0-14.0-0.5","SS1613084105380","","","null","","","","","<p><img src= images/blank.png width =""200"" height = ""200"" style = ""float:right""></p><p><img src=images/blank.png width =""800"" height = ""200""></p>","","","","","","","","","","","",""
"","1211.9999999995343","sequential-stimulus-presentation","55","152322","0.0-14.0-1.5","SS1613084105380","trial","","40","800","2011.9999999995343","images/stimuli/spore_stims/simple_14_A_c.gif","images/stimuli/spore_stims/simple_14_B_c.gif","","","","","2","simple_similar","images/stimuli/spore_stims/simple_14_A_c.gif","middle","","","","",""
"","null","html-keyboard-response","56","153403","0.0-14.0-0.6","SS1613084105380","","","null","","","","","<p><img src= images/blank.png width =""200"" height = ""200"" style = ""float:right""></p><p><img src=images/blank.png width =""800"" height = ""200""></p>","","","","","","","","","","","",""
"","3531.0000000172295","sequential-stimulus-presentation","57","158189","0.0-14.0-1.6","SS1613084105380","trial","","40","800","4331.0000000172295","images/stimuli/spore_stims/simple_14_A_c.gif","images/stimuli/spore_stims/simple_14_B_c.gif","","","","","2","simple_similar","images/stimuli/spore_stims/simple_14_B_c.gif","left","","","","",""
"","null","html-keyboard-response","58","159613","0.0-14.0-0.7","SS1613084105380","","","null","","","","","<p><img src= images/blank.png width =""200"" height = ""200"" style = ""float:right""></p><p><img src=images/blank.png width =""800"" height = ""200""></p>","","","","","","","","","","","",""
"","354.99999998137355","sequential-stimulus-presentation","59","161635","0.0-14.0-1.7","SS1613084105380","trial","","40","800","1154.9999999813735","images/stimuli/spore_stims/simple_14_A_c.gif","images/stimuli/spore_stims/simple_14_B_c.gif","","","","","2","simple_similar","images/stimuli/spore_stims/simple_14_B_c.gif","left","","","","",""
"","2984.99999998603","html-keyboard-response","60","164639","0.0-15.0","SS1613084105380","pref_question","","51","","","","","<video width ='960' height = '540' style='padding-top:8%' autoplay muted><source src='images/stimuli/wall_pref.mp4' type='video/mp4'></video>","3","right","66%","2","","","","","","","",""
"","2026.0000000125729","sequential-stimulus-presentation","61","167495","0.0-16.0","SS1613084105380","pref_reveal","","40","800","2826.000000012573","null","null","","","","","2","","","","novel","","","",""
"","null","html-keyboard-response","62","168536","0.0-17.0-0.0","SS1613084105380","","","null","","","","","<p><img src= images/blank.png width =""200"" height = ""200"" style = ""float:right""></p><p><img src=images/blank.png width =""800"" height = ""200""></p>","","","","","","","","","","","",""
"","2199.0000000223517","sequential-stimulus-presentation","63","171663","0.0-17.0-1.0","SS1613084105380","trial","","40","800","2999.0000000223517","images/stimuli/spore_stims/simple_17_A_b.gif","images/stimuli/spore_stims/simple_17_B_b.gif","","","","","3","simple_similar","images/stimuli/spore_stims/simple_17_B_b.gif","middle","","","","",""
"","null","html-keyboard-response","64","172703","0.0-17.0-0.1","SS1613084105380","","","null","","","","","<p><img src= images/blank.png width =""200"" height = ""200"" style = ""float:right""></p><p><img src=images/blank.png width =""800"" height = ""200""></p>","","","","","","","","","","","",""
"","32.00000000651926","sequential-stimulus-presentation","65","174918","0.0-17.0-1.1","SS1613084105380","trial","","40","800","832.0000000065193","images/stimuli/spore_stims/simple_17_A_b.gif","images/stimuli/spore_stims/simple_17_B_b.gif","","","","","3","simple_similar","images/stimuli/spore_stims/simple_17_B_b.gif","middle","","","","",""
"","null","html-keyboard-response","66","176029","0.0-17.0-0.2","SS1613084105380","","","null","","","","","<p><img src= images/blank.png width =""200"" height = ""200"" style = ""float:right""></p><p><img src=images/blank.png width =""800"" height = ""200""></p>","","","","","","","","","","","",""
"","2985.000000044238","sequential-stimulus-presentation","67","180338","0.0-17.0-1.2","SS1613084105380","trial","","40","800","3785.000000044238","images/stimuli/spore_stims/simple_17_A_b.gif","images/stimuli/spore_stims/simple_17_B_b.gif","","","","","3","simple_similar","images/stimuli/spore_stims/simple_17_B_b.gif","middle","","","","",""
"","null","html-keyboard-response","68","181434","0.0-17.0-0.3","SS1613084105380","","","null","","","","","<p><img src= images/blank.png width =""200"" height = ""200"" style = ""float:right""></p><p><img src=images/blank.png width =""800"" height = ""200""></p>","","","","","","","","","","","",""
"","7.999999972525984","sequential-stimulus-presentation","69","182747","0.0-17.0-1.3","SS1613084105380","trial","","40","800","807.999999972526","images/stimuli/spore_stims/simple_17_A_b.gif","images/stimuli/spore_stims/simple_17_B_b.gif","","","","","3","simple_similar","images/stimuli/spore_stims/simple_17_B_b.gif","middle","","","","",""
"","null","html-keyboard-response","70","184175","0.0-17.0-0.4","SS1613084105380","","","null","","","","","<p><img src= images/blank.png width =""200"" height = ""200"" style = ""float:right""></p><p><img src=images/blank.png width =""800"" height = ""200""></p>","","","","","","","","","","","",""
"","26.000000012572855","sequential-stimulus-presentation","71","185874","0.0-17.0-1.4","SS1613084105380","trial","","40","800","826.0000000125729","images/stimuli/spore_stims/simple_17_A_b.gif","images/stimuli/spore_stims/simple_17_B_b.gif","","","","","3","simple_similar","images/stimuli/spore_stims/simple_17_A_b.gif","left","","","","",""
"","null","html-keyboard-response","72","187109","0.0-17.0-0.5","SS1613084105380","","","null","","","","","<p><img src= images/blank.png width =""200"" height = ""200"" style = ""float:right""></p><p><img src=images/blank.png width =""800"" height = ""200""></p>","","","","","","","","","","","",""
"","1119.9999999953434","sequential-stimulus-presentation","73","190067","0.0-17.0-1.5","SS1613084105380","trial","","40","800","1919.9999999953434","images/stimuli/spore_stims/simple_17_A_b.gif","images/stimuli/spore_stims/simple_17_B_b.gif","","","","","3","simple_similar","images/stimuli/spore_stims/simple_17_B_b.gif","middle","","","","",""
"","null","html-keyboard-response","74","191304","0.0-17.0-0.6","SS1613084105380","","","null","","","","","<p><img src= images/blank.png width =""200"" height = ""200"" style = ""float:right""></p><p><img src=images/blank.png width =""800"" height = ""200""></p>","","","","","","","","","","","",""
"","3118.000000016764","sequential-stimulus-presentation","75","196361","0.0-17.0-1.6","SS1613084105380","trial","","40","800","3918.000000016764","images/stimuli/spore_stims/simple_17_A_b.gif","images/stimuli/spore_stims/simple_17_B_b.gif","","","","","3","simple_similar","images/stimuli/spore_stims/simple_17_B_b.gif","middle","","","","",""
"","null","html-keyboard-response","76","197347","0.0-17.0-0.7","SS1613084105380","","","null","","","","","<p><img src= images/blank.png width =""200"" height = ""200"" style = ""float:right""></p><p><img src=images/blank.png width =""800"" height = ""200""></p>","","","","","","","","","","","",""
"","1089.9999999674037","sequential-stimulus-presentation","77","199493","0.0-17.0-1.7","SS1613084105380","trial","","40","800","1889.9999999674037","images/stimuli/spore_stims/simple_17_A_b.gif","images/stimuli/spore_stims/simple_17_B_b.gif","","","","","3","simple_similar","images/stimuli/spore_stims/simple_17_B_b.gif","middle","","","","",""
"","1548.000000009779","html-keyboard-response","78","201055","0.0-18.0","SS1613084105380","pref_question","","51","","","","","<video width ='960' height = '540' style='padding-top:8%' autoplay muted><source src='images/stimuli/wall_pref.mp4' type='video/mp4'></video>","3","right","66%","3","","","","","","","",""
"","1086.9999999995343","sequential-stimulus-presentation","79","203462","0.0-19.0","SS1613084105380","pref_reveal","","40","800","1886.9999999995343","null","null","","","","","3","","","","novel","","","",""
"","null","html-keyboard-response","80","204798","0.0-20.0-0.0","SS1613084105380","","","null","","","","","<p><img src= images/blank.png width =""200"" height = ""200"" style = ""float:right""></p><p><img src=images/blank.png width =""800"" height = ""200""></p>","","","","","","","","","","","",""
"","32.00000000651926","sequential-stimulus-presentation","81","206714","0.0-20.0-1.0","SS1613084105380","trial","","40","800","832.0000000065193","images/stimuli/spore_stims/complex_12_B_b.gif","images/stimuli/spore_stims/complex_12_A_b.gif","","","","","4","complex_similar","images/stimuli/spore_stims/complex_12_A_b.gif","left","","","","",""
"","null","html-keyboard-response","82","207880","0.0-20.0-0.1","SS1613084105380","","","null","","","","","<p><img src= images/blank.png width =""200"" height = ""200"" style = ""float:right""></p><p><img src=images/blank.png width =""800"" height = ""200""></p>","","","","","","","","","","","",""
"","10.999999998603016","sequential-stimulus-presentation","83","209519","0.0-20.0-1.1","SS1613084105380","trial","","40","800","810.999999998603","images/stimuli/spore_stims/complex_12_B_b.gif","images/stimuli/spore_stims/complex_12_A_b.gif","","","","","4","complex_similar","images/stimuli/spore_stims/complex_12_A_b.gif","left","","","","",""
"","null","html-keyboard-response","84","210743","0.0-20.0-0.2","SS1613084105380","","","null","","","","","<p><img src= images/blank.png width =""200"" height = ""200"" style = ""float:right""></p><p><img src=images/blank.png width =""800"" height = ""200""></p>","","","","","","","","","","","",""
"","304.0000000037253","sequential-stimulus-presentation","85","212834","0.0-20.0-1.2","SS1613084105380","trial","","40","800","1104.0000000037253","images/stimuli/spore_stims/complex_12_B_b.gif","images/stimuli/spore_stims/complex_12_A_b.gif","","","","","4","complex_similar","images/stimuli/spore_stims/complex_12_A_b.gif","left","","","","",""
"","null","html-keyboard-response","86","214004","0.0-20.0-0.3","SS1613084105380","","","null","","","","","<p><img src= images/blank.png width =""200"" height = ""200"" style = ""float:right""></p><p><img src=images/blank.png width =""800"" height = ""200""></p>","","","","","","","","","","","",""
"","719.9999999720603","sequential-stimulus-presentation","87","215812","0.0-20.0-1.3","SS1613084105380","trial","","40","800","1519.9999999720603","images/stimuli/spore_stims/complex_12_B_b.gif","images/stimuli/spore_stims/complex_12_A_b.gif","","","","","4","complex_similar","images/stimuli/spore_stims/complex_12_A_b.gif","left","","","","",""
"","null","html-keyboard-response","88","217081","0.0-20.0-0.4","SS1613084105380","","","null","","","","","<p><img src= images/blank.png width =""200"" height = ""200"" style = ""float:right""></p><p><img src=images/blank.png width =""800"" height = ""200""></p>","","","","","","","","","","","",""
"","873.0000000214204","sequential-stimulus-presentation","89","218799","0.0-20.0-1.4","SS1613084105380","trial","","40","800","1673.0000000214204","images/stimuli/spore_stims/complex_12_B_b.gif","images/stimuli/spore_stims/complex_12_A_b.gif","","","","","4","complex_similar","images/stimuli/spore_stims/complex_12_A_b.gif","left","","","","",""
"","null","html-keyboard-response","90","219779","0.0-20.0-0.5","SS1613084105380","","","null","","","","","<p><img src= images/blank.png width =""200"" height = ""200"" style = ""float:right""></p><p><img src=images/blank.png width =""800"" height = ""200""></p>","","","","","","","","","","","",""
"","789.9999999790452","sequential-stimulus-presentation","91","221581","0.0-20.0-1.5","SS1613084105380","trial","","40","800","1589.9999999790452","images/stimuli/spore_stims/complex_12_B_b.gif","images/stimuli/spore_stims/complex_12_A_b.gif","","","","","4","complex_similar","images/stimuli/spore_stims/complex_12_B_b.gif","middle","","","","",""
"","null","html-keyboard-response","92","222983","0.0-20.0-0.6","SS1613084105380","","","null","","","","","<p><img src= images/blank.png width =""200"" height = ""200"" style = ""float:right""></p><p><img src=images/blank.png width =""800"" height = ""200""></p>","","","","","","","","","","","",""
"","551.999999966938","sequential-stimulus-presentation","93","224929","0.0-20.0-1.6","SS1613084105380","trial","","40","800","1351.999999966938","images/stimuli/spore_stims/complex_12_B_b.gif","images/stimuli/spore_stims/complex_12_A_b.gif","","","","","4","complex_similar","images/stimuli/spore_stims/complex_12_A_b.gif","left","","","","",""
"","null","html-keyboard-response","94","226378","0.0-20.0-0.7","SS1613084105380","","","null","","","","","<p><img src= images/blank.png width =""200"" height = ""200"" style = ""float:right""></p><p><img src=images/blank.png width =""800"" height = ""200""></p>","","","","","","","","","","","",""
"","452.9999999795109","sequential-stimulus-presentation","95","228273","0.0-20.0-1.7","SS1613084105380","trial","","40","800","1252.999999979511","images/stimuli/spore_stims/complex_12_B_b.gif","images/stimuli/spore_stims/complex_12_A_b.gif","","","","","4","complex_similar","images/stimuli/spore_stims/complex_12_A_b.gif","left","","","","",""
"","1974.0000000456348","html-keyboard-response","96","230265","0.0-21.0","SS1613084105380","pref_question","","51","","","","","<video width ='960' height = '540' style='padding-top:8%' autoplay muted><source src='images/stimuli/wall_pref.mp4' type='video/mp4'></video>","3","right","66%","4","","","","","","","",""
"","29.999999969732016","sequential-stimulus-presentation","97","231748","0.0-22.0","SS1613084105380","pref_reveal","","40","800","829.999999969732","null","null","","","","","4","","","","novel","","","",""
"","null","html-keyboard-response","98","232931","0.0-23.0-0.0","SS1613084105380","","","null","","","","","<p><img src= images/blank.png width =""200"" height = ""200"" style = ""float:right""></p><p><img src=images/blank.png width =""800"" height = ""200""></p>","","","","","","","","","","","",""
"","410.9999999636784","sequential-stimulus-presentation","99","234901","0.0-23.0-1.0","SS1613084105380","trial","","40","800","1210.9999999636784","images/stimuli/spore_stims/complex_16_B_d.gif","images/stimuli/spore_stims/complex_03_B_a.gif","","","","","5","complex_dissimilar","images/stimuli/spore_stims/complex_03_B_a.gif","left","","","","",""
"","null","html-keyboard-response","100","236110","0.0-23.0-0.1","SS1613084105380","","","null","","","","","<p><img src= images/blank.png width =""200"" height = ""200"" style = ""float:right""></p><p><img src=images/blank.png width =""800"" height = ""200""></p>","","","","","","","","","","","",""
"","4.0000000153668225","sequential-stimulus-presentation","101","237641","0.0-23.0-1.1","SS1613084105380","trial","","40","800","804.0000000153668","images/stimuli/spore_stims/complex_16_B_d.gif","images/stimuli/spore_stims/complex_03_B_a.gif","","","","","5","complex_dissimilar","images/stimuli/spore_stims/complex_03_B_a.gif","left","","","","",""
"","null","html-keyboard-response","102","238984","0.0-23.0-0.2","SS1613084105380","","","null","","","","","<p><img src= images/blank.png width =""200"" height = ""200"" style = ""float:right""></p><p><img src=images/blank.png width =""800"" height = ""200""></p>","","","","","","","","","","","",""
"","27.999999991152436","sequential-stimulus-presentation","103","240584","0.0-23.0-1.2","SS1613084105380","trial","","40","800","827.9999999911524","images/stimuli/spore_stims/complex_16_B_d.gif","images/stimuli/spore_stims/complex_03_B_a.gif","","","","","5","complex_dissimilar","images/stimuli/spore_stims/complex_03_B_a.gif","left","","","","",""
"","null","html-keyboard-response","104","241533","0.0-23.0-0.3","SS1613084105380","","","null","","","","","<p><img src= images/blank.png width =""200"" height = ""200"" style = ""float:right""></p><p><img src=images/blank.png width =""800"" height = ""200""></p>","","","","","","","","","","","",""
"","780.0000000279397","sequential-stimulus-presentation","105","243402","0.0-23.0-1.3","SS1613084105380","trial","","40","800","1580.0000000279397","images/stimuli/spore_stims/complex_16_B_d.gif","images/stimuli/spore_stims/complex_03_B_a.gif","","","","","5","complex_dissimilar","images/stimuli/spore_stims/complex_03_B_a.gif","left","","","","",""
"","null","html-keyboard-response","106","244650","0.0-23.0-0.4","SS1613084105380","","","null","","","","","<p><img src= images/blank.png width =""200"" height = ""200"" style = ""float:right""></p><p><img src=images/blank.png width =""800"" height = ""200""></p>","","","","","","","","","","","",""
"","536.9999999529682","sequential-stimulus-presentation","107","246400","0.0-23.0-1.4","SS1613084105380","trial","","40","800","1336.9999999529682","images/stimuli/spore_stims/complex_16_B_d.gif","images/stimuli/spore_stims/complex_03_B_a.gif","","","","","5","complex_dissimilar","images/stimuli/spore_stims/complex_03_B_a.gif","left","","","","",""
"","null","html-keyboard-response","108","247814","0.0-23.0-0.5","SS1613084105380","","","null","","","","","<p><img src= images/blank.png width =""200"" height = ""200"" style = ""float:right""></p><p><img src=images/blank.png width =""800"" height = ""200""></p>","","","","","","","","","","","",""
"","512.9999999771826","sequential-stimulus-presentation","109","249720","0.0-23.0-1.5","SS1613084105380","trial","","40","800","1312.9999999771826","images/stimuli/spore_stims/complex_16_B_d.gif","images/stimuli/spore_stims/complex_03_B_a.gif","","","","","5","complex_dissimilar","images/stimuli/spore_stims/complex_03_B_a.gif","left","","","","",""
"","null","html-keyboard-response","110","250923","0.0-23.0-0.6","SS1613084105380","","","null","","","","","<p><img src= images/blank.png width =""200"" height = ""200"" style = ""float:right""></p><p><img src=images/blank.png width =""800"" height = ""200""></p>","","","","","","","","","","","",""
"","313.99999995483086","sequential-stimulus-presentation","111","252128","0.0-23.0-1.6","SS1613084105380","trial","","40","800","1113.9999999548309","images/stimuli/spore_stims/complex_16_B_d.gif","images/stimuli/spore_stims/complex_03_B_a.gif","","","","","5","complex_dissimilar","images/stimuli/spore_stims/complex_16_B_d.gif","middle","","","","",""
"","null","html-keyboard-response","112","253299","0.0-23.0-0.7","SS1613084105380","","","null","","","","","<p><img src= images/blank.png width =""200"" height = ""200"" style = ""float:right""></p><p><img src=images/blank.png width =""800"" height = ""200""></p>","","","","","","","","","","","",""
"","296.99999996228144","sequential-stimulus-presentation","113","254419","0.0-23.0-1.7","SS1613084105380","trial","","40","800","1096.9999999622814","images/stimuli/spore_stims/complex_16_B_d.gif","images/stimuli/spore_stims/complex_03_B_a.gif","","","","","5","complex_dissimilar","images/stimuli/spore_stims/complex_03_B_a.gif","left","","","","",""
"","2893.000000040047","html-keyboard-response","114","257325","0.0-24.0","SS1613084105380","pref_question","","51","","","","","<video width ='960' height = '540' style='padding-top:8%' autoplay muted><source src='images/stimuli/wall_pref.mp4' type='video/mp4'></video>","3","right","66%","5","","","","","","","",""
"","521.999999997206","sequential-stimulus-presentation","115","258702","0.0-25.0","SS1613084105380","pref_reveal","","40","800","1321.999999997206","null","null","","","","","5","","","","novel","","","",""
"","null","html-keyboard-response","116","259653","0.0-26.0-0.0","SS1613084105380","","","null","","","","","<p><img src= images/blank.png width =""200"" height = ""200"" style = ""float:right""></p><p><img src=images/blank.png width =""800"" height = ""200""></p>","","","","","","","","","","","",""
"","2.999999967869371","sequential-stimulus-presentation","117","260691","0.0-26.0-1.0","SS1613084105380","trial","","40","800","802.9999999678694","images/stimuli/spore_stims/simple_16_A_d.gif","images/stimuli/spore_stims/simple_02_B_b.gif","","","","","6","simple_dissimilar","images/stimuli/spore_stims/simple_02_B_b.gif","middle","","","","",""
"","null","html-keyboard-response","118","261612","0.0-26.0-0.1","SS1613084105380","","","null","","","","","<p><img src= images/blank.png width =""200"" height = ""200"" style = ""float:right""></p><p><img src=images/blank.png width =""800"" height = ""200""></p>","","","","","","","","","","","",""
"","389.9999999557622","sequential-stimulus-presentation","119","262933","0.0-26.0-1.1","SS1613084105380","trial","","40","800","1189.9999999557622","images/stimuli/spore_stims/simple_16_A_d.gif","images/stimuli/spore_stims/simple_02_B_b.gif","","","","","6","simple_dissimilar","images/stimuli/spore_stims/simple_02_B_b.gif","middle","","","","",""
"","null","html-keyboard-response","120","264148","0.0-26.0-0.2","SS1613084105380","","","null","","","","","<p><img src= images/blank.png width =""200"" height = ""200"" style = ""float:right""></p><p><img src=images/blank.png width =""800"" height = ""200""></p>","","","","","","","","","","","",""
"","373.0000000214204","sequential-stimulus-presentation","121","265365","0.0-26.0-1.2","SS1613084105380","trial","","40","800","1173.0000000214204","images/stimuli/spore_stims/simple_16_A_d.gif","images/stimuli/spore_stims/simple_02_B_b.gif","","","","","6","simple_dissimilar","images/stimuli/spore_stims/simple_02_B_b.gif","middle","","","","",""
"","null","html-keyboard-response","122","266414","0.0-26.0-0.3","SS1613084105380","","","null","","","","","<p><img src= images/blank.png width =""200"" height = ""200"" style = ""float:right""></p><p><img src=images/blank.png width =""800"" height = ""200""></p>","","","","","","","","","","","",""
"","1160.9999999636784","sequential-stimulus-presentation","123","269128","0.0-26.0-1.3","SS1613084105380","trial","","40","800","1960.9999999636784","images/stimuli/spore_stims/simple_16_A_d.gif","images/stimuli/spore_stims/simple_02_B_b.gif","","","","","6","simple_dissimilar","images/stimuli/spore_stims/simple_02_B_b.gif","middle","","","","",""
"","null","html-keyboard-response","124","270142","0.0-26.0-0.4","SS1613084105380","","","null","","","","","<p><img src= images/blank.png width =""200"" height = ""200"" style = ""float:right""></p><p><img src=images/blank.png width =""800"" height = ""200""></p>","","","","","","","","","","","",""
"","1330.0000000162981","sequential-stimulus-presentation","125","272919","0.0-26.0-1.4","SS1613084105380","trial","","40","800","2130.000000016298","images/stimuli/spore_stims/simple_16_A_d.gif","images/stimuli/spore_stims/simple_02_B_b.gif","","","","","6","simple_dissimilar","images/stimuli/spore_stims/simple_02_B_b.gif","middle","","","","",""
"","null","html-keyboard-response","126","274377","0.0-26.0-0.5","SS1613084105380","","","null","","","","","<p><img src= images/blank.png width =""200"" height = ""200"" style = ""float:right""></p><p><img src=images/blank.png width =""800"" height = ""200""></p>","","","","","","","","","","","",""
"","1675.0000000465661","sequential-stimulus-presentation","127","277781","0.0-26.0-1.5","SS1613084105380","trial","","40","800","2475.000000046566","images/stimuli/spore_stims/simple_16_A_d.gif","images/stimuli/spore_stims/simple_02_B_b.gif","","","","","6","simple_dissimilar","images/stimuli/spore_stims/simple_02_B_b.gif","middle","","","","",""
"","null","html-keyboard-response","128","278821","0.0-26.0-0.6","SS1613084105380","","","null","","","","","<p><img src= images/blank.png width =""200"" height = ""200"" style = ""float:right""></p><p><img src=images/blank.png width =""800"" height = ""200""></p>","","","","","","","","","","","",""
"","957.9999999841675","sequential-stimulus-presentation","129","280917","0.0-26.0-1.6","SS1613084105380","trial","","40","800","1757.9999999841675","images/stimuli/spore_stims/simple_16_A_d.gif","images/stimuli/spore_stims/simple_02_B_b.gif","","","","","6","simple_dissimilar","images/stimuli/spore_stims/simple_02_B_b.gif","middle","","","","",""
"","null","html-keyboard-response","130","281753","0.0-26.0-0.7","SS1613084105380","","","null","","","","","<p><img src= images/blank.png width =""200"" height = ""200"" style = ""float:right""></p><p><img src=images/blank.png width =""800"" height = ""200""></p>","","","","","","","","","","","",""
"","630.9999999939464","sequential-stimulus-presentation","131","283914","0.0-26.0-1.7","SS1613084105380","trial","","40","800","1430.9999999939464","images/stimuli/spore_stims/simple_16_A_d.gif","images/stimuli/spore_stims/simple_02_B_b.gif","","","","","6","simple_dissimilar","images/stimuli/spore_stims/simple_16_A_d.gif","right","","","","",""
"","4598.999999987427","html-keyboard-response","132","288528","0.0-27.0","SS1613084105380","pref_question","","49","","","","","<video width ='960' height = '540' style='padding-top:8%' autoplay muted><source src='images/stimuli/wall_pref.mp4' type='video/mp4'></video>","1","left","25%","6","","","","","","","",""
"","1656.0000000172295","sequential-stimulus-presentation","133","291148","0.0-28.0","SS1613084105380","pref_reveal","","40","800","2456.0000000172295","null","null","","","","","6","","","","novel","","","",""
"","null","html-keyboard-response","134","292317","0.0-29.0-0.0","SS1613084105380","","","null","","","","","<p><img src= images/blank.png width =""200"" height = ""200"" style = ""float:right""></p><p><img src=images/blank.png width =""800"" height = ""200""></p>","","","","","","","","","","","",""
"","833.0000000423752","sequential-stimulus-presentation","135","294177","0.0-29.0-1.0","SS1613084105380","trial","","40","800","1633.0000000423752","images/stimuli/spore_stims/simple_13_A_d.gif","images/stimuli/spore_stims/simple_13_B_d.gif","","","","","7","simple_similar","images/stimuli/spore_stims/simple_13_B_d.gif","right","","","","",""
"","null","html-keyboard-response","136","295047","0.0-29.0-0.1","SS1613084105380","","","null","","","","","<p><img src= images/blank.png width =""200"" height = ""200"" style = ""float:right""></p><p><img src=images/blank.png width =""800"" height = ""200""></p>","","","","","","","","","","","",""
"","468.99999998277053","sequential-stimulus-presentation","137","297231","0.0-29.0-1.1","SS1613084105380","trial","","40","800","1268.9999999827705","images/stimuli/spore_stims/simple_13_A_d.gif","images/stimuli/spore_stims/simple_13_B_d.gif","","","","","7","simple_similar","images/stimuli/spore_stims/simple_13_B_d.gif","right","","","","",""
"","null","html-keyboard-response","138","298439","0.0-29.0-0.2","SS1613084105380","","","null","","","","","<p><img src= images/blank.png width =""200"" height = ""200"" style = ""float:right""></p><p><img src=images/blank.png width =""800"" height = ""200""></p>","","","","","","","","","","","",""
"","500","sequential-stimulus-presentation","139","300280","0.0-29.0-1.2","SS1613084105380","trial","","40","800","1300","images/stimuli/spore_stims/simple_13_A_d.gif","images/stimuli/spore_stims/simple_13_B_d.gif","","","","","7","simple_similar","images/stimuli/spore_stims/simple_13_B_d.gif","right","","","","",""
"","null","html-keyboard-response","140","301276","0.0-29.0-0.3","SS1613084105380","","","null","","","","","<p><img src= images/blank.png width =""200"" height = ""200"" style = ""float:right""></p><p><img src=images/blank.png width =""800"" height = ""200""></p>","","","","","","","","","","","",""
"","20.00000001862645","sequential-stimulus-presentation","141","302805","0.0-29.0-1.3","SS1613084105380","trial","","40","800","820.0000000186265","images/stimuli/spore_stims/simple_13_A_d.gif","images/stimuli/spore_stims/simple_13_B_d.gif","","","","","7","simple_similar","images/stimuli/spore_stims/simple_13_B_d.gif","right","","","","",""
"","null","html-keyboard-response","142","304263","0.0-29.0-0.4","SS1613084105380","","","null","","","","","<p><img src= images/blank.png width =""200"" height = ""200"" style = ""float:right""></p><p><img src=images/blank.png width =""800"" height = ""200""></p>","","","","","","","","","","","",""
"","253.00000002607703","sequential-stimulus-presentation","143","305390","0.0-29.0-1.4","SS1613084105380","trial","","40","800","1053.000000026077","images/stimuli/spore_stims/simple_13_A_d.gif","images/stimuli/spore_stims/simple_13_B_d.gif","","","","","7","simple_similar","images/stimuli/spore_stims/simple_13_A_d.gif","middle","","","","",""
"","null","html-keyboard-response","144","306710","0.0-29.0-0.5","SS1613084105380","","","null","","","","","<p><img src= images/blank.png width =""200"" height = ""200"" style = ""float:right""></p><p><img src=images/blank.png width =""800"" height = ""200""></p>","","","","","","","","","","","",""
"","486.0000000335276","sequential-stimulus-presentation","145","308563","0.0-29.0-1.5","SS1613084105380","trial","","40","800","1286.0000000335276","images/stimuli/spore_stims/simple_13_A_d.gif","images/stimuli/spore_stims/simple_13_B_d.gif","","","","","7","simple_similar","images/stimuli/spore_stims/simple_13_B_d.gif","right","","","","",""
"","null","html-keyboard-response","146","309720","0.0-29.0-0.6","SS1613084105380","","","null","","","","","<p><img src= images/blank.png width =""200"" height = ""200"" style = ""float:right""></p><p><img src=images/blank.png width =""800"" height = ""200""></p>","","","","","","","","","","","",""
"","383.9999999618158","sequential-stimulus-presentation","147","311556","0.0-29.0-1.6","SS1613084105380","trial","","40","800","1183.9999999618158","images/stimuli/spore_stims/simple_13_A_d.gif","images/stimuli/spore_stims/simple_13_B_d.gif","","","","","7","simple_similar","images/stimuli/spore_stims/simple_13_B_d.gif","right","","","","",""
"","null","html-keyboard-response","148","312463","0.0-29.0-0.7","SS1613084105380","","","null","","","","","<p><img src= images/blank.png width =""200"" height = ""200"" style = ""float:right""></p><p><img src=images/blank.png width =""800"" height = ""200""></p>","","","","","","","","","","","",""
"","439.0000000130385","sequential-stimulus-presentation","149","314157","0.0-29.0-1.7","SS1613084105380","trial","","40","800","1239.0000000130385","images/stimuli/spore_stims/simple_13_A_d.gif","images/stimuli/spore_stims/simple_13_B_d.gif","","","","","7","simple_similar","images/stimuli/spore_stims/simple_13_B_d.gif","right","","","","",""
"","2827.999999979511","html-keyboard-response","150","317042","0.0-30.0","SS1613084105380","pref_question","","50","","","","","<video width ='960' height = '540' style='padding-top:8%' autoplay muted><source src='images/stimuli/wall_pref.mp4' type='video/mp4'></video>","2","middle","45%","7","","","","","","","",""
"","1222.9999999981374","sequential-stimulus-presentation","151","320144","0.0-31.0","SS1613084105380","pref_reveal","","40","800","2022.9999999981374","null","null","","","","","7","","","","deviant","","","",""
"","null","html-keyboard-response","152","320982","0.0-32.0-0.0","SS1613084105380","","","null","","","","","<p><img src= images/blank.png width =""200"" height = ""200"" style = ""float:right""></p><p><img src=images/blank.png width =""800"" height = ""200""></p>","","","","","","","","","","","",""
"","642.0000000507571","sequential-stimulus-presentation","153","322825","0.0-32.0-1.0","SS1613084105380","trial","","40","800","1442.000000050757","images/stimuli/spore_stims/complex_02_A_d.gif","images/stimuli/spore_stims/complex_17_B_a.gif","","","","","8","complex_dissimilar","images/stimuli/spore_stims/complex_17_B_a.gif","right","","","","",""
"","null","html-keyboard-response","154","323720","0.0-32.0-0.1","SS1613084105380","","","null","","","","","<p><img src= images/blank.png width =""200"" height = ""200"" style = ""float:right""></p><p><img src=images/blank.png width =""800"" height = ""200""></p>","","","","","","","","","","","",""
"","548.0000000097789","sequential-stimulus-presentation","155","325463","0.0-32.0-1.1","SS1613084105380","trial","","40","800","1348.000000009779","images/stimuli/spore_stims/complex_02_A_d.gif","images/stimuli/spore_stims/complex_17_B_a.gif","","","","","8","complex_dissimilar","images/stimuli/spore_stims/complex_17_B_a.gif","right","","","","",""
"","null","html-keyboard-response","156","326353","0.0-32.0-0.2","SS1613084105380","","","null","","","","","<p><img src= images/blank.png width =""200"" height = ""200"" style = ""float:right""></p><p><img src=images/blank.png width =""800"" height = ""200""></p>","","","","","","","","","","","",""
"","723.9999999874271","sequential-stimulus-presentation","157","327959","0.0-32.0-1.2","SS1613084105380","trial","","40","800","1523.9999999874271","images/stimuli/spore_stims/complex_02_A_d.gif","images/stimuli/spore_stims/complex_17_B_a.gif","","","","","8","complex_dissimilar","images/stimuli/spore_stims/complex_17_B_a.gif","right","","","","",""
"","null","html-keyboard-response","158","328878","0.0-32.0-0.3","SS1613084105380","","","null","","","","","<p><img src= images/blank.png width =""200"" height = ""200"" style = ""float:right""></p><p><img src=images/blank.png width =""800"" height = ""200""></p>","","","","","","","","","","","",""
"","603.000000002794","sequential-stimulus-presentation","159","330807","0.0-32.0-1.3","SS1613084105380","trial","","40","800","1403.000000002794","images/stimuli/spore_stims/complex_02_A_d.gif","images/stimuli/spore_stims/complex_17_B_a.gif","","","","","8","complex_dissimilar","images/stimuli/spore_stims/complex_17_B_a.gif","right","","","","",""
"","null","html-keyboard-response","160","331805","0.0-32.0-0.4","SS1613084105380","","","null","","","","","<p><img src= images/blank.png width =""200"" height = ""200"" style = ""float:right""></p><p><img src=images/blank.png width =""800"" height = ""200""></p>","","","","","","","","","","","",""
"","277.99999999115244","sequential-stimulus-presentation","161","333633","0.0-32.0-1.4","SS1613084105380","trial","","40","800","1077.9999999911524","images/stimuli/spore_stims/complex_02_A_d.gif","images/stimuli/spore_stims/complex_17_B_a.gif","","","","","8","complex_dissimilar","images/stimuli/spore_stims/complex_17_B_a.gif","right","","","","",""
"","null","html-keyboard-response","162","335102","0.0-32.0-0.5","SS1613084105380","","","null","","","","","<p><img src= images/blank.png width =""200"" height = ""200"" style = ""float:right""></p><p><img src=images/blank.png width =""800"" height = ""200""></p>","","","","","","","","","","","",""
"","804.9999999930151","sequential-stimulus-presentation","163","336788","0.0-32.0-1.5","SS1613084105380","trial","","40","800","1604.999999993015","images/stimuli/spore_stims/complex_02_A_d.gif","images/stimuli/spore_stims/complex_17_B_a.gif","","","","","8","complex_dissimilar","images/stimuli/spore_stims/complex_02_A_d.gif","left","","","","",""
"","null","html-keyboard-response","164","338065","0.0-32.0-0.6","SS1613084105380","","","null","","","","","<p><img src= images/blank.png width =""200"" height = ""200"" style = ""float:right""></p><p><img src=images/blank.png width =""800"" height = ""200""></p>","","","","","","","","","","","",""
"","875","sequential-stimulus-presentation","165","339884","0.0-32.0-1.6","SS1613084105380","trial","","40","800","1675","images/stimuli/spore_stims/complex_02_A_d.gif","images/stimuli/spore_stims/complex_17_B_a.gif","","","","","8","complex_dissimilar","images/stimuli/spore_stims/complex_17_B_a.gif","right","","","","",""
"","null","html-keyboard-response","166","340963","0.0-32.0-0.7","SS1613084105380","","","null","","","","","<p><img src= images/blank.png width =""200"" height = ""200"" style = ""float:right""></p><p><img src=images/blank.png width =""800"" height = ""200""></p>","","","","","","","","","","","",""
"","192.99999997019768","sequential-stimulus-presentation","167","342479","0.0-32.0-1.7","SS1613084105380","trial","","40","800","992.9999999701977","images/stimuli/spore_stims/complex_02_A_d.gif","images/stimuli/spore_stims/complex_17_B_a.gif","","","","","8","complex_dissimilar","images/stimuli/spore_stims/complex_17_B_a.gif","right","","","","",""
"","1505.0000000046566","html-keyboard-response","168","343995","0.0-33.0","SS1613084105380","pref_question","","51","","","","","<video width ='960' height = '540' style='padding-top:8%' autoplay muted><source src='images/stimuli/wall_pref.mp4' type='video/mp4'></video>","3","right","66%","8","","","","","","","",""
"","713.9999999781139","sequential-stimulus-presentation","169","346062","0.0-34.0","SS1613084105380","pref_reveal","","40","800","1513.999999978114","null","null","","","","","8","","","","background","","","",""
"","null","html-keyboard-response","170","347051","0.0-35.0-0.0","SS1613084105380","","","null","","","","","<p><img src= images/blank.png width =""200"" height = ""200"" style = ""float:right""></p><p><img src=images/blank.png width =""800"" height = ""200""></p>","","","","","","","","","","","",""
"","527.9999999911524","sequential-stimulus-presentation","171","349037","0.0-35.0-1.0","SS1613084105380","trial","","40","800","1327.9999999911524","images/stimuli/spore_stims/complex_11_A_d.gif","images/stimuli/spore_stims/complex_11_B_d.gif","","","","","9","complex_similar","images/stimuli/spore_stims/complex_11_B_d.gif","right","","","","",""
"","null","html-keyboard-response","172","350195","0.0-35.0-0.1","SS1613084105380","","","null","","","","","<p><img src= images/blank.png width =""200"" height = ""200"" style = ""float:right""></p><p><img src=images/blank.png width =""800"" height = ""200""></p>","","","","","","","","","","","",""
"","423.0000000097789","sequential-stimulus-presentation","173","351956","0.0-35.0-1.1","SS1613084105380","trial","","40","800","1223.000000009779","images/stimuli/spore_stims/complex_11_A_d.gif","images/stimuli/spore_stims/complex_11_B_d.gif","","","","","9","complex_similar","images/stimuli/spore_stims/complex_11_B_d.gif","right","","","","",""
"","null","html-keyboard-response","174","353065","0.0-35.0-0.2","SS1613084105380","","","null","","","","","<p><img src= images/blank.png width =""200"" height = ""200"" style = ""float:right""></p><p><img src=images/blank.png width =""800"" height = ""200""></p>","","","","","","","","","","","",""
"","356.000000028871","sequential-stimulus-presentation","175","354287","0.0-35.0-1.2","SS1613084105380","trial","","40","800","1156.000000028871","images/stimuli/spore_stims/complex_11_A_d.gif","images/stimuli/spore_stims/complex_11_B_d.gif","","","","","9","complex_similar","images/stimuli/spore_stims/complex_11_A_d.gif","middle","","","","",""
"","null","html-keyboard-response","176","355501","0.0-35.0-0.3","SS1613084105380","","","null","","","","","<p><img src= images/blank.png width =""200"" height = ""200"" style = ""float:right""></p><p><img src=images/blank.png width =""800"" height = ""200""></p>","","","","","","","","","","","",""
"","313.0000000237487","sequential-stimulus-presentation","177","357594","0.0-35.0-1.3","SS1613084105380","trial","","40","800","1113.0000000237487","images/stimuli/spore_stims/complex_11_A_d.gif","images/stimuli/spore_stims/complex_11_B_d.gif","","","","","9","complex_similar","images/stimuli/spore_stims/complex_11_B_d.gif","right","","","","",""
"","null","html-keyboard-response","178","358856","0.0-35.0-0.4","SS1613084105380","","","null","","","","","<p><img src= images/blank.png width =""200"" height = ""200"" style = ""float:right""></p><p><img src=images/blank.png width =""800"" height = ""200""></p>","","","","","","","","","","","",""
"","355.0000000395812","sequential-stimulus-presentation","179","360630","0.0-35.0-1.4","SS1613084105380","trial","","40","800","1155.0000000395812","images/stimuli/spore_stims/complex_11_A_d.gif","images/stimuli/spore_stims/complex_11_B_d.gif","","","","","9","complex_similar","images/stimuli/spore_stims/complex_11_B_d.gif","right","","","","",""
"","null","html-keyboard-response","180","361789","0.0-35.0-0.5","SS1613084105380","","","null","","","","","<p><img src= images/blank.png width =""200"" height = ""200"" style = ""float:right""></p><p><img src=images/blank.png width =""800"" height = ""200""></p>","","","","","","","","","","","",""
"","720.000000030268","sequential-stimulus-presentation","181","363765","0.0-35.0-1.5","SS1613084105380","trial","","40","800","1520.000000030268","images/stimuli/spore_stims/complex_11_A_d.gif","images/stimuli/spore_stims/complex_11_B_d.gif","","","","","9","complex_similar","images/stimuli/spore_stims/complex_11_B_d.gif","right","","","","",""
"","null","html-keyboard-response","182","365058","0.0-35.0-0.6","SS1613084105380","","","null","","","","","<p><img src= images/blank.png width =""200"" height = ""200"" style = ""float:right""></p><p><img src=images/blank.png width =""800"" height = ""200""></p>","","","","","","","","","","","",""
"","262.9999999771826","sequential-stimulus-presentation","183","366471","0.0-35.0-1.6","SS1613084105380","trial","","40","800","1062.9999999771826","images/stimuli/spore_stims/complex_11_A_d.gif","images/stimuli/spore_stims/complex_11_B_d.gif","","","","","9","complex_similar","images/stimuli/spore_stims/complex_11_B_d.gif","right","","","","",""
"","null","html-keyboard-response","184","367542","0.0-35.0-0.7","SS1613084105380","","","null","","","","","<p><img src= images/blank.png width =""200"" height = ""200"" style = ""float:right""></p><p><img src=images/blank.png width =""800"" height = ""200""></p>","","","","","","","","","","","",""
"","717.000000004191","sequential-stimulus-presentation","185","369630","0.0-35.0-1.7","SS1613084105380","trial","","40","800","1517.000000004191","images/stimuli/spore_stims/complex_11_A_d.gif","images/stimuli/spore_stims/complex_11_B_d.gif","","","","","9","complex_similar","images/stimuli/spore_stims/complex_11_B_d.gif","right","","","","",""
"","138.9999999664724","html-keyboard-response","186","369785","0.0-36.0","SS1613084105380","pref_question","","51","","","","","<video width ='960' height = '540' style='padding-top:8%' autoplay muted><source src='images/stimuli/wall_pref.mp4' type='video/mp4'></video>","3","right","66%","9","","","","","","","",""
"","260.999999998603","sequential-stimulus-presentation","187","371446","0.0-37.0","SS1613084105380","pref_reveal","","40","800","1060.999999998603","null","null","","","","","9","","","","background","","","",""
"","null","html-keyboard-response","188","372495","0.0-38.0-0.0","SS1613084105380","","","null","","","","","<p><img src= images/blank.png width =""200"" height = ""200"" style = ""float:right""></p><p><img src=images/blank.png width =""800"" height = ""200""></p>","","","","","","","","","","","",""
"","1322.9999999748543","sequential-stimulus-presentation","189","375020","0.0-38.0-1.0","SS1613084105380","trial","","40","800","2122.9999999748543","images/stimuli/spore_stims/simple_12_B_a.gif","images/stimuli/spore_stims/simple_08_B_b.gif","","","","","10","simple_dissimilar","images/stimuli/spore_stims/simple_08_B_b.gif","middle","","","","",""
"","null","html-keyboard-response","190","376552","0.0-38.0-0.1","SS1613084105380","","","null","","","","","<p><img src= images/blank.png width =""200"" height = ""200"" style = ""float:right""></p><p><img src=images/blank.png width =""800"" height = ""200""></p>","","","","","","","","","","","",""
"","1265.0000000139698","sequential-stimulus-presentation","191","380033","0.0-38.0-1.1","SS1613084105380","trial","","40","800","2065.00000001397","images/stimuli/spore_stims/simple_12_B_a.gif","images/stimuli/spore_stims/simple_08_B_b.gif","","","","","10","simple_dissimilar","images/stimuli/spore_stims/simple_08_B_b.gif","middle","","","","",""
"","null","html-keyboard-response","192","381941","0.0-38.0-0.2","SS1613084105380","","","null","","","","","<p><img src= images/blank.png width =""200"" height = ""200"" style = ""float:right""></p><p><img src=images/blank.png width =""800"" height = ""200""></p>","","","","","","","","","","","",""
"","2581.9999999948777","sequential-stimulus-presentation","193","387348","0.0-38.0-1.2","SS1613084105380","trial","","40","800","3381.9999999948777","images/stimuli/spore_stims/simple_12_B_a.gif","images/stimuli/spore_stims/simple_08_B_b.gif","","","","","10","simple_dissimilar","images/stimuli/spore_stims/simple_08_B_b.gif","middle","","","","",""
"","null","html-keyboard-response","194","388248","0.0-38.0-0.3","SS1613084105380","","","null","","","","","<p><img src= images/blank.png width =""200"" height = ""200"" style = ""float:right""></p><p><img src=images/blank.png width =""800"" height = ""200""></p>","","","","","","","","","","","",""
"","2.999999967869371","sequential-stimulus-presentation","195","389758","0.0-38.0-1.3","SS1613084105380","trial","","40","800","802.9999999678694","images/stimuli/spore_stims/simple_12_B_a.gif","images/stimuli/spore_stims/simple_08_B_b.gif","","","","","10","simple_dissimilar","images/stimuli/spore_stims/simple_08_B_b.gif","middle","","","","",""
"","null","html-keyboard-response","196","390935","0.0-38.0-0.4","SS1613084105380","","","null","","","","","<p><img src= images/blank.png width =""200"" height = ""200"" style = ""float:right""></p><p><img src=images/blank.png width =""800"" height = ""200""></p>","","","","","","","","","","","",""
"","1168.999999994412","sequential-stimulus-presentation","197","394650","0.0-38.0-1.4","SS1613084105380","trial","","40","800","1968.999999994412","images/stimuli/spore_stims/simple_12_B_a.gif","images/stimuli/spore_stims/simple_08_B_b.gif","","","","","10","simple_dissimilar","images/stimuli/spore_stims/simple_08_B_b.gif","middle","","","","",""
"","null","html-keyboard-response","198","395640","0.0-38.0-0.5","SS1613084105380","","","null","","","","","<p><img src= images/blank.png width =""200"" height = ""200"" style = ""float:right""></p><p><img src=images/blank.png width =""800"" height = ""200""></p>","","","","","","","","","","","",""
"","1427.0000000251457","sequential-stimulus-presentation","199","398376","0.0-38.0-1.5","SS1613084105380","trial","","40","800","2227.0000000251457","images/stimuli/spore_stims/simple_12_B_a.gif","images/stimuli/spore_stims/simple_08_B_b.gif","","","","","10","simple_dissimilar","images/stimuli/spore_stims/simple_08_B_b.gif","middle","","","","",""
"","null","html-keyboard-response","200","399526","0.0-38.0-0.6","SS1613084105380","","","null","","","","","<p><img src= images/blank.png width =""200"" height = ""200"" style = ""float:right""></p><p><img src=images/blank.png width =""800"" height = ""200""></p>","","","","","","","","","","","",""
"","1103.9999999920838","sequential-stimulus-presentation","201","401677","0.0-38.0-1.6","SS1613084105380","trial","","40","800","1903.9999999920838","images/stimuli/spore_stims/simple_12_B_a.gif","images/stimuli/spore_stims/simple_08_B_b.gif","","","","","10","simple_dissimilar","images/stimuli/spore_stims/simple_12_B_a.gif","left","","","","",""
"","null","html-keyboard-response","202","402635","0.0-38.0-0.7","SS1613084105380","","","null","","","","","<p><img src= images/blank.png width =""200"" height = ""200"" style = ""float:right""></p><p><img src=images/blank.png width =""800"" height = ""200""></p>","","","","","","","","","","","",""
"","604.0000000502914","sequential-stimulus-presentation","203","404089","0.0-38.0-1.7","SS1613084105380","trial","","40","800","1404.0000000502914","images/stimuli/spore_stims/simple_12_B_a.gif","images/stimuli/spore_stims/simple_08_B_b.gif","","","","","10","simple_dissimilar","images/stimuli/spore_stims/simple_08_B_b.gif","middle","","","","",""
"","3668.999999994412","html-keyboard-response","204","407849","0.0-39.0","SS1613084105380","pref_question","","51","","","","","<video width ='960' height = '540' style='padding-top:8%' autoplay muted><source src='images/stimuli/wall_pref.mp4' type='video/mp4'></video>","3","right","66%","10","","","","","","","",""
"","377.99999996786937","sequential-stimulus-presentation","205","409123","0.0-40.0","SS1613084105380","pref_reveal","","40","800","1177.9999999678694","null","null","","","","","10","","","","novel","","","",""
"","null","html-keyboard-response","206","410224","0.0-41.0-0.0","SS1613084105380","","","null","","","","","<p><img src= images/blank.png width =""200"" height = ""200"" style = ""float:right""></p><p><img src=images/blank.png width =""800"" height = ""200""></p>","","","","","","","","","","","",""
"","1166.9999999576248","sequential-stimulus-presentation","207","412694","0.0-41.0-1.0","SS1613084105380","trial","","40","800","1966.9999999576248","images/stimuli/spore_stims/complex_07_A_b.gif","images/stimuli/spore_stims/complex_06_A_a.gif","","","","","11","complex_dissimilar","images/stimuli/spore_stims/complex_06_A_a.gif","left","","","","",""
"","null","html-keyboard-response","208","413657","0.0-41.0-0.1","SS1613084105380","","","null","","","","","<p><img src= images/blank.png width =""200"" height = ""200"" style = ""float:right""></p><p><img src=images/blank.png width =""800"" height = ""200""></p>","","","","","","","","","","","",""
"","375","sequential-stimulus-presentation","209","415280","0.0-41.0-1.1","SS1613084105380","trial","","40","800","1175","images/stimuli/spore_stims/complex_07_A_b.gif","images/stimuli/spore_stims/complex_06_A_a.gif","","","","","11","complex_dissimilar","images/stimuli/spore_stims/complex_06_A_a.gif","left","","","","",""
"","null","html-keyboard-response","210","416719","0.0-41.0-0.2","SS1613084105380","","","null","","","","","<p><img src= images/blank.png width =""200"" height = ""200"" style = ""float:right""></p><p><img src=images/blank.png width =""800"" height = ""200""></p>","","","","","","","","","","","",""
"","876.9999999785796","sequential-stimulus-presentation","211","418501","0.0-41.0-1.2","SS1613084105380","trial","","40","800","1676.9999999785796","images/stimuli/spore_stims/complex_07_A_b.gif","images/stimuli/spore_stims/complex_06_A_a.gif","","","","","11","complex_dissimilar","images/stimuli/spore_stims/complex_06_A_a.gif","left","","","","",""
"","null","html-keyboard-response","212","419519","0.0-41.0-0.3","SS1613084105380","","","null","","","","","<p><img src= images/blank.png width =""200"" height = ""200"" style = ""float:right""></p><p><img src=images/blank.png width =""800"" height = ""200""></p>","","","","","","","","","","","",""
"","714.0000000363216","sequential-stimulus-presentation","213","421375","0.0-41.0-1.3","SS1613084105380","trial","","40","800","1514.0000000363216","images/stimuli/spore_stims/complex_07_A_b.gif","images/stimuli/spore_stims/complex_06_A_a.gif","","","","","11","complex_dissimilar","images/stimuli/spore_stims/complex_06_A_a.gif","left","","","","",""
"","null","html-keyboard-response","214","422803","0.0-41.0-0.4","SS1613084105380","","","null","","","","","<p><img src= images/blank.png width =""200"" height = ""200"" style = ""float:right""></p><p><img src=images/blank.png width =""800"" height = ""200""></p>","","","","","","","","","","","",""
"","4.0000000153668225","sequential-stimulus-presentation","215","424227","0.0-41.0-1.4","SS1613084105380","trial","","40","800","804.0000000153668","images/stimuli/spore_stims/complex_07_A_b.gif","images/stimuli/spore_stims/complex_06_A_a.gif","","","","","11","complex_dissimilar","images/stimuli/spore_stims/complex_06_A_a.gif","left","","","","",""
"","null","html-keyboard-response","216","425311","0.0-41.0-0.5","SS1613084105380","","","null","","","","","<p><img src= images/blank.png width =""200"" height = ""200"" style = ""float:right""></p><p><img src=images/blank.png width =""800"" height = ""200""></p>","","","","","","","","","","","",""
"","1109.9999999860302","sequential-stimulus-presentation","217","427547","0.0-41.0-1.5","SS1613084105380","trial","","40","800","1909.9999999860302","images/stimuli/spore_stims/complex_07_A_b.gif","images/stimuli/spore_stims/complex_06_A_a.gif","","","","","11","complex_dissimilar","images/stimuli/spore_stims/complex_07_A_b.gif","middle","","","","",""
"","null","html-keyboard-response","218","428887","0.0-41.0-0.6","SS1613084105380","","","null","","","","","<p><img src= images/blank.png width =""200"" height = ""200"" style = ""float:right""></p><p><img src=images/blank.png width =""800"" height = ""200""></p>","","","","","","","","","","","",""
"","488.0000000121072","sequential-stimulus-presentation","219","430750","0.0-41.0-1.6","SS1613084105380","trial","","40","800","1288.0000000121072","images/stimuli/spore_stims/complex_07_A_b.gif","images/stimuli/spore_stims/complex_06_A_a.gif","","","","","11","complex_dissimilar","images/stimuli/spore_stims/complex_06_A_a.gif","left","","","","",""
"","null","html-keyboard-response","220","432216","0.0-41.0-0.7","SS1613084105380","","","null","","","","","<p><img src= images/blank.png width =""200"" height = ""200"" style = ""float:right""></p><p><img src=images/blank.png width =""800"" height = ""200""></p>","","","","","","","","","","","",""
"","390.00000001396984","sequential-stimulus-presentation","221","434308","0.0-41.0-1.7","SS1613084105380","trial","","40","800","1190.0000000139698","images/stimuli/spore_stims/complex_07_A_b.gif","images/stimuli/spore_stims/complex_06_A_a.gif","","","","","11","complex_dissimilar","images/stimuli/spore_stims/complex_06_A_a.gif","left","","","","",""
"","1604.9999999813735","html-keyboard-response","222","435934","0.0-42.0","SS1613084105380","pref_question","","51","","","","","<video width ='960' height = '540' style='padding-top:8%' autoplay muted><source src='images/stimuli/wall_pref.mp4' type='video/mp4'></video>","3","right","66%","11","","","","","","","",""
"","531.0000000172295","sequential-stimulus-presentation","223","437583","0.0-43.0","SS1613084105380","pref_reveal","","40","800","1331.0000000172295","null","null","","","","","11","","","","novel","","","",""
"","null","html-keyboard-response","224","438764","0.0-44.0-0.0","SS1613084105380","","","null","","","","","<p><img src= images/blank.png width =""200"" height = ""200"" style = ""float:right""></p><p><img src=images/blank.png width =""800"" height = ""200""></p>","","","","","","","","","","","",""
"","764.9999999557622","sequential-stimulus-presentation","225","441265","0.0-44.0-1.0","SS1613084105380","trial","","40","800","1564.9999999557622","images/stimuli/spore_stims/simple_08_A_c.gif","images/stimuli/spore_stims/simple_06_B_c.gif","","","","","12","simple_dissimilar","images/stimuli/spore_stims/simple_06_B_c.gif","left","","","","",""
"","null","html-keyboard-response","226","442503","0.0-44.0-0.1","SS1613084105380","","","null","","","","","<p><img src= images/blank.png width =""200"" height = ""200"" style = ""float:right""></p><p><img src=images/blank.png width =""800"" height = ""200""></p>","","","","","","","","","","","",""
"","385.0000000093132","sequential-stimulus-presentation","227","444378","0.0-44.0-1.1","SS1613084105380","trial","","40","800","1185.0000000093132","images/stimuli/spore_stims/simple_08_A_c.gif","images/stimuli/spore_stims/simple_06_B_c.gif","","","","","12","simple_dissimilar","images/stimuli/spore_stims/simple_06_B_c.gif","left","","","","",""
"","null","html-keyboard-response","228","445483","0.0-44.0-0.2","SS1613084105380","","","null","","","","","<p><img src= images/blank.png width =""200"" height = ""200"" style = ""float:right""></p><p><img src=images/blank.png width =""800"" height = ""200""></p>","","","","","","","","","","","",""
"","266.00000000325963","sequential-stimulus-presentation","229","447219","0.0-44.0-1.2","SS1613084105380","trial","","40","800","1066.0000000032596","images/stimuli/spore_stims/simple_08_A_c.gif","images/stimuli/spore_stims/simple_06_B_c.gif","","","","","12","simple_dissimilar","images/stimuli/spore_stims/simple_06_B_c.gif","left","","","","",""
"","null","html-keyboard-response","230","448380","0.0-44.0-0.3","SS1613084105380","","","null","","","","","<p><img src= images/blank.png width =""200"" height = ""200"" style = ""float:right""></p><p><img src=images/blank.png width =""800"" height = ""200""></p>","","","","","","","","","","","",""
"","213.0000000470318","sequential-stimulus-presentation","231","450081","0.0-44.0-1.3","SS1613084105380","trial","","40","800","1013.0000000470318","images/stimuli/spore_stims/simple_08_A_c.gif","images/stimuli/spore_stims/simple_06_B_c.gif","","","","","12","simple_dissimilar","images/stimuli/spore_stims/simple_06_B_c.gif","left","","","","",""
"","null","html-keyboard-response","232","450978","0.0-44.0-0.4","SS1613084105380","","","null","","","","","<p><img src= images/blank.png width =""200"" height = ""200"" style = ""float:right""></p><p><img src=images/blank.png width =""800"" height = ""200""></p>","","","","","","","","","","","",""
"","453.00000003771856","sequential-stimulus-presentation","233","453016","0.0-44.0-1.4","SS1613084105380","trial","","40","800","1253.0000000377186","images/stimuli/spore_stims/simple_08_A_c.gif","images/stimuli/spore_stims/simple_06_B_c.gif","","","","","12","simple_dissimilar","images/stimuli/spore_stims/simple_06_B_c.gif","left","","","","",""
"","null","html-keyboard-response","234","454182","0.0-44.0-0.5","SS1613084105380","","","null","","","","","<p><img src= images/blank.png width =""200"" height = ""200"" style = ""float:right""></p><p><img src=images/blank.png width =""800"" height = ""200""></p>","","","","","","","","","","","",""
"","360.99999997531995","sequential-stimulus-presentation","235","455702","0.0-44.0-1.5","SS1613084105380","trial","","40","800","1160.99999997532","images/stimuli/spore_stims/simple_08_A_c.gif","images/stimuli/spore_stims/simple_06_B_c.gif","","","","","12","simple_dissimilar","images/stimuli/spore_stims/simple_06_B_c.gif","left","","","","",""
"","null","html-keyboard-response","236","457193","0.0-44.0-0.6","SS1613084105380","","","null","","","","","<p><img src= images/blank.png width =""200"" height = ""200"" style = ""float:right""></p><p><img src=images/blank.png width =""800"" height = ""200""></p>","","","","","","","","","","","",""
"","552.0000000251457","sequential-stimulus-presentation","237","459490","0.0-44.0-1.6","SS1613084105380","trial","","40","800","1352.0000000251457","images/stimuli/spore_stims/simple_08_A_c.gif","images/stimuli/spore_stims/simple_06_B_c.gif","","","","","12","simple_dissimilar","images/stimuli/spore_stims/simple_08_A_c.gif","right","","","","",""
"","null","html-keyboard-response","238","460337","0.0-44.0-0.7","SS1613084105380","","","null","","","","","<p><img src= images/blank.png width =""200"" height = ""200"" style = ""float:right""></p><p><img src=images/blank.png width =""800"" height = ""200""></p>","","","","","","","","","","","",""
"","498.0000000214204","sequential-stimulus-presentation","239","461822","0.0-44.0-1.7","SS1613084105380","trial","","40","800","1298.0000000214204","images/stimuli/spore_stims/simple_08_A_c.gif","images/stimuli/spore_stims/simple_06_B_c.gif","","","","","12","simple_dissimilar","images/stimuli/spore_stims/simple_06_B_c.gif","left","","","","",""
"","2674.9999999883585","html-keyboard-response","240","464521","0.0-45.0","SS1613084105380","pref_question","","51","","","","","<video width ='960' height = '540' style='padding-top:8%' autoplay muted><source src='images/stimuli/wall_pref.mp4' type='video/mp4'></video>","3","right","66%","12","","","","","","","",""
"","5.999999993946403","sequential-stimulus-presentation","241","465741","0.0-46.0","SS1613084105380","pref_reveal","","40","800","805.9999999939464","null","null","","","","","12","","","","deviant","","","",""
"","null","html-keyboard-response","242","466792","0.0-47.0-0.0","SS1613084105380","","","null","","","","","<p><img src= images/blank.png width =""200"" height = ""200"" style = ""float:right""></p><p><img src=images/blank.png width =""800"" height = ""200""></p>","","","","","","","","","","","",""
"","191.9999999809079","sequential-stimulus-presentation","243","468894","0.0-47.0-1.0","SS1613084105380","trial","","40","800","991.9999999809079","images/stimuli/spore_stims/simple_20_B_c.gif","images/stimuli/spore_stims/simple_20_A_c.gif","","","","","13","simple_similar","images/stimuli/spore_stims/simple_20_A_c.gif","left","","","","",""
"","null","html-keyboard-response","244","470295","0.0-47.0-0.1","SS1613084105380","","","null","","","","","<p><img src= images/blank.png width =""200"" height = ""200"" style = ""float:right""></p><p><img src=images/blank.png width =""800"" height = ""200""></p>","","","","","","","","","","","",""
"","357.9999999492429","sequential-stimulus-presentation","245","472174","0.0-47.0-1.1","SS1613084105380","trial","","40","800","1157.999999949243","images/stimuli/spore_stims/simple_20_B_c.gif","images/stimuli/spore_stims/simple_20_A_c.gif","","","","","13","simple_similar","images/stimuli/spore_stims/simple_20_A_c.gif","left","","","","",""
"","null","html-keyboard-response","246","473045","0.0-47.0-0.2","SS1613084105380","","","null","","","","","<p><img src= images/blank.png width =""200"" height = ""200"" style = ""float:right""></p><p><img src=images/blank.png width =""800"" height = ""200""></p>","","","","","","","","","","","",""
"","675.9999999776483","sequential-stimulus-presentation","247","474606","0.0-47.0-1.2","SS1613084105380","trial","","40","800","1475.9999999776483","images/stimuli/spore_stims/simple_20_B_c.gif","images/stimuli/spore_stims/simple_20_A_c.gif","","","","","13","simple_similar","images/stimuli/spore_stims/simple_20_A_c.gif","left","","","","",""
"","null","html-keyboard-response","248","475644","0.0-47.0-0.3","SS1613084105380","","","null","","","","","<p><img src= images/blank.png width =""200"" height = ""200"" style = ""float:right""></p><p><img src=images/blank.png width =""800"" height = ""200""></p>","","","","","","","","","","","",""
"","687.9999999655411","sequential-stimulus-presentation","249","477519","0.0-47.0-1.3","SS1613084105380","trial","","40","800","1487.999999965541","images/stimuli/spore_stims/simple_20_B_c.gif","images/stimuli/spore_stims/simple_20_A_c.gif","","","","","13","simple_similar","images/stimuli/spore_stims/simple_20_A_c.gif","left","","","","",""
"","null","html-keyboard-response","250","478771","0.0-47.0-0.4","SS1613084105380","","","null","","","","","<p><img src= images/blank.png width =""200"" height = ""200"" style = ""float:right""></p><p><img src=images/blank.png width =""800"" height = ""200""></p>","","","","","","","","","","","",""
"","385.0000000093132","sequential-stimulus-presentation","251","480805","0.0-47.0-1.4","SS1613084105380","trial","","40","800","1185.0000000093132","images/stimuli/spore_stims/simple_20_B_c.gif","images/stimuli/spore_stims/simple_20_A_c.gif","","","","","13","simple_similar","images/stimuli/spore_stims/simple_20_B_c.gif","right","","","","",""
"","null","html-keyboard-response","252","481799","0.0-47.0-0.5","SS1613084105380","","","null","","","","","<p><img src= images/blank.png width =""200"" height = ""200"" style = ""float:right""></p><p><img src=images/blank.png width =""800"" height = ""200""></p>","","","","","","","","","","","",""
"","358.99999999674037","sequential-stimulus-presentation","253","483642","0.0-47.0-1.5","SS1613084105380","trial","","40","800","1158.9999999967404","images/stimuli/spore_stims/simple_20_B_c.gif","images/stimuli/spore_stims/simple_20_A_c.gif","","","","","13","simple_similar","images/stimuli/spore_stims/simple_20_A_c.gif","left","","","","",""
"","null","html-keyboard-response","254","484686","0.0-47.0-0.6","SS1613084105380","","","null","","","","","<p><img src= images/blank.png width =""200"" height = ""200"" style = ""float:right""></p><p><img src=images/blank.png width =""800"" height = ""200""></p>","","","","","","","","","","","",""
"","312.00000003445894","sequential-stimulus-presentation","255","486874","0.0-47.0-1.6","SS1613084105380","trial","","40","800","1112.000000034459","images/stimuli/spore_stims/simple_20_B_c.gif","images/stimuli/spore_stims/simple_20_A_c.gif","","","","","13","simple_similar","images/stimuli/spore_stims/simple_20_A_c.gif","left","","","","",""
"","null","html-keyboard-response","256","488392","0.0-47.0-0.7","SS1613084105380","","","null","","","","","<p><img src= images/blank.png width =""200"" height = ""200"" style = ""float:right""></p><p><img src=images/blank.png width =""800"" height = ""200""></p>","","","","","","","","","","","",""
"","370.9999999846332","sequential-stimulus-presentation","257","490425","0.0-47.0-1.7","SS1613084105380","trial","","40","800","1170.9999999846332","images/stimuli/spore_stims/simple_20_B_c.gif","images/stimuli/spore_stims/simple_20_A_c.gif","","","","","13","simple_similar","images/stimuli/spore_stims/simple_20_A_c.gif","left","","","","",""
"","3818.0000000284053","html-keyboard-response","258","494262","0.0-48.0","SS1613084105380","pref_question","","51","","","","","<video width ='960' height = '540' style='padding-top:8%' autoplay muted><source src='images/stimuli/wall_pref.mp4' type='video/mp4'></video>","3","right","66%","13","","","","","","","",""
"","711.0000000102445","sequential-stimulus-presentation","259","496169","0.0-49.0","SS1613084105380","pref_reveal","","40","800","1511.0000000102445","null","null","","","","","13","","","","deviant","","","",""
"","null","html-keyboard-response","260","497037","0.0-50.0-0.0","SS1613084105380","","","null","","","","","<p><img src= images/blank.png width =""200"" height = ""200"" style = ""float:right""></p><p><img src=images/blank.png width =""800"" height = ""200""></p>","","","","","","","","","","","",""
"","982.0000000181608","sequential-stimulus-presentation","261","498866","0.0-50.0-1.0","SS1613084105380","trial","","40","800","1782.0000000181608","images/stimuli/spore_stims/simple_19_B_c.gif","images/stimuli/spore_stims/simple_12_A_d.gif","","","","","14","simple_dissimilar","images/stimuli/spore_stims/simple_12_A_d.gif","middle","","","","",""
"","null","html-keyboard-response","262","500056","0.0-50.0-0.1","SS1613084105380","","","null","","","","","<p><img src= images/blank.png width =""200"" height = ""200"" style = ""float:right""></p><p><img src=images/blank.png width =""800"" height = ""200""></p>","","","","","","","","","","","",""
"","2660.0000000325963","sequential-stimulus-presentation","263","504001","0.0-50.0-1.1","SS1613084105380","trial","","40","800","3460.0000000325963","images/stimuli/spore_stims/simple_19_B_c.gif","images/stimuli/spore_stims/simple_12_A_d.gif","","","","","14","simple_dissimilar","images/stimuli/spore_stims/simple_12_A_d.gif","middle","","","","",""
"","null","html-keyboard-response","264","505301","0.0-50.0-0.2","SS1613084105380","","","null","","","","","<p><img src= images/blank.png width =""200"" height = ""200"" style = ""float:right""></p><p><img src=images/blank.png width =""800"" height = ""200""></p>","","","","","","","","","","","",""
"","1847.9999999981374","sequential-stimulus-presentation","265","509520","0.0-50.0-1.2","SS1613084105380","trial","","40","800","2647.9999999981374","images/stimuli/spore_stims/simple_19_B_c.gif","images/stimuli/spore_stims/simple_12_A_d.gif","","","","","14","simple_dissimilar","images/stimuli/spore_stims/simple_12_A_d.gif","middle","","","","",""
"","null","html-keyboard-response","266","510576","0.0-50.0-0.3","SS1613084105380","","","null","","","","","<p><img src= images/blank.png width =""200"" height = ""200"" style = ""float:right""></p><p><img src=images/blank.png width =""800"" height = ""200""></p>","","","","","","","","","","","",""
"","2242.000000027474","sequential-stimulus-presentation","267","514340","0.0-50.0-1.3","SS1613084105380","trial","","40","800","3042.000000027474","images/stimuli/spore_stims/simple_19_B_c.gif","images/stimuli/spore_stims/simple_12_A_d.gif","","","","","14","simple_dissimilar","images/stimuli/spore_stims/simple_12_A_d.gif","middle","","","","",""
"","null","html-keyboard-response","268","515490","0.0-50.0-0.4","SS1613084105380","","","null","","","","","<p><img src= images/blank.png width =""200"" height = ""200"" style = ""float:right""></p><p><img src=images/blank.png width =""800"" height = ""200""></p>","","","","","","","","","","","",""
"","1429.999999993015","sequential-stimulus-presentation","269","518412","0.0-50.0-1.4","SS1613084105380","trial","","40","800","2229.999999993015","images/stimuli/spore_stims/simple_19_B_c.gif","images/stimuli/spore_stims/simple_12_A_d.gif","","","","","14","simple_dissimilar","images/stimuli/spore_stims/simple_12_A_d.gif","middle","","","","",""
"","null","html-keyboard-response","270","519526","0.0-50.0-0.5","SS1613084105380","","","null","","","","","<p><img src= images/blank.png width =""200"" height = ""200"" style = ""float:right""></p><p><img src=images/blank.png width =""800"" height = ""200""></p>","","","","","","","","","","","",""
"","1067.9999999701977","sequential-stimulus-presentation","271","522589","0.0-50.0-1.5","SS1613084105380","trial","","40","800","1867.9999999701977","images/stimuli/spore_stims/simple_19_B_c.gif","images/stimuli/spore_stims/simple_12_A_d.gif","","","","","14","simple_dissimilar","images/stimuli/spore_stims/simple_12_A_d.gif","middle","","","","",""
"","null","html-keyboard-response","272","524014","0.0-50.0-0.6","SS1613084105380","","","null","","","","","<p><img src= images/blank.png width =""200"" height = ""200"" style = ""float:right""></p><p><img src=images/blank.png width =""800"" height = ""200""></p>","","","","","","","","","","","",""
"","941.9999999809079","sequential-stimulus-presentation","273","526082","0.0-50.0-1.6","SS1613084105380","trial","","40","800","1741.999999980908","images/stimuli/spore_stims/simple_19_B_c.gif","images/stimuli/spore_stims/simple_12_A_d.gif","","","","","14","simple_dissimilar","images/stimuli/spore_stims/simple_12_A_d.gif","middle","","","","",""
"","null","html-keyboard-response","274","527271","0.0-50.0-0.7","SS1613084105380","","","null","","","","","<p><img src= images/blank.png width =""200"" height = ""200"" style = ""float:right""></p><p><img src=images/blank.png width =""800"" height = ""200""></p>","","","","","","","","","","","",""
"","165.0000000372529","sequential-stimulus-presentation","275","528511","0.0-50.0-1.7","SS1613084105380","trial","","40","800","965.0000000372529","images/stimuli/spore_stims/simple_19_B_c.gif","images/stimuli/spore_stims/simple_12_A_d.gif","","","","","14","simple_dissimilar","images/stimuli/spore_stims/simple_19_B_c.gif","left","","","","",""
"","3267.999999981839","html-keyboard-response","276","531797","0.0-51.0","SS1613084105380","pref_question","","51","","","","","<video width ='960' height = '540' style='padding-top:8%' autoplay muted><source src='images/stimuli/wall_pref.mp4' type='video/mp4'></video>","3","right","66%","14","","","","","","","",""
"","10.000000009313226","sequential-stimulus-presentation","277","533303","0.0-52.0","SS1613084105380","pref_reveal","","40","800","810.0000000093132","null","null","","","","","14","","","","novel","","","",""
"","null","html-keyboard-response","278","534158","0.0-53.0-0.0","SS1613084105380","","","null","","","","","<p><img src= images/blank.png width =""200"" height = ""200"" style = ""float:right""></p><p><img src=images/blank.png width =""800"" height = ""200""></p>","","","","","","","","","","","",""
"","899.0000000339933","sequential-stimulus-presentation","279","536278","0.0-53.0-1.0","SS1613084105380","trial","","40","800","1699.0000000339933","images/stimuli/spore_stims/complex_19_B_a.gif","images/stimuli/spore_stims/complex_19_A_a.gif","","","","","15","complex_similar","images/stimuli/spore_stims/complex_19_A_a.gif","middle","","","","",""
"","null","html-keyboard-response","280","537698","0.0-53.0-0.1","SS1613084105380","","","null","","","","","<p><img src= images/blank.png width =""200"" height = ""200"" style = ""float:right""></p><p><img src=images/blank.png width =""800"" height = ""200""></p>","","","","","","","","","","","",""
"","930.9999999823049","sequential-stimulus-presentation","281","542738","0.0-53.0-1.1","SS1613084105380","trial","","40","800","1730.9999999823049","images/stimuli/spore_stims/complex_19_B_a.gif","images/stimuli/spore_stims/complex_19_A_a.gif","","","","","15","complex_similar","images/stimuli/spore_stims/complex_19_A_a.gif","middle","","","","",""
"","null","html-keyboard-response","282","543813","0.0-53.0-0.2","SS1613084105380","","","null","","","","","<p><img src= images/blank.png width =""200"" height = ""200"" style = ""float:right""></p><p><img src=images/blank.png width =""800"" height = ""200""></p>","","","","","","","","","","","",""
"","8413.999999989755","sequential-stimulus-presentation","283","553097","0.0-53.0-1.2","SS1613084105380","trial","","40","800","9213.999999989755","images/stimuli/spore_stims/complex_19_B_a.gif","images/stimuli/spore_stims/complex_19_A_a.gif","","","","","15","complex_similar","images/stimuli/spore_stims/complex_19_A_a.gif","middle","","","","",""
"","null","html-keyboard-response","284","554284","0.0-53.0-0.3","SS1613084105380","","","null","","","","","<p><img src= images/blank.png width =""200"" height = ""200"" style = ""float:right""></p><p><img src=images/blank.png width =""800"" height = ""200""></p>","","","","","","","","","","","",""
"","218.0000000516884","sequential-stimulus-presentation","285","555366","0.0-53.0-1.3","SS1613084105380","trial","","40","800","1018.0000000516884","images/stimuli/spore_stims/complex_19_B_a.gif","images/stimuli/spore_stims/complex_19_A_a.gif","","","","","15","complex_similar","images/stimuli/spore_stims/complex_19_A_a.gif","middle","","","","",""
"","null","html-keyboard-response","286","556589","0.0-53.0-0.4","SS1613084105380","","","null","","","","","<p><img src= images/blank.png width =""200"" height = ""200"" style = ""float:right""></p><p><img src=images/blank.png width =""800"" height = ""200""></p>","","","","","","","","","","","",""
"","1010.999999998603","sequential-stimulus-presentation","287","558559","0.0-53.0-1.4","SS1613084105380","trial","","40","800","1810.999999998603","images/stimuli/spore_stims/complex_19_B_a.gif","images/stimuli/spore_stims/complex_19_A_a.gif","","","","","15","complex_similar","images/stimuli/spore_stims/complex_19_A_a.gif","middle","","","","",""
"","null","html-keyboard-response","288","559786","0.0-53.0-0.5","SS1613084105380","","","null","","","","","<p><img src= images/blank.png width =""200"" height = ""200"" style = ""float:right""></p><p><img src=images/blank.png width =""800"" height = ""200""></p>","","","","","","","","","","","",""
"","527.9999999911524","sequential-stimulus-presentation","289","561315","0.0-53.0-1.5","SS1613084105380","trial","","40","800","1327.9999999911524","images/stimuli/spore_stims/complex_19_B_a.gif","images/stimuli/spore_stims/complex_19_A_a.gif","","","","","15","complex_similar","images/stimuli/spore_stims/complex_19_A_a.gif","middle","","","","",""
"","null","html-keyboard-response","290","562443","0.0-53.0-0.6","SS1613084105380","","","null","","","","","<p><img src= images/blank.png width =""200"" height = ""200"" style = ""float:right""></p><p><img src=images/blank.png width =""800"" height = ""200""></p>","","","","","","","","","","","",""
"","297.0000000204891","sequential-stimulus-presentation","291","563640","0.0-53.0-1.6","SS1613084105380","trial","","40","800","1097.000000020489","images/stimuli/spore_stims/complex_19_B_a.gif","images/stimuli/spore_stims/complex_19_A_a.gif","","","","","15","complex_similar","images/stimuli/spore_stims/complex_19_B_a.gif","left","","","","",""
"","null","html-keyboard-response","292","564764","0.0-53.0-0.7","SS1613084105380","","","null","","","","","<p><img src= images/blank.png width =""200"" height = ""200"" style = ""float:right""></p><p><img src=images/blank.png width =""800"" height = ""200""></p>","","","","","","","","","","","",""
"","486.99999996460974","sequential-stimulus-presentation","293","566202","0.0-53.0-1.7","SS1613084105380","trial","","40","800","1286.9999999646097","images/stimuli/spore_stims/complex_19_B_a.gif","images/stimuli/spore_stims/complex_19_A_a.gif","","","","","15","complex_similar","images/stimuli/spore_stims/complex_19_A_a.gif","middle","","","","",""
"","3774.9999999650754","html-keyboard-response","294","570766","0.0-54.0","SS1613084105380","pref_question","","99","","","","","<video width ='960' height = '540' style='padding-top:8%' autoplay muted><source src='images/stimuli/wall_pref.mp4' type='video/mp4'></video>","3","right","66%","15","","","","","","","",""
"","923.0000000097789","sequential-stimulus-presentation","295","572583","0.0-55.0","SS1613084105380","pref_reveal","","40","800","1723.000000009779","null","null","","","","","15","","","","novel","","","",""
"","null","html-keyboard-response","296","573872","0.0-56.0-0.0","SS1613084105380","","","null","","","","","<p><img src= images/blank.png width =""200"" height = ""200"" style = ""float:right""></p><p><img src=images/blank.png width =""800"" height = ""200""></p>","","","","","","","","","","","",""
"","548.0000000097789","sequential-stimulus-presentation","297","575270","0.0-56.0-1.0","SS1613084105380","trial","","40","800","1348.000000009779","images/stimuli/spore_stims/complex_10_B_b.gif","images/stimuli/spore_stims/complex_20_B_a.gif","","","","","16","complex_dissimilar","images/stimuli/spore_stims/complex_20_B_a.gif","left","","","","",""
"","null","html-keyboard-response","298","576299","0.0-56.0-0.1","SS1613084105380","","","null","","","","","<p><img src= images/blank.png width =""200"" height = ""200"" style = ""float:right""></p><p><img src=images/blank.png width =""800"" height = ""200""></p>","","","","","","","","","","","",""
"","454.00000002700835","sequential-stimulus-presentation","299","577995","0.0-56.0-1.1","SS1613084105380","trial","","40","800","1254.0000000270084","images/stimuli/spore_stims/complex_10_B_b.gif","images/stimuli/spore_stims/complex_20_B_a.gif","","","","","16","complex_dissimilar","images/stimuli/spore_stims/complex_20_B_a.gif","left","","","","",""
"","null","html-keyboard-response","300","579262","0.0-56.0-0.2","SS1613084105380","","","null","","","","","<p><img src= images/blank.png width =""200"" height = ""200"" style = ""float:right""></p><p><img src=images/blank.png width =""800"" height = ""200""></p>","","","","","","","","","","","",""
"","584.9999999627471","sequential-stimulus-presentation","301","581498","0.0-56.0-1.2","SS1613084105380","trial","","40","800","1384.999999962747","images/stimuli/spore_stims/complex_10_B_b.gif","images/stimuli/spore_stims/complex_20_B_a.gif","","","","","16","complex_dissimilar","images/stimuli/spore_stims/complex_20_B_a.gif","left","","","","",""
"","null","html-keyboard-response","302","582729","0.0-56.0-0.3","SS1613084105380","","","null","","","","","<p><img src= images/blank.png width =""200"" height = ""200"" style = ""float:right""></p><p><img src=images/blank.png width =""800"" height = ""200""></p>","","","","","","","","","","","",""
"","467.00000000419095","sequential-stimulus-presentation","303","584548","0.0-56.0-1.3","SS1613084105380","trial","","40","800","1267.000000004191","images/stimuli/spore_stims/complex_10_B_b.gif","images/stimuli/spore_stims/complex_20_B_a.gif","","","","","16","complex_dissimilar","images/stimuli/spore_stims/complex_20_B_a.gif","left","","","","",""
"","null","html-keyboard-response","304","585898","0.0-56.0-0.4","SS1613084105380","","","null","","","","","<p><img src= images/blank.png width =""200"" height = ""200"" style = ""float:right""></p><p><img src=images/blank.png width =""800"" height = ""200""></p>","","","","","","","","","","","",""
"","302.0000000251457","sequential-stimulus-presentation","305","587619","0.0-56.0-1.4","SS1613084105380","trial","","40","800","1102.0000000251457","images/stimuli/spore_stims/complex_10_B_b.gif","images/stimuli/spore_stims/complex_20_B_a.gif","","","","","16","complex_dissimilar","images/stimuli/spore_stims/complex_20_B_a.gif","left","","","","",""
"","null","html-keyboard-response","306","588714","0.0-56.0-0.5","SS1613084105380","","","null","","","","","<p><img src= images/blank.png width =""200"" height = ""200"" style = ""float:right""></p><p><img src=images/blank.png width =""800"" height = ""200""></p>","","","","","","","","","","","",""
"","449.99999995343387","sequential-stimulus-presentation","307","590644","0.0-56.0-1.5","SS1613084105380","trial","","40","800","1249.9999999534339","images/stimuli/spore_stims/complex_10_B_b.gif","images/stimuli/spore_stims/complex_20_B_a.gif","","","","","16","complex_dissimilar","images/stimuli/spore_stims/complex_20_B_a.gif","left","","","","",""
"","null","html-keyboard-response","308","591712","0.0-56.0-0.6","SS1613084105380","","","null","","","","","<p><img src= images/blank.png width =""200"" height = ""200"" style = ""float:right""></p><p><img src=images/blank.png width =""800"" height = ""200""></p>","","","","","","","","","","","",""
"","407.00000000651926","sequential-stimulus-presentation","309","593100","0.0-56.0-1.6","SS1613084105380","trial","","40","800","1207.0000000065193","images/stimuli/spore_stims/complex_10_B_b.gif","images/stimuli/spore_stims/complex_20_B_a.gif","","","","","16","complex_dissimilar","images/stimuli/spore_stims/complex_10_B_b.gif","right","","","","",""
"","null","html-keyboard-response","310","594122","0.0-56.0-0.7","SS1613084105380","","","null","","","","","<p><img src= images/blank.png width =""200"" height = ""200"" style = ""float:right""></p><p><img src=images/blank.png width =""800"" height = ""200""></p>","","","","","","","","","","","",""
"","767.9999999818392","sequential-stimulus-presentation","311","596124","0.0-56.0-1.7","SS1613084105380","trial","","40","800","1567.9999999818392","images/stimuli/spore_stims/complex_10_B_b.gif","images/stimuli/spore_stims/complex_20_B_a.gif","","","","","16","complex_dissimilar","images/stimuli/spore_stims/complex_20_B_a.gif","left","","","","",""
"","3250","html-keyboard-response","312","599407","0.0-57.0","SS1613084105380","pref_question","","98","","","","","<video width ='960' height = '540' style='padding-top:8%' autoplay muted><source src='images/stimuli/wall_pref.mp4' type='video/mp4'></video>","2","middle","45%","16","","","","","","","",""
