"view_history","rt","trial_type","trial_index","time_elapsed","internal_node_id","subject","stimulus_type","trial_stimulus","key_press","minimum_viewing_duration","trial_looking_time","block_deviant","block_background","stimulus","wall_pref","location","location_percent","block_number","block_type","stimulus_displayed","position_displayed","stim_type_selected","responses","question_order","stimulus_left","stimulus_right"
"[{""page_index"":0,""viewing_time"":10989.235000000917}]","10990.160000001197","instructions","0","10993","0.0-0.0","SS1613099355317","","","","","","","","","","","","","","","","","","","",""
"[{""page_index"":0,""viewing_time"":11044.80999999214},{""page_index"":1,""viewing_time"":3970.03000001132}]","15015.109999993001","instructions","1","28016","0.0-1.0","SS1613099355317","instructions","","","","","","","","","","","","","","","","","","",""
"","7819.545000005746","sequential-stimulus-presentation","2","36641","0.0-2.0","SS1613099355317","","","40","800","8619.545000005746","null","null","","","","","","","","","","","","",""
"","2011.8100000108825","sequential-stimulus-presentation","3","39459","0.0-3.0","SS1613099355317","","","40","800","2811.8100000108825","null","null","","","","","","","","","","","","",""
"[{""page_index"":0,""viewing_time"":5531.944999995176}]","5532.479999994393","instructions","4","44994","0.0-4.0","SS1613099355317","instructions","","","","","","","","","","","","","","","","","","",""
"","4774.404999989201","html-keyboard-response","5","49773","0.0-5.0","SS1613099355317","instructions","","97","","","","","<video width ='960' height = '540' autoplay muted><source src='images/stimuli/wall_pref.mp4' type='video/mp4'></video>","1","left","25%","","","","","","","","",""
"","1646.8800000002375","sequential-stimulus-presentation","6","52228","0.0-6.0","SS1613099355317","pref_reveal","","40","800","2446.8800000002375","null","null","","","","","","","","","","","","",""
"[{""page_index"":0,""viewing_time"":9414.915000001201},{""page_index"":1,""viewing_time"":3860.065000000759},{""page_index"":2,""viewing_time"":1258.414999989327},{""page_index"":3,""viewing_time"":803.6500000016531}]","15337.394999995013","instructions","7","67567","0.0-7.0","SS1613099355317","instructions","","","","","","","","","","","","","","","","","","",""
"","null","html-keyboard-response","8","68660","0.0-8.0-0.0","SS1613099355317","","","null","","","","","<p><img src= images/blank.png width =""200"" height = ""200"" style = ""float:right""></p><p><img src=images/blank.png width =""800"" height = ""200""></p>","","","","","","","","","","","",""
"","1280.895000003511","sequential-stimulus-presentation","9","70757","0.0-8.0-1.0","SS1613099355317","trial","","40","800","2080.895000003511","images/stimuli/spore_stims/simple_03_A_a.gif","images/stimuli/spore_stims/simple_18_B_c.gif","","","","","0","simple_dissimilar","images/stimuli/spore_stims/simple_18_B_c.gif","left","","","","",""
"","null","html-keyboard-response","10","71861","0.0-8.0-0.1","SS1613099355317","","","null","","","","","<p><img src= images/blank.png width =""200"" height = ""200"" style = ""float:right""></p><p><img src=images/blank.png width =""800"" height = ""200""></p>","","","","","","","","","","","",""
"","1199.9049999867566","sequential-stimulus-presentation","11","73868","0.0-8.0-1.1","SS1613099355317","trial","","40","800","1999.9049999867566","images/stimuli/spore_stims/simple_03_A_a.gif","images/stimuli/spore_stims/simple_18_B_c.gif","","","","","0","simple_dissimilar","images/stimuli/spore_stims/simple_18_B_c.gif","left","","","","",""
"","null","html-keyboard-response","12","74751","0.0-8.0-0.2","SS1613099355317","","","null","","","","","<p><img src= images/blank.png width =""200"" height = ""200"" style = ""float:right""></p><p><img src=images/blank.png width =""800"" height = ""200""></p>","","","","","","","","","","","",""
"","2262.105000001611","sequential-stimulus-presentation","13","77820","0.0-8.0-1.2","SS1613099355317","trial","","40","800","3062.105000001611","images/stimuli/spore_stims/simple_03_A_a.gif","images/stimuli/spore_stims/simple_18_B_c.gif","","","","","0","simple_dissimilar","images/stimuli/spore_stims/simple_18_B_c.gif","left","","","","",""
"","null","html-keyboard-response","14","78911","0.0-8.0-0.3","SS1613099355317","","","null","","","","","<p><img src= images/blank.png width =""200"" height = ""200"" style = ""float:right""></p><p><img src=images/blank.png width =""800"" height = ""200""></p>","","","","","","","","","","","",""
"","1597.7249999996275","sequential-stimulus-presentation","15","81315","0.0-8.0-1.3","SS1613099355317","trial","","40","800","2397.7249999996275","images/stimuli/spore_stims/simple_03_A_a.gif","images/stimuli/spore_stims/simple_18_B_c.gif","","","","","0","simple_dissimilar","images/stimuli/spore_stims/simple_03_A_a.gif","middle","","","","",""
"","null","html-keyboard-response","16","82223","0.0-8.0-0.4","SS1613099355317","","","null","","","","","<p><img src= images/blank.png width =""200"" height = ""200"" style = ""float:right""></p><p><img src=images/blank.png width =""800"" height = ""200""></p>","","","","","","","","","","","",""
"","145.75500000501052","sequential-stimulus-presentation","17","83174","0.0-8.0-1.4","SS1613099355317","trial","","40","800","945.7550000050105","images/stimuli/spore_stims/simple_03_A_a.gif","images/stimuli/spore_stims/simple_18_B_c.gif","","","","","0","simple_dissimilar","images/stimuli/spore_stims/simple_18_B_c.gif","left","","","","",""
"","null","html-keyboard-response","18","84055","0.0-8.0-0.5","SS1613099355317","","","null","","","","","<p><img src= images/blank.png width =""200"" height = ""200"" style = ""float:right""></p><p><img src=images/blank.png width =""800"" height = ""200""></p>","","","","","","","","","","","",""
"","967.9599999944912","sequential-stimulus-presentation","19","85844","0.0-8.0-1.5","SS1613099355317","trial","","40","800","1767.9599999944912","images/stimuli/spore_stims/simple_03_A_a.gif","images/stimuli/spore_stims/simple_18_B_c.gif","","","","","0","simple_dissimilar","images/stimuli/spore_stims/simple_18_B_c.gif","left","","","","",""
"","null","html-keyboard-response","20","87161","0.0-8.0-0.6","SS1613099355317","","","null","","","","","<p><img src= images/blank.png width =""200"" height = ""200"" style = ""float:right""></p><p><img src=images/blank.png width =""800"" height = ""200""></p>","","","","","","","","","","","",""
"","313.87500000710133","sequential-stimulus-presentation","21","88292","0.0-8.0-1.6","SS1613099355317","trial","","40","800","1113.8750000071013","images/stimuli/spore_stims/simple_03_A_a.gif","images/stimuli/spore_stims/simple_18_B_c.gif","","","","","0","simple_dissimilar","images/stimuli/spore_stims/simple_18_B_c.gif","left","","","","",""
"","null","html-keyboard-response","22","89223","0.0-8.0-0.7","SS1613099355317","","","null","","","","","<p><img src= images/blank.png width =""200"" height = ""200"" style = ""float:right""></p><p><img src=images/blank.png width =""800"" height = ""200""></p>","","","","","","","","","","","",""
"","1286.005000001751","sequential-stimulus-presentation","23","91315","0.0-8.0-1.7","SS1613099355317","trial","","40","800","2086.005000001751","images/stimuli/spore_stims/simple_03_A_a.gif","images/stimuli/spore_stims/simple_18_B_c.gif","","","","","0","simple_dissimilar","images/stimuli/spore_stims/simple_18_B_c.gif","left","","","","",""
"","1539.859999989858","html-keyboard-response","24","92860","0.0-9.0","SS1613099355317","pref_question","","99","","","","","<video width ='960' height = '540' style='padding-top:8%' autoplay muted><source src='images/stimuli/wall_pref.mp4' type='video/mp4'></video>","3","right","66%","0","","","","","","","",""
"","2042.155000002822","sequential-stimulus-presentation","25","95709","0.0-10.0","SS1613099355317","pref_reveal","","40","800","2842.155000002822","null","null","","","","","0","","","","novel","","","",""
"","null","html-keyboard-response","26","96532","0.0-11.0-0.0","SS1613099355317","","","null","","","","","<p><img src= images/blank.png width =""200"" height = ""200"" style = ""float:right""></p><p><img src=images/blank.png width =""800"" height = ""200""></p>","","","","","","","","","","","",""
"","1686.8300000060117","sequential-stimulus-presentation","27","99027","0.0-11.0-1.0","SS1613099355317","trial","","40","800","2486.8300000060117","images/stimuli/spore_stims/simple_04_B_b.gif","images/stimuli/spore_stims/simple_03_B_c.gif","","","","","1","simple_dissimilar","images/stimuli/spore_stims/simple_03_B_c.gif","right","","","","",""
"","null","html-keyboard-response","28","100309","0.0-11.0-0.1","SS1613099355317","","","null","","","","","<p><img src= images/blank.png width =""200"" height = ""200"" style = ""float:right""></p><p><img src=images/blank.png width =""800"" height = ""200""></p>","","","","","","","","","","","",""
"","847.0300000044517","sequential-stimulus-presentation","29","101964","0.0-11.0-1.1","SS1613099355317","trial","","40","800","1647.0300000044517","images/stimuli/spore_stims/simple_04_B_b.gif","images/stimuli/spore_stims/simple_03_B_c.gif","","","","","1","simple_dissimilar","images/stimuli/spore_stims/simple_03_B_c.gif","right","","","","",""
"","null","html-keyboard-response","30","102804","0.0-11.0-0.2","SS1613099355317","","","null","","","","","<p><img src= images/blank.png width =""200"" height = ""200"" style = ""float:right""></p><p><img src=images/blank.png width =""800"" height = ""200""></p>","","","","","","","","","","","",""
"","969.054999994114","sequential-stimulus-presentation","31","104579","0.0-11.0-1.2","SS1613099355317","trial","","40","800","1769.054999994114","images/stimuli/spore_stims/simple_04_B_b.gif","images/stimuli/spore_stims/simple_03_B_c.gif","","","","","1","simple_dissimilar","images/stimuli/spore_stims/simple_03_B_c.gif","right","","","","",""
"","null","html-keyboard-response","32","105696","0.0-11.0-0.3","SS1613099355317","","","null","","","","","<p><img src= images/blank.png width =""200"" height = ""200"" style = ""float:right""></p><p><img src=images/blank.png width =""800"" height = ""200""></p>","","","","","","","","","","","",""
"","1132.7900000032969","sequential-stimulus-presentation","33","107635","0.0-11.0-1.3","SS1613099355317","trial","","40","800","1932.7900000032969","images/stimuli/spore_stims/simple_04_B_b.gif","images/stimuli/spore_stims/simple_03_B_c.gif","","","","","1","simple_dissimilar","images/stimuli/spore_stims/simple_04_B_b.gif","left","","","","",""
"","null","html-keyboard-response","34","108649","0.0-11.0-0.4","SS1613099355317","","","null","","","","","<p><img src= images/blank.png width =""200"" height = ""200"" style = ""float:right""></p><p><img src=images/blank.png width =""800"" height = ""200""></p>","","","","","","","","","","","",""
"","723.2250000088243","sequential-stimulus-presentation","35","110179","0.0-11.0-1.4","SS1613099355317","trial","","40","800","1523.2250000088243","images/stimuli/spore_stims/simple_04_B_b.gif","images/stimuli/spore_stims/simple_03_B_c.gif","","","","","1","simple_dissimilar","images/stimuli/spore_stims/simple_03_B_c.gif","right","","","","",""
"","null","html-keyboard-response","36","111434","0.0-11.0-0.5","SS1613099355317","","","null","","","","","<p><img src= images/blank.png width =""200"" height = ""200"" style = ""float:right""></p><p><img src=images/blank.png width =""800"" height = ""200""></p>","","","","","","","","","","","",""
"","576.90499999444","sequential-stimulus-presentation","37","112819","0.0-11.0-1.5","SS1613099355317","trial","","40","800","1376.90499999444","images/stimuli/spore_stims/simple_04_B_b.gif","images/stimuli/spore_stims/simple_03_B_c.gif","","","","","1","simple_dissimilar","images/stimuli/spore_stims/simple_03_B_c.gif","right","","","","",""
"","null","html-keyboard-response","38","114023","0.0-11.0-0.6","SS1613099355317","","","null","","","","","<p><img src= images/blank.png width =""200"" height = ""200"" style = ""float:right""></p><p><img src=images/blank.png width =""800"" height = ""200""></p>","","","","","","","","","","","",""
"","535.8249999990221","sequential-stimulus-presentation","39","115371","0.0-11.0-1.6","SS1613099355317","trial","","40","800","1335.824999999022","images/stimuli/spore_stims/simple_04_B_b.gif","images/stimuli/spore_stims/simple_03_B_c.gif","","","","","1","simple_dissimilar","images/stimuli/spore_stims/simple_03_B_c.gif","right","","","","",""
"","null","html-keyboard-response","40","116274","0.0-11.0-0.7","SS1613099355317","","","null","","","","","<p><img src= images/blank.png width =""200"" height = ""200"" style = ""float:right""></p><p><img src=images/blank.png width =""800"" height = ""200""></p>","","","","","","","","","","","",""
"","1114.8800000082701","sequential-stimulus-presentation","41","118195","0.0-11.0-1.7","SS1613099355317","trial","","40","800","1914.8800000082701","images/stimuli/spore_stims/simple_04_B_b.gif","images/stimuli/spore_stims/simple_03_B_c.gif","","","","","1","simple_dissimilar","images/stimuli/spore_stims/simple_03_B_c.gif","right","","","","",""
"","1475.9899999917252","html-keyboard-response","42","119675","0.0-12.0","SS1613099355317","pref_question","","98","","","","","<video width ='960' height = '540' style='padding-top:8%' autoplay muted><source src='images/stimuli/wall_pref.mp4' type='video/mp4'></video>","2","middle","45%","1","","","","","","","",""
"","1211.6700000042329","sequential-stimulus-presentation","43","121724","0.0-13.0","SS1613099355317","pref_reveal","","40","800","2011.6700000042329","null","null","","","","","1","","","","novel","","","",""
"","null","html-keyboard-response","44","122734","0.0-14.0-0.0","SS1613099355317","","","null","","","","","<p><img src= images/blank.png width =""200"" height = ""200"" style = ""float:right""></p><p><img src=images/blank.png width =""800"" height = ""200""></p>","","","","","","","","","","","",""
"","1174.589999995078","sequential-stimulus-presentation","45","124715","0.0-14.0-1.0","SS1613099355317","trial","","40","800","1974.589999995078","images/stimuli/spore_stims/simple_01_A_a.gif","images/stimuli/spore_stims/simple_01_B_a.gif","","","","","2","simple_similar","images/stimuli/spore_stims/simple_01_B_a.gif","left","","","","",""
"","null","html-keyboard-response","46","125652","0.0-14.0-0.1","SS1613099355317","","","null","","","","","<p><img src= images/blank.png width =""200"" height = ""200"" style = ""float:right""></p><p><img src=images/blank.png width =""800"" height = ""200""></p>","","","","","","","","","","","",""
"","569.325000004028","sequential-stimulus-presentation","47","127029","0.0-14.0-1.1","SS1613099355317","trial","","40","800","1369.325000004028","images/stimuli/spore_stims/simple_01_A_a.gif","images/stimuli/spore_stims/simple_01_B_a.gif","","","","","2","simple_similar","images/stimuli/spore_stims/simple_01_B_a.gif","left","","","","",""
"","null","html-keyboard-response","48","127970","0.0-14.0-0.2","SS1613099355317","","","null","","","","","<p><img src= images/blank.png width =""200"" height = ""200"" style = ""float:right""></p><p><img src=images/blank.png width =""800"" height = ""200""></p>","","","","","","","","","","","",""
"","619.1099999996368","sequential-stimulus-presentation","49","129395","0.0-14.0-1.2","SS1613099355317","trial","","40","800","1419.1099999996368","images/stimuli/spore_stims/simple_01_A_a.gif","images/stimuli/spore_stims/simple_01_B_a.gif","","","","","2","simple_similar","images/stimuli/spore_stims/simple_01_B_a.gif","left","","","","",""
"","null","html-keyboard-response","50","130625","0.0-14.0-0.3","SS1613099355317","","","null","","","","","<p><img src= images/blank.png width =""200"" height = ""200"" style = ""float:right""></p><p><img src=images/blank.png width =""800"" height = ""200""></p>","","","","","","","","","","","",""
"","617.0599999895785","sequential-stimulus-presentation","51","132051","0.0-14.0-1.3","SS1613099355317","trial","","40","800","1417.0599999895785","images/stimuli/spore_stims/simple_01_A_a.gif","images/stimuli/spore_stims/simple_01_B_a.gif","","","","","2","simple_similar","images/stimuli/spore_stims/simple_01_B_a.gif","left","","","","",""
"","null","html-keyboard-response","52","132866","0.0-14.0-0.4","SS1613099355317","","","null","","","","","<p><img src= images/blank.png width =""200"" height = ""200"" style = ""float:right""></p><p><img src=images/blank.png width =""800"" height = ""200""></p>","","","","","","","","","","","",""
"","848.054999994929","sequential-stimulus-presentation","53","134523","0.0-14.0-1.4","SS1613099355317","trial","","40","800","1648.054999994929","images/stimuli/spore_stims/simple_01_A_a.gif","images/stimuli/spore_stims/simple_01_B_a.gif","","","","","2","simple_similar","images/stimuli/spore_stims/simple_01_B_a.gif","left","","","","",""
"","null","html-keyboard-response","54","135690","0.0-14.0-0.5","SS1613099355317","","","null","","","","","<p><img src= images/blank.png width =""200"" height = ""200"" style = ""float:right""></p><p><img src=images/blank.png width =""800"" height = ""200""></p>","","","","","","","","","","","",""
"","4946.379999993951","sequential-stimulus-presentation","55","141445","0.0-14.0-1.5","SS1613099355317","trial","","40","800","5746.379999993951","images/stimuli/spore_stims/simple_01_A_a.gif","images/stimuli/spore_stims/simple_01_B_a.gif","","","","","2","simple_similar","images/stimuli/spore_stims/simple_01_B_a.gif","left","","","","",""
"","null","html-keyboard-response","56","142471","0.0-14.0-0.6","SS1613099355317","","","null","","","","","<p><img src= images/blank.png width =""200"" height = ""200"" style = ""float:right""></p><p><img src=images/blank.png width =""800"" height = ""200""></p>","","","","","","","","","","","",""
"","4141.345000010915","sequential-stimulus-presentation","57","147420","0.0-14.0-1.6","SS1613099355317","trial","","40","800","4941.345000010915","images/stimuli/spore_stims/simple_01_A_a.gif","images/stimuli/spore_stims/simple_01_B_a.gif","","","","","2","simple_similar","images/stimuli/spore_stims/simple_01_A_a.gif","middle","","","","",""
"","null","html-keyboard-response","58","148571","0.0-14.0-0.7","SS1613099355317","","","null","","","","","<p><img src= images/blank.png width =""200"" height = ""200"" style = ""float:right""></p><p><img src=images/blank.png width =""800"" height = ""200""></p>","","","","","","","","","","","",""
"","923.1950000103097","sequential-stimulus-presentation","59","150300","0.0-14.0-1.7","SS1613099355317","trial","","40","800","1723.1950000103097","images/stimuli/spore_stims/simple_01_A_a.gif","images/stimuli/spore_stims/simple_01_B_a.gif","","","","","2","simple_similar","images/stimuli/spore_stims/simple_01_B_a.gif","left","","","","",""
"","1449.3149999907473","html-keyboard-response","60","151756","0.0-15.0","SS1613099355317","pref_question","","97","","","","","<video width ='960' height = '540' style='padding-top:8%' autoplay muted><source src='images/stimuli/wall_pref.mp4' type='video/mp4'></video>","1","left","25%","2","","","","","","","",""
"","492.2650000080466","sequential-stimulus-presentation","61","153067","0.0-16.0","SS1613099355317","pref_reveal","","40","800","1292.2650000080466","null","null","","","","","2","","","","background","","","",""
"","null","html-keyboard-response","62","153877","0.0-17.0-0.0","SS1613099355317","","","null","","","","","<p><img src= images/blank.png width =""200"" height = ""200"" style = ""float:right""></p><p><img src=images/blank.png width =""800"" height = ""200""></p>","","","","","","","","","","","",""
"","2540.225000004284","sequential-stimulus-presentation","63","157227","0.0-17.0-1.0","SS1613099355317","trial","","40","800","3340.225000004284","images/stimuli/spore_stims/simple_08_A_a.gif","images/stimuli/spore_stims/simple_13_A_d.gif","","","","","3","simple_dissimilar","images/stimuli/spore_stims/simple_13_A_d.gif","right","","","","",""
"","null","html-keyboard-response","64","158054","0.0-17.0-0.1","SS1613099355317","","","null","","","","","<p><img src= images/blank.png width =""200"" height = ""200"" style = ""float:right""></p><p><img src=images/blank.png width =""800"" height = ""200""></p>","","","","","","","","","","","",""
"","3510.5449999973644","sequential-stimulus-presentation","65","162373","0.0-17.0-1.1","SS1613099355317","trial","","40","800","4310.544999997364","images/stimuli/spore_stims/simple_08_A_a.gif","images/stimuli/spore_stims/simple_13_A_d.gif","","","","","3","simple_dissimilar","images/stimuli/spore_stims/simple_13_A_d.gif","right","","","","",""
"","null","html-keyboard-response","66","163516","0.0-17.0-0.2","SS1613099355317","","","null","","","","","<p><img src= images/blank.png width =""200"" height = ""200"" style = ""float:right""></p><p><img src=images/blank.png width =""800"" height = ""200""></p>","","","","","","","","","","","",""
"","1126.2500000011642","sequential-stimulus-presentation","67","165452","0.0-17.0-1.2","SS1613099355317","trial","","40","800","1926.2500000011642","images/stimuli/spore_stims/simple_08_A_a.gif","images/stimuli/spore_stims/simple_13_A_d.gif","","","","","3","simple_dissimilar","images/stimuli/spore_stims/simple_13_A_d.gif","right","","","","",""
"","null","html-keyboard-response","68","166575","0.0-17.0-0.3","SS1613099355317","","","null","","","","","<p><img src= images/blank.png width =""200"" height = ""200"" style = ""float:right""></p><p><img src=images/blank.png width =""800"" height = ""200""></p>","","","","","","","","","","","",""
"","8965.595000001485","sequential-stimulus-presentation","69","176349","0.0-17.0-1.3","SS1613099355317","trial","","40","800","9765.595000001485","images/stimuli/spore_stims/simple_08_A_a.gif","images/stimuli/spore_stims/simple_13_A_d.gif","","","","","3","simple_dissimilar","images/stimuli/spore_stims/simple_08_A_a.gif","left","","","","",""
"","null","html-keyboard-response","70","177620","0.0-17.0-0.4","SS1613099355317","","","null","","","","","<p><img src= images/blank.png width =""200"" height = ""200"" style = ""float:right""></p><p><img src=images/blank.png width =""800"" height = ""200""></p>","","","","","","","","","","","",""
"","750.2550000062911","sequential-stimulus-presentation","71","179180","0.0-17.0-1.4","SS1613099355317","trial","","40","800","1550.255000006291","images/stimuli/spore_stims/simple_08_A_a.gif","images/stimuli/spore_stims/simple_13_A_d.gif","","","","","3","simple_dissimilar","images/stimuli/spore_stims/simple_13_A_d.gif","right","","","","",""
"","null","html-keyboard-response","72","180161","0.0-17.0-0.5","SS1613099355317","","","null","","","","","<p><img src= images/blank.png width =""200"" height = ""200"" style = ""float:right""></p><p><img src=images/blank.png width =""800"" height = ""200""></p>","","","","","","","","","","","",""
"","763.4450000041397","sequential-stimulus-presentation","73","181732","0.0-17.0-1.5","SS1613099355317","trial","","40","800","1563.4450000041397","images/stimuli/spore_stims/simple_08_A_a.gif","images/stimuli/spore_stims/simple_13_A_d.gif","","","","","3","simple_dissimilar","images/stimuli/spore_stims/simple_13_A_d.gif","right","","","","",""
"","null","html-keyboard-response","74","182657","0.0-17.0-0.6","SS1613099355317","","","null","","","","","<p><img src= images/blank.png width =""200"" height = ""200"" style = ""float:right""></p><p><img src=images/blank.png width =""800"" height = ""200""></p>","","","","","","","","","","","",""
"","772.0949999929871","sequential-stimulus-presentation","75","184251","0.0-17.0-1.6","SS1613099355317","trial","","40","800","1572.0949999929871","images/stimuli/spore_stims/simple_08_A_a.gif","images/stimuli/spore_stims/simple_13_A_d.gif","","","","","3","simple_dissimilar","images/stimuli/spore_stims/simple_13_A_d.gif","right","","","","",""
"","null","html-keyboard-response","76","185258","0.0-17.0-0.7","SS1613099355317","","","null","","","","","<p><img src= images/blank.png width =""200"" height = ""200"" style = ""float:right""></p><p><img src=images/blank.png width =""800"" height = ""200""></p>","","","","","","","","","","","",""
"","706.480000008014","sequential-stimulus-presentation","77","186773","0.0-17.0-1.7","SS1613099355317","trial","","40","800","1506.480000008014","images/stimuli/spore_stims/simple_08_A_a.gif","images/stimuli/spore_stims/simple_13_A_d.gif","","","","","3","simple_dissimilar","images/stimuli/spore_stims/simple_13_A_d.gif","right","","","","",""
"","1863.7799999996787","html-keyboard-response","78","188644","0.0-18.0","SS1613099355317","pref_question","","97","","","","","<video width ='960' height = '540' style='padding-top:8%' autoplay muted><source src='images/stimuli/wall_pref.mp4' type='video/mp4'></video>","1","left","25%","3","","","","","","","",""
"","760.8900000050198","sequential-stimulus-presentation","79","190212","0.0-19.0","SS1613099355317","pref_reveal","","40","800","1560.8900000050198","null","null","","","","","3","","","","deviant","","","",""
"","null","html-keyboard-response","80","191410","0.0-20.0-0.0","SS1613099355317","","","null","","","","","<p><img src= images/blank.png width =""200"" height = ""200"" style = ""float:right""></p><p><img src=images/blank.png width =""800"" height = ""200""></p>","","","","","","","","","","","",""
"","2232.8449999913573","sequential-stimulus-presentation","81","194452","0.0-20.0-1.0","SS1613099355317","trial","","40","800","3032.8449999913573","images/stimuli/spore_stims/complex_19_B_c.gif","images/stimuli/spore_stims/complex_05_A_c.gif","","","","","4","complex_dissimilar","images/stimuli/spore_stims/complex_05_A_c.gif","middle","","","","",""
"","null","html-keyboard-response","82","195300","0.0-20.0-0.1","SS1613099355317","","","null","","","","","<p><img src= images/blank.png width =""200"" height = ""200"" style = ""float:right""></p><p><img src=images/blank.png width =""800"" height = ""200""></p>","","","","","","","","","","","",""
"","1146.3650000077905","sequential-stimulus-presentation","83","197277","0.0-20.0-1.1","SS1613099355317","trial","","40","800","1946.3650000077905","images/stimuli/spore_stims/complex_19_B_c.gif","images/stimuli/spore_stims/complex_05_A_c.gif","","","","","4","complex_dissimilar","images/stimuli/spore_stims/complex_05_A_c.gif","middle","","","","",""
"","null","html-keyboard-response","84","198407","0.0-20.0-0.2","SS1613099355317","","","null","","","","","<p><img src= images/blank.png width =""200"" height = ""200"" style = ""float:right""></p><p><img src=images/blank.png width =""800"" height = ""200""></p>","","","","","","","","","","","",""
"","2467.8750000020955","sequential-stimulus-presentation","85","201684","0.0-20.0-1.2","SS1613099355317","trial","","40","800","3267.8750000020955","images/stimuli/spore_stims/complex_19_B_c.gif","images/stimuli/spore_stims/complex_05_A_c.gif","","","","","4","complex_dissimilar","images/stimuli/spore_stims/complex_05_A_c.gif","middle","","","","",""
"","null","html-keyboard-response","86","202982","0.0-20.0-0.3","SS1613099355317","","","null","","","","","<p><img src= images/blank.png width =""200"" height = ""200"" style = ""float:right""></p><p><img src=images/blank.png width =""800"" height = ""200""></p>","","","","","","","","","","","",""
"","1493.3900000032736","sequential-stimulus-presentation","87","205283","0.0-20.0-1.3","SS1613099355317","trial","","40","800","2293.3900000032736","images/stimuli/spore_stims/complex_19_B_c.gif","images/stimuli/spore_stims/complex_05_A_c.gif","","","","","4","complex_dissimilar","images/stimuli/spore_stims/complex_05_A_c.gif","middle","","","","",""
"","null","html-keyboard-response","88","206336","0.0-20.0-0.4","SS1613099355317","","","null","","","","","<p><img src= images/blank.png width =""200"" height = ""200"" style = ""float:right""></p><p><img src=images/blank.png width =""800"" height = ""200""></p>","","","","","","","","","","","",""
"","1068.9899999997579","sequential-stimulus-presentation","89","208229","0.0-20.0-1.4","SS1613099355317","trial","","40","800","1868.9899999997579","images/stimuli/spore_stims/complex_19_B_c.gif","images/stimuli/spore_stims/complex_05_A_c.gif","","","","","4","complex_dissimilar","images/stimuli/spore_stims/complex_05_A_c.gif","middle","","","","",""
"","null","html-keyboard-response","90","209227","0.0-20.0-0.5","SS1613099355317","","","null","","","","","<p><img src= images/blank.png width =""200"" height = ""200"" style = ""float:right""></p><p><img src=images/blank.png width =""800"" height = ""200""></p>","","","","","","","","","","","",""
"","697.9600000049686","sequential-stimulus-presentation","91","210732","0.0-20.0-1.5","SS1613099355317","trial","","40","800","1497.9600000049686","images/stimuli/spore_stims/complex_19_B_c.gif","images/stimuli/spore_stims/complex_05_A_c.gif","","","","","4","complex_dissimilar","images/stimuli/spore_stims/complex_05_A_c.gif","middle","","","","",""
"","null","html-keyboard-response","92","211972","0.0-20.0-0.6","SS1613099355317","","","null","","","","","<p><img src= images/blank.png width =""200"" height = ""200"" style = ""float:right""></p><p><img src=images/blank.png width =""800"" height = ""200""></p>","","","","","","","","","","","",""
"","984.1000000014901","sequential-stimulus-presentation","93","213764","0.0-20.0-1.6","SS1613099355317","trial","","40","800","1784.1000000014901","images/stimuli/spore_stims/complex_19_B_c.gif","images/stimuli/spore_stims/complex_05_A_c.gif","","","","","4","complex_dissimilar","images/stimuli/spore_stims/complex_19_B_c.gif","left","","","","",""
"","null","html-keyboard-response","94","214880","0.0-20.0-0.7","SS1613099355317","","","null","","","","","<p><img src= images/blank.png width =""200"" height = ""200"" style = ""float:right""></p><p><img src=images/blank.png width =""800"" height = ""200""></p>","","","","","","","","","","","",""
"","629.1049999999814","sequential-stimulus-presentation","95","216316","0.0-20.0-1.7","SS1613099355317","trial","","40","800","1429.1049999999814","images/stimuli/spore_stims/complex_19_B_c.gif","images/stimuli/spore_stims/complex_05_A_c.gif","","","","","4","complex_dissimilar","images/stimuli/spore_stims/complex_05_A_c.gif","middle","","","","",""
"","1608.0199999996694","html-keyboard-response","96","217948","0.0-21.0","SS1613099355317","pref_question","","99","","","","","<video width ='960' height = '540' style='padding-top:8%' autoplay muted><source src='images/stimuli/wall_pref.mp4' type='video/mp4'></video>","3","right","66%","4","","","","","","","",""
"","1064.845000000787","sequential-stimulus-presentation","97","219820","0.0-22.0","SS1613099355317","pref_reveal","","40","800","1864.845000000787","null","null","","","","","4","","","","novel","","","",""
"","null","html-keyboard-response","98","220832","0.0-23.0-0.0","SS1613099355317","","","null","","","","","<p><img src= images/blank.png width =""200"" height = ""200"" style = ""float:right""></p><p><img src=images/blank.png width =""800"" height = ""200""></p>","","","","","","","","","","","",""
"","4243.904999995721","sequential-stimulus-presentation","99","225884","0.0-23.0-1.0","SS1613099355317","trial","","40","800","5043.904999995721","images/stimuli/spore_stims/complex_12_A_c.gif","images/stimuli/spore_stims/complex_12_B_c.gif","","","","","5","complex_similar","images/stimuli/spore_stims/complex_12_B_c.gif","right","","","","",""
"","null","html-keyboard-response","100","226698","0.0-23.0-0.1","SS1613099355317","","","null","","","","","<p><img src= images/blank.png width =""200"" height = ""200"" style = ""float:right""></p><p><img src=images/blank.png width =""800"" height = ""200""></p>","","","","","","","","","","","",""
"","792.9100000037579","sequential-stimulus-presentation","101","228299","0.0-23.0-1.1","SS1613099355317","trial","","40","800","1592.910000003758","images/stimuli/spore_stims/complex_12_A_c.gif","images/stimuli/spore_stims/complex_12_B_c.gif","","","","","5","complex_similar","images/stimuli/spore_stims/complex_12_B_c.gif","right","","","","",""
"","null","html-keyboard-response","102","229515","0.0-23.0-0.2","SS1613099355317","","","null","","","","","<p><img src= images/blank.png width =""200"" height = ""200"" style = ""float:right""></p><p><img src=images/blank.png width =""800"" height = ""200""></p>","","","","","","","","","","","",""
"","3168.9250000054017","sequential-stimulus-presentation","103","233492","0.0-23.0-1.2","SS1613099355317","trial","","40","800","3968.9250000054017","images/stimuli/spore_stims/complex_12_A_c.gif","images/stimuli/spore_stims/complex_12_B_c.gif","","","","","5","complex_similar","images/stimuli/spore_stims/complex_12_B_c.gif","right","","","","",""
"","null","html-keyboard-response","104","234512","0.0-23.0-0.3","SS1613099355317","","","null","","","","","<p><img src= images/blank.png width =""200"" height = ""200"" style = ""float:right""></p><p><img src=images/blank.png width =""800"" height = ""200""></p>","","","","","","","","","","","",""
"","3810.1199999946402","sequential-stimulus-presentation","105","239132","0.0-23.0-1.3","SS1613099355317","trial","","40","800","4610.11999999464","images/stimuli/spore_stims/complex_12_A_c.gif","images/stimuli/spore_stims/complex_12_B_c.gif","","","","","5","complex_similar","images/stimuli/spore_stims/complex_12_A_c.gif","middle","","","","",""
"","null","html-keyboard-response","106","240287","0.0-23.0-0.4","SS1613099355317","","","null","","","","","<p><img src= images/blank.png width =""200"" height = ""200"" style = ""float:right""></p><p><img src=images/blank.png width =""800"" height = ""200""></p>","","","","","","","","","","","",""
"","1731.964999999036","sequential-stimulus-presentation","107","242828","0.0-23.0-1.4","SS1613099355317","trial","","40","800","2531.964999999036","images/stimuli/spore_stims/complex_12_A_c.gif","images/stimuli/spore_stims/complex_12_B_c.gif","","","","","5","complex_similar","images/stimuli/spore_stims/complex_12_B_c.gif","right","","","","",""
"","null","html-keyboard-response","108","243654","0.0-23.0-0.5","SS1613099355317","","","null","","","","","<p><img src= images/blank.png width =""200"" height = ""200"" style = ""float:right""></p><p><img src=images/blank.png width =""800"" height = ""200""></p>","","","","","","","","","","","",""
"","1252.8800000000047","sequential-stimulus-presentation","109","245724","0.0-23.0-1.5","SS1613099355317","trial","","40","800","2052.8800000000047","images/stimuli/spore_stims/complex_12_A_c.gif","images/stimuli/spore_stims/complex_12_B_c.gif","","","","","5","complex_similar","images/stimuli/spore_stims/complex_12_B_c.gif","right","","","","",""
"","null","html-keyboard-response","110","246919","0.0-23.0-0.6","SS1613099355317","","","null","","","","","<p><img src= images/blank.png width =""200"" height = ""200"" style = ""float:right""></p><p><img src=images/blank.png width =""800"" height = ""200""></p>","","","","","","","","","","","",""
"","1038.8499999971827","sequential-stimulus-presentation","111","248764","0.0-23.0-1.6","SS1613099355317","trial","","40","800","1838.8499999971827","images/stimuli/spore_stims/complex_12_A_c.gif","images/stimuli/spore_stims/complex_12_B_c.gif","","","","","5","complex_similar","images/stimuli/spore_stims/complex_12_B_c.gif","right","","","","",""
"","null","html-keyboard-response","112","249970","0.0-23.0-0.7","SS1613099355317","","","null","","","","","<p><img src= images/blank.png width =""200"" height = ""200"" style = ""float:right""></p><p><img src=images/blank.png width =""800"" height = ""200""></p>","","","","","","","","","","","",""
"","3013.0500000086613","sequential-stimulus-presentation","113","253797","0.0-23.0-1.7","SS1613099355317","trial","","40","800","3813.0500000086613","images/stimuli/spore_stims/complex_12_A_c.gif","images/stimuli/spore_stims/complex_12_B_c.gif","","","","","5","complex_similar","images/stimuli/spore_stims/complex_12_B_c.gif","right","","","","",""
"","1487.619999999879","html-keyboard-response","114","255292","0.0-24.0","SS1613099355317","pref_question","","98","","","","","<video width ='960' height = '540' style='padding-top:8%' autoplay muted><source src='images/stimuli/wall_pref.mp4' type='video/mp4'></video>","2","middle","45%","5","","","","","","","",""
"","927.479999998468","sequential-stimulus-presentation","115","257028","0.0-25.0","SS1613099355317","pref_reveal","","40","800","1727.479999998468","null","null","","","","","5","","","","deviant","","","",""
"","null","html-keyboard-response","116","258017","0.0-26.0-0.0","SS1613099355317","","","null","","","","","<p><img src= images/blank.png width =""200"" height = ""200"" style = ""float:right""></p><p><img src=images/blank.png width =""800"" height = ""200""></p>","","","","","","","","","","","",""
"","6019.164999990608","sequential-stimulus-presentation","117","264845","0.0-26.0-1.0","SS1613099355317","trial","","40","800","6819.164999990608","images/stimuli/spore_stims/complex_13_A_d.gif","images/stimuli/spore_stims/complex_13_B_d.gif","","","","","6","complex_similar","images/stimuli/spore_stims/complex_13_B_d.gif","middle","","","","",""
"","null","html-keyboard-response","118","265875","0.0-26.0-0.1","SS1613099355317","","","null","","","","","<p><img src= images/blank.png width =""200"" height = ""200"" style = ""float:right""></p><p><img src=images/blank.png width =""800"" height = ""200""></p>","","","","","","","","","","","",""
"","1055.355000004056","sequential-stimulus-presentation","119","267740","0.0-26.0-1.1","SS1613099355317","trial","","40","800","1855.355000004056","images/stimuli/spore_stims/complex_13_A_d.gif","images/stimuli/spore_stims/complex_13_B_d.gif","","","","","6","complex_similar","images/stimuli/spore_stims/complex_13_B_d.gif","middle","","","","",""
"","null","html-keyboard-response","120","268944","0.0-26.0-0.2","SS1613099355317","","","null","","","","","<p><img src= images/blank.png width =""200"" height = ""200"" style = ""float:right""></p><p><img src=images/blank.png width =""800"" height = ""200""></p>","","","","","","","","","","","",""
"","739.030000011553","sequential-stimulus-presentation","121","270492","0.0-26.0-1.2","SS1613099355317","trial","","40","800","1539.030000011553","images/stimuli/spore_stims/complex_13_A_d.gif","images/stimuli/spore_stims/complex_13_B_d.gif","","","","","6","complex_similar","images/stimuli/spore_stims/complex_13_B_d.gif","middle","","","","",""
"","null","html-keyboard-response","122","271372","0.0-26.0-0.3","SS1613099355317","","","null","","","","","<p><img src= images/blank.png width =""200"" height = ""200"" style = ""float:right""></p><p><img src=images/blank.png width =""800"" height = ""200""></p>","","","","","","","","","","","",""
"","1405.8899999945424","sequential-stimulus-presentation","123","273587","0.0-26.0-1.3","SS1613099355317","trial","","40","800","2205.8899999945424","images/stimuli/spore_stims/complex_13_A_d.gif","images/stimuli/spore_stims/complex_13_B_d.gif","","","","","6","complex_similar","images/stimuli/spore_stims/complex_13_B_d.gif","middle","","","","",""
"","null","html-keyboard-response","124","274861","0.0-26.0-0.4","SS1613099355317","","","null","","","","","<p><img src= images/blank.png width =""200"" height = ""200"" style = ""float:right""></p><p><img src=images/blank.png width =""800"" height = ""200""></p>","","","","","","","","","","","",""
"","847.0850000012433","sequential-stimulus-presentation","125","276516","0.0-26.0-1.4","SS1613099355317","trial","","40","800","1647.0850000012433","images/stimuli/spore_stims/complex_13_A_d.gif","images/stimuli/spore_stims/complex_13_B_d.gif","","","","","6","complex_similar","images/stimuli/spore_stims/complex_13_B_d.gif","middle","","","","",""
"","null","html-keyboard-response","126","277675","0.0-26.0-0.5","SS1613099355317","","","null","","","","","<p><img src= images/blank.png width =""200"" height = ""200"" style = ""float:right""></p><p><img src=images/blank.png width =""800"" height = ""200""></p>","","","","","","","","","","","",""
"","920.0399999972433","sequential-stimulus-presentation","127","279404","0.0-26.0-1.5","SS1613099355317","trial","","40","800","1720.0399999972433","images/stimuli/spore_stims/complex_13_A_d.gif","images/stimuli/spore_stims/complex_13_B_d.gif","","","","","6","complex_similar","images/stimuli/spore_stims/complex_13_A_d.gif","left","","","","",""
"","null","html-keyboard-response","128","280606","0.0-26.0-0.6","SS1613099355317","","","null","","","","","<p><img src= images/blank.png width =""200"" height = ""200"" style = ""float:right""></p><p><img src=images/blank.png width =""800"" height = ""200""></p>","","","","","","","","","","","",""
"","57.86999998963438","sequential-stimulus-presentation","129","281484","0.0-26.0-1.6","SS1613099355317","trial","","40","800","857.8699999896344","images/stimuli/spore_stims/complex_13_A_d.gif","images/stimuli/spore_stims/complex_13_B_d.gif","","","","","6","complex_similar","images/stimuli/spore_stims/complex_13_B_d.gif","middle","","","","",""
"","null","html-keyboard-response","130","282318","0.0-26.0-0.7","SS1613099355317","","","null","","","","","<p><img src= images/blank.png width =""200"" height = ""200"" style = ""float:right""></p><p><img src=images/blank.png width =""800"" height = ""200""></p>","","","","","","","","","","","",""
"","1132.805000001099","sequential-stimulus-presentation","131","284260","0.0-26.0-1.7","SS1613099355317","trial","","40","800","1932.805000001099","images/stimuli/spore_stims/complex_13_A_d.gif","images/stimuli/spore_stims/complex_13_B_d.gif","","","","","6","complex_similar","images/stimuli/spore_stims/complex_13_B_d.gif","middle","","","","",""
"","3282.7700000052573","html-keyboard-response","132","287550","0.0-27.0","SS1613099355317","pref_question","","99","","","","","<video width ='960' height = '540' style='padding-top:8%' autoplay muted><source src='images/stimuli/wall_pref.mp4' type='video/mp4'></video>","3","right","66%","6","","","","","","","",""
"","2853.0199999950128","sequential-stimulus-presentation","133","291212","0.0-28.0","SS1613099355317","pref_reveal","","40","800","3653.0199999950128","null","null","","","","","6","","","","novel","","","",""
"","null","html-keyboard-response","134","292311","0.0-29.0-0.0","SS1613099355317","","","null","","","","","<p><img src= images/blank.png width =""200"" height = ""200"" style = ""float:right""></p><p><img src=images/blank.png width =""800"" height = ""200""></p>","","","","","","","","","","","",""
"","1979.124999998021","sequential-stimulus-presentation","135","295100","0.0-29.0-1.0","SS1613099355317","trial","","40","800","2779.124999998021","images/stimuli/spore_stims/complex_19_A_d.gif","images/stimuli/spore_stims/complex_18_B_d.gif","","","","","7","complex_dissimilar","images/stimuli/spore_stims/complex_18_B_d.gif","right","","","","",""
"","null","html-keyboard-response","136","296302","0.0-29.0-0.1","SS1613099355317","","","null","","","","","<p><img src= images/blank.png width =""200"" height = ""200"" style = ""float:right""></p><p><img src=images/blank.png width =""800"" height = ""200""></p>","","","","","","","","","","","",""
"","1144.1199999972014","sequential-stimulus-presentation","137","298261","0.0-29.0-1.1","SS1613099355317","trial","","40","800","1944.1199999972014","images/stimuli/spore_stims/complex_19_A_d.gif","images/stimuli/spore_stims/complex_18_B_d.gif","","","","","7","complex_dissimilar","images/stimuli/spore_stims/complex_18_B_d.gif","right","","","","",""
"","null","html-keyboard-response","138","299552","0.0-29.0-0.2","SS1613099355317","","","null","","","","","<p><img src= images/blank.png width =""200"" height = ""200"" style = ""float:right""></p><p><img src=images/blank.png width =""800"" height = ""200""></p>","","","","","","","","","","","",""
"","508.06000000739004","sequential-stimulus-presentation","139","300868","0.0-29.0-1.2","SS1613099355317","trial","","40","800","1308.06000000739","images/stimuli/spore_stims/complex_19_A_d.gif","images/stimuli/spore_stims/complex_18_B_d.gif","","","","","7","complex_dissimilar","images/stimuli/spore_stims/complex_18_B_d.gif","right","","","","",""
"","null","html-keyboard-response","140","301753","0.0-29.0-0.3","SS1613099355317","","","null","","","","","<p><img src= images/blank.png width =""200"" height = ""200"" style = ""float:right""></p><p><img src=images/blank.png width =""800"" height = ""200""></p>","","","","","","","","","","","",""
"","486.10999999800697","sequential-stimulus-presentation","141","303044","0.0-29.0-1.3","SS1613099355317","trial","","40","800","1286.109999998007","images/stimuli/spore_stims/complex_19_A_d.gif","images/stimuli/spore_stims/complex_18_B_d.gif","","","","","7","complex_dissimilar","images/stimuli/spore_stims/complex_18_B_d.gif","right","","","","",""
"","null","html-keyboard-response","142","303899","0.0-29.0-0.4","SS1613099355317","","","null","","","","","<p><img src= images/blank.png width =""200"" height = ""200"" style = ""float:right""></p><p><img src=images/blank.png width =""800"" height = ""200""></p>","","","","","","","","","","","",""
"","3901.429999998072","sequential-stimulus-presentation","143","308613","0.0-29.0-1.4","SS1613099355317","trial","","40","800","4701.429999998072","images/stimuli/spore_stims/complex_19_A_d.gif","images/stimuli/spore_stims/complex_18_B_d.gif","","","","","7","complex_dissimilar","images/stimuli/spore_stims/complex_19_A_d.gif","middle","","","","",""
"","null","html-keyboard-response","144","309576","0.0-29.0-0.5","SS1613099355317","","","null","","","","","<p><img src= images/blank.png width =""200"" height = ""200"" style = ""float:right""></p><p><img src=images/blank.png width =""800"" height = ""200""></p>","","","","","","","","","","","",""
"","691.225000002305","sequential-stimulus-presentation","145","311076","0.0-29.0-1.5","SS1613099355317","trial","","40","800","1491.225000002305","images/stimuli/spore_stims/complex_19_A_d.gif","images/stimuli/spore_stims/complex_18_B_d.gif","","","","","7","complex_dissimilar","images/stimuli/spore_stims/complex_18_B_d.gif","right","","","","",""
"","null","html-keyboard-response","146","312146","0.0-29.0-0.6","SS1613099355317","","","null","","","","","<p><img src= images/blank.png width =""200"" height = ""200"" style = ""float:right""></p><p><img src=images/blank.png width =""800"" height = ""200""></p>","","","","","","","","","","","",""
"","592.2000000136904","sequential-stimulus-presentation","147","313548","0.0-29.0-1.6","SS1613099355317","trial","","40","800","1392.2000000136904","images/stimuli/spore_stims/complex_19_A_d.gif","images/stimuli/spore_stims/complex_18_B_d.gif","","","","","7","complex_dissimilar","images/stimuli/spore_stims/complex_18_B_d.gif","right","","","","",""
"","null","html-keyboard-response","148","314466","0.0-29.0-0.7","SS1613099355317","","","null","","","","","<p><img src= images/blank.png width =""200"" height = ""200"" style = ""float:right""></p><p><img src=images/blank.png width =""800"" height = ""200""></p>","","","","","","","","","","","",""
"","449.13999999698717","sequential-stimulus-presentation","149","315724","0.0-29.0-1.7","SS1613099355317","trial","","40","800","1249.1399999969872","images/stimuli/spore_stims/complex_19_A_d.gif","images/stimuli/spore_stims/complex_18_B_d.gif","","","","","7","complex_dissimilar","images/stimuli/spore_stims/complex_18_B_d.gif","right","","","","",""
"","1647.8099999949336","html-keyboard-response","150","317380","0.0-30.0","SS1613099355317","pref_question","","97","","","","","<video width ='960' height = '540' style='padding-top:8%' autoplay muted><source src='images/stimuli/wall_pref.mp4' type='video/mp4'></video>","1","left","25%","7","","","","","","","",""
"","2975.3700000001118","sequential-stimulus-presentation","151","321165","0.0-31.0","SS1613099355317","pref_reveal","","40","800","3775.3700000001118","null","null","","","","","7","","","","novel","","","",""
"","null","html-keyboard-response","152","322448","0.0-32.0-0.0","SS1613099355317","","","null","","","","","<p><img src= images/blank.png width =""200"" height = ""200"" style = ""float:right""></p><p><img src=images/blank.png width =""800"" height = ""200""></p>","","","","","","","","","","","",""
"","5713.239999997313","sequential-stimulus-presentation","153","328972","0.0-32.0-1.0","SS1613099355317","trial","","40","800","6513.239999997313","images/stimuli/spore_stims/complex_09_B_a.gif","images/stimuli/spore_stims/complex_07_B_d.gif","","","","","8","complex_dissimilar","images/stimuli/spore_stims/complex_07_B_d.gif","middle","","","","",""
"","null","html-keyboard-response","154","329994","0.0-32.0-0.1","SS1613099355317","","","null","","","","","<p><img src= images/blank.png width =""200"" height = ""200"" style = ""float:right""></p><p><img src=images/blank.png width =""800"" height = ""200""></p>","","","","","","","","","","","",""
"","1729.6749999950407","sequential-stimulus-presentation","155","332534","0.0-32.0-1.1","SS1613099355317","trial","","40","800","2529.6749999950407","images/stimuli/spore_stims/complex_09_B_a.gif","images/stimuli/spore_stims/complex_07_B_d.gif","","","","","8","complex_dissimilar","images/stimuli/spore_stims/complex_07_B_d.gif","middle","","","","",""
"","null","html-keyboard-response","156","333556","0.0-32.0-0.2","SS1613099355317","","","null","","","","","<p><img src= images/blank.png width =""200"" height = ""200"" style = ""float:right""></p><p><img src=images/blank.png width =""800"" height = ""200""></p>","","","","","","","","","","","",""
"","1877.2450000105891","sequential-stimulus-presentation","157","336252","0.0-32.0-1.2","SS1613099355317","trial","","40","800","2677.245000010589","images/stimuli/spore_stims/complex_09_B_a.gif","images/stimuli/spore_stims/complex_07_B_d.gif","","","","","8","complex_dissimilar","images/stimuli/spore_stims/complex_07_B_d.gif","middle","","","","",""
"","null","html-keyboard-response","158","337200","0.0-32.0-0.3","SS1613099355317","","","null","","","","","<p><img src= images/blank.png width =""200"" height = ""200"" style = ""float:right""></p><p><img src=images/blank.png width =""800"" height = ""200""></p>","","","","","","","","","","","",""
"","4233.324999993783","sequential-stimulus-presentation","159","342252","0.0-32.0-1.3","SS1613099355317","trial","","40","800","5033.324999993783","images/stimuli/spore_stims/complex_09_B_a.gif","images/stimuli/spore_stims/complex_07_B_d.gif","","","","","8","complex_dissimilar","images/stimuli/spore_stims/complex_07_B_d.gif","middle","","","","",""
"","null","html-keyboard-response","160","343521","0.0-32.0-0.4","SS1613099355317","","","null","","","","","<p><img src= images/blank.png width =""200"" height = ""200"" style = ""float:right""></p><p><img src=images/blank.png width =""800"" height = ""200""></p>","","","","","","","","","","","",""
"","2097.125000000233","sequential-stimulus-presentation","161","346428","0.0-32.0-1.4","SS1613099355317","trial","","40","800","2897.125000000233","images/stimuli/spore_stims/complex_09_B_a.gif","images/stimuli/spore_stims/complex_07_B_d.gif","","","","","8","complex_dissimilar","images/stimuli/spore_stims/complex_09_B_a.gif","left","","","","",""
"","null","html-keyboard-response","162","347415","0.0-32.0-0.5","SS1613099355317","","","null","","","","","<p><img src= images/blank.png width =""200"" height = ""200"" style = ""float:right""></p><p><img src=images/blank.png width =""800"" height = ""200""></p>","","","","","","","","","","","",""
"","722.7999999886379","sequential-stimulus-presentation","163","348949","0.0-32.0-1.5","SS1613099355317","trial","","40","800","1522.7999999886379","images/stimuli/spore_stims/complex_09_B_a.gif","images/stimuli/spore_stims/complex_07_B_d.gif","","","","","8","complex_dissimilar","images/stimuli/spore_stims/complex_07_B_d.gif","middle","","","","",""
"","null","html-keyboard-response","164","350223","0.0-32.0-0.6","SS1613099355317","","","null","","","","","<p><img src= images/blank.png width =""200"" height = ""200"" style = ""float:right""></p><p><img src=images/blank.png width =""800"" height = ""200""></p>","","","","","","","","","","","",""
"","2499.819999997271","sequential-stimulus-presentation","165","353533","0.0-32.0-1.6","SS1613099355317","trial","","40","800","3299.819999997271","images/stimuli/spore_stims/complex_09_B_a.gif","images/stimuli/spore_stims/complex_07_B_d.gif","","","","","8","complex_dissimilar","images/stimuli/spore_stims/complex_07_B_d.gif","middle","","","","",""
"","null","html-keyboard-response","166","354441","0.0-32.0-0.7","SS1613099355317","","","null","","","","","<p><img src= images/blank.png width =""200"" height = ""200"" style = ""float:right""></p><p><img src=images/blank.png width =""800"" height = ""200""></p>","","","","","","","","","","","",""
"","1330.5249999975786","sequential-stimulus-presentation","167","356582","0.0-32.0-1.7","SS1613099355317","trial","","40","800","2130.5249999975786","images/stimuli/spore_stims/complex_09_B_a.gif","images/stimuli/spore_stims/complex_07_B_d.gif","","","","","8","complex_dissimilar","images/stimuli/spore_stims/complex_07_B_d.gif","middle","","","","",""
"","3411.3350000116043","html-keyboard-response","168","360020","0.0-33.0","SS1613099355317","pref_question","","97","","","","","<video width ='960' height = '540' style='padding-top:8%' autoplay muted><source src='images/stimuli/wall_pref.mp4' type='video/mp4'></video>","1","left","25%","8","","","","","","","",""
"","464.3249999935506","sequential-stimulus-presentation","169","361300","0.0-34.0","SS1613099355317","pref_reveal","","40","800","1264.3249999935506","null","null","","","","","8","","","","deviant","","","",""
"","null","html-keyboard-response","170","362361","0.0-35.0-0.0","SS1613099355317","","","null","","","","","<p><img src= images/blank.png width =""200"" height = ""200"" style = ""float:right""></p><p><img src=images/blank.png width =""800"" height = ""200""></p>","","","","","","","","","","","",""
"","2648.285000002943","sequential-stimulus-presentation","171","365820","0.0-35.0-1.0","SS1613099355317","trial","","40","800","3448.285000002943","images/stimuli/spore_stims/complex_11_A_a.gif","images/stimuli/spore_stims/complex_11_B_a.gif","","","","","9","complex_similar","images/stimuli/spore_stims/complex_11_B_a.gif","left","","","","",""
"","null","html-keyboard-response","172","366970","0.0-35.0-0.1","SS1613099355317","","","null","","","","","<p><img src= images/blank.png width =""200"" height = ""200"" style = ""float:right""></p><p><img src=images/blank.png width =""800"" height = ""200""></p>","","","","","","","","","","","",""
"","1845.4000000056112","sequential-stimulus-presentation","173","369628","0.0-35.0-1.1","SS1613099355317","trial","","40","800","2645.400000005611","images/stimuli/spore_stims/complex_11_A_a.gif","images/stimuli/spore_stims/complex_11_B_a.gif","","","","","9","complex_similar","images/stimuli/spore_stims/complex_11_B_a.gif","left","","","","",""
"","null","html-keyboard-response","174","370555","0.0-35.0-0.2","SS1613099355317","","","null","","","","","<p><img src= images/blank.png width =""200"" height = ""200"" style = ""float:right""></p><p><img src=images/blank.png width =""800"" height = ""200""></p>","","","","","","","","","","","",""
"","995.1949999958742","sequential-stimulus-presentation","175","372372","0.0-35.0-1.2","SS1613099355317","trial","","40","800","1795.1949999958742","images/stimuli/spore_stims/complex_11_A_a.gif","images/stimuli/spore_stims/complex_11_B_a.gif","","","","","9","complex_similar","images/stimuli/spore_stims/complex_11_B_a.gif","left","","","","",""
"","null","html-keyboard-response","176","373275","0.0-35.0-0.3","SS1613099355317","","","null","","","","","<p><img src= images/blank.png width =""200"" height = ""200"" style = ""float:right""></p><p><img src=images/blank.png width =""800"" height = ""200""></p>","","","","","","","","","","","",""
"","1093.3450000011362","sequential-stimulus-presentation","177","375180","0.0-35.0-1.3","SS1613099355317","trial","","40","800","1893.3450000011362","images/stimuli/spore_stims/complex_11_A_a.gif","images/stimuli/spore_stims/complex_11_B_a.gif","","","","","9","complex_similar","images/stimuli/spore_stims/complex_11_B_a.gif","left","","","","",""
"","null","html-keyboard-response","178","376120","0.0-35.0-0.4","SS1613099355317","","","null","","","","","<p><img src= images/blank.png width =""200"" height = ""200"" style = ""float:right""></p><p><img src=images/blank.png width =""800"" height = ""200""></p>","","","","","","","","","","","",""
"","817.6849999872502","sequential-stimulus-presentation","179","377765","0.0-35.0-1.4","SS1613099355317","trial","","40","800","1617.6849999872502","images/stimuli/spore_stims/complex_11_A_a.gif","images/stimuli/spore_stims/complex_11_B_a.gif","","","","","9","complex_similar","images/stimuli/spore_stims/complex_11_B_a.gif","left","","","","",""
"","null","html-keyboard-response","180","378705","0.0-35.0-0.5","SS1613099355317","","","null","","","","","<p><img src= images/blank.png width =""200"" height = ""200"" style = ""float:right""></p><p><img src=images/blank.png width =""800"" height = ""200""></p>","","","","","","","","","","","",""
"","1993.2750000007218","sequential-stimulus-presentation","181","381508","0.0-35.0-1.5","SS1613099355317","trial","","40","800","2793.275000000722","images/stimuli/spore_stims/complex_11_A_a.gif","images/stimuli/spore_stims/complex_11_B_a.gif","","","","","9","complex_similar","images/stimuli/spore_stims/complex_11_A_a.gif","middle","","","","",""
"","null","html-keyboard-response","182","382389","0.0-35.0-0.6","SS1613099355317","","","null","","","","","<p><img src= images/blank.png width =""200"" height = ""200"" style = ""float:right""></p><p><img src=images/blank.png width =""800"" height = ""200""></p>","","","","","","","","","","","",""
"","16428.415000002133","sequential-stimulus-presentation","183","399628","0.0-35.0-1.6","SS1613099355317","trial","","40","800","17228.415000002133","images/stimuli/spore_stims/complex_11_A_a.gif","images/stimuli/spore_stims/complex_11_B_a.gif","","","","","9","complex_similar","images/stimuli/spore_stims/complex_11_B_a.gif","left","","","","",""
"","null","html-keyboard-response","184","400462","0.0-35.0-0.7","SS1613099355317","","","null","","","","","<p><img src= images/blank.png width =""200"" height = ""200"" style = ""float:right""></p><p><img src=images/blank.png width =""800"" height = ""200""></p>","","","","","","","","","","","",""
"","931.8849999981467","sequential-stimulus-presentation","185","402205","0.0-35.0-1.7","SS1613099355317","trial","","40","800","1731.8849999981467","images/stimuli/spore_stims/complex_11_A_a.gif","images/stimuli/spore_stims/complex_11_B_a.gif","","","","","9","complex_similar","images/stimuli/spore_stims/complex_11_B_a.gif","left","","","","",""
"","1634.7749999986263","html-keyboard-response","186","403844","0.0-36.0","SS1613099355317","pref_question","","97","","","","","<video width ='960' height = '540' style='padding-top:8%' autoplay muted><source src='images/stimuli/wall_pref.mp4' type='video/mp4'></video>","1","left","25%","9","","","","","","","",""
"","572.4599999957718","sequential-stimulus-presentation","187","405228","0.0-37.0","SS1613099355317","pref_reveal","","40","800","1372.4599999957718","null","null","","","","","9","","","","background","","","",""
"","null","html-keyboard-response","188","406121","0.0-38.0-0.0","SS1613099355317","","","null","","","","","<p><img src= images/blank.png width =""200"" height = ""200"" style = ""float:right""></p><p><img src=images/blank.png width =""800"" height = ""200""></p>","","","","","","","","","","","",""
"","1423.4250000008615","sequential-stimulus-presentation","189","408357","0.0-38.0-1.0","SS1613099355317","trial","","40","800","2223.4250000008615","images/stimuli/spore_stims/simple_13_B_b.gif","images/stimuli/spore_stims/simple_19_A_c.gif","","","","","10","simple_dissimilar","images/stimuli/spore_stims/simple_19_A_c.gif","middle","","","","",""
"","null","html-keyboard-response","190","409581","0.0-38.0-0.1","SS1613099355317","","","null","","","","","<p><img src= images/blank.png width =""200"" height = ""200"" style = ""float:right""></p><p><img src=images/blank.png width =""800"" height = ""200""></p>","","","","","","","","","","","",""
"","3282.039999990957","sequential-stimulus-presentation","191","413669","0.0-38.0-1.1","SS1613099355317","trial","","40","800","4082.039999990957","images/stimuli/spore_stims/simple_13_B_b.gif","images/stimuli/spore_stims/simple_19_A_c.gif","","","","","10","simple_dissimilar","images/stimuli/spore_stims/simple_19_A_c.gif","middle","","","","",""
"","null","html-keyboard-response","192","414908","0.0-38.0-0.2","SS1613099355317","","","null","","","","","<p><img src= images/blank.png width =""200"" height = ""200"" style = ""float:right""></p><p><img src=images/blank.png width =""800"" height = ""200""></p>","","","","","","","","","","","",""
"","836.5049999993062","sequential-stimulus-presentation","193","416557","0.0-38.0-1.2","SS1613099355317","trial","","40","800","1636.5049999993062","images/stimuli/spore_stims/simple_13_B_b.gif","images/stimuli/spore_stims/simple_19_A_c.gif","","","","","10","simple_dissimilar","images/stimuli/spore_stims/simple_19_A_c.gif","middle","","","","",""
"","null","html-keyboard-response","194","417652","0.0-38.0-0.3","SS1613099355317","","","null","","","","","<p><img src= images/blank.png width =""200"" height = ""200"" style = ""float:right""></p><p><img src=images/blank.png width =""800"" height = ""200""></p>","","","","","","","","","","","",""
"","446.4849999931175","sequential-stimulus-presentation","195","418909","0.0-38.0-1.3","SS1613099355317","trial","","40","800","1246.4849999931175","images/stimuli/spore_stims/simple_13_B_b.gif","images/stimuli/spore_stims/simple_19_A_c.gif","","","","","10","simple_dissimilar","images/stimuli/spore_stims/simple_19_A_c.gif","middle","","","","",""
"","null","html-keyboard-response","196","420102","0.0-38.0-0.4","SS1613099355317","","","null","","","","","<p><img src= images/blank.png width =""200"" height = ""200"" style = ""float:right""></p><p><img src=images/blank.png width =""800"" height = ""200""></p>","","","","","","","","","","","",""
"","650.3449999872828","sequential-stimulus-presentation","197","421564","0.0-38.0-1.4","SS1613099355317","trial","","40","800","1450.3449999872828","images/stimuli/spore_stims/simple_13_B_b.gif","images/stimuli/spore_stims/simple_19_A_c.gif","","","","","10","simple_dissimilar","images/stimuli/spore_stims/simple_19_A_c.gif","middle","","","","",""
"","null","html-keyboard-response","198","422418","0.0-38.0-0.5","SS1613099355317","","","null","","","","","<p><img src= images/blank.png width =""200"" height = ""200"" style = ""float:right""></p><p><img src=images/blank.png width =""800"" height = ""200""></p>","","","","","","","","","","","",""
"","258.89500000630505","sequential-stimulus-presentation","199","423485","0.0-38.0-1.5","SS1613099355317","trial","","40","800","1058.895000006305","images/stimuli/spore_stims/simple_13_B_b.gif","images/stimuli/spore_stims/simple_19_A_c.gif","","","","","10","simple_dissimilar","images/stimuli/spore_stims/simple_19_A_c.gif","middle","","","","",""
"","null","html-keyboard-response","200","424704","0.0-38.0-0.6","SS1613099355317","","","null","","","","","<p><img src= images/blank.png width =""200"" height = ""200"" style = ""float:right""></p><p><img src=images/blank.png width =""800"" height = ""200""></p>","","","","","","","","","","","",""
"","1194.2649999982677","sequential-stimulus-presentation","201","426708","0.0-38.0-1.6","SS1613099355317","trial","","40","800","1994.2649999982677","images/stimuli/spore_stims/simple_13_B_b.gif","images/stimuli/spore_stims/simple_19_A_c.gif","","","","","10","simple_dissimilar","images/stimuli/spore_stims/simple_13_B_b.gif","right","","","","",""
"","null","html-keyboard-response","202","427878","0.0-38.0-0.7","SS1613099355317","","","null","","","","","<p><img src= images/blank.png width =""200"" height = ""200"" style = ""float:right""></p><p><img src=images/blank.png width =""800"" height = ""200""></p>","","","","","","","","","","","",""
"","937.2799999982817","sequential-stimulus-presentation","203","429628","0.0-38.0-1.7","SS1613099355317","trial","","40","800","1737.2799999982817","images/stimuli/spore_stims/simple_13_B_b.gif","images/stimuli/spore_stims/simple_19_A_c.gif","","","","","10","simple_dissimilar","images/stimuli/spore_stims/simple_19_A_c.gif","middle","","","","",""
"","1676.500000001397","html-keyboard-response","204","431325","0.0-39.0","SS1613099355317","pref_question","","99","","","","","<video width ='960' height = '540' style='padding-top:8%' autoplay muted><source src='images/stimuli/wall_pref.mp4' type='video/mp4'></video>","3","right","66%","10","","","","","","","",""
"","110.53999999421649","sequential-stimulus-presentation","205","432261","0.0-40.0","SS1613099355317","pref_reveal","","40","800","910.5399999942165","null","null","","","","","10","","","","deviant","","","",""
"","null","html-keyboard-response","206","433145","0.0-41.0-0.0","SS1613099355317","","","null","","","","","<p><img src= images/blank.png width =""200"" height = ""200"" style = ""float:right""></p><p><img src=images/blank.png width =""800"" height = ""200""></p>","","","","","","","","","","","",""
"","3498.009999995702","sequential-stimulus-presentation","207","437454","0.0-41.0-1.0","SS1613099355317","trial","","40","800","4298.009999995702","images/stimuli/spore_stims/complex_04_A_c.gif","images/stimuli/spore_stims/complex_04_B_c.gif","","","","","11","complex_similar","images/stimuli/spore_stims/complex_04_B_c.gif","middle","","","","",""
"","null","html-keyboard-response","208","438660","0.0-41.0-0.1","SS1613099355317","","","null","","","","","<p><img src= images/blank.png width =""200"" height = ""200"" style = ""float:right""></p><p><img src=images/blank.png width =""800"" height = ""200""></p>","","","","","","","","","","","",""
"","669.5099999924423","sequential-stimulus-presentation","209","440141","0.0-41.0-1.1","SS1613099355317","trial","","40","800","1469.5099999924423","images/stimuli/spore_stims/complex_04_A_c.gif","images/stimuli/spore_stims/complex_04_B_c.gif","","","","","11","complex_similar","images/stimuli/spore_stims/complex_04_B_c.gif","middle","","","","",""
"","null","html-keyboard-response","210","441443","0.0-41.0-0.2","SS1613099355317","","","null","","","","","<p><img src= images/blank.png width =""200"" height = ""200"" style = ""float:right""></p><p><img src=images/blank.png width =""800"" height = ""200""></p>","","","","","","","","","","","",""
"","2188.5650000040187","sequential-stimulus-presentation","211","444461","0.0-41.0-1.2","SS1613099355317","trial","","40","800","2988.5650000040187","images/stimuli/spore_stims/complex_04_A_c.gif","images/stimuli/spore_stims/complex_04_B_c.gif","","","","","11","complex_similar","images/stimuli/spore_stims/complex_04_B_c.gif","middle","","","","",""
"","null","html-keyboard-response","212","445484","0.0-41.0-0.3","SS1613099355317","","","null","","","","","<p><img src= images/blank.png width =""200"" height = ""200"" style = ""float:right""></p><p><img src=images/blank.png width =""800"" height = ""200""></p>","","","","","","","","","","","",""
"","1182.6149999978952","sequential-stimulus-presentation","213","447478","0.0-41.0-1.3","SS1613099355317","trial","","40","800","1982.6149999978952","images/stimuli/spore_stims/complex_04_A_c.gif","images/stimuli/spore_stims/complex_04_B_c.gif","","","","","11","complex_similar","images/stimuli/spore_stims/complex_04_B_c.gif","middle","","","","",""
"","null","html-keyboard-response","214","448337","0.0-41.0-0.4","SS1613099355317","","","null","","","","","<p><img src= images/blank.png width =""200"" height = ""200"" style = ""float:right""></p><p><img src=images/blank.png width =""800"" height = ""200""></p>","","","","","","","","","","","",""
"","2110.7300000003306","sequential-stimulus-presentation","215","451269","0.0-41.0-1.4","SS1613099355317","trial","","40","800","2910.7300000003306","images/stimuli/spore_stims/complex_04_A_c.gif","images/stimuli/spore_stims/complex_04_B_c.gif","","","","","11","complex_similar","images/stimuli/spore_stims/complex_04_B_c.gif","middle","","","","",""
"","null","html-keyboard-response","216","452254","0.0-41.0-0.5","SS1613099355317","","","null","","","","","<p><img src= images/blank.png width =""200"" height = ""200"" style = ""float:right""></p><p><img src=images/blank.png width =""800"" height = ""200""></p>","","","","","","","","","","","",""
"","590.4149999987567","sequential-stimulus-presentation","217","453653","0.0-41.0-1.5","SS1613099355317","trial","","40","800","1390.4149999987567","images/stimuli/spore_stims/complex_04_A_c.gif","images/stimuli/spore_stims/complex_04_B_c.gif","","","","","11","complex_similar","images/stimuli/spore_stims/complex_04_A_c.gif","left","","","","",""
"","null","html-keyboard-response","218","454527","0.0-41.0-0.6","SS1613099355317","","","null","","","","","<p><img src= images/blank.png width =""200"" height = ""200"" style = ""float:right""></p><p><img src=images/blank.png width =""800"" height = ""200""></p>","","","","","","","","","","","",""
"","768.3649999962654","sequential-stimulus-presentation","219","456108","0.0-41.0-1.6","SS1613099355317","trial","","40","800","1568.3649999962654","images/stimuli/spore_stims/complex_04_A_c.gif","images/stimuli/spore_stims/complex_04_B_c.gif","","","","","11","complex_similar","images/stimuli/spore_stims/complex_04_B_c.gif","middle","","","","",""
"","null","html-keyboard-response","220","457090","0.0-41.0-0.7","SS1613099355317","","","null","","","","","<p><img src= images/blank.png width =""200"" height = ""200"" style = ""float:right""></p><p><img src=images/blank.png width =""800"" height = ""200""></p>","","","","","","","","","","","",""
"","128.41499999922235","sequential-stimulus-presentation","221","458030","0.0-41.0-1.7","SS1613099355317","trial","","40","800","928.4149999992223","images/stimuli/spore_stims/complex_04_A_c.gif","images/stimuli/spore_stims/complex_04_B_c.gif","","","","","11","complex_similar","images/stimuli/spore_stims/complex_04_B_c.gif","middle","","","","",""
"","1683.3950000000186","html-keyboard-response","222","459725","0.0-42.0","SS1613099355317","pref_question","","97","","","","","<video width ='960' height = '540' style='padding-top:8%' autoplay muted><source src='images/stimuli/wall_pref.mp4' type='video/mp4'></video>","1","left","25%","11","","","","","","","",""
"","884.5150000124704","sequential-stimulus-presentation","223","461421","0.0-43.0","SS1613099355317","pref_reveal","","40","800","1684.5150000124704","null","null","","","","","11","","","","deviant","","","",""
"","null","html-keyboard-response","224","462669","0.0-44.0-0.0","SS1613099355317","","","null","","","","","<p><img src= images/blank.png width =""200"" height = ""200"" style = ""float:right""></p><p><img src=images/blank.png width =""800"" height = ""200""></p>","","","","","","","","","","","",""
"","3372.369999997318","sequential-stimulus-presentation","225","466853","0.0-44.0-1.0","SS1613099355317","trial","","40","800","4172.369999997318","images/stimuli/spore_stims/simple_16_B_d.gif","images/stimuli/spore_stims/simple_16_A_d.gif","","","","","12","simple_similar","images/stimuli/spore_stims/simple_16_A_d.gif","middle","","","","",""
"","null","html-keyboard-response","226","467678","0.0-44.0-0.1","SS1613099355317","","","null","","","","","<p><img src= images/blank.png width =""200"" height = ""200"" style = ""float:right""></p><p><img src=images/blank.png width =""800"" height = ""200""></p>","","","","","","","","","","","",""
"","761.2399999925401","sequential-stimulus-presentation","227","469269","0.0-44.0-1.1","SS1613099355317","trial","","40","800","1561.23999999254","images/stimuli/spore_stims/simple_16_B_d.gif","images/stimuli/spore_stims/simple_16_A_d.gif","","","","","12","simple_similar","images/stimuli/spore_stims/simple_16_A_d.gif","middle","","","","",""
"","null","html-keyboard-response","228","470310","0.0-44.0-0.2","SS1613099355317","","","null","","","","","<p><img src= images/blank.png width =""200"" height = ""200"" style = ""float:right""></p><p><img src=images/blank.png width =""800"" height = ""200""></p>","","","","","","","","","","","",""
"","609.8599999968428","sequential-stimulus-presentation","229","471732","0.0-44.0-1.2","SS1613099355317","trial","","40","800","1409.8599999968428","images/stimuli/spore_stims/simple_16_B_d.gif","images/stimuli/spore_stims/simple_16_A_d.gif","","","","","12","simple_similar","images/stimuli/spore_stims/simple_16_A_d.gif","middle","","","","",""
"","null","html-keyboard-response","230","472917","0.0-44.0-0.3","SS1613099355317","","","null","","","","","<p><img src= images/blank.png width =""200"" height = ""200"" style = ""float:right""></p><p><img src=images/blank.png width =""800"" height = ""200""></p>","","","","","","","","","","","",""
"","331.44999999785796","sequential-stimulus-presentation","231","474060","0.0-44.0-1.3","SS1613099355317","trial","","40","800","1131.449999997858","images/stimuli/spore_stims/simple_16_B_d.gif","images/stimuli/spore_stims/simple_16_A_d.gif","","","","","12","simple_similar","images/stimuli/spore_stims/simple_16_A_d.gif","middle","","","","",""
"","null","html-keyboard-response","232","474988","0.0-44.0-0.4","SS1613099355317","","","null","","","","","<p><img src= images/blank.png width =""200"" height = ""200"" style = ""float:right""></p><p><img src=images/blank.png width =""800"" height = ""200""></p>","","","","","","","","","","","",""
"","1076.5450000035344","sequential-stimulus-presentation","233","476876","0.0-44.0-1.4","SS1613099355317","trial","","40","800","1876.5450000035344","images/stimuli/spore_stims/simple_16_B_d.gif","images/stimuli/spore_stims/simple_16_A_d.gif","","","","","12","simple_similar","images/stimuli/spore_stims/simple_16_A_d.gif","middle","","","","",""
"","null","html-keyboard-response","234","478133","0.0-44.0-0.5","SS1613099355317","","","null","","","","","<p><img src= images/blank.png width =""200"" height = ""200"" style = ""float:right""></p><p><img src=images/blank.png width =""800"" height = ""200""></p>","","","","","","","","","","","",""
"","620.4649999999674","sequential-stimulus-presentation","235","479580","0.0-44.0-1.5","SS1613099355317","trial","","40","800","1420.4649999999674","images/stimuli/spore_stims/simple_16_B_d.gif","images/stimuli/spore_stims/simple_16_A_d.gif","","","","","12","simple_similar","images/stimuli/spore_stims/simple_16_A_d.gif","middle","","","","",""
"","null","html-keyboard-response","236","480766","0.0-44.0-0.6","SS1613099355317","","","null","","","","","<p><img src= images/blank.png width =""200"" height = ""200"" style = ""float:right""></p><p><img src=images/blank.png width =""800"" height = ""200""></p>","","","","","","","","","","","",""
"","1012.6250000030268","sequential-stimulus-presentation","237","482604","0.0-44.0-1.6","SS1613099355317","trial","","40","800","1812.6250000030268","images/stimuli/spore_stims/simple_16_B_d.gif","images/stimuli/spore_stims/simple_16_A_d.gif","","","","","12","simple_similar","images/stimuli/spore_stims/simple_16_B_d.gif","right","","","","",""
"","null","html-keyboard-response","238","483604","0.0-44.0-0.7","SS1613099355317","","","null","","","","","<p><img src= images/blank.png width =""200"" height = ""200"" style = ""float:right""></p><p><img src=images/blank.png width =""800"" height = ""200""></p>","","","","","","","","","","","",""
"","235.51500000758097","sequential-stimulus-presentation","239","484652","0.0-44.0-1.7","SS1613099355317","trial","","40","800","1035.515000007581","images/stimuli/spore_stims/simple_16_B_d.gif","images/stimuli/spore_stims/simple_16_A_d.gif","","","","","12","simple_similar","images/stimuli/spore_stims/simple_16_A_d.gif","middle","","","","",""
"","1517.8799999994226","html-keyboard-response","240","486180","0.0-45.0","SS1613099355317","pref_question","","98","","","","","<video width ='960' height = '540' style='padding-top:8%' autoplay muted><source src='images/stimuli/wall_pref.mp4' type='video/mp4'></video>","2","middle","45%","12","","","","","","","",""
"","1044.385000001057","sequential-stimulus-presentation","241","488037","0.0-46.0","SS1613099355317","pref_reveal","","40","800","1844.385000001057","null","null","","","","","12","","","","background","","","",""
"","null","html-keyboard-response","242","489141","0.0-47.0-0.0","SS1613099355317","","","null","","","","","<p><img src= images/blank.png width =""200"" height = ""200"" style = ""float:right""></p><p><img src=images/blank.png width =""800"" height = ""200""></p>","","","","","","","","","","","",""
"","1385.6999999989057","sequential-stimulus-presentation","243","491340","0.0-47.0-1.0","SS1613099355317","trial","","40","800","2185.6999999989057","images/stimuli/spore_stims/complex_06_B_a.gif","images/stimuli/spore_stims/complex_06_A_a.gif","","","","","13","complex_similar","images/stimuli/spore_stims/complex_06_A_a.gif","middle","","","","",""
"","null","html-keyboard-response","244","492177","0.0-47.0-0.1","SS1613099355317","","","null","","","","","<p><img src= images/blank.png width =""200"" height = ""200"" style = ""float:right""></p><p><img src=images/blank.png width =""800"" height = ""200""></p>","","","","","","","","","","","",""
"","1678.299999999581","sequential-stimulus-presentation","245","494669","0.0-47.0-1.1","SS1613099355317","trial","","40","800","2478.299999999581","images/stimuli/spore_stims/complex_06_B_a.gif","images/stimuli/spore_stims/complex_06_A_a.gif","","","","","13","complex_similar","images/stimuli/spore_stims/complex_06_A_a.gif","middle","","","","",""
"","null","html-keyboard-response","246","495520","0.0-47.0-0.2","SS1613099355317","","","null","","","","","<p><img src= images/blank.png width =""200"" height = ""200"" style = ""float:right""></p><p><img src=images/blank.png width =""800"" height = ""200""></p>","","","","","","","","","","","",""
"","462.7499999915017","sequential-stimulus-presentation","247","496796","0.0-47.0-1.2","SS1613099355317","trial","","40","800","1262.7499999915017","images/stimuli/spore_stims/complex_06_B_a.gif","images/stimuli/spore_stims/complex_06_A_a.gif","","","","","13","complex_similar","images/stimuli/spore_stims/complex_06_A_a.gif","middle","","","","",""
"","null","html-keyboard-response","248","497920","0.0-47.0-0.3","SS1613099355317","","","null","","","","","<p><img src= images/blank.png width =""200"" height = ""200"" style = ""float:right""></p><p><img src=images/blank.png width =""800"" height = ""200""></p>","","","","","","","","","","","",""
"","446.62000000244007","sequential-stimulus-presentation","249","499180","0.0-47.0-1.3","SS1613099355317","trial","","40","800","1246.62000000244","images/stimuli/spore_stims/complex_06_B_a.gif","images/stimuli/spore_stims/complex_06_A_a.gif","","","","","13","complex_similar","images/stimuli/spore_stims/complex_06_B_a.gif","left","","","","",""
"","null","html-keyboard-response","250","500049","0.0-47.0-0.4","SS1613099355317","","","null","","","","","<p><img src= images/blank.png width =""200"" height = ""200"" style = ""float:right""></p><p><img src=images/blank.png width =""800"" height = ""200""></p>","","","","","","","","","","","",""
"","575.1900000032037","sequential-stimulus-presentation","251","501437","0.0-47.0-1.4","SS1613099355317","trial","","40","800","1375.1900000032037","images/stimuli/spore_stims/complex_06_B_a.gif","images/stimuli/spore_stims/complex_06_A_a.gif","","","","","13","complex_similar","images/stimuli/spore_stims/complex_06_A_a.gif","middle","","","","",""
"","null","html-keyboard-response","252","502345","0.0-47.0-0.5","SS1613099355317","","","null","","","","","<p><img src= images/blank.png width =""200"" height = ""200"" style = ""float:right""></p><p><img src=images/blank.png width =""800"" height = ""200""></p>","","","","","","","","","","","",""
"","934.7100000013597","sequential-stimulus-presentation","253","504108","0.0-47.0-1.5","SS1613099355317","trial","","40","800","1734.7100000013597","images/stimuli/spore_stims/complex_06_B_a.gif","images/stimuli/spore_stims/complex_06_A_a.gif","","","","","13","complex_similar","images/stimuli/spore_stims/complex_06_A_a.gif","middle","","","","",""
"","null","html-keyboard-response","254","504939","0.0-47.0-0.6","SS1613099355317","","","null","","","","","<p><img src= images/blank.png width =""200"" height = ""200"" style = ""float:right""></p><p><img src=images/blank.png width =""800"" height = ""200""></p>","","","","","","","","","","","",""
"","437.69500000053085","sequential-stimulus-presentation","255","506188","0.0-47.0-1.6","SS1613099355317","trial","","40","800","1237.6950000005309","images/stimuli/spore_stims/complex_06_B_a.gif","images/stimuli/spore_stims/complex_06_A_a.gif","","","","","13","complex_similar","images/stimuli/spore_stims/complex_06_A_a.gif","middle","","","","",""
"","null","html-keyboard-response","256","507328","0.0-47.0-0.7","SS1613099355317","","","null","","","","","<p><img src= images/blank.png width =""200"" height = ""200"" style = ""float:right""></p><p><img src=images/blank.png width =""800"" height = ""200""></p>","","","","","","","","","","","",""
"","885.2499999920838","sequential-stimulus-presentation","257","509021","0.0-47.0-1.7","SS1613099355317","trial","","40","800","1685.2499999920838","images/stimuli/spore_stims/complex_06_B_a.gif","images/stimuli/spore_stims/complex_06_A_a.gif","","","","","13","complex_similar","images/stimuli/spore_stims/complex_06_A_a.gif","middle","","","","",""
"","1774.2450000077952","html-keyboard-response","258","510805","0.0-48.0","SS1613099355317","pref_question","","99","","","","","<video width ='960' height = '540' style='padding-top:8%' autoplay muted><source src='images/stimuli/wall_pref.mp4' type='video/mp4'></video>","3","right","66%","13","","","","","","","",""
"","558.7349999987055","sequential-stimulus-presentation","259","512180","0.0-49.0","SS1613099355317","pref_reveal","","40","800","1358.7349999987055","null","null","","","","","13","","","","novel","","","",""
"","null","html-keyboard-response","260","513219","0.0-50.0-0.0","SS1613099355317","","","null","","","","","<p><img src= images/blank.png width =""200"" height = ""200"" style = ""float:right""></p><p><img src=images/blank.png width =""800"" height = ""200""></p>","","","","","","","","","","","",""
"","2427.785000007134","sequential-stimulus-presentation","261","516460","0.0-50.0-1.0","SS1613099355317","trial","","40","800","3227.785000007134","images/stimuli/spore_stims/complex_08_B_a.gif","images/stimuli/spore_stims/complex_11_A_b.gif","","","","","14","complex_dissimilar","images/stimuli/spore_stims/complex_11_A_b.gif","left","","","","",""
"","null","html-keyboard-response","262","517366","0.0-50.0-0.1","SS1613099355317","","","null","","","","","<p><img src= images/blank.png width =""200"" height = ""200"" style = ""float:right""></p><p><img src=images/blank.png width =""800"" height = ""200""></p>","","","","","","","","","","","",""
"","1287.9200000024866","sequential-stimulus-presentation","263","519476","0.0-50.0-1.1","SS1613099355317","trial","","40","800","2087.9200000024866","images/stimuli/spore_stims/complex_08_B_a.gif","images/stimuli/spore_stims/complex_11_A_b.gif","","","","","14","complex_dissimilar","images/stimuli/spore_stims/complex_11_A_b.gif","left","","","","",""
"","null","html-keyboard-response","264","520384","0.0-50.0-0.2","SS1613099355317","","","null","","","","","<p><img src= images/blank.png width =""200"" height = ""200"" style = ""float:right""></p><p><img src=images/blank.png width =""800"" height = ""200""></p>","","","","","","","","","","","",""
"","726.0050000040792","sequential-stimulus-presentation","265","521924","0.0-50.0-1.2","SS1613099355317","trial","","40","800","1526.0050000040792","images/stimuli/spore_stims/complex_08_B_a.gif","images/stimuli/spore_stims/complex_11_A_b.gif","","","","","14","complex_dissimilar","images/stimuli/spore_stims/complex_11_A_b.gif","left","","","","",""
"","null","html-keyboard-response","266","522812","0.0-50.0-0.3","SS1613099355317","","","null","","","","","<p><img src= images/blank.png width =""200"" height = ""200"" style = ""float:right""></p><p><img src=images/blank.png width =""800"" height = ""200""></p>","","","","","","","","","","","",""
"","1308.8250000000698","sequential-stimulus-presentation","267","524932","0.0-50.0-1.3","SS1613099355317","trial","","40","800","2108.82500000007","images/stimuli/spore_stims/complex_08_B_a.gif","images/stimuli/spore_stims/complex_11_A_b.gif","","","","","14","complex_dissimilar","images/stimuli/spore_stims/complex_08_B_a.gif","middle","","","","",""
"","null","html-keyboard-response","268","526220","0.0-50.0-0.4","SS1613099355317","","","null","","","","","<p><img src= images/blank.png width =""200"" height = ""200"" style = ""float:right""></p><p><img src=images/blank.png width =""800"" height = ""200""></p>","","","","","","","","","","","",""
"","25.659999999334104","sequential-stimulus-presentation","269","527060","0.0-50.0-1.4","SS1613099355317","trial","","40","800","825.6599999993341","images/stimuli/spore_stims/complex_08_B_a.gif","images/stimuli/spore_stims/complex_11_A_b.gif","","","","","14","complex_dissimilar","images/stimuli/spore_stims/complex_11_A_b.gif","left","","","","",""
"","null","html-keyboard-response","270","528038","0.0-50.0-0.5","SS1613099355317","","","null","","","","","<p><img src= images/blank.png width =""200"" height = ""200"" style = ""float:right""></p><p><img src=images/blank.png width =""800"" height = ""200""></p>","","","","","","","","","","","",""
"","890.7400000025518","sequential-stimulus-presentation","271","529740","0.0-50.0-1.5","SS1613099355317","trial","","40","800","1690.7400000025518","images/stimuli/spore_stims/complex_08_B_a.gif","images/stimuli/spore_stims/complex_11_A_b.gif","","","","","14","complex_dissimilar","images/stimuli/spore_stims/complex_11_A_b.gif","left","","","","",""
"","null","html-keyboard-response","272","530879","0.0-50.0-0.6","SS1613099355317","","","null","","","","","<p><img src= images/blank.png width =""200"" height = ""200"" style = ""float:right""></p><p><img src=images/blank.png width =""800"" height = ""200""></p>","","","","","","","","","","","",""
"","727.8749999968568","sequential-stimulus-presentation","273","532421","0.0-50.0-1.6","SS1613099355317","trial","","40","800","1527.8749999968568","images/stimuli/spore_stims/complex_08_B_a.gif","images/stimuli/spore_stims/complex_11_A_b.gif","","","","","14","complex_dissimilar","images/stimuli/spore_stims/complex_11_A_b.gif","left","","","","",""
"","null","html-keyboard-response","274","533616","0.0-50.0-0.7","SS1613099355317","","","null","","","","","<p><img src= images/blank.png width =""200"" height = ""200"" style = ""float:right""></p><p><img src=images/blank.png width =""800"" height = ""200""></p>","","","","","","","","","","","",""
"","910.2299999940442","sequential-stimulus-presentation","275","535341","0.0-50.0-1.7","SS1613099355317","trial","","40","800","1710.2299999940442","images/stimuli/spore_stims/complex_08_B_a.gif","images/stimuli/spore_stims/complex_11_A_b.gif","","","","","14","complex_dissimilar","images/stimuli/spore_stims/complex_11_A_b.gif","left","","","","",""
"","1604.4200000033015","html-keyboard-response","276","536957","0.0-51.0","SS1613099355317","pref_question","","98","","","","","<video width ='960' height = '540' style='padding-top:8%' autoplay muted><source src='images/stimuli/wall_pref.mp4' type='video/mp4'></video>","2","middle","45%","14","","","","","","","",""
"","1296.2049999914598","sequential-stimulus-presentation","277","539088","0.0-52.0","SS1613099355317","pref_reveal","","40","800","2096.2049999914598","null","null","","","","","14","","","","deviant","","","",""
"","null","html-keyboard-response","278","540115","0.0-53.0-0.0","SS1613099355317","","","null","","","","","<p><img src= images/blank.png width =""200"" height = ""200"" style = ""float:right""></p><p><img src=images/blank.png width =""800"" height = ""200""></p>","","","","","","","","","","","",""
"","892.2650000022259","sequential-stimulus-presentation","279","541823","0.0-53.0-1.0","SS1613099355317","trial","","40","800","1692.2650000022259","images/stimuli/spore_stims/simple_04_B_b.gif","images/stimuli/spore_stims/simple_04_A_b.gif","","","","","15","simple_similar","images/stimuli/spore_stims/simple_04_A_b.gif","middle","","","","",""
"","null","html-keyboard-response","280","542930","0.0-53.0-0.1","SS1613099355317","","","null","","","","","<p><img src= images/blank.png width =""200"" height = ""200"" style = ""float:right""></p><p><img src=images/blank.png width =""800"" height = ""200""></p>","","","","","","","","","","","",""
"","725.3550000023097","sequential-stimulus-presentation","281","544468","0.0-53.0-1.1","SS1613099355317","trial","","40","800","1525.3550000023097","images/stimuli/spore_stims/simple_04_B_b.gif","images/stimuli/spore_stims/simple_04_A_b.gif","","","","","15","simple_similar","images/stimuli/spore_stims/simple_04_A_b.gif","middle","","","","",""
"","null","html-keyboard-response","282","545378","0.0-53.0-0.2","SS1613099355317","","","null","","","","","<p><img src= images/blank.png width =""200"" height = ""200"" style = ""float:right""></p><p><img src=images/blank.png width =""800"" height = ""200""></p>","","","","","","","","","","","",""
"","741.3099999976112","sequential-stimulus-presentation","283","546932","0.0-53.0-1.2","SS1613099355317","trial","","40","800","1541.3099999976112","images/stimuli/spore_stims/simple_04_B_b.gif","images/stimuli/spore_stims/simple_04_A_b.gif","","","","","15","simple_similar","images/stimuli/spore_stims/simple_04_A_b.gif","middle","","","","",""
"","null","html-keyboard-response","284","547934","0.0-53.0-0.3","SS1613099355317","","","null","","","","","<p><img src= images/blank.png width =""200"" height = ""200"" style = ""float:right""></p><p><img src=images/blank.png width =""800"" height = ""200""></p>","","","","","","","","","","","",""
"","585.0900000077672","sequential-stimulus-presentation","285","549332","0.0-53.0-1.3","SS1613099355317","trial","","40","800","1385.0900000077672","images/stimuli/spore_stims/simple_04_B_b.gif","images/stimuli/spore_stims/simple_04_A_b.gif","","","","","15","simple_similar","images/stimuli/spore_stims/simple_04_A_b.gif","middle","","","","",""
"","null","html-keyboard-response","286","550263","0.0-53.0-0.4","SS1613099355317","","","null","","","","","<p><img src= images/blank.png width =""200"" height = ""200"" style = ""float:right""></p><p><img src=images/blank.png width =""800"" height = ""200""></p>","","","","","","","","","","","",""
"","801.0249999933876","sequential-stimulus-presentation","287","551893","0.0-53.0-1.4","SS1613099355317","trial","","40","800","1601.0249999933876","images/stimuli/spore_stims/simple_04_B_b.gif","images/stimuli/spore_stims/simple_04_A_b.gif","","","","","15","simple_similar","images/stimuli/spore_stims/simple_04_A_b.gif","middle","","","","",""
"","null","html-keyboard-response","288","553003","0.0-53.0-0.5","SS1613099355317","","","null","","","","","<p><img src= images/blank.png width =""200"" height = ""200"" style = ""float:right""></p><p><img src=images/blank.png width =""800"" height = ""200""></p>","","","","","","","","","","","",""
"","956.6100000083679","sequential-stimulus-presentation","289","554773","0.0-53.0-1.5","SS1613099355317","trial","","40","800","1756.610000008368","images/stimuli/spore_stims/simple_04_B_b.gif","images/stimuli/spore_stims/simple_04_A_b.gif","","","","","15","simple_similar","images/stimuli/spore_stims/simple_04_A_b.gif","middle","","","","",""
"","null","html-keyboard-response","290","555710","0.0-53.0-0.6","SS1613099355317","","","null","","","","","<p><img src= images/blank.png width =""200"" height = ""200"" style = ""float:right""></p><p><img src=images/blank.png width =""800"" height = ""200""></p>","","","","","","","","","","","",""
"","553.4000000043306","sequential-stimulus-presentation","291","557077","0.0-53.0-1.6","SS1613099355317","trial","","40","800","1353.4000000043306","images/stimuli/spore_stims/simple_04_B_b.gif","images/stimuli/spore_stims/simple_04_A_b.gif","","","","","15","simple_similar","images/stimuli/spore_stims/simple_04_A_b.gif","middle","","","","",""
"","null","html-keyboard-response","292","558175","0.0-53.0-0.7","SS1613099355317","","","null","","","","","<p><img src= images/blank.png width =""200"" height = ""200"" style = ""float:right""></p><p><img src=images/blank.png width =""800"" height = ""200""></p>","","","","","","","","","","","",""
"","128.15000000409782","sequential-stimulus-presentation","293","559133","0.0-53.0-1.7","SS1613099355317","trial","","40","800","928.1500000040978","images/stimuli/spore_stims/simple_04_B_b.gif","images/stimuli/spore_stims/simple_04_A_b.gif","","","","","15","simple_similar","images/stimuli/spore_stims/simple_04_B_b.gif","left","","","","",""
"","1523.5199999879114","html-keyboard-response","294","560669","0.0-54.0","SS1613099355317","pref_question","","97","","","","","<video width ='960' height = '540' style='padding-top:8%' autoplay muted><source src='images/stimuli/wall_pref.mp4' type='video/mp4'></video>","1","left","25%","15","","","","","","","",""
"","35.495000003720634","sequential-stimulus-presentation","295","561517","0.0-55.0","SS1613099355317","pref_reveal","","40","800","835.4950000037206","null","null","","","","","15","","","","deviant","","","",""
"","null","html-keyboard-response","296","562823","0.0-56.0-0.0","SS1613099355317","","","null","","","","","<p><img src= images/blank.png width =""200"" height = ""200"" style = ""float:right""></p><p><img src=images/blank.png width =""800"" height = ""200""></p>","","","","","","","","","","","",""
"","895.6550000002608","sequential-stimulus-presentation","297","564533","0.0-56.0-1.0","SS1613099355317","trial","","40","800","1695.6550000002608","images/stimuli/spore_stims/simple_11_A_b.gif","images/stimuli/spore_stims/simple_11_B_b.gif","","","","","16","simple_similar","images/stimuli/spore_stims/simple_11_B_b.gif","right","","","","",""
"","null","html-keyboard-response","298","565645","0.0-56.0-0.1","SS1613099355317","","","null","","","","","<p><img src= images/blank.png width =""200"" height = ""200"" style = ""float:right""></p><p><img src=images/blank.png width =""800"" height = ""200""></p>","","","","","","","","","","","",""
"","1035.4050000023562","sequential-stimulus-presentation","299","567493","0.0-56.0-1.1","SS1613099355317","trial","","40","800","1835.4050000023562","images/stimuli/spore_stims/simple_11_A_b.gif","images/stimuli/spore_stims/simple_11_B_b.gif","","","","","16","simple_similar","images/stimuli/spore_stims/simple_11_B_b.gif","right","","","","",""
"","null","html-keyboard-response","300","568470","0.0-56.0-0.2","SS1613099355317","","","null","","","","","<p><img src= images/blank.png width =""200"" height = ""200"" style = ""float:right""></p><p><img src=images/blank.png width =""800"" height = ""200""></p>","","","","","","","","","","","",""
"","887.3099999909755","sequential-stimulus-presentation","301","570173","0.0-56.0-1.2","SS1613099355317","trial","","40","800","1687.3099999909755","images/stimuli/spore_stims/simple_11_A_b.gif","images/stimuli/spore_stims/simple_11_B_b.gif","","","","","16","simple_similar","images/stimuli/spore_stims/simple_11_B_b.gif","right","","","","",""
"","null","html-keyboard-response","302","571174","0.0-56.0-0.3","SS1613099355317","","","null","","","","","<p><img src= images/blank.png width =""200"" height = ""200"" style = ""float:right""></p><p><img src=images/blank.png width =""800"" height = ""200""></p>","","","","","","","","","","","",""
"","1041.2349999969592","sequential-stimulus-presentation","303","573028","0.0-56.0-1.3","SS1613099355317","trial","","40","800","1841.2349999969592","images/stimuli/spore_stims/simple_11_A_b.gif","images/stimuli/spore_stims/simple_11_B_b.gif","","","","","16","simple_similar","images/stimuli/spore_stims/simple_11_A_b.gif","middle","","","","",""
"","null","html-keyboard-response","304","573907","0.0-56.0-0.4","SS1613099355317","","","null","","","","","<p><img src= images/blank.png width =""200"" height = ""200"" style = ""float:right""></p><p><img src=images/blank.png width =""800"" height = ""200""></p>","","","","","","","","","","","",""
"","572.2999999998137","sequential-stimulus-presentation","305","575293","0.0-56.0-1.4","SS1613099355317","trial","","40","800","1372.2999999998137","images/stimuli/spore_stims/simple_11_A_b.gif","images/stimuli/spore_stims/simple_11_B_b.gif","","","","","16","simple_similar","images/stimuli/spore_stims/simple_11_B_b.gif","right","","","","",""
"","null","html-keyboard-response","306","576582","0.0-56.0-0.5","SS1613099355317","","","null","","","","","<p><img src= images/blank.png width =""200"" height = ""200"" style = ""float:right""></p><p><img src=images/blank.png width =""800"" height = ""200""></p>","","","","","","","","","","","",""
"","384.3900000065332","sequential-stimulus-presentation","307","577781","0.0-56.0-1.5","SS1613099355317","trial","","40","800","1184.3900000065332","images/stimuli/spore_stims/simple_11_A_b.gif","images/stimuli/spore_stims/simple_11_B_b.gif","","","","","16","simple_similar","images/stimuli/spore_stims/simple_11_B_b.gif","right","","","","",""
"","null","html-keyboard-response","308","578988","0.0-56.0-0.6","SS1613099355317","","","null","","","","","<p><img src= images/blank.png width =""200"" height = ""200"" style = ""float:right""></p><p><img src=images/blank.png width =""800"" height = ""200""></p>","","","","","","","","","","","",""
"","500.4300000000512","sequential-stimulus-presentation","309","580301","0.0-56.0-1.6","SS1613099355317","trial","","40","800","1300.4300000000512","images/stimuli/spore_stims/simple_11_A_b.gif","images/stimuli/spore_stims/simple_11_B_b.gif","","","","","16","simple_similar","images/stimuli/spore_stims/simple_11_B_b.gif","right","","","","",""
"","null","html-keyboard-response","310","581463","0.0-56.0-0.7","SS1613099355317","","","null","","","","","<p><img src= images/blank.png width =""200"" height = ""200"" style = ""float:right""></p><p><img src=images/blank.png width =""800"" height = ""200""></p>","","","","","","","","","","","",""
"","528.3900000067661","sequential-stimulus-presentation","311","582805","0.0-56.0-1.7","SS1613099355317","trial","","40","800","1328.390000006766","images/stimuli/spore_stims/simple_11_A_b.gif","images/stimuli/spore_stims/simple_11_B_b.gif","","","","","16","simple_similar","images/stimuli/spore_stims/simple_11_B_b.gif","right","","","","",""
"","1308.5149999969872","html-keyboard-response","312","584124","0.0-57.0","SS1613099355317","pref_question","","98","","","","","<video width ='960' height = '540' style='padding-top:8%' autoplay muted><source src='images/stimuli/wall_pref.mp4' type='video/mp4'></video>","2","middle","45%","16","","","","","","","",""
