"view_history","rt","trial_type","trial_index","time_elapsed","internal_node_id","subject","stimulus_type","trial_stimulus","key_press","minimum_viewing_duration","trial_looking_time","block_deviant","block_background","stimulus","wall_pref","location","location_percent","block_number","block_type","stimulus_displayed","position_displayed","stim_type_selected","responses","question_order","stimulus_left","stimulus_right"
"[{""page_index"":0,""viewing_time"":14944.999999992433}]","14946.07000000542","instructions","0","14948","0.0-0.0","SS1613138285464","","","","","","","","","","","","","","","","","","","",""
"[{""page_index"":0,""viewing_time"":9379.799999995157},{""page_index"":1,""viewing_time"":6478.000000002794}]","15858.309999995981","instructions","1","33657","0.0-1.0","SS1613138285464","instructions","","","","","","","","","","","","","","","","","","",""
"","5165.169999992941","sequential-stimulus-presentation","2","39642","0.0-2.0","SS1613138285464","","","40","800","5965.169999992941","null","null","","","","","","","","","","","","",""
"","283.8749999937136","sequential-stimulus-presentation","3","40740","0.0-3.0","SS1613138285464","","","40","800","1083.8749999937136","null","null","","","","","","","","","","","","",""
"[{""page_index"":0,""viewing_time"":1171.1599999980535}]","1171.6599999926984","instructions","4","41914","0.0-4.0","SS1613138285464","instructions","","","","","","","","","","","","","","","","","","",""
"","9949.830000012298","html-keyboard-response","5","51903","0.0-5.0","SS1613138285464","instructions","","98","","","","","<video width ='960' height = '540' autoplay muted><source src='images/stimuli/wall_pref.mp4' type='video/mp4'></video>","2","middle","45%","","","","","","","","",""
"","4008.1349999964004","sequential-stimulus-presentation","6","56720","0.0-6.0","SS1613138285464","pref_reveal","","40","800","4808.1349999964","null","null","","","","","","","","","","","","",""
"[{""page_index"":0,""viewing_time"":990.0950000010198},{""page_index"":1,""viewing_time"":1081.030000001192},{""page_index"":2,""viewing_time"":730.6099999987055},{""page_index"":3,""viewing_time"":989.4950000016252}]","3791.675000000396","instructions","7","60513","0.0-7.0","SS1613138285464","instructions","","","","","","","","","","","","","","","","","","",""
"","null","html-keyboard-response","8","61635","0.0-8.0-0.0","SS1613138285464","","","null","","","","","<p><img src= images/blank.png width =""200"" height = ""200"" style = ""float:right""></p><p><img src=images/blank.png width =""800"" height = ""200""></p>","","","","","","","","","","","",""
"","3298.884999996517","sequential-stimulus-presentation","9","65761","0.0-8.0-1.0","SS1613138285464","trial","","40","800","4098.884999996517","images/stimuli/spore_stims/simple_08_B_d.gif","images/stimuli/spore_stims/simple_10_B_b.gif","","","","","0","simple_dissimilar","images/stimuli/spore_stims/simple_10_B_b.gif","middle","","","","",""
"","null","html-keyboard-response","10","66618","0.0-8.0-0.1","SS1613138285464","","","null","","","","","<p><img src= images/blank.png width =""200"" height = ""200"" style = ""float:right""></p><p><img src=images/blank.png width =""800"" height = ""200""></p>","","","","","","","","","","","",""
"","881.215000001248","sequential-stimulus-presentation","11","68315","0.0-8.0-1.1","SS1613138285464","trial","","40","800","1681.215000001248","images/stimuli/spore_stims/simple_08_B_d.gif","images/stimuli/spore_stims/simple_10_B_b.gif","","","","","0","simple_dissimilar","images/stimuli/spore_stims/simple_10_B_b.gif","middle","","","","",""
"","null","html-keyboard-response","12","69267","0.0-8.0-0.2","SS1613138285464","","","null","","","","","<p><img src= images/blank.png width =""200"" height = ""200"" style = ""float:right""></p><p><img src=images/blank.png width =""800"" height = ""200""></p>","","","","","","","","","","","",""
"","2040.2949999988778","sequential-stimulus-presentation","13","72128","0.0-8.0-1.2","SS1613138285464","trial","","40","800","2840.2949999988778","images/stimuli/spore_stims/simple_08_B_d.gif","images/stimuli/spore_stims/simple_10_B_b.gif","","","","","0","simple_dissimilar","images/stimuli/spore_stims/simple_10_B_b.gif","middle","","","","",""
"","null","html-keyboard-response","14","73084","0.0-8.0-0.3","SS1613138285464","","","null","","","","","<p><img src= images/blank.png width =""200"" height = ""200"" style = ""float:right""></p><p><img src=images/blank.png width =""800"" height = ""200""></p>","","","","","","","","","","","",""
"","960.960000011255","sequential-stimulus-presentation","15","74865","0.0-8.0-1.3","SS1613138285464","trial","","40","800","1760.960000011255","images/stimuli/spore_stims/simple_08_B_d.gif","images/stimuli/spore_stims/simple_10_B_b.gif","","","","","0","simple_dissimilar","images/stimuli/spore_stims/simple_10_B_b.gif","middle","","","","",""
"","null","html-keyboard-response","16","75970","0.0-8.0-0.4","SS1613138285464","","","null","","","","","<p><img src= images/blank.png width =""200"" height = ""200"" style = ""float:right""></p><p><img src=images/blank.png width =""800"" height = ""200""></p>","","","","","","","","","","","",""
"","956.5000000002328","sequential-stimulus-presentation","17","77740","0.0-8.0-1.4","SS1613138285464","trial","","40","800","1756.5000000002328","images/stimuli/spore_stims/simple_08_B_d.gif","images/stimuli/spore_stims/simple_10_B_b.gif","","","","","0","simple_dissimilar","images/stimuli/spore_stims/simple_08_B_d.gif","right","","","","",""
"","null","html-keyboard-response","18","78628","0.0-8.0-0.5","SS1613138285464","","","null","","","","","<p><img src= images/blank.png width =""200"" height = ""200"" style = ""float:right""></p><p><img src=images/blank.png width =""800"" height = ""200""></p>","","","","","","","","","","","",""
"","492.31000000145286","sequential-stimulus-presentation","19","79942","0.0-8.0-1.5","SS1613138285464","trial","","40","800","1292.3100000014529","images/stimuli/spore_stims/simple_08_B_d.gif","images/stimuli/spore_stims/simple_10_B_b.gif","","","","","0","simple_dissimilar","images/stimuli/spore_stims/simple_10_B_b.gif","middle","","","","",""
"","null","html-keyboard-response","20","81075","0.0-8.0-0.6","SS1613138285464","","","null","","","","","<p><img src= images/blank.png width =""200"" height = ""200"" style = ""float:right""></p><p><img src=images/blank.png width =""800"" height = ""200""></p>","","","","","","","","","","","",""
"","105.47500000393484","sequential-stimulus-presentation","21","82010","0.0-8.0-1.6","SS1613138285464","trial","","40","800","905.4750000039348","images/stimuli/spore_stims/simple_08_B_d.gif","images/stimuli/spore_stims/simple_10_B_b.gif","","","","","0","simple_dissimilar","images/stimuli/spore_stims/simple_10_B_b.gif","middle","","","","",""
"","null","html-keyboard-response","22","82895","0.0-8.0-0.7","SS1613138285464","","","null","","","","","<p><img src= images/blank.png width =""200"" height = ""200"" style = ""float:right""></p><p><img src=images/blank.png width =""800"" height = ""200""></p>","","","","","","","","","","","",""
"","159.15000000677537","sequential-stimulus-presentation","23","83861","0.0-8.0-1.7","SS1613138285464","trial","","40","800","959.1500000067754","images/stimuli/spore_stims/simple_08_B_d.gif","images/stimuli/spore_stims/simple_10_B_b.gif","","","","","0","simple_dissimilar","images/stimuli/spore_stims/simple_10_B_b.gif","middle","","","","",""
"","2079.7050000110175","html-keyboard-response","24","85945","0.0-9.0","SS1613138285464","pref_question","","98","","","","","<video width ='960' height = '540' style='padding-top:8%' autoplay muted><source src='images/stimuli/wall_pref.mp4' type='video/mp4'></video>","2","middle","45%","0","","","","","","","",""
"","1254.7400000039488","sequential-stimulus-presentation","25","88010","0.0-10.0","SS1613138285464","pref_reveal","","40","800","2054.740000003949","null","null","","","","","0","","","","background","","","",""
"","null","html-keyboard-response","26","89267","0.0-11.0-0.0","SS1613138285464","","","null","","","","","<p><img src= images/blank.png width =""200"" height = ""200"" style = ""float:right""></p><p><img src=images/blank.png width =""800"" height = ""200""></p>","","","","","","","","","","","",""
"","682.5499999977183","sequential-stimulus-presentation","27","90761","0.0-11.0-1.0","SS1613138285464","trial","","40","800","1482.5499999977183","images/stimuli/spore_stims/complex_20_A_d.gif","images/stimuli/spore_stims/complex_20_B_d.gif","","","","","1","complex_similar","images/stimuli/spore_stims/complex_20_B_d.gif","middle","","","","",""
"","null","html-keyboard-response","28","91631","0.0-11.0-0.1","SS1613138285464","","","null","","","","","<p><img src= images/blank.png width =""200"" height = ""200"" style = ""float:right""></p><p><img src=images/blank.png width =""800"" height = ""200""></p>","","","","","","","","","","","",""
"","310.814999989816","sequential-stimulus-presentation","29","92797","0.0-11.0-1.1","SS1613138285464","trial","","40","800","1110.814999989816","images/stimuli/spore_stims/complex_20_A_d.gif","images/stimuli/spore_stims/complex_20_B_d.gif","","","","","1","complex_similar","images/stimuli/spore_stims/complex_20_B_d.gif","middle","","","","",""
"","null","html-keyboard-response","30","94006","0.0-11.0-0.2","SS1613138285464","","","null","","","","","<p><img src= images/blank.png width =""200"" height = ""200"" style = ""float:right""></p><p><img src=images/blank.png width =""800"" height = ""200""></p>","","","","","","","","","","","",""
"","547.1600000018952","sequential-stimulus-presentation","31","95365","0.0-11.0-1.2","SS1613138285464","trial","","40","800","1347.1600000018952","images/stimuli/spore_stims/complex_20_A_d.gif","images/stimuli/spore_stims/complex_20_B_d.gif","","","","","1","complex_similar","images/stimuli/spore_stims/complex_20_B_d.gif","middle","","","","",""
"","null","html-keyboard-response","32","96502","0.0-11.0-0.3","SS1613138285464","","","null","","","","","<p><img src= images/blank.png width =""200"" height = ""200"" style = ""float:right""></p><p><img src=images/blank.png width =""800"" height = ""200""></p>","","","","","","","","","","","",""
"","471.94499999750406","sequential-stimulus-presentation","33","97803","0.0-11.0-1.3","SS1613138285464","trial","","40","800","1271.944999997504","images/stimuli/spore_stims/complex_20_A_d.gif","images/stimuli/spore_stims/complex_20_B_d.gif","","","","","1","complex_similar","images/stimuli/spore_stims/complex_20_B_d.gif","middle","","","","",""
"","null","html-keyboard-response","34","98773","0.0-11.0-0.4","SS1613138285464","","","null","","","","","<p><img src= images/blank.png width =""200"" height = ""200"" style = ""float:right""></p><p><img src=images/blank.png width =""800"" height = ""200""></p>","","","","","","","","","","","",""
"","664.0999999945052","sequential-stimulus-presentation","35","100257","0.0-11.0-1.4","SS1613138285464","trial","","40","800","1464.0999999945052","images/stimuli/spore_stims/complex_20_A_d.gif","images/stimuli/spore_stims/complex_20_B_d.gif","","","","","1","complex_similar","images/stimuli/spore_stims/complex_20_B_d.gif","middle","","","","",""
"","null","html-keyboard-response","36","101130","0.0-11.0-0.5","SS1613138285464","","","null","","","","","<p><img src= images/blank.png width =""200"" height = ""200"" style = ""float:right""></p><p><img src=images/blank.png width =""800"" height = ""200""></p>","","","","","","","","","","","",""
"","1317.0700000046054","sequential-stimulus-presentation","37","103259","0.0-11.0-1.5","SS1613138285464","trial","","40","800","2117.0700000046054","images/stimuli/spore_stims/complex_20_A_d.gif","images/stimuli/spore_stims/complex_20_B_d.gif","","","","","1","complex_similar","images/stimuli/spore_stims/complex_20_A_d.gif","right","","","","",""
"","null","html-keyboard-response","38","104537","0.0-11.0-0.6","SS1613138285464","","","null","","","","","<p><img src= images/blank.png width =""200"" height = ""200"" style = ""float:right""></p><p><img src=images/blank.png width =""800"" height = ""200""></p>","","","","","","","","","","","",""
"","932.874999998603","sequential-stimulus-presentation","39","106300","0.0-11.0-1.6","SS1613138285464","trial","","40","800","1732.874999998603","images/stimuli/spore_stims/complex_20_A_d.gif","images/stimuli/spore_stims/complex_20_B_d.gif","","","","","1","complex_similar","images/stimuli/spore_stims/complex_20_B_d.gif","middle","","","","",""
"","null","html-keyboard-response","40","107565","0.0-11.0-0.7","SS1613138285464","","","null","","","","","<p><img src= images/blank.png width =""200"" height = ""200"" style = ""float:right""></p><p><img src=images/blank.png width =""800"" height = ""200""></p>","","","","","","","","","","","",""
"","585.4000000108499","sequential-stimulus-presentation","41","108970","0.0-11.0-1.7","SS1613138285464","trial","","40","800","1385.40000001085","images/stimuli/spore_stims/complex_20_A_d.gif","images/stimuli/spore_stims/complex_20_B_d.gif","","","","","1","complex_similar","images/stimuli/spore_stims/complex_20_B_d.gif","middle","","","","",""
"","1868.9400000002934","html-keyboard-response","42","110844","0.0-12.0","SS1613138285464","pref_question","","99","","","","","<video width ='960' height = '540' style='padding-top:8%' autoplay muted><source src='images/stimuli/wall_pref.mp4' type='video/mp4'></video>","3","right","66%","1","","","","","","","",""
"","30.33000000868924","sequential-stimulus-presentation","43","111682","0.0-13.0","SS1613138285464","pref_reveal","","40","800","830.3300000086892","null","null","","","","","1","","","","deviant","","","",""
"","null","html-keyboard-response","44","112985","0.0-14.0-0.0","SS1613138285464","","","null","","","","","<p><img src= images/blank.png width =""200"" height = ""200"" style = ""float:right""></p><p><img src=images/blank.png width =""800"" height = ""200""></p>","","","","","","","","","","","",""
"","5.844999992405064","sequential-stimulus-presentation","45","113804","0.0-14.0-1.0","SS1613138285464","trial","","40","800","805.8449999924051","images/stimuli/spore_stims/simple_11_A_a.gif","images/stimuli/spore_stims/simple_20_A_b.gif","","","","","2","simple_dissimilar","images/stimuli/spore_stims/simple_20_A_b.gif","right","","","","",""
"","null","html-keyboard-response","46","114726","0.0-14.0-0.1","SS1613138285464","","","null","","","","","<p><img src= images/blank.png width =""200"" height = ""200"" style = ""float:right""></p><p><img src=images/blank.png width =""800"" height = ""200""></p>","","","","","","","","","","","",""
"","631.9999999977881","sequential-stimulus-presentation","47","116179","0.0-14.0-1.1","SS1613138285464","trial","","40","800","1431.999999997788","images/stimuli/spore_stims/simple_11_A_a.gif","images/stimuli/spore_stims/simple_20_A_b.gif","","","","","2","simple_dissimilar","images/stimuli/spore_stims/simple_20_A_b.gif","right","","","","",""
"","null","html-keyboard-response","48","117000","0.0-14.0-0.2","SS1613138285464","","","null","","","","","<p><img src= images/blank.png width =""200"" height = ""200"" style = ""float:right""></p><p><img src=images/blank.png width =""800"" height = ""200""></p>","","","","","","","","","","","",""
"","134.70999999844935","sequential-stimulus-presentation","49","117963","0.0-14.0-1.2","SS1613138285464","trial","","40","800","934.7099999984493","images/stimuli/spore_stims/simple_11_A_a.gif","images/stimuli/spore_stims/simple_20_A_b.gif","","","","","2","simple_dissimilar","images/stimuli/spore_stims/simple_20_A_b.gif","right","","","","",""
"","null","html-keyboard-response","50","119042","0.0-14.0-0.3","SS1613138285464","","","null","","","","","<p><img src= images/blank.png width =""200"" height = ""200"" style = ""float:right""></p><p><img src=images/blank.png width =""800"" height = ""200""></p>","","","","","","","","","","","",""
"","200.45000000391155","sequential-stimulus-presentation","51","120068","0.0-14.0-1.3","SS1613138285464","trial","","40","800","1000.4500000039116","images/stimuli/spore_stims/simple_11_A_a.gif","images/stimuli/spore_stims/simple_20_A_b.gif","","","","","2","simple_dissimilar","images/stimuli/spore_stims/simple_20_A_b.gif","right","","","","",""
"","null","html-keyboard-response","52","120983","0.0-14.0-0.4","SS1613138285464","","","null","","","","","<p><img src= images/blank.png width =""200"" height = ""200"" style = ""float:right""></p><p><img src=images/blank.png width =""800"" height = ""200""></p>","","","","","","","","","","","",""
"","163.90500000852626","sequential-stimulus-presentation","53","122028","0.0-14.0-1.4","SS1613138285464","trial","","40","800","963.9050000085263","images/stimuli/spore_stims/simple_11_A_a.gif","images/stimuli/spore_stims/simple_20_A_b.gif","","","","","2","simple_dissimilar","images/stimuli/spore_stims/simple_20_A_b.gif","right","","","","",""
"","null","html-keyboard-response","54","123073","0.0-14.0-0.5","SS1613138285464","","","null","","","","","<p><img src= images/blank.png width =""200"" height = ""200"" style = ""float:right""></p><p><img src=images/blank.png width =""800"" height = ""200""></p>","","","","","","","","","","","",""
"","633.4000000060769","sequential-stimulus-presentation","55","124537","0.0-14.0-1.5","SS1613138285464","trial","","40","800","1433.4000000060769","images/stimuli/spore_stims/simple_11_A_a.gif","images/stimuli/spore_stims/simple_20_A_b.gif","","","","","2","simple_dissimilar","images/stimuli/spore_stims/simple_11_A_a.gif","middle","","","","",""
"","null","html-keyboard-response","56","125497","0.0-14.0-0.6","SS1613138285464","","","null","","","","","<p><img src= images/blank.png width =""200"" height = ""200"" style = ""float:right""></p><p><img src=images/blank.png width =""800"" height = ""200""></p>","","","","","","","","","","","",""
"","130.17000000400003","sequential-stimulus-presentation","57","126441","0.0-14.0-1.6","SS1613138285464","trial","","40","800","930.170000004","images/stimuli/spore_stims/simple_11_A_a.gif","images/stimuli/spore_stims/simple_20_A_b.gif","","","","","2","simple_dissimilar","images/stimuli/spore_stims/simple_20_A_b.gif","right","","","","",""
"","null","html-keyboard-response","58","127630","0.0-14.0-0.7","SS1613138285464","","","null","","","","","<p><img src= images/blank.png width =""200"" height = ""200"" style = ""float:right""></p><p><img src=images/blank.png width =""800"" height = ""200""></p>","","","","","","","","","","","",""
"","161.77999999490567","sequential-stimulus-presentation","59","128614","0.0-14.0-1.7","SS1613138285464","trial","","40","800","961.7799999949057","images/stimuli/spore_stims/simple_11_A_a.gif","images/stimuli/spore_stims/simple_20_A_b.gif","","","","","2","simple_dissimilar","images/stimuli/spore_stims/simple_20_A_b.gif","right","","","","",""
"","1707.5349999940954","html-keyboard-response","60","130346","0.0-15.0","SS1613138285464","pref_question","","99","","","","","<video width ='960' height = '540' style='padding-top:8%' autoplay muted><source src='images/stimuli/wall_pref.mp4' type='video/mp4'></video>","3","right","66%","2","","","","","","","",""
"","608.1150000100024","sequential-stimulus-presentation","61","131771","0.0-16.0","SS1613138285464","pref_reveal","","40","800","1408.1150000100024","null","null","","","","","2","","","","background","","","",""
"","null","html-keyboard-response","62","132742","0.0-17.0-0.0","SS1613138285464","","","null","","","","","<p><img src= images/blank.png width =""200"" height = ""200"" style = ""float:right""></p><p><img src=images/blank.png width =""800"" height = ""200""></p>","","","","","","","","","","","",""
"","16869.779999993625","sequential-stimulus-presentation","63","150427","0.0-17.0-1.0","SS1613138285464","trial","","40","800","17669.779999993625","images/stimuli/spore_stims/simple_03_A_d.gif","images/stimuli/spore_stims/simple_03_B_d.gif","","","","","3","simple_similar","images/stimuli/spore_stims/simple_03_B_d.gif","middle","","","","",""
"","null","html-keyboard-response","64","151687","0.0-17.0-0.1","SS1613138285464","","","null","","","","","<p><img src= images/blank.png width =""200"" height = ""200"" style = ""float:right""></p><p><img src=images/blank.png width =""800"" height = ""200""></p>","","","","","","","","","","","",""
"","148.45999999670312","sequential-stimulus-presentation","65","152665","0.0-17.0-1.1","SS1613138285464","trial","","40","800","948.4599999967031","images/stimuli/spore_stims/simple_03_A_d.gif","images/stimuli/spore_stims/simple_03_B_d.gif","","","","","3","simple_similar","images/stimuli/spore_stims/simple_03_B_d.gif","middle","","","","",""
"","null","html-keyboard-response","66","153574","0.0-17.0-0.2","SS1613138285464","","","null","","","","","<p><img src= images/blank.png width =""200"" height = ""200"" style = ""float:right""></p><p><img src=images/blank.png width =""800"" height = ""200""></p>","","","","","","","","","","","",""
"","786.9599999976344","sequential-stimulus-presentation","67","155173","0.0-17.0-1.2","SS1613138285464","trial","","40","800","1586.9599999976344","images/stimuli/spore_stims/simple_03_A_d.gif","images/stimuli/spore_stims/simple_03_B_d.gif","","","","","3","simple_similar","images/stimuli/spore_stims/simple_03_B_d.gif","middle","","","","",""
"","null","html-keyboard-response","68","156170","0.0-17.0-0.3","SS1613138285464","","","null","","","","","<p><img src= images/blank.png width =""200"" height = ""200"" style = ""float:right""></p><p><img src=images/blank.png width =""800"" height = ""200""></p>","","","","","","","","","","","",""
"","652.7449999994133","sequential-stimulus-presentation","69","157638","0.0-17.0-1.3","SS1613138285464","trial","","40","800","1452.7449999994133","images/stimuli/spore_stims/simple_03_A_d.gif","images/stimuli/spore_stims/simple_03_B_d.gif","","","","","3","simple_similar","images/stimuli/spore_stims/simple_03_B_d.gif","middle","","","","",""
"","null","html-keyboard-response","70","158531","0.0-17.0-0.4","SS1613138285464","","","null","","","","","<p><img src= images/blank.png width =""200"" height = ""200"" style = ""float:right""></p><p><img src=images/blank.png width =""800"" height = ""200""></p>","","","","","","","","","","","",""
"","984.7299999964889","sequential-stimulus-presentation","71","160393","0.0-17.0-1.4","SS1613138285464","trial","","40","800","1784.729999996489","images/stimuli/spore_stims/simple_03_A_d.gif","images/stimuli/spore_stims/simple_03_B_d.gif","","","","","3","simple_similar","images/stimuli/spore_stims/simple_03_B_d.gif","middle","","","","",""
"","null","html-keyboard-response","72","161490","0.0-17.0-0.5","SS1613138285464","","","null","","","","","<p><img src= images/blank.png width =""200"" height = ""200"" style = ""float:right""></p><p><img src=images/blank.png width =""800"" height = ""200""></p>","","","","","","","","","","","",""
"","718.6099999962607","sequential-stimulus-presentation","73","163024","0.0-17.0-1.5","SS1613138285464","trial","","40","800","1518.6099999962607","images/stimuli/spore_stims/simple_03_A_d.gif","images/stimuli/spore_stims/simple_03_B_d.gif","","","","","3","simple_similar","images/stimuli/spore_stims/simple_03_B_d.gif","middle","","","","",""
"","null","html-keyboard-response","74","164224","0.0-17.0-0.6","SS1613138285464","","","null","","","","","<p><img src= images/blank.png width =""200"" height = ""200"" style = ""float:right""></p><p><img src=images/blank.png width =""800"" height = ""200""></p>","","","","","","","","","","","",""
"","14448.485000000801","sequential-stimulus-presentation","75","179497","0.0-17.0-1.6","SS1613138285464","trial","","40","800","15248.485000000801","images/stimuli/spore_stims/simple_03_A_d.gif","images/stimuli/spore_stims/simple_03_B_d.gif","","","","","3","simple_similar","images/stimuli/spore_stims/simple_03_B_d.gif","middle","","","","",""
"","null","html-keyboard-response","76","180603","0.0-17.0-0.7","SS1613138285464","","","null","","","","","<p><img src= images/blank.png width =""200"" height = ""200"" style = ""float:right""></p><p><img src=images/blank.png width =""800"" height = ""200""></p>","","","","","","","","","","","",""
"","573.4050000028219","sequential-stimulus-presentation","77","182003","0.0-17.0-1.7","SS1613138285464","trial","","40","800","1373.405000002822","images/stimuli/spore_stims/simple_03_A_d.gif","images/stimuli/spore_stims/simple_03_B_d.gif","","","","","3","simple_similar","images/stimuli/spore_stims/simple_03_A_d.gif","right","","","","",""
"","1646.6499999951338","html-keyboard-response","78","183655","0.0-18.0","SS1613138285464","pref_question","","98","","","","","<video width ='960' height = '540' style='padding-top:8%' autoplay muted><source src='images/stimuli/wall_pref.mp4' type='video/mp4'></video>","2","middle","45%","3","","","","","","","",""
"","2290.240000002086","sequential-stimulus-presentation","79","186754","0.0-19.0","SS1613138285464","pref_reveal","","40","800","3090.240000002086","null","null","","","","","3","","","","background","","","",""
"","null","html-keyboard-response","80","188047","0.0-20.0-0.0","SS1613138285464","","","null","","","","","<p><img src= images/blank.png width =""200"" height = ""200"" style = ""float:right""></p><p><img src=images/blank.png width =""800"" height = ""200""></p>","","","","","","","","","","","",""
"","902.7999999962049","sequential-stimulus-presentation","81","189773","0.0-20.0-1.0","SS1613138285464","trial","","40","800","1702.7999999962049","images/stimuli/spore_stims/complex_01_A_d.gif","images/stimuli/spore_stims/complex_16_B_d.gif","","","","","4","complex_dissimilar","images/stimuli/spore_stims/complex_16_B_d.gif","middle","","","","",""
"","null","html-keyboard-response","82","190787","0.0-20.0-0.1","SS1613138285464","","","null","","","","","<p><img src= images/blank.png width =""200"" height = ""200"" style = ""float:right""></p><p><img src=images/blank.png width =""800"" height = ""200""></p>","","","","","","","","","","","",""
"","1520.0050000130432","sequential-stimulus-presentation","83","193187","0.0-20.0-1.1","SS1613138285464","trial","","40","800","2320.005000013043","images/stimuli/spore_stims/complex_01_A_d.gif","images/stimuli/spore_stims/complex_16_B_d.gif","","","","","4","complex_dissimilar","images/stimuli/spore_stims/complex_16_B_d.gif","middle","","","","",""
"","null","html-keyboard-response","84","194418","0.0-20.0-0.2","SS1613138285464","","","null","","","","","<p><img src= images/blank.png width =""200"" height = ""200"" style = ""float:right""></p><p><img src=images/blank.png width =""800"" height = ""200""></p>","","","","","","","","","","","",""
"","596.7400000081398","sequential-stimulus-presentation","85","195826","0.0-20.0-1.2","SS1613138285464","trial","","40","800","1396.7400000081398","images/stimuli/spore_stims/complex_01_A_d.gif","images/stimuli/spore_stims/complex_16_B_d.gif","","","","","4","complex_dissimilar","images/stimuli/spore_stims/complex_16_B_d.gif","middle","","","","",""
"","null","html-keyboard-response","86","197022","0.0-20.0-0.3","SS1613138285464","","","null","","","","","<p><img src= images/blank.png width =""200"" height = ""200"" style = ""float:right""></p><p><img src=images/blank.png width =""800"" height = ""200""></p>","","","","","","","","","","","",""
"","1155.8099999965634","sequential-stimulus-presentation","87","199003","0.0-20.0-1.3","SS1613138285464","trial","","40","800","1955.8099999965634","images/stimuli/spore_stims/complex_01_A_d.gif","images/stimuli/spore_stims/complex_16_B_d.gif","","","","","4","complex_dissimilar","images/stimuli/spore_stims/complex_01_A_d.gif","left","","","","",""
"","null","html-keyboard-response","88","200231","0.0-20.0-0.4","SS1613138285464","","","null","","","","","<p><img src= images/blank.png width =""200"" height = ""200"" style = ""float:right""></p><p><img src=images/blank.png width =""800"" height = ""200""></p>","","","","","","","","","","","",""
"","1169.14500000712","sequential-stimulus-presentation","89","202218","0.0-20.0-1.4","SS1613138285464","trial","","40","800","1969.14500000712","images/stimuli/spore_stims/complex_01_A_d.gif","images/stimuli/spore_stims/complex_16_B_d.gif","","","","","4","complex_dissimilar","images/stimuli/spore_stims/complex_16_B_d.gif","middle","","","","",""
"","null","html-keyboard-response","90","203122","0.0-20.0-0.5","SS1613138285464","","","null","","","","","<p><img src= images/blank.png width =""200"" height = ""200"" style = ""float:right""></p><p><img src=images/blank.png width =""800"" height = ""200""></p>","","","","","","","","","","","",""
"","671.1300000024494","sequential-stimulus-presentation","91","204654","0.0-20.0-1.5","SS1613138285464","trial","","40","800","1471.1300000024494","images/stimuli/spore_stims/complex_01_A_d.gif","images/stimuli/spore_stims/complex_16_B_d.gif","","","","","4","complex_dissimilar","images/stimuli/spore_stims/complex_16_B_d.gif","middle","","","","",""
"","null","html-keyboard-response","92","205519","0.0-20.0-0.6","SS1613138285464","","","null","","","","","<p><img src= images/blank.png width =""200"" height = ""200"" style = ""float:right""></p><p><img src=images/blank.png width =""800"" height = ""200""></p>","","","","","","","","","","","",""
"","240.4649999953108","sequential-stimulus-presentation","93","206584","0.0-20.0-1.6","SS1613138285464","trial","","40","800","1040.4649999953108","images/stimuli/spore_stims/complex_01_A_d.gif","images/stimuli/spore_stims/complex_16_B_d.gif","","","","","4","complex_dissimilar","images/stimuli/spore_stims/complex_16_B_d.gif","middle","","","","",""
"","null","html-keyboard-response","94","207459","0.0-20.0-0.7","SS1613138285464","","","null","","","","","<p><img src= images/blank.png width =""200"" height = ""200"" style = ""float:right""></p><p><img src=images/blank.png width =""800"" height = ""200""></p>","","","","","","","","","","","",""
"","577.8250000003027","sequential-stimulus-presentation","95","208851","0.0-20.0-1.7","SS1613138285464","trial","","40","800","1377.8250000003027","images/stimuli/spore_stims/complex_01_A_d.gif","images/stimuli/spore_stims/complex_16_B_d.gif","","","","","4","complex_dissimilar","images/stimuli/spore_stims/complex_16_B_d.gif","middle","","","","",""
"","2449.364999993122","html-keyboard-response","96","211324","0.0-21.0","SS1613138285464","pref_question","","99","","","","","<video width ='960' height = '540' style='padding-top:8%' autoplay muted><source src='images/stimuli/wall_pref.mp4' type='video/mp4'></video>","3","right","66%","4","","","","","","","",""
"","1133.9199999929406","sequential-stimulus-presentation","97","213267","0.0-22.0","SS1613138285464","pref_reveal","","40","800","1933.9199999929406","null","null","","","","","4","","","","novel","","","",""
"","null","html-keyboard-response","98","214554","0.0-23.0-0.0","SS1613138285464","","","null","","","","","<p><img src= images/blank.png width =""200"" height = ""200"" style = ""float:right""></p><p><img src=images/blank.png width =""800"" height = ""200""></p>","","","","","","","","","","","",""
"","760.8350000082282","sequential-stimulus-presentation","99","216141","0.0-23.0-1.0","SS1613138285464","trial","","40","800","1560.8350000082282","images/stimuli/spore_stims/simple_15_B_b.gif","images/stimuli/spore_stims/simple_15_A_b.gif","","","","","5","simple_similar","images/stimuli/spore_stims/simple_15_A_b.gif","right","","","","",""
"","null","html-keyboard-response","100","217339","0.0-23.0-0.1","SS1613138285464","","","null","","","","","<p><img src= images/blank.png width =""200"" height = ""200"" style = ""float:right""></p><p><img src=images/blank.png width =""800"" height = ""200""></p>","","","","","","","","","","","",""
"","902.0000000018626","sequential-stimulus-presentation","101","219054","0.0-23.0-1.1","SS1613138285464","trial","","40","800","1702.0000000018626","images/stimuli/spore_stims/simple_15_B_b.gif","images/stimuli/spore_stims/simple_15_A_b.gif","","","","","5","simple_similar","images/stimuli/spore_stims/simple_15_A_b.gif","right","","","","",""
"","null","html-keyboard-response","102","220208","0.0-23.0-0.2","SS1613138285464","","","null","","","","","<p><img src= images/blank.png width =""200"" height = ""200"" style = ""float:right""></p><p><img src=images/blank.png width =""800"" height = ""200""></p>","","","","","","","","","","","",""
"","573.6550000001444","sequential-stimulus-presentation","103","221603","0.0-23.0-1.2","SS1613138285464","trial","","40","800","1373.6550000001444","images/stimuli/spore_stims/simple_15_B_b.gif","images/stimuli/spore_stims/simple_15_A_b.gif","","","","","5","simple_similar","images/stimuli/spore_stims/simple_15_A_b.gif","right","","","","",""
"","null","html-keyboard-response","104","222689","0.0-23.0-0.3","SS1613138285464","","","null","","","","","<p><img src= images/blank.png width =""200"" height = ""200"" style = ""float:right""></p><p><img src=images/blank.png width =""800"" height = ""200""></p>","","","","","","","","","","","",""
"","543.5700000089128","sequential-stimulus-presentation","105","224045","0.0-23.0-1.3","SS1613138285464","trial","","40","800","1343.5700000089128","images/stimuli/spore_stims/simple_15_B_b.gif","images/stimuli/spore_stims/simple_15_A_b.gif","","","","","5","simple_similar","images/stimuli/spore_stims/simple_15_A_b.gif","right","","","","",""
"","null","html-keyboard-response","106","225333","0.0-23.0-0.4","SS1613138285464","","","null","","","","","<p><img src= images/blank.png width =""200"" height = ""200"" style = ""float:right""></p><p><img src=images/blank.png width =""800"" height = ""200""></p>","","","","","","","","","","","",""
"","214.50000000186265","sequential-stimulus-presentation","107","226380","0.0-23.0-1.4","SS1613138285464","trial","","40","800","1014.5000000018626","images/stimuli/spore_stims/simple_15_B_b.gif","images/stimuli/spore_stims/simple_15_A_b.gif","","","","","5","simple_similar","images/stimuli/spore_stims/simple_15_A_b.gif","right","","","","",""
"","null","html-keyboard-response","108","227240","0.0-23.0-0.5","SS1613138285464","","","null","","","","","<p><img src= images/blank.png width =""200"" height = ""200"" style = ""float:right""></p><p><img src=images/blank.png width =""800"" height = ""200""></p>","","","","","","","","","","","",""
"","326.3999999908265","sequential-stimulus-presentation","109","228380","0.0-23.0-1.5","SS1613138285464","trial","","40","800","1126.3999999908265","images/stimuli/spore_stims/simple_15_B_b.gif","images/stimuli/spore_stims/simple_15_A_b.gif","","","","","5","simple_similar","images/stimuli/spore_stims/simple_15_A_b.gif","right","","","","",""
"","null","html-keyboard-response","110","229356","0.0-23.0-0.6","SS1613138285464","","","null","","","","","<p><img src= images/blank.png width =""200"" height = ""200"" style = ""float:right""></p><p><img src=images/blank.png width =""800"" height = ""200""></p>","","","","","","","","","","","",""
"","140.16500000434462","sequential-stimulus-presentation","111","230308","0.0-23.0-1.6","SS1613138285464","trial","","40","800","940.1650000043446","images/stimuli/spore_stims/simple_15_B_b.gif","images/stimuli/spore_stims/simple_15_A_b.gif","","","","","5","simple_similar","images/stimuli/spore_stims/simple_15_A_b.gif","right","","","","",""
"","null","html-keyboard-response","112","231156","0.0-23.0-0.7","SS1613138285464","","","null","","","","","<p><img src= images/blank.png width =""200"" height = ""200"" style = ""float:right""></p><p><img src=images/blank.png width =""800"" height = ""200""></p>","","","","","","","","","","","",""
"","621.7699999979232","sequential-stimulus-presentation","113","232604","0.0-23.0-1.7","SS1613138285464","trial","","40","800","1421.7699999979232","images/stimuli/spore_stims/simple_15_B_b.gif","images/stimuli/spore_stims/simple_15_A_b.gif","","","","","5","simple_similar","images/stimuli/spore_stims/simple_15_B_b.gif","left","","","","",""
"","1558.5050000081537","html-keyboard-response","114","234189","0.0-24.0","SS1613138285464","pref_question","","99","","","","","<video width ='960' height = '540' style='padding-top:8%' autoplay muted><source src='images/stimuli/wall_pref.mp4' type='video/mp4'></video>","3","right","66%","5","","","","","","","",""
"","569.9400000012247","sequential-stimulus-presentation","115","235574","0.0-25.0","SS1613138285464","pref_reveal","","40","800","1369.9400000012247","null","null","","","","","5","","","","background","","","",""
"","null","html-keyboard-response","116","236790","0.0-26.0-0.0","SS1613138285464","","","null","","","","","<p><img src= images/blank.png width =""200"" height = ""200"" style = ""float:right""></p><p><img src=images/blank.png width =""800"" height = ""200""></p>","","","","","","","","","","","",""
"","656.635000006645","sequential-stimulus-presentation","117","238276","0.0-26.0-1.0","SS1613138285464","trial","","40","800","1456.635000006645","images/stimuli/spore_stims/complex_17_B_c.gif","images/stimuli/spore_stims/complex_03_B_d.gif","","","","","6","complex_dissimilar","images/stimuli/spore_stims/complex_03_B_d.gif","middle","","","","",""
"","null","html-keyboard-response","118","239339","0.0-26.0-0.1","SS1613138285464","","","null","","","","","<p><img src= images/blank.png width =""200"" height = ""200"" style = ""float:right""></p><p><img src=images/blank.png width =""800"" height = ""200""></p>","","","","","","","","","","","",""
"","1382.7149999997346","sequential-stimulus-presentation","119","241539","0.0-26.0-1.1","SS1613138285464","trial","","40","800","2182.7149999997346","images/stimuli/spore_stims/complex_17_B_c.gif","images/stimuli/spore_stims/complex_03_B_d.gif","","","","","6","complex_dissimilar","images/stimuli/spore_stims/complex_03_B_d.gif","middle","","","","",""
"","null","html-keyboard-response","120","242636","0.0-26.0-0.2","SS1613138285464","","","null","","","","","<p><img src= images/blank.png width =""200"" height = ""200"" style = ""float:right""></p><p><img src=images/blank.png width =""800"" height = ""200""></p>","","","","","","","","","","","",""
"","318.5149999917485","sequential-stimulus-presentation","121","243781","0.0-26.0-1.2","SS1613138285464","trial","","40","800","1118.5149999917485","images/stimuli/spore_stims/complex_17_B_c.gif","images/stimuli/spore_stims/complex_03_B_d.gif","","","","","6","complex_dissimilar","images/stimuli/spore_stims/complex_03_B_d.gif","middle","","","","",""
"","null","html-keyboard-response","122","244797","0.0-26.0-0.3","SS1613138285464","","","null","","","","","<p><img src= images/blank.png width =""200"" height = ""200"" style = ""float:right""></p><p><img src=images/blank.png width =""800"" height = ""200""></p>","","","","","","","","","","","",""
"","193.7200000102166","sequential-stimulus-presentation","123","245806","0.0-26.0-1.3","SS1613138285464","trial","","40","800","993.7200000102166","images/stimuli/spore_stims/complex_17_B_c.gif","images/stimuli/spore_stims/complex_03_B_d.gif","","","","","6","complex_dissimilar","images/stimuli/spore_stims/complex_03_B_d.gif","middle","","","","",""
"","null","html-keyboard-response","124","246654","0.0-26.0-0.4","SS1613138285464","","","null","","","","","<p><img src= images/blank.png width =""200"" height = ""200"" style = ""float:right""></p><p><img src=images/blank.png width =""800"" height = ""200""></p>","","","","","","","","","","","",""
"","8.05999999283813","sequential-stimulus-presentation","125","247492","0.0-26.0-1.4","SS1613138285464","trial","","40","800","808.0599999928381","images/stimuli/spore_stims/complex_17_B_c.gif","images/stimuli/spore_stims/complex_03_B_d.gif","","","","","6","complex_dissimilar","images/stimuli/spore_stims/complex_03_B_d.gif","middle","","","","",""
"","null","html-keyboard-response","126","248311","0.0-26.0-0.5","SS1613138285464","","","null","","","","","<p><img src= images/blank.png width =""200"" height = ""200"" style = ""float:right""></p><p><img src=images/blank.png width =""800"" height = ""200""></p>","","","","","","","","","","","",""
"","0.5950000049779192","sequential-stimulus-presentation","127","249140","0.0-26.0-1.5","SS1613138285464","trial","","40","800","800.5950000049779","images/stimuli/spore_stims/complex_17_B_c.gif","images/stimuli/spore_stims/complex_03_B_d.gif","","","","","6","complex_dissimilar","images/stimuli/spore_stims/complex_03_B_d.gif","middle","","","","",""
"","null","html-keyboard-response","128","250066","0.0-26.0-0.6","SS1613138285464","","","null","","","","","<p><img src= images/blank.png width =""200"" height = ""200"" style = ""float:right""></p><p><img src=images/blank.png width =""800"" height = ""200""></p>","","","","","","","","","","","",""
"","1051.9950000016252","sequential-stimulus-presentation","129","251939","0.0-26.0-1.6","SS1613138285464","trial","","40","800","1851.9950000016252","images/stimuli/spore_stims/complex_17_B_c.gif","images/stimuli/spore_stims/complex_03_B_d.gif","","","","","6","complex_dissimilar","images/stimuli/spore_stims/complex_17_B_c.gif","right","","","","",""
"","null","html-keyboard-response","130","252750","0.0-26.0-0.7","SS1613138285464","","","null","","","","","<p><img src= images/blank.png width =""200"" height = ""200"" style = ""float:right""></p><p><img src=images/blank.png width =""800"" height = ""200""></p>","","","","","","","","","","","",""
"","658.6349999997765","sequential-stimulus-presentation","131","254229","0.0-26.0-1.7","SS1613138285464","trial","","40","800","1458.6349999997765","images/stimuli/spore_stims/complex_17_B_c.gif","images/stimuli/spore_stims/complex_03_B_d.gif","","","","","6","complex_dissimilar","images/stimuli/spore_stims/complex_03_B_d.gif","middle","","","","",""
"","1813.7149999965914","html-keyboard-response","132","256069","0.0-27.0","SS1613138285464","pref_question","","99","","","","","<video width ='960' height = '540' style='padding-top:8%' autoplay muted><source src='images/stimuli/wall_pref.mp4' type='video/mp4'></video>","3","right","66%","6","","","","","","","",""
"","496.3199999911012","sequential-stimulus-presentation","133","257374","0.0-28.0","SS1613138285464","pref_reveal","","40","800","1296.3199999911012","null","null","","","","","6","","","","deviant","","","",""
"","null","html-keyboard-response","134","258275","0.0-29.0-0.0","SS1613138285464","","","null","","","","","<p><img src= images/blank.png width =""200"" height = ""200"" style = ""float:right""></p><p><img src=images/blank.png width =""800"" height = ""200""></p>","","","","","","","","","","","",""
"","179.55000000074506","sequential-stimulus-presentation","135","259277","0.0-29.0-1.0","SS1613138285464","trial","","40","800","979.5500000007451","images/stimuli/spore_stims/simple_10_A_c.gif","images/stimuli/spore_stims/simple_12_A_c.gif","","","","","7","simple_dissimilar","images/stimuli/spore_stims/simple_12_A_c.gif","left","","","","",""
"","null","html-keyboard-response","136","260578","0.0-29.0-0.1","SS1613138285464","","","null","","","","","<p><img src= images/blank.png width =""200"" height = ""200"" style = ""float:right""></p><p><img src=images/blank.png width =""800"" height = ""200""></p>","","","","","","","","","","","",""
"","42999.74499999371","sequential-stimulus-presentation","137","304396","0.0-29.0-1.1","SS1613138285464","trial","","40","800","43799.74499999371","images/stimuli/spore_stims/simple_10_A_c.gif","images/stimuli/spore_stims/simple_12_A_c.gif","","","","","7","simple_dissimilar","images/stimuli/spore_stims/simple_12_A_c.gif","left","","","","",""
"","null","html-keyboard-response","138","305638","0.0-29.0-0.2","SS1613138285464","","","null","","","","","<p><img src= images/blank.png width =""200"" height = ""200"" style = ""float:right""></p><p><img src=images/blank.png width =""800"" height = ""200""></p>","","","","","","","","","","","",""
"","392.34000000578817","sequential-stimulus-presentation","139","306845","0.0-29.0-1.2","SS1613138285464","trial","","40","800","1192.3400000057882","images/stimuli/spore_stims/simple_10_A_c.gif","images/stimuli/spore_stims/simple_12_A_c.gif","","","","","7","simple_dissimilar","images/stimuli/spore_stims/simple_12_A_c.gif","left","","","","",""
"","null","html-keyboard-response","140","307937","0.0-29.0-0.3","SS1613138285464","","","null","","","","","<p><img src= images/blank.png width =""200"" height = ""200"" style = ""float:right""></p><p><img src=images/blank.png width =""800"" height = ""200""></p>","","","","","","","","","","","",""
"","71.57499999448191","sequential-stimulus-presentation","141","308837","0.0-29.0-1.3","SS1613138285464","trial","","40","800","871.5749999944819","images/stimuli/spore_stims/simple_10_A_c.gif","images/stimuli/spore_stims/simple_12_A_c.gif","","","","","7","simple_dissimilar","images/stimuli/spore_stims/simple_12_A_c.gif","left","","","","",""
"","null","html-keyboard-response","142","310095","0.0-29.0-0.4","SS1613138285464","","","null","","","","","<p><img src= images/blank.png width =""200"" height = ""200"" style = ""float:right""></p><p><img src=images/blank.png width =""800"" height = ""200""></p>","","","","","","","","","","","",""
"","279.7699999937322","sequential-stimulus-presentation","143","311197","0.0-29.0-1.4","SS1613138285464","trial","","40","800","1079.7699999937322","images/stimuli/spore_stims/simple_10_A_c.gif","images/stimuli/spore_stims/simple_12_A_c.gif","","","","","7","simple_dissimilar","images/stimuli/spore_stims/simple_12_A_c.gif","left","","","","",""
"","null","html-keyboard-response","144","312260","0.0-29.0-0.5","SS1613138285464","","","null","","","","","<p><img src= images/blank.png width =""200"" height = ""200"" style = ""float:right""></p><p><img src=images/blank.png width =""800"" height = ""200""></p>","","","","","","","","","","","",""
"","15.04499999282416","sequential-stimulus-presentation","145","313091","0.0-29.0-1.5","SS1613138285464","trial","","40","800","815.0449999928242","images/stimuli/spore_stims/simple_10_A_c.gif","images/stimuli/spore_stims/simple_12_A_c.gif","","","","","7","simple_dissimilar","images/stimuli/spore_stims/simple_10_A_c.gif","right","","","","",""
"","null","html-keyboard-response","146","313906","0.0-29.0-0.6","SS1613138285464","","","null","","","","","<p><img src= images/blank.png width =""200"" height = ""200"" style = ""float:right""></p><p><img src=images/blank.png width =""800"" height = ""200""></p>","","","","","","","","","","","",""
"","101.00999999849591","sequential-stimulus-presentation","147","314824","0.0-29.0-1.6","SS1613138285464","trial","","40","800","901.0099999984959","images/stimuli/spore_stims/simple_10_A_c.gif","images/stimuli/spore_stims/simple_12_A_c.gif","","","","","7","simple_dissimilar","images/stimuli/spore_stims/simple_12_A_c.gif","left","","","","",""
"","null","html-keyboard-response","148","315919","0.0-29.0-0.7","SS1613138285464","","","null","","","","","<p><img src= images/blank.png width =""200"" height = ""200"" style = ""float:right""></p><p><img src=images/blank.png width =""800"" height = ""200""></p>","","","","","","","","","","","",""
"","0.7150000019464642","sequential-stimulus-presentation","149","316769","0.0-29.0-1.7","SS1613138285464","trial","","40","800","800.7150000019465","images/stimuli/spore_stims/simple_10_A_c.gif","images/stimuli/spore_stims/simple_12_A_c.gif","","","","","7","simple_dissimilar","images/stimuli/spore_stims/simple_12_A_c.gif","left","","","","",""
"","1758.5799999942537","html-keyboard-response","150","318534","0.0-30.0","SS1613138285464","pref_question","","99","","","","","<video width ='960' height = '540' style='padding-top:8%' autoplay muted><source src='images/stimuli/wall_pref.mp4' type='video/mp4'></video>","3","right","66%","7","","","","","","","",""
"","379.6500000025844","sequential-stimulus-presentation","151","319741","0.0-31.0","SS1613138285464","pref_reveal","","40","800","1179.6500000025844","null","null","","","","","7","","","","deviant","","","",""
"","null","html-keyboard-response","152","320985","0.0-32.0-0.0","SS1613138285464","","","null","","","","","<p><img src= images/blank.png width =""200"" height = ""200"" style = ""float:right""></p><p><img src=images/blank.png width =""800"" height = ""200""></p>","","","","","","","","","","","",""
"","218.6000000074273","sequential-stimulus-presentation","153","322036","0.0-32.0-1.0","SS1613138285464","trial","","40","800","1018.6000000074273","images/stimuli/spore_stims/complex_06_B_d.gif","images/stimuli/spore_stims/complex_19_B_c.gif","","","","","8","complex_dissimilar","images/stimuli/spore_stims/complex_19_B_c.gif","right","","","","",""
"","null","html-keyboard-response","154","323147","0.0-32.0-0.1","SS1613138285464","","","null","","","","","<p><img src= images/blank.png width =""200"" height = ""200"" style = ""float:right""></p><p><img src=images/blank.png width =""800"" height = ""200""></p>","","","","","","","","","","","",""
"","0.6949999951757491","sequential-stimulus-presentation","155","323981","0.0-32.0-1.1","SS1613138285464","trial","","40","800","800.6949999951757","images/stimuli/spore_stims/complex_06_B_d.gif","images/stimuli/spore_stims/complex_19_B_c.gif","","","","","8","complex_dissimilar","images/stimuli/spore_stims/complex_19_B_c.gif","right","","","","",""
"","null","html-keyboard-response","156","324831","0.0-32.0-0.2","SS1613138285464","","","null","","","","","<p><img src= images/blank.png width =""200"" height = ""200"" style = ""float:right""></p><p><img src=images/blank.png width =""800"" height = ""200""></p>","","","","","","","","","","","",""
"","870.0249999965308","sequential-stimulus-presentation","157","326517","0.0-32.0-1.2","SS1613138285464","trial","","40","800","1670.0249999965308","images/stimuli/spore_stims/complex_06_B_d.gif","images/stimuli/spore_stims/complex_19_B_c.gif","","","","","8","complex_dissimilar","images/stimuli/spore_stims/complex_19_B_c.gif","right","","","","",""
"","null","html-keyboard-response","158","327789","0.0-32.0-0.3","SS1613138285464","","","null","","","","","<p><img src= images/blank.png width =""200"" height = ""200"" style = ""float:right""></p><p><img src=images/blank.png width =""800"" height = ""200""></p>","","","","","","","","","","","",""
"","610.675000003539","sequential-stimulus-presentation","159","329215","0.0-32.0-1.3","SS1613138285464","trial","","40","800","1410.675000003539","images/stimuli/spore_stims/complex_06_B_d.gif","images/stimuli/spore_stims/complex_19_B_c.gif","","","","","8","complex_dissimilar","images/stimuli/spore_stims/complex_19_B_c.gif","right","","","","",""
"","null","html-keyboard-response","160","330120","0.0-32.0-0.4","SS1613138285464","","","null","","","","","<p><img src= images/blank.png width =""200"" height = ""200"" style = ""float:right""></p><p><img src=images/blank.png width =""800"" height = ""200""></p>","","","","","","","","","","","",""
"","237.79500000819098","sequential-stimulus-presentation","161","331275","0.0-32.0-1.4","SS1613138285464","trial","","40","800","1037.795000008191","images/stimuli/spore_stims/complex_06_B_d.gif","images/stimuli/spore_stims/complex_19_B_c.gif","","","","","8","complex_dissimilar","images/stimuli/spore_stims/complex_06_B_d.gif","middle","","","","",""
"","null","html-keyboard-response","162","332422","0.0-32.0-0.5","SS1613138285464","","","null","","","","","<p><img src= images/blank.png width =""200"" height = ""200"" style = ""float:right""></p><p><img src=images/blank.png width =""800"" height = ""200""></p>","","","","","","","","","","","",""
"","536.8500000040513","sequential-stimulus-presentation","163","333775","0.0-32.0-1.5","SS1613138285464","trial","","40","800","1336.8500000040513","images/stimuli/spore_stims/complex_06_B_d.gif","images/stimuli/spore_stims/complex_19_B_c.gif","","","","","8","complex_dissimilar","images/stimuli/spore_stims/complex_19_B_c.gif","right","","","","",""
"","null","html-keyboard-response","164","335078","0.0-32.0-0.6","SS1613138285464","","","null","","","","","<p><img src= images/blank.png width =""200"" height = ""200"" style = ""float:right""></p><p><img src=images/blank.png width =""800"" height = ""200""></p>","","","","","","","","","","","",""
"","489.26999999093823","sequential-stimulus-presentation","165","336382","0.0-32.0-1.6","SS1613138285464","trial","","40","800","1289.2699999909382","images/stimuli/spore_stims/complex_06_B_d.gif","images/stimuli/spore_stims/complex_19_B_c.gif","","","","","8","complex_dissimilar","images/stimuli/spore_stims/complex_19_B_c.gif","right","","","","",""
"","null","html-keyboard-response","166","337261","0.0-32.0-0.7","SS1613138285464","","","null","","","","","<p><img src= images/blank.png width =""200"" height = ""200"" style = ""float:right""></p><p><img src=images/blank.png width =""800"" height = ""200""></p>","","","","","","","","","","","",""
"","551.7250000120839","sequential-stimulus-presentation","167","338636","0.0-32.0-1.7","SS1613138285464","trial","","40","800","1351.725000012084","images/stimuli/spore_stims/complex_06_B_d.gif","images/stimuli/spore_stims/complex_19_B_c.gif","","","","","8","complex_dissimilar","images/stimuli/spore_stims/complex_19_B_c.gif","right","","","","",""
"","1442.8500000067288","html-keyboard-response","168","340086","0.0-33.0","SS1613138285464","pref_question","","99","","","","","<video width ='960' height = '540' style='padding-top:8%' autoplay muted><source src='images/stimuli/wall_pref.mp4' type='video/mp4'></video>","3","right","66%","8","","","","","","","",""
"","396.50000000256114","sequential-stimulus-presentation","169","341318","0.0-34.0","SS1613138285464","pref_reveal","","40","800","1196.5000000025611","null","null","","","","","8","","","","background","","","",""
"","null","html-keyboard-response","170","342198","0.0-35.0-0.0","SS1613138285464","","","null","","","","","<p><img src= images/blank.png width =""200"" height = ""200"" style = ""float:right""></p><p><img src=images/blank.png width =""800"" height = ""200""></p>","","","","","","","","","","","",""
"","233.79500000737607","sequential-stimulus-presentation","171","343246","0.0-35.0-1.0","SS1613138285464","trial","","40","800","1033.795000007376","images/stimuli/spore_stims/simple_17_B_b.gif","images/stimuli/spore_stims/simple_09_B_b.gif","","","","","9","simple_dissimilar","images/stimuli/spore_stims/simple_09_B_b.gif","left","","","","",""
"","null","html-keyboard-response","172","344549","0.0-35.0-0.1","SS1613138285464","","","null","","","","","<p><img src= images/blank.png width =""200"" height = ""200"" style = ""float:right""></p><p><img src=images/blank.png width =""800"" height = ""200""></p>","","","","","","","","","","","",""
"","153.69999999529682","sequential-stimulus-presentation","173","345589","0.0-35.0-1.1","SS1613138285464","trial","","40","800","953.6999999952968","images/stimuli/spore_stims/simple_17_B_b.gif","images/stimuli/spore_stims/simple_09_B_b.gif","","","","","9","simple_dissimilar","images/stimuli/spore_stims/simple_09_B_b.gif","left","","","","",""
"","null","html-keyboard-response","174","346413","0.0-35.0-0.2","SS1613138285464","","","null","","","","","<p><img src= images/blank.png width =""200"" height = ""200"" style = ""float:right""></p><p><img src=images/blank.png width =""800"" height = ""200""></p>","","","","","","","","","","","",""
"","508.4400000050664","sequential-stimulus-presentation","175","347734","0.0-35.0-1.2","SS1613138285464","trial","","40","800","1308.4400000050664","images/stimuli/spore_stims/simple_17_B_b.gif","images/stimuli/spore_stims/simple_09_B_b.gif","","","","","9","simple_dissimilar","images/stimuli/spore_stims/simple_09_B_b.gif","left","","","","",""
"","null","html-keyboard-response","176","348741","0.0-35.0-0.3","SS1613138285464","","","null","","","","","<p><img src= images/blank.png width =""200"" height = ""200"" style = ""float:right""></p><p><img src=images/blank.png width =""800"" height = ""200""></p>","","","","","","","","","","","",""
"","232.58000001078472","sequential-stimulus-presentation","177","349790","0.0-35.0-1.3","SS1613138285464","trial","","40","800","1032.5800000107847","images/stimuli/spore_stims/simple_17_B_b.gif","images/stimuli/spore_stims/simple_09_B_b.gif","","","","","9","simple_dissimilar","images/stimuli/spore_stims/simple_09_B_b.gif","left","","","","",""
"","null","html-keyboard-response","178","350789","0.0-35.0-0.4","SS1613138285464","","","null","","","","","<p><img src= images/blank.png width =""200"" height = ""200"" style = ""float:right""></p><p><img src=images/blank.png width =""800"" height = ""200""></p>","","","","","","","","","","","",""
"","497.47499999648426","sequential-stimulus-presentation","179","352101","0.0-35.0-1.4","SS1613138285464","trial","","40","800","1297.4749999964843","images/stimuli/spore_stims/simple_17_B_b.gif","images/stimuli/spore_stims/simple_09_B_b.gif","","","","","9","simple_dissimilar","images/stimuli/spore_stims/simple_09_B_b.gif","left","","","","",""
"","null","html-keyboard-response","180","352993","0.0-35.0-0.5","SS1613138285464","","","null","","","","","<p><img src= images/blank.png width =""200"" height = ""200"" style = ""float:right""></p><p><img src=images/blank.png width =""800"" height = ""200""></p>","","","","","","","","","","","",""
"","816.2699999957113","sequential-stimulus-presentation","181","354638","0.0-35.0-1.5","SS1613138285464","trial","","40","800","1616.2699999957113","images/stimuli/spore_stims/simple_17_B_b.gif","images/stimuli/spore_stims/simple_09_B_b.gif","","","","","9","simple_dissimilar","images/stimuli/spore_stims/simple_09_B_b.gif","left","","","","",""
"","null","html-keyboard-response","182","355457","0.0-35.0-0.6","SS1613138285464","","","null","","","","","<p><img src= images/blank.png width =""200"" height = ""200"" style = ""float:right""></p><p><img src=images/blank.png width =""800"" height = ""200""></p>","","","","","","","","","","","",""
"","595.9149999980582","sequential-stimulus-presentation","183","356870","0.0-35.0-1.6","SS1613138285464","trial","","40","800","1395.9149999980582","images/stimuli/spore_stims/simple_17_B_b.gif","images/stimuli/spore_stims/simple_09_B_b.gif","","","","","9","simple_dissimilar","images/stimuli/spore_stims/simple_17_B_b.gif","right","","","","",""
"","null","html-keyboard-response","184","357982","0.0-35.0-0.7","SS1613138285464","","","null","","","","","<p><img src= images/blank.png width =""200"" height = ""200"" style = ""float:right""></p><p><img src=images/blank.png width =""800"" height = ""200""></p>","","","","","","","","","","","",""
"","935.5499999946915","sequential-stimulus-presentation","185","359735","0.0-35.0-1.7","SS1613138285464","trial","","40","800","1735.5499999946915","images/stimuli/spore_stims/simple_17_B_b.gif","images/stimuli/spore_stims/simple_09_B_b.gif","","","","","9","simple_dissimilar","images/stimuli/spore_stims/simple_09_B_b.gif","left","","","","",""
"","1367.3649999982445","html-keyboard-response","186","361109","0.0-36.0","SS1613138285464","pref_question","","99","","","","","<video width ='960' height = '540' style='padding-top:8%' autoplay muted><source src='images/stimuli/wall_pref.mp4' type='video/mp4'></video>","3","right","66%","9","","","","","","","",""
"","600.5449999938719","sequential-stimulus-presentation","187","362550","0.0-37.0","SS1613138285464","pref_reveal","","40","800","1400.544999993872","null","null","","","","","9","","","","deviant","","","",""
"","null","html-keyboard-response","188","363743","0.0-38.0-0.0","SS1613138285464","","","null","","","","","<p><img src= images/blank.png width =""200"" height = ""200"" style = ""float:right""></p><p><img src=images/blank.png width =""800"" height = ""200""></p>","","","","","","","","","","","",""
"","614.6549999975832","sequential-stimulus-presentation","189","365183","0.0-38.0-1.0","SS1613138285464","trial","","40","800","1414.6549999975832","images/stimuli/spore_stims/complex_08_B_b.gif","images/stimuli/spore_stims/complex_05_A_b.gif","","","","","10","complex_dissimilar","images/stimuli/spore_stims/complex_05_A_b.gif","left","","","","",""
"","null","html-keyboard-response","190","366082","0.0-38.0-0.1","SS1613138285464","","","null","","","","","<p><img src= images/blank.png width =""200"" height = ""200"" style = ""float:right""></p><p><img src=images/blank.png width =""800"" height = ""200""></p>","","","","","","","","","","","",""
"","526.6549999942072","sequential-stimulus-presentation","191","367438","0.0-38.0-1.1","SS1613138285464","trial","","40","800","1326.6549999942072","images/stimuli/spore_stims/complex_08_B_b.gif","images/stimuli/spore_stims/complex_05_A_b.gif","","","","","10","complex_dissimilar","images/stimuli/spore_stims/complex_05_A_b.gif","left","","","","",""
"","null","html-keyboard-response","192","368641","0.0-38.0-0.2","SS1613138285464","","","null","","","","","<p><img src= images/blank.png width =""200"" height = ""200"" style = ""float:right""></p><p><img src=images/blank.png width =""800"" height = ""200""></p>","","","","","","","","","","","",""
"","738.1400000012945","sequential-stimulus-presentation","193","370198","0.0-38.0-1.2","SS1613138285464","trial","","40","800","1538.1400000012945","images/stimuli/spore_stims/complex_08_B_b.gif","images/stimuli/spore_stims/complex_05_A_b.gif","","","","","10","complex_dissimilar","images/stimuli/spore_stims/complex_05_A_b.gif","left","","","","",""
"","null","html-keyboard-response","194","371418","0.0-38.0-0.3","SS1613138285464","","","null","","","","","<p><img src= images/blank.png width =""200"" height = ""200"" style = ""float:right""></p><p><img src=images/blank.png width =""800"" height = ""200""></p>","","","","","","","","","","","",""
"","537.4349999910919","sequential-stimulus-presentation","195","372775","0.0-38.0-1.3","SS1613138285464","trial","","40","800","1337.434999991092","images/stimuli/spore_stims/complex_08_B_b.gif","images/stimuli/spore_stims/complex_05_A_b.gif","","","","","10","complex_dissimilar","images/stimuli/spore_stims/complex_05_A_b.gif","left","","","","",""
"","null","html-keyboard-response","196","373683","0.0-38.0-0.4","SS1613138285464","","","null","","","","","<p><img src= images/blank.png width =""200"" height = ""200"" style = ""float:right""></p><p><img src=images/blank.png width =""800"" height = ""200""></p>","","","","","","","","","","","",""
"","601.2850000115577","sequential-stimulus-presentation","197","375207","0.0-38.0-1.4","SS1613138285464","trial","","40","800","1401.2850000115577","images/stimuli/spore_stims/complex_08_B_b.gif","images/stimuli/spore_stims/complex_05_A_b.gif","","","","","10","complex_dissimilar","images/stimuli/spore_stims/complex_05_A_b.gif","left","","","","",""
"","null","html-keyboard-response","198","376262","0.0-38.0-0.5","SS1613138285464","","","null","","","","","<p><img src= images/blank.png width =""200"" height = ""200"" style = ""float:right""></p><p><img src=images/blank.png width =""800"" height = ""200""></p>","","","","","","","","","","","",""
"","0.6649999995715916","sequential-stimulus-presentation","199","377082","0.0-38.0-1.5","SS1613138285464","trial","","40","800","800.6649999995716","images/stimuli/spore_stims/complex_08_B_b.gif","images/stimuli/spore_stims/complex_05_A_b.gif","","","","","10","complex_dissimilar","images/stimuli/spore_stims/complex_05_A_b.gif","left","","","","",""
"","null","html-keyboard-response","200","378095","0.0-38.0-0.6","SS1613138285464","","","null","","","","","<p><img src= images/blank.png width =""200"" height = ""200"" style = ""float:right""></p><p><img src=images/blank.png width =""800"" height = ""200""></p>","","","","","","","","","","","",""
"","70.99500000185799","sequential-stimulus-presentation","201","378998","0.0-38.0-1.6","SS1613138285464","trial","","40","800","870.995000001858","images/stimuli/spore_stims/complex_08_B_b.gif","images/stimuli/spore_stims/complex_05_A_b.gif","","","","","10","complex_dissimilar","images/stimuli/spore_stims/complex_08_B_b.gif","right","","","","",""
"","null","html-keyboard-response","202","379831","0.0-38.0-0.7","SS1613138285464","","","null","","","","","<p><img src= images/blank.png width =""200"" height = ""200"" style = ""float:right""></p><p><img src=images/blank.png width =""800"" height = ""200""></p>","","","","","","","","","","","",""
"","166.66999999142718","sequential-stimulus-presentation","203","380812","0.0-38.0-1.7","SS1613138285464","trial","","40","800","966.6699999914272","images/stimuli/spore_stims/complex_08_B_b.gif","images/stimuli/spore_stims/complex_05_A_b.gif","","","","","10","complex_dissimilar","images/stimuli/spore_stims/complex_05_A_b.gif","left","","","","",""
"","2516.700000007404","html-keyboard-response","204","383336","0.0-39.0","SS1613138285464","pref_question","","99","","","","","<video width ='960' height = '540' style='padding-top:8%' autoplay muted><source src='images/stimuli/wall_pref.mp4' type='video/mp4'></video>","3","right","66%","10","","","","","","","",""
"","355.53000000072643","sequential-stimulus-presentation","205","384510","0.0-40.0","SS1613138285464","pref_reveal","","40","800","1155.5300000007264","null","null","","","","","10","","","","deviant","","","",""
"","null","html-keyboard-response","206","385361","0.0-41.0-0.0","SS1613138285464","","","null","","","","","<p><img src= images/blank.png width =""200"" height = ""200"" style = ""float:right""></p><p><img src=images/blank.png width =""800"" height = ""200""></p>","","","","","","","","","","","",""
"","2147.5349999964237","sequential-stimulus-presentation","207","388352","0.0-41.0-1.0","SS1613138285464","trial","","40","800","2947.5349999964237","images/stimuli/spore_stims/complex_12_A_d.gif","images/stimuli/spore_stims/complex_12_B_d.gif","","","","","11","complex_similar","images/stimuli/spore_stims/complex_12_B_d.gif","right","","","","",""
"","null","html-keyboard-response","208","389338","0.0-41.0-0.1","SS1613138285464","","","null","","","","","<p><img src= images/blank.png width =""200"" height = ""200"" style = ""float:right""></p><p><img src=images/blank.png width =""800"" height = ""200""></p>","","","","","","","","","","","",""
"","560.0800000102026","sequential-stimulus-presentation","209","390713","0.0-41.0-1.1","SS1613138285464","trial","","40","800","1360.0800000102026","images/stimuli/spore_stims/complex_12_A_d.gif","images/stimuli/spore_stims/complex_12_B_d.gif","","","","","11","complex_similar","images/stimuli/spore_stims/complex_12_B_d.gif","right","","","","",""
"","null","html-keyboard-response","210","391652","0.0-41.0-0.2","SS1613138285464","","","null","","","","","<p><img src= images/blank.png width =""200"" height = ""200"" style = ""float:right""></p><p><img src=images/blank.png width =""800"" height = ""200""></p>","","","","","","","","","","","",""
"","209.5100000005914","sequential-stimulus-presentation","211","392688","0.0-41.0-1.2","SS1613138285464","trial","","40","800","1009.5100000005914","images/stimuli/spore_stims/complex_12_A_d.gif","images/stimuli/spore_stims/complex_12_B_d.gif","","","","","11","complex_similar","images/stimuli/spore_stims/complex_12_B_d.gif","right","","","","",""
"","null","html-keyboard-response","212","393993","0.0-41.0-0.3","SS1613138285464","","","null","","","","","<p><img src= images/blank.png width =""200"" height = ""200"" style = ""float:right""></p><p><img src=images/blank.png width =""800"" height = ""200""></p>","","","","","","","","","","","",""
"","575.0699999916833","sequential-stimulus-presentation","213","395384","0.0-41.0-1.3","SS1613138285464","trial","","40","800","1375.0699999916833","images/stimuli/spore_stims/complex_12_A_d.gif","images/stimuli/spore_stims/complex_12_B_d.gif","","","","","11","complex_similar","images/stimuli/spore_stims/complex_12_B_d.gif","right","","","","",""
"","null","html-keyboard-response","214","396203","0.0-41.0-0.4","SS1613138285464","","","null","","","","","<p><img src= images/blank.png width =""200"" height = ""200"" style = ""float:right""></p><p><img src=images/blank.png width =""800"" height = ""200""></p>","","","","","","","","","","","",""
"","506.7150000104448","sequential-stimulus-presentation","215","397528","0.0-41.0-1.4","SS1613138285464","trial","","40","800","1306.7150000104448","images/stimuli/spore_stims/complex_12_A_d.gif","images/stimuli/spore_stims/complex_12_B_d.gif","","","","","11","complex_similar","images/stimuli/spore_stims/complex_12_B_d.gif","right","","","","",""
"","null","html-keyboard-response","216","398679","0.0-41.0-0.5","SS1613138285464","","","null","","","","","<p><img src= images/blank.png width =""200"" height = ""200"" style = ""float:right""></p><p><img src=images/blank.png width =""800"" height = ""200""></p>","","","","","","","","","","","",""
"","496.2299999897368","sequential-stimulus-presentation","217","400000","0.0-41.0-1.5","SS1613138285464","trial","","40","800","1296.2299999897368","images/stimuli/spore_stims/complex_12_A_d.gif","images/stimuli/spore_stims/complex_12_B_d.gif","","","","","11","complex_similar","images/stimuli/spore_stims/complex_12_B_d.gif","right","","","","",""
"","null","html-keyboard-response","218","400917","0.0-41.0-0.6","SS1613138285464","","","null","","","","","<p><img src= images/blank.png width =""200"" height = ""200"" style = ""float:right""></p><p><img src=images/blank.png width =""800"" height = ""200""></p>","","","","","","","","","","","",""
"","152.4749999953201","sequential-stimulus-presentation","219","401895","0.0-41.0-1.6","SS1613138285464","trial","","40","800","952.4749999953201","images/stimuli/spore_stims/complex_12_A_d.gif","images/stimuli/spore_stims/complex_12_B_d.gif","","","","","11","complex_similar","images/stimuli/spore_stims/complex_12_B_d.gif","right","","","","",""
"","null","html-keyboard-response","220","403196","0.0-41.0-0.7","SS1613138285464","","","null","","","","","<p><img src= images/blank.png width =""200"" height = ""200"" style = ""float:right""></p><p><img src=images/blank.png width =""800"" height = ""200""></p>","","","","","","","","","","","",""
"","197.440000003553","sequential-stimulus-presentation","221","404210","0.0-41.0-1.7","SS1613138285464","trial","","40","800","997.440000003553","images/stimuli/spore_stims/complex_12_A_d.gif","images/stimuli/spore_stims/complex_12_B_d.gif","","","","","11","complex_similar","images/stimuli/spore_stims/complex_12_A_d.gif","middle","","","","",""
"","1330.6500000035157","html-keyboard-response","222","405568","0.0-42.0","SS1613138285464","pref_question","","99","","","","","<video width ='960' height = '540' style='padding-top:8%' autoplay muted><source src='images/stimuli/wall_pref.mp4' type='video/mp4'></video>","3","right","66%","11","","","","","","","",""
"","545.5150000052527","sequential-stimulus-presentation","223","406942","0.0-43.0","SS1613138285464","pref_reveal","","40","800","1345.5150000052527","null","null","","","","","11","","","","background","","","",""
"","null","html-keyboard-response","224","407890","0.0-44.0-0.0","SS1613138285464","","","null","","","","","<p><img src= images/blank.png width =""200"" height = ""200"" style = ""float:right""></p><p><img src=images/blank.png width =""800"" height = ""200""></p>","","","","","","","","","","","",""
"","511.06499999877997","sequential-stimulus-presentation","225","409240","0.0-44.0-1.0","SS1613138285464","trial","","40","800","1311.06499999878","images/stimuli/spore_stims/complex_15_A_c.gif","images/stimuli/spore_stims/complex_15_B_c.gif","","","","","12","complex_similar","images/stimuli/spore_stims/complex_15_B_c.gif","left","","","","",""
"","null","html-keyboard-response","226","410452","0.0-44.0-0.1","SS1613138285464","","","null","","","","","<p><img src= images/blank.png width =""200"" height = ""200"" style = ""float:right""></p><p><img src=images/blank.png width =""800"" height = ""200""></p>","","","","","","","","","","","",""
"","55.8900000032736","sequential-stimulus-presentation","227","411324","0.0-44.0-1.1","SS1613138285464","trial","","40","800","855.8900000032736","images/stimuli/spore_stims/complex_15_A_c.gif","images/stimuli/spore_stims/complex_15_B_c.gif","","","","","12","complex_similar","images/stimuli/spore_stims/complex_15_B_c.gif","left","","","","",""
"","null","html-keyboard-response","228","412174","0.0-44.0-0.2","SS1613138285464","","","null","","","","","<p><img src= images/blank.png width =""200"" height = ""200"" style = ""float:right""></p><p><img src=images/blank.png width =""800"" height = ""200""></p>","","","","","","","","","","","",""
"","448.0650000041351","sequential-stimulus-presentation","229","413440","0.0-44.0-1.2","SS1613138285464","trial","","40","800","1248.065000004135","images/stimuli/spore_stims/complex_15_A_c.gif","images/stimuli/spore_stims/complex_15_B_c.gif","","","","","12","complex_similar","images/stimuli/spore_stims/complex_15_B_c.gif","left","","","","",""
"","null","html-keyboard-response","230","414519","0.0-44.0-0.3","SS1613138285464","","","null","","","","","<p><img src= images/blank.png width =""200"" height = ""200"" style = ""float:right""></p><p><img src=images/blank.png width =""800"" height = ""200""></p>","","","","","","","","","","","",""
"","267.4799999949755","sequential-stimulus-presentation","231","415618","0.0-44.0-1.3","SS1613138285464","trial","","40","800","1067.4799999949755","images/stimuli/spore_stims/complex_15_A_c.gif","images/stimuli/spore_stims/complex_15_B_c.gif","","","","","12","complex_similar","images/stimuli/spore_stims/complex_15_B_c.gif","left","","","","",""
"","null","html-keyboard-response","232","416439","0.0-44.0-0.4","SS1613138285464","","","null","","","","","<p><img src= images/blank.png width =""200"" height = ""200"" style = ""float:right""></p><p><img src=images/blank.png width =""800"" height = ""200""></p>","","","","","","","","","","","",""
"","165.03000000375323","sequential-stimulus-presentation","233","417419","0.0-44.0-1.4","SS1613138285464","trial","","40","800","965.0300000037532","images/stimuli/spore_stims/complex_15_A_c.gif","images/stimuli/spore_stims/complex_15_B_c.gif","","","","","12","complex_similar","images/stimuli/spore_stims/complex_15_B_c.gif","left","","","","",""
"","null","html-keyboard-response","234","418649","0.0-44.0-0.5","SS1613138285464","","","null","","","","","<p><img src= images/blank.png width =""200"" height = ""200"" style = ""float:right""></p><p><img src=images/blank.png width =""800"" height = ""200""></p>","","","","","","","","","","","",""
"","378.12000000849366","sequential-stimulus-presentation","235","419920","0.0-44.0-1.5","SS1613138285464","trial","","40","800","1178.1200000084937","images/stimuli/spore_stims/complex_15_A_c.gif","images/stimuli/spore_stims/complex_15_B_c.gif","","","","","12","complex_similar","images/stimuli/spore_stims/complex_15_B_c.gif","left","","","","",""
"","null","html-keyboard-response","236","420808","0.0-44.0-0.6","SS1613138285464","","","null","","","","","<p><img src= images/blank.png width =""200"" height = ""200"" style = ""float:right""></p><p><img src=images/blank.png width =""800"" height = ""200""></p>","","","","","","","","","","","",""
"","263.4749999997439","sequential-stimulus-presentation","237","421888","0.0-44.0-1.6","SS1613138285464","trial","","40","800","1063.4749999997439","images/stimuli/spore_stims/complex_15_A_c.gif","images/stimuli/spore_stims/complex_15_B_c.gif","","","","","12","complex_similar","images/stimuli/spore_stims/complex_15_A_c.gif","middle","","","","",""
"","null","html-keyboard-response","238","422704","0.0-44.0-0.7","SS1613138285464","","","null","","","","","<p><img src= images/blank.png width =""200"" height = ""200"" style = ""float:right""></p><p><img src=images/blank.png width =""800"" height = ""200""></p>","","","","","","","","","","","",""
"","127.94500000018161","sequential-stimulus-presentation","239","423646","0.0-44.0-1.7","SS1613138285464","trial","","40","800","927.9450000001816","images/stimuli/spore_stims/complex_15_A_c.gif","images/stimuli/spore_stims/complex_15_B_c.gif","","","","","12","complex_similar","images/stimuli/spore_stims/complex_15_B_c.gif","left","","","","",""
"","1282.950000007986","html-keyboard-response","240","424936","0.0-45.0","SS1613138285464","pref_question","","99","","","","","<video width ='960' height = '540' style='padding-top:8%' autoplay muted><source src='images/stimuli/wall_pref.mp4' type='video/mp4'></video>","3","right","66%","12","","","","","","","",""
"","504.98500000685453","sequential-stimulus-presentation","241","426255","0.0-46.0","SS1613138285464","pref_reveal","","40","800","1304.9850000068545","null","null","","","","","12","","","","novel","","","",""
"","null","html-keyboard-response","242","427219","0.0-47.0-0.0","SS1613138285464","","","null","","","","","<p><img src= images/blank.png width =""200"" height = ""200"" style = ""float:right""></p><p><img src=images/blank.png width =""800"" height = ""200""></p>","","","","","","","","","","","",""
"","119.909999993979","sequential-stimulus-presentation","243","428216","0.0-47.0-1.0","SS1613138285464","trial","","40","800","919.909999993979","images/stimuli/spore_stims/simple_19_B_b.gif","images/stimuli/spore_stims/simple_19_A_b.gif","","","","","13","simple_similar","images/stimuli/spore_stims/simple_19_A_b.gif","left","","","","",""
"","null","html-keyboard-response","244","429068","0.0-47.0-0.1","SS1613138285464","","","null","","","","","<p><img src= images/blank.png width =""200"" height = ""200"" style = ""float:right""></p><p><img src=images/blank.png width =""800"" height = ""200""></p>","","","","","","","","","","","",""
"","212.67000000807457","sequential-stimulus-presentation","245","430192","0.0-47.0-1.1","SS1613138285464","trial","","40","800","1012.6700000080746","images/stimuli/spore_stims/simple_19_B_b.gif","images/stimuli/spore_stims/simple_19_A_b.gif","","","","","13","simple_similar","images/stimuli/spore_stims/simple_19_A_b.gif","left","","","","",""
"","null","html-keyboard-response","246","431179","0.0-47.0-0.2","SS1613138285464","","","null","","","","","<p><img src= images/blank.png width =""200"" height = ""200"" style = ""float:right""></p><p><img src=images/blank.png width =""800"" height = ""200""></p>","","","","","","","","","","","",""
"","201.61000000371132","sequential-stimulus-presentation","247","432195","0.0-47.0-1.2","SS1613138285464","trial","","40","800","1001.6100000037113","images/stimuli/spore_stims/simple_19_B_b.gif","images/stimuli/spore_stims/simple_19_A_b.gif","","","","","13","simple_similar","images/stimuli/spore_stims/simple_19_A_b.gif","left","","","","",""
"","null","html-keyboard-response","248","433120","0.0-47.0-0.3","SS1613138285464","","","null","","","","","<p><img src= images/blank.png width =""200"" height = ""200"" style = ""float:right""></p><p><img src=images/blank.png width =""800"" height = ""200""></p>","","","","","","","","","","","",""
"","71.82000001193956","sequential-stimulus-presentation","249","434006","0.0-47.0-1.3","SS1613138285464","trial","","40","800","871.8200000119396","images/stimuli/spore_stims/simple_19_B_b.gif","images/stimuli/spore_stims/simple_19_A_b.gif","","","","","13","simple_similar","images/stimuli/spore_stims/simple_19_A_b.gif","left","","","","",""
"","null","html-keyboard-response","250","435144","0.0-47.0-0.4","SS1613138285464","","","null","","","","","<p><img src= images/blank.png width =""200"" height = ""200"" style = ""float:right""></p><p><img src=images/blank.png width =""800"" height = ""200""></p>","","","","","","","","","","","",""
"","168.7800000072457","sequential-stimulus-presentation","251","436136","0.0-47.0-1.4","SS1613138285464","trial","","40","800","968.7800000072457","images/stimuli/spore_stims/simple_19_B_b.gif","images/stimuli/spore_stims/simple_19_A_b.gif","","","","","13","simple_similar","images/stimuli/spore_stims/simple_19_B_b.gif","middle","","","","",""
"","null","html-keyboard-response","252","437133","0.0-47.0-0.5","SS1613138285464","","","null","","","","","<p><img src= images/blank.png width =""200"" height = ""200"" style = ""float:right""></p><p><img src=images/blank.png width =""800"" height = ""200""></p>","","","","","","","","","","","",""
"","75.27999999001622","sequential-stimulus-presentation","253","438088","0.0-47.0-1.5","SS1613138285464","trial","","40","800","875.2799999900162","images/stimuli/spore_stims/simple_19_B_b.gif","images/stimuli/spore_stims/simple_19_A_b.gif","","","","","13","simple_similar","images/stimuli/spore_stims/simple_19_A_b.gif","left","","","","",""
"","null","html-keyboard-response","254","439055","0.0-47.0-0.6","SS1613138285464","","","null","","","","","<p><img src= images/blank.png width =""200"" height = ""200"" style = ""float:right""></p><p><img src=images/blank.png width =""800"" height = ""200""></p>","","","","","","","","","","","",""
"","46.690000002854504","sequential-stimulus-presentation","255","439937","0.0-47.0-1.6","SS1613138285464","trial","","40","800","846.6900000028545","images/stimuli/spore_stims/simple_19_B_b.gif","images/stimuli/spore_stims/simple_19_A_b.gif","","","","","13","simple_similar","images/stimuli/spore_stims/simple_19_A_b.gif","left","","","","",""
"","null","html-keyboard-response","256","441056","0.0-47.0-0.7","SS1613138285464","","","null","","","","","<p><img src= images/blank.png width =""200"" height = ""200"" style = ""float:right""></p><p><img src=images/blank.png width =""800"" height = ""200""></p>","","","","","","","","","","","",""
"","100.6199999974342","sequential-stimulus-presentation","257","441979","0.0-47.0-1.7","SS1613138285464","trial","","40","800","900.6199999974342","images/stimuli/spore_stims/simple_19_B_b.gif","images/stimuli/spore_stims/simple_19_A_b.gif","","","","","13","simple_similar","images/stimuli/spore_stims/simple_19_A_b.gif","left","","","","",""
"","1214.7100000001956","html-keyboard-response","258","443202","0.0-48.0","SS1613138285464","pref_question","","99","","","","","<video width ='960' height = '540' style='padding-top:8%' autoplay muted><source src='images/stimuli/wall_pref.mp4' type='video/mp4'></video>","3","right","66%","13","","","","","","","",""
"","333.7549999996554","sequential-stimulus-presentation","259","444372","0.0-49.0","SS1613138285464","pref_reveal","","40","800","1133.7549999996554","null","null","","","","","13","","","","novel","","","",""
"","null","html-keyboard-response","260","445250","0.0-50.0-0.0","SS1613138285464","","","null","","","","","<p><img src= images/blank.png width =""200"" height = ""200"" style = ""float:right""></p><p><img src=images/blank.png width =""800"" height = ""200""></p>","","","","","","","","","","","",""
"","0.5999999993946403","sequential-stimulus-presentation","261","446071","0.0-50.0-1.0","SS1613138285464","trial","","40","800","800.5999999993946","images/stimuli/spore_stims/complex_02_A_b.gif","images/stimuli/spore_stims/complex_02_B_b.gif","","","","","14","complex_similar","images/stimuli/spore_stims/complex_02_B_b.gif","right","","","","",""
"","null","html-keyboard-response","262","446955","0.0-50.0-0.1","SS1613138285464","","","null","","","","","<p><img src= images/blank.png width =""200"" height = ""200"" style = ""float:right""></p><p><img src=images/blank.png width =""800"" height = ""200""></p>","","","","","","","","","","","",""
"","550.4649999929825","sequential-stimulus-presentation","263","448322","0.0-50.0-1.1","SS1613138285464","trial","","40","800","1350.4649999929825","images/stimuli/spore_stims/complex_02_A_b.gif","images/stimuli/spore_stims/complex_02_B_b.gif","","","","","14","complex_similar","images/stimuli/spore_stims/complex_02_B_b.gif","right","","","","",""
"","null","html-keyboard-response","264","449257","0.0-50.0-0.2","SS1613138285464","","","null","","","","","<p><img src= images/blank.png width =""200"" height = ""200"" style = ""float:right""></p><p><img src=images/blank.png width =""800"" height = ""200""></p>","","","","","","","","","","","",""
"","500.0700000091456","sequential-stimulus-presentation","265","450576","0.0-50.0-1.2","SS1613138285464","trial","","40","800","1300.0700000091456","images/stimuli/spore_stims/complex_02_A_b.gif","images/stimuli/spore_stims/complex_02_B_b.gif","","","","","14","complex_similar","images/stimuli/spore_stims/complex_02_B_b.gif","right","","","","",""
"","null","html-keyboard-response","266","451649","0.0-50.0-0.3","SS1613138285464","","","null","","","","","<p><img src= images/blank.png width =""200"" height = ""200"" style = ""float:right""></p><p><img src=images/blank.png width =""800"" height = ""200""></p>","","","","","","","","","","","",""
"","352.1249999903375","sequential-stimulus-presentation","267","452842","0.0-50.0-1.3","SS1613138285464","trial","","40","800","1152.1249999903375","images/stimuli/spore_stims/complex_02_A_b.gif","images/stimuli/spore_stims/complex_02_B_b.gif","","","","","14","complex_similar","images/stimuli/spore_stims/complex_02_A_b.gif","middle","","","","",""
"","null","html-keyboard-response","268","453650","0.0-50.0-0.4","SS1613138285464","","","null","","","","","<p><img src= images/blank.png width =""200"" height = ""200"" style = ""float:right""></p><p><img src=images/blank.png width =""800"" height = ""200""></p>","","","","","","","","","","","",""
"","512.4199999991106","sequential-stimulus-presentation","269","454976","0.0-50.0-1.4","SS1613138285464","trial","","40","800","1312.4199999991106","images/stimuli/spore_stims/complex_02_A_b.gif","images/stimuli/spore_stims/complex_02_B_b.gif","","","","","14","complex_similar","images/stimuli/spore_stims/complex_02_B_b.gif","right","","","","",""
"","null","html-keyboard-response","270","456008","0.0-50.0-0.5","SS1613138285464","","","null","","","","","<p><img src= images/blank.png width =""200"" height = ""200"" style = ""float:right""></p><p><img src=images/blank.png width =""800"" height = ""200""></p>","","","","","","","","","","","",""
"","259.0300000010757","sequential-stimulus-presentation","271","457089","0.0-50.0-1.5","SS1613138285464","trial","","40","800","1059.0300000010757","images/stimuli/spore_stims/complex_02_A_b.gif","images/stimuli/spore_stims/complex_02_B_b.gif","","","","","14","complex_similar","images/stimuli/spore_stims/complex_02_B_b.gif","right","","","","",""
"","null","html-keyboard-response","272","458074","0.0-50.0-0.6","SS1613138285464","","","null","","","","","<p><img src= images/blank.png width =""200"" height = ""200"" style = ""float:right""></p><p><img src=images/blank.png width =""800"" height = ""200""></p>","","","","","","","","","","","",""
"","175.69499999808613","sequential-stimulus-presentation","273","459076","0.0-50.0-1.6","SS1613138285464","trial","","40","800","975.6949999980861","images/stimuli/spore_stims/complex_02_A_b.gif","images/stimuli/spore_stims/complex_02_B_b.gif","","","","","14","complex_similar","images/stimuli/spore_stims/complex_02_B_b.gif","right","","","","",""
"","null","html-keyboard-response","274","460084","0.0-50.0-0.7","SS1613138285464","","","null","","","","","<p><img src= images/blank.png width =""200"" height = ""200"" style = ""float:right""></p><p><img src=images/blank.png width =""800"" height = ""200""></p>","","","","","","","","","","","",""
"","28.85499999683816","sequential-stimulus-presentation","275","460955","0.0-50.0-1.7","SS1613138285464","trial","","40","800","828.8549999968382","images/stimuli/spore_stims/complex_02_A_b.gif","images/stimuli/spore_stims/complex_02_B_b.gif","","","","","14","complex_similar","images/stimuli/spore_stims/complex_02_B_b.gif","right","","","","",""
"","1429.7550000046613","html-keyboard-response","276","462393","0.0-51.0","SS1613138285464","pref_question","","99","","","","","<video width ='960' height = '540' style='padding-top:8%' autoplay muted><source src='images/stimuli/wall_pref.mp4' type='video/mp4'></video>","3","right","66%","14","","","","","","","",""
"","588.5200000047917","sequential-stimulus-presentation","277","463808","0.0-52.0","SS1613138285464","pref_reveal","","40","800","1388.5200000047917","null","null","","","","","14","","","","background","","","",""
"","null","html-keyboard-response","278","464674","0.0-53.0-0.0","SS1613138285464","","","null","","","","","<p><img src= images/blank.png width =""200"" height = ""200"" style = ""float:right""></p><p><img src=images/blank.png width =""800"" height = ""200""></p>","","","","","","","","","","","",""
"","311.0599999927217","sequential-stimulus-presentation","279","465801","0.0-53.0-1.0","SS1613138285464","trial","","40","800","1111.0599999927217","images/stimuli/spore_stims/simple_01_B_c.gif","images/stimuli/spore_stims/simple_07_B_c.gif","","","","","15","simple_dissimilar","images/stimuli/spore_stims/simple_07_B_c.gif","middle","","","","",""
"","null","html-keyboard-response","280","467030","0.0-53.0-0.1","SS1613138285464","","","null","","","","","<p><img src= images/blank.png width =""200"" height = ""200"" style = ""float:right""></p><p><img src=images/blank.png width =""800"" height = ""200""></p>","","","","","","","","","","","",""
"","732.2799999965355","sequential-stimulus-presentation","281","468577","0.0-53.0-1.1","SS1613138285464","trial","","40","800","1532.2799999965355","images/stimuli/spore_stims/simple_01_B_c.gif","images/stimuli/spore_stims/simple_07_B_c.gif","","","","","15","simple_dissimilar","images/stimuli/spore_stims/simple_07_B_c.gif","middle","","","","",""
"","null","html-keyboard-response","282","469601","0.0-53.0-0.2","SS1613138285464","","","null","","","","","<p><img src= images/blank.png width =""200"" height = ""200"" style = ""float:right""></p><p><img src=images/blank.png width =""800"" height = ""200""></p>","","","","","","","","","","","",""
"","684.7500000003492","sequential-stimulus-presentation","283","471103","0.0-53.0-1.2","SS1613138285464","trial","","40","800","1484.7500000003492","images/stimuli/spore_stims/simple_01_B_c.gif","images/stimuli/spore_stims/simple_07_B_c.gif","","","","","15","simple_dissimilar","images/stimuli/spore_stims/simple_07_B_c.gif","middle","","","","",""
"","null","html-keyboard-response","284","472125","0.0-53.0-0.3","SS1613138285464","","","null","","","","","<p><img src= images/blank.png width =""200"" height = ""200"" style = ""float:right""></p><p><img src=images/blank.png width =""800"" height = ""200""></p>","","","","","","","","","","","",""
"","598.0750000016997","sequential-stimulus-presentation","285","473537","0.0-53.0-1.3","SS1613138285464","trial","","40","800","1398.0750000016997","images/stimuli/spore_stims/simple_01_B_c.gif","images/stimuli/spore_stims/simple_07_B_c.gif","","","","","15","simple_dissimilar","images/stimuli/spore_stims/simple_07_B_c.gif","middle","","","","",""
"","null","html-keyboard-response","286","474713","0.0-53.0-0.4","SS1613138285464","","","null","","","","","<p><img src= images/blank.png width =""200"" height = ""200"" style = ""float:right""></p><p><img src=images/blank.png width =""800"" height = ""200""></p>","","","","","","","","","","","",""
"","777.9449999943608","sequential-stimulus-presentation","287","476326","0.0-53.0-1.4","SS1613138285464","trial","","40","800","1577.9449999943608","images/stimuli/spore_stims/simple_01_B_c.gif","images/stimuli/spore_stims/simple_07_B_c.gif","","","","","15","simple_dissimilar","images/stimuli/spore_stims/simple_01_B_c.gif","left","","","","",""
"","null","html-keyboard-response","288","477256","0.0-53.0-0.5","SS1613138285464","","","null","","","","","<p><img src= images/blank.png width =""200"" height = ""200"" style = ""float:right""></p><p><img src=images/blank.png width =""800"" height = ""200""></p>","","","","","","","","","","","",""
"","264.44999998784624","sequential-stimulus-presentation","289","478356","0.0-53.0-1.5","SS1613138285464","trial","","40","800","1064.4499999878462","images/stimuli/spore_stims/simple_01_B_c.gif","images/stimuli/spore_stims/simple_07_B_c.gif","","","","","15","simple_dissimilar","images/stimuli/spore_stims/simple_07_B_c.gif","middle","","","","",""
"","null","html-keyboard-response","290","479212","0.0-53.0-0.6","SS1613138285464","","","null","","","","","<p><img src= images/blank.png width =""200"" height = ""200"" style = ""float:right""></p><p><img src=images/blank.png width =""800"" height = ""200""></p>","","","","","","","","","","","",""
"","482.6299999986077","sequential-stimulus-presentation","291","480521","0.0-53.0-1.6","SS1613138285464","trial","","40","800","1282.6299999986077","images/stimuli/spore_stims/simple_01_B_c.gif","images/stimuli/spore_stims/simple_07_B_c.gif","","","","","15","simple_dissimilar","images/stimuli/spore_stims/simple_07_B_c.gif","middle","","","","",""
"","null","html-keyboard-response","292","481364","0.0-53.0-0.7","SS1613138285464","","","null","","","","","<p><img src= images/blank.png width =""200"" height = ""200"" style = ""float:right""></p><p><img src=images/blank.png width =""800"" height = ""200""></p>","","","","","","","","","","","",""
"","116.12999999488238","sequential-stimulus-presentation","293","482316","0.0-53.0-1.7","SS1613138285464","trial","","40","800","916.1299999948824","images/stimuli/spore_stims/simple_01_B_c.gif","images/stimuli/spore_stims/simple_07_B_c.gif","","","","","15","simple_dissimilar","images/stimuli/spore_stims/simple_07_B_c.gif","middle","","","","",""
"","1201.5550000069197","html-keyboard-response","294","483529","0.0-54.0","SS1613138285464","pref_question","","99","","","","","<video width ='960' height = '540' style='padding-top:8%' autoplay muted><source src='images/stimuli/wall_pref.mp4' type='video/mp4'></video>","3","right","66%","15","","","","","","","",""
"","449.72999999299645","sequential-stimulus-presentation","295","484801","0.0-55.0","SS1613138285464","pref_reveal","","40","800","1249.7299999929965","null","null","","","","","15","","","","novel","","","",""
"","null","html-keyboard-response","296","485901","0.0-56.0-0.0","SS1613138285464","","","null","","","","","<p><img src= images/blank.png width =""200"" height = ""200"" style = ""float:right""></p><p><img src=images/blank.png width =""800"" height = ""200""></p>","","","","","","","","","","","",""
"","394.3300000100862","sequential-stimulus-presentation","297","487133","0.0-56.0-1.0","SS1613138285464","trial","","40","800","1194.3300000100862","images/stimuli/spore_stims/simple_14_B_a.gif","images/stimuli/spore_stims/simple_14_A_a.gif","","","","","16","simple_similar","images/stimuli/spore_stims/simple_14_A_a.gif","right","","","","",""
"","null","html-keyboard-response","298","488359","0.0-56.0-0.1","SS1613138285464","","","null","","","","","<p><img src= images/blank.png width =""200"" height = ""200"" style = ""float:right""></p><p><img src=images/blank.png width =""800"" height = ""200""></p>","","","","","","","","","","","",""
"","531.4650000073016","sequential-stimulus-presentation","299","489729","0.0-56.0-1.1","SS1613138285464","trial","","40","800","1331.4650000073016","images/stimuli/spore_stims/simple_14_B_a.gif","images/stimuli/spore_stims/simple_14_A_a.gif","","","","","16","simple_similar","images/stimuli/spore_stims/simple_14_A_a.gif","right","","","","",""
"","null","html-keyboard-response","300","490897","0.0-56.0-0.2","SS1613138285464","","","null","","","","","<p><img src= images/blank.png width =""200"" height = ""200"" style = ""float:right""></p><p><img src=images/blank.png width =""800"" height = ""200""></p>","","","","","","","","","","","",""
"","225.98000000289176","sequential-stimulus-presentation","301","491956","0.0-56.0-1.2","SS1613138285464","trial","","40","800","1025.9800000028918","images/stimuli/spore_stims/simple_14_B_a.gif","images/stimuli/spore_stims/simple_14_A_a.gif","","","","","16","simple_similar","images/stimuli/spore_stims/simple_14_A_a.gif","right","","","","",""
"","null","html-keyboard-response","302","493152","0.0-56.0-0.3","SS1613138285464","","","null","","","","","<p><img src= images/blank.png width =""200"" height = ""200"" style = ""float:right""></p><p><img src=images/blank.png width =""800"" height = ""200""></p>","","","","","","","","","","","",""
"","147.9200000030687","sequential-stimulus-presentation","303","494129","0.0-56.0-1.3","SS1613138285464","trial","","40","800","947.9200000030687","images/stimuli/spore_stims/simple_14_B_a.gif","images/stimuli/spore_stims/simple_14_A_a.gif","","","","","16","simple_similar","images/stimuli/spore_stims/simple_14_B_a.gif","middle","","","","",""
"","null","html-keyboard-response","304","495128","0.0-56.0-0.4","SS1613138285464","","","null","","","","","<p><img src= images/blank.png width =""200"" height = ""200"" style = ""float:right""></p><p><img src=images/blank.png width =""800"" height = ""200""></p>","","","","","","","","","","","",""
"","44.75000000093132","sequential-stimulus-presentation","305","496089","0.0-56.0-1.4","SS1613138285464","trial","","40","800","844.7500000009313","images/stimuli/spore_stims/simple_14_B_a.gif","images/stimuli/spore_stims/simple_14_A_a.gif","","","","","16","simple_similar","images/stimuli/spore_stims/simple_14_A_a.gif","right","","","","",""
"","null","html-keyboard-response","306","497058","0.0-56.0-0.5","SS1613138285464","","","null","","","","","<p><img src= images/blank.png width =""200"" height = ""200"" style = ""float:right""></p><p><img src=images/blank.png width =""800"" height = ""200""></p>","","","","","","","","","","","",""
"","38.69999999005813","sequential-stimulus-presentation","307","497939","0.0-56.0-1.5","SS1613138285464","trial","","40","800","838.6999999900581","images/stimuli/spore_stims/simple_14_B_a.gif","images/stimuli/spore_stims/simple_14_A_a.gif","","","","","16","simple_similar","images/stimuli/spore_stims/simple_14_A_a.gif","right","","","","",""
"","null","html-keyboard-response","308","498868","0.0-56.0-0.6","SS1613138285464","","","null","","","","","<p><img src= images/blank.png width =""200"" height = ""200"" style = ""float:right""></p><p><img src=images/blank.png width =""800"" height = ""200""></p>","","","","","","","","","","","",""
"","64.68500000482891","sequential-stimulus-presentation","309","499765","0.0-56.0-1.6","SS1613138285464","trial","","40","800","864.6850000048289","images/stimuli/spore_stims/simple_14_B_a.gif","images/stimuli/spore_stims/simple_14_A_a.gif","","","","","16","simple_similar","images/stimuli/spore_stims/simple_14_A_a.gif","right","","","","",""
"","null","html-keyboard-response","310","500888","0.0-56.0-0.7","SS1613138285464","","","null","","","","","<p><img src= images/blank.png width =""200"" height = ""200"" style = ""float:right""></p><p><img src=images/blank.png width =""800"" height = ""200""></p>","","","","","","","","","","","",""
"","827.8699999937089","sequential-stimulus-presentation","311","502537","0.0-56.0-1.7","SS1613138285464","trial","","40","800","1627.869999993709","images/stimuli/spore_stims/simple_14_B_a.gif","images/stimuli/spore_stims/simple_14_A_a.gif","","","","","16","simple_similar","images/stimuli/spore_stims/simple_14_A_a.gif","right","","","","",""
"","1772.5650000065798","html-keyboard-response","312","504322","0.0-57.0","SS1613138285464","pref_question","","99","","","","","<video width ='960' height = '540' style='padding-top:8%' autoplay muted><source src='images/stimuli/wall_pref.mp4' type='video/mp4'></video>","3","right","66%","16","","","","","","","",""
