"view_history","rt","trial_type","trial_index","time_elapsed","internal_node_id","subject","stimulus_type","trial_stimulus","key_press","minimum_viewing_duration","trial_looking_time","block_deviant","block_background","stimulus","wall_pref","location","location_percent","block_number","block_type","stimulus_displayed","position_displayed","stim_type_selected","responses","question_order","stimulus_left","stimulus_right"
"[{""page_index"":0,""viewing_time"":11126.229999994393}]","11129.329999996116","instructions","0","11137","0.0-0.0","SS1613098632991","","","","","","","","","","","","","","","","","","","",""
"[{""page_index"":0,""viewing_time"":11395.465000008699},{""page_index"":1,""viewing_time"":8212.035000004107}]","19608.65500001819","instructions","1","32771","0.0-1.0","SS1613098632991","instructions","","","","","","","","","","","","","","","","","","",""
"","38806.394999992335","sequential-stimulus-presentation","2","72398","0.0-2.0","SS1613098632991","","","40","800","39606.394999992335","null","null","","","","","","","","","","","","",""
"","9781.740000005811","sequential-stimulus-presentation","3","82993","0.0-3.0","SS1613098632991","","","40","800","10581.740000005811","null","null","","","","","","","","","","","","",""
"[{""page_index"":0,""viewing_time"":5426.355000003241}]","5426.570000010543","instructions","4","88424","0.0-4.0","SS1613098632991","instructions","","","","","","","","","","","","","","","","","","",""
"","13962.509999983013","html-keyboard-response","5","102395","0.0-5.0","SS1613098632991","instructions","","51","","","","","<video width ='960' height = '540' autoplay muted><source src='images/stimuli/wall_pref.mp4' type='video/mp4'></video>","3","right","66%","","","","","","","","",""
"","4979.824999987613","sequential-stimulus-presentation","6","108254","0.0-6.0","SS1613098632991","pref_reveal","","40","800","5779.824999987613","null","null","","","","","","","","","","","","",""
"[{""page_index"":0,""viewing_time"":15606.965000013588},{""page_index"":1,""viewing_time"":6207.414999982575},{""page_index"":2,""viewing_time"":2149.9750000075437},{""page_index"":3,""viewing_time"":2571.540000004461}]","26536.38000000501","instructions","7","134801","0.0-7.0","SS1613098632991","instructions","","","","","","","","","","","","","","","","","","",""
"","null","html-keyboard-response","8","135885","0.0-8.0-0.0","SS1613098632991","","","null","","","","","<p><img src= images/blank.png width =""200"" height = ""200"" style = ""float:right""></p><p><img src=images/blank.png width =""800"" height = ""200""></p>","","","","","","","","","","","",""
"","3853.7650000071153","sequential-stimulus-presentation","9","140561","0.0-8.0-1.0","SS1613098632991","trial","","40","800","4653.765000007115","images/stimuli/spore_stims/complex_06_B_d.gif","images/stimuli/spore_stims/complex_18_B_a.gif","","","","","0","complex_dissimilar","images/stimuli/spore_stims/complex_18_B_a.gif","right","","","","",""
"","null","html-keyboard-response","10","141428","0.0-8.0-0.1","SS1613098632991","","","null","","","","","<p><img src= images/blank.png width =""200"" height = ""200"" style = ""float:right""></p><p><img src=images/blank.png width =""800"" height = ""200""></p>","","","","","","","","","","","",""
"","4200.1600000076","sequential-stimulus-presentation","11","146441","0.0-8.0-1.1","SS1613098632991","trial","","40","800","5000.1600000076","images/stimuli/spore_stims/complex_06_B_d.gif","images/stimuli/spore_stims/complex_18_B_a.gif","","","","","0","complex_dissimilar","images/stimuli/spore_stims/complex_18_B_a.gif","right","","","","",""
"","null","html-keyboard-response","12","147469","0.0-8.0-0.2","SS1613098632991","","","null","","","","","<p><img src= images/blank.png width =""200"" height = ""200"" style = ""float:right""></p><p><img src=images/blank.png width =""800"" height = ""200""></p>","","","","","","","","","","","",""
"","2160.395000013523","sequential-stimulus-presentation","13","150452","0.0-8.0-1.2","SS1613098632991","trial","","40","800","2960.395000013523","images/stimuli/spore_stims/complex_06_B_d.gif","images/stimuli/spore_stims/complex_18_B_a.gif","","","","","0","complex_dissimilar","images/stimuli/spore_stims/complex_18_B_a.gif","right","","","","",""
"","null","html-keyboard-response","14","151474","0.0-8.0-0.3","SS1613098632991","","","null","","","","","<p><img src= images/blank.png width =""200"" height = ""200"" style = ""float:right""></p><p><img src=images/blank.png width =""800"" height = ""200""></p>","","","","","","","","","","","",""
"","4708.314999996219","sequential-stimulus-presentation","15","157002","0.0-8.0-1.3","SS1613098632991","trial","","40","800","5508.314999996219","images/stimuli/spore_stims/complex_06_B_d.gif","images/stimuli/spore_stims/complex_18_B_a.gif","","","","","0","complex_dissimilar","images/stimuli/spore_stims/complex_18_B_a.gif","right","","","","",""
"","null","html-keyboard-response","16","157903","0.0-8.0-0.4","SS1613098632991","","","null","","","","","<p><img src= images/blank.png width =""200"" height = ""200"" style = ""float:right""></p><p><img src=images/blank.png width =""800"" height = ""200""></p>","","","","","","","","","","","",""
"","4880.150000011781","sequential-stimulus-presentation","17","163612","0.0-8.0-1.4","SS1613098632991","trial","","40","800","5680.150000011781","images/stimuli/spore_stims/complex_06_B_d.gif","images/stimuli/spore_stims/complex_18_B_a.gif","","","","","0","complex_dissimilar","images/stimuli/spore_stims/complex_06_B_d.gif","left","","","","",""
"","null","html-keyboard-response","18","164529","0.0-8.0-0.5","SS1613098632991","","","null","","","","","<p><img src= images/blank.png width =""200"" height = ""200"" style = ""float:right""></p><p><img src=images/blank.png width =""800"" height = ""200""></p>","","","","","","","","","","","",""
"","1039.7150000208057","sequential-stimulus-presentation","19","166381","0.0-8.0-1.5","SS1613098632991","trial","","40","800","1839.7150000208057","images/stimuli/spore_stims/complex_06_B_d.gif","images/stimuli/spore_stims/complex_18_B_a.gif","","","","","0","complex_dissimilar","images/stimuli/spore_stims/complex_18_B_a.gif","right","","","","",""
"","null","html-keyboard-response","20","167216","0.0-8.0-0.6","SS1613098632991","","","null","","","","","<p><img src= images/blank.png width =""200"" height = ""200"" style = ""float:right""></p><p><img src=images/blank.png width =""800"" height = ""200""></p>","","","","","","","","","","","",""
"","1216.324999986682","sequential-stimulus-presentation","21","169263","0.0-8.0-1.6","SS1613098632991","trial","","40","800","2016.324999986682","images/stimuli/spore_stims/complex_06_B_d.gif","images/stimuli/spore_stims/complex_18_B_a.gif","","","","","0","complex_dissimilar","images/stimuli/spore_stims/complex_18_B_a.gif","right","","","","",""
"","null","html-keyboard-response","22","170118","0.0-8.0-0.7","SS1613098632991","","","null","","","","","<p><img src= images/blank.png width =""200"" height = ""200"" style = ""float:right""></p><p><img src=images/blank.png width =""800"" height = ""200""></p>","","","","","","","","","","","",""
"","1557.8000000095926","sequential-stimulus-presentation","23","172501","0.0-8.0-1.7","SS1613098632991","trial","","40","800","2357.8000000095926","images/stimuli/spore_stims/complex_06_B_d.gif","images/stimuli/spore_stims/complex_18_B_a.gif","","","","","0","complex_dissimilar","images/stimuli/spore_stims/complex_18_B_a.gif","right","","","","",""
"","3409.394999995129","html-keyboard-response","24","175921","0.0-9.0","SS1613098632991","pref_question","","50","","","","","<video width ='960' height = '540' style='padding-top:8%' autoplay muted><source src='images/stimuli/wall_pref.mp4' type='video/mp4'></video>","2","middle","45%","0","","","","","","","",""
"","4263.544999994338","sequential-stimulus-presentation","25","181003","0.0-10.0","SS1613098632991","pref_reveal","","40","800","5063.544999994338","null","null","","","","","0","","","","novel","","","",""
"","null","html-keyboard-response","26","181819","0.0-11.0-0.0","SS1613098632991","","","null","","","","","<p><img src= images/blank.png width =""200"" height = ""200"" style = ""float:right""></p><p><img src=images/blank.png width =""800"" height = ""200""></p>","","","","","","","","","","","",""
"","5481.0900000156835","sequential-stimulus-presentation","27","188132","0.0-11.0-1.0","SS1613098632991","trial","","40","800","6281.0900000156835","images/stimuli/spore_stims/simple_05_B_d.gif","images/stimuli/spore_stims/simple_07_B_d.gif","","","","","1","simple_dissimilar","images/stimuli/spore_stims/simple_07_B_d.gif","middle","","","","",""
"","null","html-keyboard-response","28","189076","0.0-11.0-0.1","SS1613098632991","","","null","","","","","<p><img src= images/blank.png width =""200"" height = ""200"" style = ""float:right""></p><p><img src=images/blank.png width =""800"" height = ""200""></p>","","","","","","","","","","","",""
"","1320.7300000067335","sequential-stimulus-presentation","29","191217","0.0-11.0-1.1","SS1613098632991","trial","","40","800","2120.7300000067335","images/stimuli/spore_stims/simple_05_B_d.gif","images/stimuli/spore_stims/simple_07_B_d.gif","","","","","1","simple_dissimilar","images/stimuli/spore_stims/simple_07_B_d.gif","middle","","","","",""
"","null","html-keyboard-response","30","192233","0.0-11.0-0.2","SS1613098632991","","","null","","","","","<p><img src= images/blank.png width =""200"" height = ""200"" style = ""float:right""></p><p><img src=images/blank.png width =""800"" height = ""200""></p>","","","","","","","","","","","",""
"","1010.3149999922607","sequential-stimulus-presentation","31","194055","0.0-11.0-1.2","SS1613098632991","trial","","40","800","1810.3149999922607","images/stimuli/spore_stims/simple_05_B_d.gif","images/stimuli/spore_stims/simple_07_B_d.gif","","","","","1","simple_dissimilar","images/stimuli/spore_stims/simple_07_B_d.gif","middle","","","","",""
"","null","html-keyboard-response","32","195220","0.0-11.0-0.3","SS1613098632991","","","null","","","","","<p><img src= images/blank.png width =""200"" height = ""200"" style = ""float:right""></p><p><img src=images/blank.png width =""800"" height = ""200""></p>","","","","","","","","","","","",""
"","2533.2800000032876","sequential-stimulus-presentation","33","198597","0.0-11.0-1.3","SS1613098632991","trial","","40","800","3333.2800000032876","images/stimuli/spore_stims/simple_05_B_d.gif","images/stimuli/spore_stims/simple_07_B_d.gif","","","","","1","simple_dissimilar","images/stimuli/spore_stims/simple_07_B_d.gif","middle","","","","",""
"","null","html-keyboard-response","34","199686","0.0-11.0-0.4","SS1613098632991","","","null","","","","","<p><img src= images/blank.png width =""200"" height = ""200"" style = ""float:right""></p><p><img src=images/blank.png width =""800"" height = ""200""></p>","","","","","","","","","","","",""
"","572.825000010198","sequential-stimulus-presentation","35","201086","0.0-11.0-1.4","SS1613098632991","trial","","40","800","1372.825000010198","images/stimuli/spore_stims/simple_05_B_d.gif","images/stimuli/spore_stims/simple_07_B_d.gif","","","","","1","simple_dissimilar","images/stimuli/spore_stims/simple_07_B_d.gif","middle","","","","",""
"","null","html-keyboard-response","36","202239","0.0-11.0-0.5","SS1613098632991","","","null","","","","","<p><img src= images/blank.png width =""200"" height = ""200"" style = ""float:right""></p><p><img src=images/blank.png width =""800"" height = ""200""></p>","","","","","","","","","","","",""
"","2013.825000001816","sequential-stimulus-presentation","37","205077","0.0-11.0-1.5","SS1613098632991","trial","","40","800","2813.825000001816","images/stimuli/spore_stims/simple_05_B_d.gif","images/stimuli/spore_stims/simple_07_B_d.gif","","","","","1","simple_dissimilar","images/stimuli/spore_stims/simple_07_B_d.gif","middle","","","","",""
"","null","html-keyboard-response","38","205890","0.0-11.0-0.6","SS1613098632991","","","null","","","","","<p><img src= images/blank.png width =""200"" height = ""200"" style = ""float:right""></p><p><img src=images/blank.png width =""800"" height = ""200""></p>","","","","","","","","","","","",""
"","4538.174999994226","sequential-stimulus-presentation","39","211265","0.0-11.0-1.6","SS1613098632991","trial","","40","800","5338.174999994226","images/stimuli/spore_stims/simple_05_B_d.gif","images/stimuli/spore_stims/simple_07_B_d.gif","","","","","1","simple_dissimilar","images/stimuli/spore_stims/simple_05_B_d.gif","left","","","","",""
"","null","html-keyboard-response","40","212141","0.0-11.0-0.7","SS1613098632991","","","null","","","","","<p><img src= images/blank.png width =""200"" height = ""200"" style = ""float:right""></p><p><img src=images/blank.png width =""800"" height = ""200""></p>","","","","","","","","","","","",""
"","1632.7100000053179","sequential-stimulus-presentation","41","214595","0.0-11.0-1.7","SS1613098632991","trial","","40","800","2432.710000005318","images/stimuli/spore_stims/simple_05_B_d.gif","images/stimuli/spore_stims/simple_07_B_d.gif","","","","","1","simple_dissimilar","images/stimuli/spore_stims/simple_07_B_d.gif","middle","","","","",""
"","2979.1849999746773","html-keyboard-response","42","217587","0.0-12.0","SS1613098632991","pref_question","","51","","","","","<video width ='960' height = '540' style='padding-top:8%' autoplay muted><source src='images/stimuli/wall_pref.mp4' type='video/mp4'></video>","3","right","66%","1","","","","","","","",""
"","6202.044999983627","sequential-stimulus-presentation","43","224695","0.0-13.0","SS1613098632991","pref_reveal","","40","800","7002.044999983627","null","null","","","","","1","","","","novel","","","",""
"","null","html-keyboard-response","44","225786","0.0-14.0-0.0","SS1613098632991","","","null","","","","","<p><img src= images/blank.png width =""200"" height = ""200"" style = ""float:right""></p><p><img src=images/blank.png width =""800"" height = ""200""></p>","","","","","","","","","","","",""
"","3794.594999984838","sequential-stimulus-presentation","45","230416","0.0-14.0-1.0","SS1613098632991","trial","","40","800","4594.594999984838","images/stimuli/spore_stims/complex_02_B_a.gif","images/stimuli/spore_stims/complex_17_B_a.gif","","","","","2","complex_dissimilar","images/stimuli/spore_stims/complex_17_B_a.gif","right","","","","",""
"","null","html-keyboard-response","46","231660","0.0-14.0-0.1","SS1613098632991","","","null","","","","","<p><img src= images/blank.png width =""200"" height = ""200"" style = ""float:right""></p><p><img src=images/blank.png width =""800"" height = ""200""></p>","","","","","","","","","","","",""
"","2510.0800000072923","sequential-stimulus-presentation","47","234995","0.0-14.0-1.1","SS1613098632991","trial","","40","800","3310.0800000072923","images/stimuli/spore_stims/complex_02_B_a.gif","images/stimuli/spore_stims/complex_17_B_a.gif","","","","","2","complex_dissimilar","images/stimuli/spore_stims/complex_17_B_a.gif","right","","","","",""
"","null","html-keyboard-response","48","236183","0.0-14.0-0.2","SS1613098632991","","","null","","","","","<p><img src= images/blank.png width =""200"" height = ""200"" style = ""float:right""></p><p><img src=images/blank.png width =""800"" height = ""200""></p>","","","","","","","","","","","",""
"","724.6199999935925","sequential-stimulus-presentation","49","237726","0.0-14.0-1.2","SS1613098632991","trial","","40","800","1524.6199999935925","images/stimuli/spore_stims/complex_02_B_a.gif","images/stimuli/spore_stims/complex_17_B_a.gif","","","","","2","complex_dissimilar","images/stimuli/spore_stims/complex_17_B_a.gif","right","","","","",""
"","null","html-keyboard-response","50","238601","0.0-14.0-0.3","SS1613098632991","","","null","","","","","<p><img src= images/blank.png width =""200"" height = ""200"" style = ""float:right""></p><p><img src=images/blank.png width =""800"" height = ""200""></p>","","","","","","","","","","","",""
"","4793.845000007423","sequential-stimulus-presentation","51","244217","0.0-14.0-1.3","SS1613098632991","trial","","40","800","5593.845000007423","images/stimuli/spore_stims/complex_02_B_a.gif","images/stimuli/spore_stims/complex_17_B_a.gif","","","","","2","complex_dissimilar","images/stimuli/spore_stims/complex_02_B_a.gif","middle","","","","",""
"","null","html-keyboard-response","52","245149","0.0-14.0-0.4","SS1613098632991","","","null","","","","","<p><img src= images/blank.png width =""200"" height = ""200"" style = ""float:right""></p><p><img src=images/blank.png width =""800"" height = ""200""></p>","","","","","","","","","","","",""
"","1024.8399999982212","sequential-stimulus-presentation","53","246997","0.0-14.0-1.4","SS1613098632991","trial","","40","800","1824.8399999982212","images/stimuli/spore_stims/complex_02_B_a.gif","images/stimuli/spore_stims/complex_17_B_a.gif","","","","","2","complex_dissimilar","images/stimuli/spore_stims/complex_17_B_a.gif","right","","","","",""
"","null","html-keyboard-response","54","247972","0.0-14.0-0.5","SS1613098632991","","","null","","","","","<p><img src= images/blank.png width =""200"" height = ""200"" style = ""float:right""></p><p><img src=images/blank.png width =""800"" height = ""200""></p>","","","","","","","","","","","",""
"","1786.7299999925308","sequential-stimulus-presentation","55","250576","0.0-14.0-1.5","SS1613098632991","trial","","40","800","2586.729999992531","images/stimuli/spore_stims/complex_02_B_a.gif","images/stimuli/spore_stims/complex_17_B_a.gif","","","","","2","complex_dissimilar","images/stimuli/spore_stims/complex_17_B_a.gif","right","","","","",""
"","null","html-keyboard-response","56","251589","0.0-14.0-0.6","SS1613098632991","","","null","","","","","<p><img src= images/blank.png width =""200"" height = ""200"" style = ""float:right""></p><p><img src=images/blank.png width =""800"" height = ""200""></p>","","","","","","","","","","","",""
"","770.1100000122096","sequential-stimulus-presentation","57","253181","0.0-14.0-1.6","SS1613098632991","trial","","40","800","1570.1100000122096","images/stimuli/spore_stims/complex_02_B_a.gif","images/stimuli/spore_stims/complex_17_B_a.gif","","","","","2","complex_dissimilar","images/stimuli/spore_stims/complex_17_B_a.gif","right","","","","",""
"","null","html-keyboard-response","58","254444","0.0-14.0-0.7","SS1613098632991","","","null","","","","","<p><img src= images/blank.png width =""200"" height = ""200"" style = ""float:right""></p><p><img src=images/blank.png width =""800"" height = ""200""></p>","","","","","","","","","","","",""
"","1160.184999986086","sequential-stimulus-presentation","59","256425","0.0-14.0-1.7","SS1613098632991","trial","","40","800","1960.184999986086","images/stimuli/spore_stims/complex_02_B_a.gif","images/stimuli/spore_stims/complex_17_B_a.gif","","","","","2","complex_dissimilar","images/stimuli/spore_stims/complex_17_B_a.gif","right","","","","",""
"","3331.644999998389","html-keyboard-response","60","259774","0.0-15.0","SS1613098632991","pref_question","","49","","","","","<video width ='960' height = '540' style='padding-top:8%' autoplay muted><source src='images/stimuli/wall_pref.mp4' type='video/mp4'></video>","1","left","25%","2","","","","","","","",""
"","3996.929999993881","sequential-stimulus-presentation","61","264593","0.0-16.0","SS1613098632991","pref_reveal","","40","800","4796.929999993881","null","null","","","","","2","","","","novel","","","",""
"","null","html-keyboard-response","62","265807","0.0-17.0-0.0","SS1613098632991","","","null","","","","","<p><img src= images/blank.png width =""200"" height = ""200"" style = ""float:right""></p><p><img src=images/blank.png width =""800"" height = ""200""></p>","","","","","","","","","","","",""
"","3963.164999993751","sequential-stimulus-presentation","63","270606","0.0-17.0-1.0","SS1613098632991","trial","","40","800","4763.164999993751","images/stimuli/spore_stims/simple_14_A_b.gif","images/stimuli/spore_stims/simple_14_B_b.gif","","","","","3","simple_similar","images/stimuli/spore_stims/simple_14_B_b.gif","left","","","","",""
"","null","html-keyboard-response","64","271597","0.0-17.0-0.1","SS1613098632991","","","null","","","","","<p><img src= images/blank.png width =""200"" height = ""200"" style = ""float:right""></p><p><img src=images/blank.png width =""800"" height = ""200""></p>","","","","","","","","","","","",""
"","779.5100000221282","sequential-stimulus-presentation","65","273194","0.0-17.0-1.1","SS1613098632991","trial","","40","800","1579.5100000221282","images/stimuli/spore_stims/simple_14_A_b.gif","images/stimuli/spore_stims/simple_14_B_b.gif","","","","","3","simple_similar","images/stimuli/spore_stims/simple_14_B_b.gif","left","","","","",""
"","null","html-keyboard-response","66","274464","0.0-17.0-0.2","SS1613098632991","","","null","","","","","<p><img src= images/blank.png width =""200"" height = ""200"" style = ""float:right""></p><p><img src=images/blank.png width =""800"" height = ""200""></p>","","","","","","","","","","","",""
"","2381.7899999849033","sequential-stimulus-presentation","67","277663","0.0-17.0-1.2","SS1613098632991","trial","","40","800","3181.7899999849033","images/stimuli/spore_stims/simple_14_A_b.gif","images/stimuli/spore_stims/simple_14_B_b.gif","","","","","3","simple_similar","images/stimuli/spore_stims/simple_14_B_b.gif","left","","","","",""
"","null","html-keyboard-response","68","278600","0.0-17.0-0.3","SS1613098632991","","","null","","","","","<p><img src= images/blank.png width =""200"" height = ""200"" style = ""float:right""></p><p><img src=images/blank.png width =""800"" height = ""200""></p>","","","","","","","","","","","",""
"","951.9300000101794","sequential-stimulus-presentation","69","280374","0.0-17.0-1.3","SS1613098632991","trial","","40","800","1751.9300000101794","images/stimuli/spore_stims/simple_14_A_b.gif","images/stimuli/spore_stims/simple_14_B_b.gif","","","","","3","simple_similar","images/stimuli/spore_stims/simple_14_B_b.gif","left","","","","",""
"","null","html-keyboard-response","70","281383","0.0-17.0-0.4","SS1613098632991","","","null","","","","","<p><img src= images/blank.png width =""200"" height = ""200"" style = ""float:right""></p><p><img src=images/blank.png width =""800"" height = ""200""></p>","","","","","","","","","","","",""
"","1272.2300000023097","sequential-stimulus-presentation","71","283475","0.0-17.0-1.4","SS1613098632991","trial","","40","800","2072.2300000023097","images/stimuli/spore_stims/simple_14_A_b.gif","images/stimuli/spore_stims/simple_14_B_b.gif","","","","","3","simple_similar","images/stimuli/spore_stims/simple_14_B_b.gif","left","","","","",""
"","null","html-keyboard-response","72","284709","0.0-17.0-0.5","SS1613098632991","","","null","","","","","<p><img src= images/blank.png width =""200"" height = ""200"" style = ""float:right""></p><p><img src=images/blank.png width =""800"" height = ""200""></p>","","","","","","","","","","","",""
"","3563.605000003008","sequential-stimulus-presentation","73","289094","0.0-17.0-1.5","SS1613098632991","trial","","40","800","4363.605000003008","images/stimuli/spore_stims/simple_14_A_b.gif","images/stimuli/spore_stims/simple_14_B_b.gif","","","","","3","simple_similar","images/stimuli/spore_stims/simple_14_A_b.gif","right","","","","",""
"","null","html-keyboard-response","74","290116","0.0-17.0-0.6","SS1613098632991","","","null","","","","","<p><img src= images/blank.png width =""200"" height = ""200"" style = ""float:right""></p><p><img src=images/blank.png width =""800"" height = ""200""></p>","","","","","","","","","","","",""
"","1992.3349999880884","sequential-stimulus-presentation","75","292934","0.0-17.0-1.6","SS1613098632991","trial","","40","800","2792.3349999880884","images/stimuli/spore_stims/simple_14_A_b.gif","images/stimuli/spore_stims/simple_14_B_b.gif","","","","","3","simple_similar","images/stimuli/spore_stims/simple_14_B_b.gif","left","","","","",""
"","null","html-keyboard-response","76","293928","0.0-17.0-0.7","SS1613098632991","","","null","","","","","<p><img src= images/blank.png width =""200"" height = ""200"" style = ""float:right""></p><p><img src=images/blank.png width =""800"" height = ""200""></p>","","","","","","","","","","","",""
"","829.1299999982584","sequential-stimulus-presentation","77","295582","0.0-17.0-1.7","SS1613098632991","trial","","40","800","1629.1299999982584","images/stimuli/spore_stims/simple_14_A_b.gif","images/stimuli/spore_stims/simple_14_B_b.gif","","","","","3","simple_similar","images/stimuli/spore_stims/simple_14_B_b.gif","left","","","","",""
"","2175.245000020368","html-keyboard-response","78","297764","0.0-18.0","SS1613098632991","pref_question","","50","","","","","<video width ='960' height = '540' style='padding-top:8%' autoplay muted><source src='images/stimuli/wall_pref.mp4' type='video/mp4'></video>","2","middle","45%","3","","","","","","","",""
"","7517.970000015339","sequential-stimulus-presentation","79","306105","0.0-19.0","SS1613098632991","pref_reveal","","40","800","8317.970000015339","null","null","","","","","3","","","","novel","","","",""
"","null","html-keyboard-response","80","306939","0.0-20.0-0.0","SS1613098632991","","","null","","","","","<p><img src= images/blank.png width =""200"" height = ""200"" style = ""float:right""></p><p><img src=images/blank.png width =""800"" height = ""200""></p>","","","","","","","","","","","",""
"","2716.1250000062864","sequential-stimulus-presentation","81","310484","0.0-20.0-1.0","SS1613098632991","trial","","40","800","3516.1250000062864","images/stimuli/spore_stims/simple_16_A_c.gif","images/stimuli/spore_stims/simple_19_A_a.gif","","","","","4","simple_dissimilar","images/stimuli/spore_stims/simple_19_A_a.gif","right","","","","",""
"","null","html-keyboard-response","82","311395","0.0-20.0-0.1","SS1613098632991","","","null","","","","","<p><img src= images/blank.png width =""200"" height = ""200"" style = ""float:right""></p><p><img src=images/blank.png width =""800"" height = ""200""></p>","","","","","","","","","","","",""
"","2703.379999991739","sequential-stimulus-presentation","83","314924","0.0-20.0-1.1","SS1613098632991","trial","","40","800","3503.379999991739","images/stimuli/spore_stims/simple_16_A_c.gif","images/stimuli/spore_stims/simple_19_A_a.gif","","","","","4","simple_dissimilar","images/stimuli/spore_stims/simple_19_A_a.gif","right","","","","",""
"","null","html-keyboard-response","84","316067","0.0-20.0-0.2","SS1613098632991","","","null","","","","","<p><img src= images/blank.png width =""200"" height = ""200"" style = ""float:right""></p><p><img src=images/blank.png width =""800"" height = ""200""></p>","","","","","","","","","","","",""
"","1219.9599999876227","sequential-stimulus-presentation","85","318117","0.0-20.0-1.2","SS1613098632991","trial","","40","800","2019.9599999876227","images/stimuli/spore_stims/simple_16_A_c.gif","images/stimuli/spore_stims/simple_19_A_a.gif","","","","","4","simple_dissimilar","images/stimuli/spore_stims/simple_19_A_a.gif","right","","","","",""
"","null","html-keyboard-response","86","319150","0.0-20.0-0.3","SS1613098632991","","","null","","","","","<p><img src= images/blank.png width =""200"" height = ""200"" style = ""float:right""></p><p><img src=images/blank.png width =""800"" height = ""200""></p>","","","","","","","","","","","",""
"","1524.6200000110548","sequential-stimulus-presentation","87","321497","0.0-20.0-1.3","SS1613098632991","trial","","40","800","2324.620000011055","images/stimuli/spore_stims/simple_16_A_c.gif","images/stimuli/spore_stims/simple_19_A_a.gif","","","","","4","simple_dissimilar","images/stimuli/spore_stims/simple_19_A_a.gif","right","","","","",""
"","null","html-keyboard-response","88","322390","0.0-20.0-0.4","SS1613098632991","","","null","","","","","<p><img src= images/blank.png width =""200"" height = ""200"" style = ""float:right""></p><p><img src=images/blank.png width =""800"" height = ""200""></p>","","","","","","","","","","","",""
"","842.9600000090431","sequential-stimulus-presentation","89","324056","0.0-20.0-1.4","SS1613098632991","trial","","40","800","1642.9600000090431","images/stimuli/spore_stims/simple_16_A_c.gif","images/stimuli/spore_stims/simple_19_A_a.gif","","","","","4","simple_dissimilar","images/stimuli/spore_stims/simple_19_A_a.gif","right","","","","",""
"","null","html-keyboard-response","90","325084","0.0-20.0-0.5","SS1613098632991","","","null","","","","","<p><img src= images/blank.png width =""200"" height = ""200"" style = ""float:right""></p><p><img src=images/blank.png width =""800"" height = ""200""></p>","","","","","","","","","","","",""
"","4703.764999983832","sequential-stimulus-presentation","91","330615","0.0-20.0-1.5","SS1613098632991","trial","","40","800","5503.764999983832","images/stimuli/spore_stims/simple_16_A_c.gif","images/stimuli/spore_stims/simple_19_A_a.gif","","","","","4","simple_dissimilar","images/stimuli/spore_stims/simple_16_A_c.gif","left","","","","",""
"","null","html-keyboard-response","92","331872","0.0-20.0-0.6","SS1613098632991","","","null","","","","","<p><img src= images/blank.png width =""200"" height = ""200"" style = ""float:right""></p><p><img src=images/blank.png width =""800"" height = ""200""></p>","","","","","","","","","","","",""
"","812.5299999956042","sequential-stimulus-presentation","93","333516","0.0-20.0-1.6","SS1613098632991","trial","","40","800","1612.5299999956042","images/stimuli/spore_stims/simple_16_A_c.gif","images/stimuli/spore_stims/simple_19_A_a.gif","","","","","4","simple_dissimilar","images/stimuli/spore_stims/simple_19_A_a.gif","right","","","","",""
"","null","html-keyboard-response","94","334625","0.0-20.0-0.7","SS1613098632991","","","null","","","","","<p><img src= images/blank.png width =""200"" height = ""200"" style = ""float:right""></p><p><img src=images/blank.png width =""800"" height = ""200""></p>","","","","","","","","","","","",""
"","5342.854999995325","sequential-stimulus-presentation","95","340798","0.0-20.0-1.7","SS1613098632991","trial","","40","800","6142.854999995325","images/stimuli/spore_stims/simple_16_A_c.gif","images/stimuli/spore_stims/simple_19_A_a.gif","","","","","4","simple_dissimilar","images/stimuli/spore_stims/simple_19_A_a.gif","right","","","","",""
"","2124.3999999715015","html-keyboard-response","96","342945","0.0-21.0","SS1613098632991","pref_question","","50","","","","","<video width ='960' height = '540' style='padding-top:8%' autoplay muted><source src='images/stimuli/wall_pref.mp4' type='video/mp4'></video>","2","middle","45%","4","","","","","","","",""
"","3646.8750000058208","sequential-stimulus-presentation","97","347528","0.0-22.0","SS1613098632991","pref_reveal","","40","800","4446.875000005821","null","null","","","","","4","","","","novel","","","",""
"","null","html-keyboard-response","98","348822","0.0-23.0-0.0","SS1613098632991","","","null","","","","","<p><img src= images/blank.png width =""200"" height = ""200"" style = ""float:right""></p><p><img src=images/blank.png width =""800"" height = ""200""></p>","","","","","","","","","","","",""
"","4146.240000001853","sequential-stimulus-presentation","99","353797","0.0-23.0-1.0","SS1613098632991","trial","","40","800","4946.240000001853","images/stimuli/spore_stims/complex_03_B_a.gif","images/stimuli/spore_stims/complex_06_A_c.gif","","","","","5","complex_dissimilar","images/stimuli/spore_stims/complex_06_A_c.gif","left","","","","",""
"","null","html-keyboard-response","100","355033","0.0-23.0-0.1","SS1613098632991","","","null","","","","","<p><img src= images/blank.png width =""200"" height = ""200"" style = ""float:right""></p><p><img src=images/blank.png width =""800"" height = ""200""></p>","","","","","","","","","","","",""
"","1013.8350000197534","sequential-stimulus-presentation","101","356876","0.0-23.0-1.1","SS1613098632991","trial","","40","800","1813.8350000197534","images/stimuli/spore_stims/complex_03_B_a.gif","images/stimuli/spore_stims/complex_06_A_c.gif","","","","","5","complex_dissimilar","images/stimuli/spore_stims/complex_06_A_c.gif","left","","","","",""
"","null","html-keyboard-response","102","358135","0.0-23.0-0.2","SS1613098632991","","","null","","","","","<p><img src= images/blank.png width =""200"" height = ""200"" style = ""float:right""></p><p><img src=images/blank.png width =""800"" height = ""200""></p>","","","","","","","","","","","",""
"","1879.4749999942724","sequential-stimulus-presentation","103","360836","0.0-23.0-1.2","SS1613098632991","trial","","40","800","2679.4749999942724","images/stimuli/spore_stims/complex_03_B_a.gif","images/stimuli/spore_stims/complex_06_A_c.gif","","","","","5","complex_dissimilar","images/stimuli/spore_stims/complex_03_B_a.gif","middle","","","","",""
"","null","html-keyboard-response","104","361716","0.0-23.0-0.3","SS1613098632991","","","null","","","","","<p><img src= images/blank.png width =""200"" height = ""200"" style = ""float:right""></p><p><img src=images/blank.png width =""800"" height = ""200""></p>","","","","","","","","","","","",""
"","234.35000001336448","sequential-stimulus-presentation","105","362778","0.0-23.0-1.3","SS1613098632991","trial","","40","800","1034.3500000133645","images/stimuli/spore_stims/complex_03_B_a.gif","images/stimuli/spore_stims/complex_06_A_c.gif","","","","","5","complex_dissimilar","images/stimuli/spore_stims/complex_06_A_c.gif","left","","","","",""
"","null","html-keyboard-response","106","363638","0.0-23.0-0.4","SS1613098632991","","","null","","","","","<p><img src= images/blank.png width =""200"" height = ""200"" style = ""float:right""></p><p><img src=images/blank.png width =""800"" height = ""200""></p>","","","","","","","","","","","",""
"","4004.1700000001583","sequential-stimulus-presentation","107","368468","0.0-23.0-1.4","SS1613098632991","trial","","40","800","4804.170000000158","images/stimuli/spore_stims/complex_03_B_a.gif","images/stimuli/spore_stims/complex_06_A_c.gif","","","","","5","complex_dissimilar","images/stimuli/spore_stims/complex_06_A_c.gif","left","","","","",""
"","null","html-keyboard-response","108","369387","0.0-23.0-0.5","SS1613098632991","","","null","","","","","<p><img src= images/blank.png width =""200"" height = ""200"" style = ""float:right""></p><p><img src=images/blank.png width =""800"" height = ""200""></p>","","","","","","","","","","","",""
"","2983.1600000034086","sequential-stimulus-presentation","109","373276","0.0-23.0-1.5","SS1613098632991","trial","","40","800","3783.1600000034086","images/stimuli/spore_stims/complex_03_B_a.gif","images/stimuli/spore_stims/complex_06_A_c.gif","","","","","5","complex_dissimilar","images/stimuli/spore_stims/complex_06_A_c.gif","left","","","","",""
"","null","html-keyboard-response","110","374337","0.0-23.0-0.6","SS1613098632991","","","null","","","","","<p><img src= images/blank.png width =""200"" height = ""200"" style = ""float:right""></p><p><img src=images/blank.png width =""800"" height = ""200""></p>","","","","","","","","","","","",""
"","936.7550000024494","sequential-stimulus-presentation","111","376098","0.0-23.0-1.6","SS1613098632991","trial","","40","800","1736.7550000024494","images/stimuli/spore_stims/complex_03_B_a.gif","images/stimuli/spore_stims/complex_06_A_c.gif","","","","","5","complex_dissimilar","images/stimuli/spore_stims/complex_06_A_c.gif","left","","","","",""
"","null","html-keyboard-response","112","376999","0.0-23.0-0.7","SS1613098632991","","","null","","","","","<p><img src= images/blank.png width =""200"" height = ""200"" style = ""float:right""></p><p><img src=images/blank.png width =""800"" height = ""200""></p>","","","","","","","","","","","",""
"","783.7749999889638","sequential-stimulus-presentation","113","378608","0.0-23.0-1.7","SS1613098632991","trial","","40","800","1583.7749999889638","images/stimuli/spore_stims/complex_03_B_a.gif","images/stimuli/spore_stims/complex_06_A_c.gif","","","","","5","complex_dissimilar","images/stimuli/spore_stims/complex_06_A_c.gif","left","","","","",""
"","2560.120000009192","html-keyboard-response","114","381185","0.0-24.0","SS1613098632991","pref_question","","51","","","","","<video width ='960' height = '540' style='padding-top:8%' autoplay muted><source src='images/stimuli/wall_pref.mp4' type='video/mp4'></video>","3","right","66%","5","","","","","","","",""
"","6318.235000013374","sequential-stimulus-presentation","115","388326","0.0-25.0","SS1613098632991","pref_reveal","","40","800","7118.235000013374","null","null","","","","","5","","","","novel","","","",""
"","null","html-keyboard-response","116","389618","0.0-26.0-0.0","SS1613098632991","","","null","","","","","<p><img src= images/blank.png width =""200"" height = ""200"" style = ""float:right""></p><p><img src=images/blank.png width =""800"" height = ""200""></p>","","","","","","","","","","","",""
"","5467.994999984512","sequential-stimulus-presentation","117","395918","0.0-26.0-1.0","SS1613098632991","trial","","40","800","6267.994999984512","images/stimuli/spore_stims/simple_08_B_b.gif","images/stimuli/spore_stims/simple_15_B_a.gif","","","","","6","simple_dissimilar","images/stimuli/spore_stims/simple_15_B_a.gif","middle","","","","",""
"","null","html-keyboard-response","118","396862","0.0-26.0-0.1","SS1613098632991","","","null","","","","","<p><img src= images/blank.png width =""200"" height = ""200"" style = ""float:right""></p><p><img src=images/blank.png width =""800"" height = ""200""></p>","","","","","","","","","","","",""
"","1642.935000010766","sequential-stimulus-presentation","119","399336","0.0-26.0-1.1","SS1613098632991","trial","","40","800","2442.935000010766","images/stimuli/spore_stims/simple_08_B_b.gif","images/stimuli/spore_stims/simple_15_B_a.gif","","","","","6","simple_dissimilar","images/stimuli/spore_stims/simple_15_B_a.gif","middle","","","","",""
"","null","html-keyboard-response","120","400552","0.0-26.0-0.2","SS1613098632991","","","null","","","","","<p><img src= images/blank.png width =""200"" height = ""200"" style = ""float:right""></p><p><img src=images/blank.png width =""800"" height = ""200""></p>","","","","","","","","","","","",""
"","960.5650000157766","sequential-stimulus-presentation","121","402337","0.0-26.0-1.2","SS1613098632991","trial","","40","800","1760.5650000157766","images/stimuli/spore_stims/simple_08_B_b.gif","images/stimuli/spore_stims/simple_15_B_a.gif","","","","","6","simple_dissimilar","images/stimuli/spore_stims/simple_15_B_a.gif","middle","","","","",""
"","null","html-keyboard-response","122","403305","0.0-26.0-0.3","SS1613098632991","","","null","","","","","<p><img src= images/blank.png width =""200"" height = ""200"" style = ""float:right""></p><p><img src=images/blank.png width =""800"" height = ""200""></p>","","","","","","","","","","","",""
"","1106.2399999937043","sequential-stimulus-presentation","123","405317","0.0-26.0-1.3","SS1613098632991","trial","","40","800","1906.2399999937043","images/stimuli/spore_stims/simple_08_B_b.gif","images/stimuli/spore_stims/simple_15_B_a.gif","","","","","6","simple_dissimilar","images/stimuli/spore_stims/simple_15_B_a.gif","middle","","","","",""
"","null","html-keyboard-response","124","406207","0.0-26.0-0.4","SS1613098632991","","","null","","","","","<p><img src= images/blank.png width =""200"" height = ""200"" style = ""float:right""></p><p><img src=images/blank.png width =""800"" height = ""200""></p>","","","","","","","","","","","",""
"","1439.8900000087451","sequential-stimulus-presentation","125","408470","0.0-26.0-1.4","SS1613098632991","trial","","40","800","2239.890000008745","images/stimuli/spore_stims/simple_08_B_b.gif","images/stimuli/spore_stims/simple_15_B_a.gif","","","","","6","simple_dissimilar","images/stimuli/spore_stims/simple_15_B_a.gif","middle","","","","",""
"","null","html-keyboard-response","126","409416","0.0-26.0-0.5","SS1613098632991","","","null","","","","","<p><img src= images/blank.png width =""200"" height = ""200"" style = ""float:right""></p><p><img src=images/blank.png width =""800"" height = ""200""></p>","","","","","","","","","","","",""
"","3972.8650000179186","sequential-stimulus-presentation","127","414258","0.0-26.0-1.5","SS1613098632991","trial","","40","800","4772.865000017919","images/stimuli/spore_stims/simple_08_B_b.gif","images/stimuli/spore_stims/simple_15_B_a.gif","","","","","6","simple_dissimilar","images/stimuli/spore_stims/simple_08_B_b.gif","left","","","","",""
"","null","html-keyboard-response","128","415262","0.0-26.0-0.6","SS1613098632991","","","null","","","","","<p><img src= images/blank.png width =""200"" height = ""200"" style = ""float:right""></p><p><img src=images/blank.png width =""800"" height = ""200""></p>","","","","","","","","","","","",""
"","69853.67000001133","sequential-stimulus-presentation","129","485938","0.0-26.0-1.6","SS1613098632991","trial","","40","800","70653.67000001133","images/stimuli/spore_stims/simple_08_B_b.gif","images/stimuli/spore_stims/simple_15_B_a.gif","","","","","6","simple_dissimilar","images/stimuli/spore_stims/simple_15_B_a.gif","middle","","","","",""
"","null","html-keyboard-response","130","487089","0.0-26.0-0.7","SS1613098632991","","","null","","","","","<p><img src= images/blank.png width =""200"" height = ""200"" style = ""float:right""></p><p><img src=images/blank.png width =""800"" height = ""200""></p>","","","","","","","","","","","",""
"","1539.4950000045355","sequential-stimulus-presentation","131","489450","0.0-26.0-1.7","SS1613098632991","trial","","40","800","2339.4950000045355","images/stimuli/spore_stims/simple_08_B_b.gif","images/stimuli/spore_stims/simple_15_B_a.gif","","","","","6","simple_dissimilar","images/stimuli/spore_stims/simple_15_B_a.gif","middle","","","","",""
"","3258.594999992056","html-keyboard-response","132","492729","0.0-27.0","SS1613098632991","pref_question","","51","","","","","<video width ='960' height = '540' style='padding-top:8%' autoplay muted><source src='images/stimuli/wall_pref.mp4' type='video/mp4'></video>","3","right","66%","6","","","","","","","",""
"","10570.25000001886","sequential-stimulus-presentation","133","504120","0.0-28.0","SS1613098632991","pref_reveal","","40","800","11370.25000001886","null","null","","","","","6","","","","novel","","","",""
"","null","html-keyboard-response","134","505438","0.0-29.0-0.0","SS1613098632991","","","null","","","","","<p><img src= images/blank.png width =""200"" height = ""200"" style = ""float:right""></p><p><img src=images/blank.png width =""800"" height = ""200""></p>","","","","","","","","","","","",""
"","4981.195000000298","sequential-stimulus-presentation","135","511249","0.0-29.0-1.0","SS1613098632991","trial","","40","800","5781.195000000298","images/stimuli/spore_stims/complex_16_B_c.gif","images/stimuli/spore_stims/complex_16_A_c.gif","","","","","7","complex_similar","images/stimuli/spore_stims/complex_16_A_c.gif","right","","","","",""
"","null","html-keyboard-response","136","512179","0.0-29.0-0.1","SS1613098632991","","","null","","","","","<p><img src= images/blank.png width =""200"" height = ""200"" style = ""float:right""></p><p><img src=images/blank.png width =""800"" height = ""200""></p>","","","","","","","","","","","",""
"","490.4800000076648","sequential-stimulus-presentation","137","513490","0.0-29.0-1.1","SS1613098632991","trial","","40","800","1290.4800000076648","images/stimuli/spore_stims/complex_16_B_c.gif","images/stimuli/spore_stims/complex_16_A_c.gif","","","","","7","complex_similar","images/stimuli/spore_stims/complex_16_A_c.gif","right","","","","",""
"","null","html-keyboard-response","138","514599","0.0-29.0-0.2","SS1613098632991","","","null","","","","","<p><img src= images/blank.png width =""200"" height = ""200"" style = ""float:right""></p><p><img src=images/blank.png width =""800"" height = ""200""></p>","","","","","","","","","","","",""
"","500.995000009425","sequential-stimulus-presentation","139","515931","0.0-29.0-1.2","SS1613098632991","trial","","40","800","1300.995000009425","images/stimuli/spore_stims/complex_16_B_c.gif","images/stimuli/spore_stims/complex_16_A_c.gif","","","","","7","complex_similar","images/stimuli/spore_stims/complex_16_A_c.gif","right","","","","",""
"","null","html-keyboard-response","140","516779","0.0-29.0-0.3","SS1613098632991","","","null","","","","","<p><img src= images/blank.png width =""200"" height = ""200"" style = ""float:right""></p><p><img src=images/blank.png width =""800"" height = ""200""></p>","","","","","","","","","","","",""
"","5182.524999981979","sequential-stimulus-presentation","141","522799","0.0-29.0-1.3","SS1613098632991","trial","","40","800","5982.524999981979","images/stimuli/spore_stims/complex_16_B_c.gif","images/stimuli/spore_stims/complex_16_A_c.gif","","","","","7","complex_similar","images/stimuli/spore_stims/complex_16_B_c.gif","left","","","","",""
"","null","html-keyboard-response","142","523969","0.0-29.0-0.4","SS1613098632991","","","null","","","","","<p><img src= images/blank.png width =""200"" height = ""200"" style = ""float:right""></p><p><img src=images/blank.png width =""800"" height = ""200""></p>","","","","","","","","","","","",""
"","666.0899999842513","sequential-stimulus-presentation","143","525459","0.0-29.0-1.4","SS1613098632991","trial","","40","800","1466.0899999842513","images/stimuli/spore_stims/complex_16_B_c.gif","images/stimuli/spore_stims/complex_16_A_c.gif","","","","","7","complex_similar","images/stimuli/spore_stims/complex_16_A_c.gif","right","","","","",""
"","null","html-keyboard-response","144","526422","0.0-29.0-0.5","SS1613098632991","","","null","","","","","<p><img src= images/blank.png width =""200"" height = ""200"" style = ""float:right""></p><p><img src=images/blank.png width =""800"" height = ""200""></p>","","","","","","","","","","","",""
"","642.840000014985","sequential-stimulus-presentation","145","527890","0.0-29.0-1.5","SS1613098632991","trial","","40","800","1442.840000014985","images/stimuli/spore_stims/complex_16_B_c.gif","images/stimuli/spore_stims/complex_16_A_c.gif","","","","","7","complex_similar","images/stimuli/spore_stims/complex_16_A_c.gif","right","","","","",""
"","null","html-keyboard-response","146","529091","0.0-29.0-0.6","SS1613098632991","","","null","","","","","<p><img src= images/blank.png width =""200"" height = ""200"" style = ""float:right""></p><p><img src=images/blank.png width =""800"" height = ""200""></p>","","","","","","","","","","","",""
"","855.7499999878928","sequential-stimulus-presentation","147","530771","0.0-29.0-1.6","SS1613098632991","trial","","40","800","1655.7499999878928","images/stimuli/spore_stims/complex_16_B_c.gif","images/stimuli/spore_stims/complex_16_A_c.gif","","","","","7","complex_similar","images/stimuli/spore_stims/complex_16_A_c.gif","right","","","","",""
"","null","html-keyboard-response","148","531914","0.0-29.0-0.7","SS1613098632991","","","null","","","","","<p><img src= images/blank.png width =""200"" height = ""200"" style = ""float:right""></p><p><img src=images/blank.png width =""800"" height = ""200""></p>","","","","","","","","","","","",""
"","2589.399999997113","sequential-stimulus-presentation","149","535449","0.0-29.0-1.7","SS1613098632991","trial","","40","800","3389.399999997113","images/stimuli/spore_stims/complex_16_B_c.gif","images/stimuli/spore_stims/complex_16_A_c.gif","","","","","7","complex_similar","images/stimuli/spore_stims/complex_16_A_c.gif","right","","","","",""
"","2090.330000006361","html-keyboard-response","150","537560","0.0-30.0","SS1613098632991","pref_question","","50","","","","","<video width ='960' height = '540' style='padding-top:8%' autoplay muted><source src='images/stimuli/wall_pref.mp4' type='video/mp4'></video>","2","middle","45%","7","","","","","","","",""
"","3099.2350000014994","sequential-stimulus-presentation","151","541483","0.0-31.0","SS1613098632991","pref_reveal","","40","800","3899.2350000014994","null","null","","","","","7","","","","novel","","","",""
"","null","html-keyboard-response","152","542609","0.0-32.0-0.0","SS1613098632991","","","null","","","","","<p><img src= images/blank.png width =""200"" height = ""200"" style = ""float:right""></p><p><img src=images/blank.png width =""800"" height = ""200""></p>","","","","","","","","","","","",""
"","2237.3399999924004","sequential-stimulus-presentation","153","545679","0.0-32.0-1.0","SS1613098632991","trial","","40","800","3037.3399999924004","images/stimuli/spore_stims/simple_16_A_d.gif","images/stimuli/spore_stims/simple_16_B_d.gif","","","","","8","simple_similar","images/stimuli/spore_stims/simple_16_B_d.gif","middle","","","","",""
"","null","html-keyboard-response","154","546794","0.0-32.0-0.1","SS1613098632991","","","null","","","","","<p><img src= images/blank.png width =""200"" height = ""200"" style = ""float:right""></p><p><img src=images/blank.png width =""800"" height = ""200""></p>","","","","","","","","","","","",""
"","701.4799999888055","sequential-stimulus-presentation","155","548340","0.0-32.0-1.1","SS1613098632991","trial","","40","800","1501.4799999888055","images/stimuli/spore_stims/simple_16_A_d.gif","images/stimuli/spore_stims/simple_16_B_d.gif","","","","","8","simple_similar","images/stimuli/spore_stims/simple_16_B_d.gif","middle","","","","",""
"","null","html-keyboard-response","156","549660","0.0-32.0-0.2","SS1613098632991","","","null","","","","","<p><img src= images/blank.png width =""200"" height = ""200"" style = ""float:right""></p><p><img src=images/blank.png width =""800"" height = ""200""></p>","","","","","","","","","","","",""
"","1100.8250000013504","sequential-stimulus-presentation","157","551623","0.0-32.0-1.2","SS1613098632991","trial","","40","800","1900.8250000013504","images/stimuli/spore_stims/simple_16_A_d.gif","images/stimuli/spore_stims/simple_16_B_d.gif","","","","","8","simple_similar","images/stimuli/spore_stims/simple_16_B_d.gif","middle","","","","",""
"","null","html-keyboard-response","158","552495","0.0-32.0-0.3","SS1613098632991","","","null","","","","","<p><img src= images/blank.png width =""200"" height = ""200"" style = ""float:right""></p><p><img src=images/blank.png width =""800"" height = ""200""></p>","","","","","","","","","","","",""
"","1441.4699999906588","sequential-stimulus-presentation","159","554770","0.0-32.0-1.3","SS1613098632991","trial","","40","800","2241.469999990659","images/stimuli/spore_stims/simple_16_A_d.gif","images/stimuli/spore_stims/simple_16_B_d.gif","","","","","8","simple_similar","images/stimuli/spore_stims/simple_16_B_d.gif","middle","","","","",""
"","null","html-keyboard-response","160","555678","0.0-32.0-0.4","SS1613098632991","","","null","","","","","<p><img src= images/blank.png width =""200"" height = ""200"" style = ""float:right""></p><p><img src=images/blank.png width =""800"" height = ""200""></p>","","","","","","","","","","","",""
"","5055.579999985639","sequential-stimulus-presentation","161","561560","0.0-32.0-1.4","SS1613098632991","trial","","40","800","5855.579999985639","images/stimuli/spore_stims/simple_16_A_d.gif","images/stimuli/spore_stims/simple_16_B_d.gif","","","","","8","simple_similar","images/stimuli/spore_stims/simple_16_A_d.gif","right","","","","",""
"","null","html-keyboard-response","162","562449","0.0-32.0-0.5","SS1613098632991","","","null","","","","","<p><img src= images/blank.png width =""200"" height = ""200"" style = ""float:right""></p><p><img src=images/blank.png width =""800"" height = ""200""></p>","","","","","","","","","","","",""
"","1062.4800000223331","sequential-stimulus-presentation","163","564344","0.0-32.0-1.5","SS1613098632991","trial","","40","800","1862.4800000223331","images/stimuli/spore_stims/simple_16_A_d.gif","images/stimuli/spore_stims/simple_16_B_d.gif","","","","","8","simple_similar","images/stimuli/spore_stims/simple_16_B_d.gif","middle","","","","",""
"","null","html-keyboard-response","164","565471","0.0-32.0-0.6","SS1613098632991","","","null","","","","","<p><img src= images/blank.png width =""200"" height = ""200"" style = ""float:right""></p><p><img src=images/blank.png width =""800"" height = ""200""></p>","","","","","","","","","","","",""
"","404.84999999171123","sequential-stimulus-presentation","165","566773","0.0-32.0-1.6","SS1613098632991","trial","","40","800","1204.8499999917112","images/stimuli/spore_stims/simple_16_A_d.gif","images/stimuli/spore_stims/simple_16_B_d.gif","","","","","8","simple_similar","images/stimuli/spore_stims/simple_16_B_d.gif","middle","","","","",""
"","null","html-keyboard-response","166","567887","0.0-32.0-0.7","SS1613098632991","","","null","","","","","<p><img src= images/blank.png width =""200"" height = ""200"" style = ""float:right""></p><p><img src=images/blank.png width =""800"" height = ""200""></p>","","","","","","","","","","","",""
"","845.934999990277","sequential-stimulus-presentation","167","569560","0.0-32.0-1.7","SS1613098632991","trial","","40","800","1645.934999990277","images/stimuli/spore_stims/simple_16_A_d.gif","images/stimuli/spore_stims/simple_16_B_d.gif","","","","","8","simple_similar","images/stimuli/spore_stims/simple_16_B_d.gif","middle","","","","",""
"","2009.5750000036787","html-keyboard-response","168","571591","0.0-33.0","SS1613098632991","pref_question","","51","","","","","<video width ='960' height = '540' style='padding-top:8%' autoplay muted><source src='images/stimuli/wall_pref.mp4' type='video/mp4'></video>","3","right","66%","8","","","","","","","",""
"","2036.3500000094064","sequential-stimulus-presentation","169","574452","0.0-34.0","SS1613098632991","pref_reveal","","40","800","2836.3500000094064","null","null","","","","","8","","","","deviant","","","",""
"","null","html-keyboard-response","170","575539","0.0-35.0-0.0","SS1613098632991","","","null","","","","","<p><img src= images/blank.png width =""200"" height = ""200"" style = ""float:right""></p><p><img src=images/blank.png width =""800"" height = ""200""></p>","","","","","","","","","","","",""
"","2329.905000020517","sequential-stimulus-presentation","171","578693","0.0-35.0-1.0","SS1613098632991","trial","","40","800","3129.905000020517","images/stimuli/spore_stims/complex_05_B_b.gif","images/stimuli/spore_stims/complex_05_A_b.gif","","","","","9","complex_similar","images/stimuli/spore_stims/complex_05_A_b.gif","right","","","","",""
"","null","html-keyboard-response","172","579893","0.0-35.0-0.1","SS1613098632991","","","null","","","","","<p><img src= images/blank.png width =""200"" height = ""200"" style = ""float:right""></p><p><img src=images/blank.png width =""800"" height = ""200""></p>","","","","","","","","","","","",""
"","1304.2549999954645","sequential-stimulus-presentation","173","582022","0.0-35.0-1.1","SS1613098632991","trial","","40","800","2104.2549999954645","images/stimuli/spore_stims/complex_05_B_b.gif","images/stimuli/spore_stims/complex_05_A_b.gif","","","","","9","complex_similar","images/stimuli/spore_stims/complex_05_A_b.gif","right","","","","",""
"","null","html-keyboard-response","174","583334","0.0-35.0-0.2","SS1613098632991","","","null","","","","","<p><img src= images/blank.png width =""200"" height = ""200"" style = ""float:right""></p><p><img src=images/blank.png width =""800"" height = ""200""></p>","","","","","","","","","","","",""
"","396.6849999851547","sequential-stimulus-presentation","175","584572","0.0-35.0-1.2","SS1613098632991","trial","","40","800","1196.6849999851547","images/stimuli/spore_stims/complex_05_B_b.gif","images/stimuli/spore_stims/complex_05_A_b.gif","","","","","9","complex_similar","images/stimuli/spore_stims/complex_05_A_b.gif","right","","","","",""
"","null","html-keyboard-response","176","585744","0.0-35.0-0.3","SS1613098632991","","","null","","","","","<p><img src= images/blank.png width =""200"" height = ""200"" style = ""float:right""></p><p><img src=images/blank.png width =""800"" height = ""200""></p>","","","","","","","","","","","",""
"","1045.4900000186171","sequential-stimulus-presentation","177","587645","0.0-35.0-1.3","SS1613098632991","trial","","40","800","1845.4900000186171","images/stimuli/spore_stims/complex_05_B_b.gif","images/stimuli/spore_stims/complex_05_A_b.gif","","","","","9","complex_similar","images/stimuli/spore_stims/complex_05_B_b.gif","left","","","","",""
"","null","html-keyboard-response","178","588771","0.0-35.0-0.4","SS1613098632991","","","null","","","","","<p><img src= images/blank.png width =""200"" height = ""200"" style = ""float:right""></p><p><img src=images/blank.png width =""800"" height = ""200""></p>","","","","","","","","","","","",""
"","840.1899999880698","sequential-stimulus-presentation","179","590454","0.0-35.0-1.4","SS1613098632991","trial","","40","800","1640.1899999880698","images/stimuli/spore_stims/complex_05_B_b.gif","images/stimuli/spore_stims/complex_05_A_b.gif","","","","","9","complex_similar","images/stimuli/spore_stims/complex_05_A_b.gif","right","","","","",""
"","null","html-keyboard-response","180","591330","0.0-35.0-0.5","SS1613098632991","","","null","","","","","<p><img src= images/blank.png width =""200"" height = ""200"" style = ""float:right""></p><p><img src=images/blank.png width =""800"" height = ""200""></p>","","","","","","","","","","","",""
"","397.5899999786634","sequential-stimulus-presentation","181","592552","0.0-35.0-1.5","SS1613098632991","trial","","40","800","1197.5899999786634","images/stimuli/spore_stims/complex_05_B_b.gif","images/stimuli/spore_stims/complex_05_A_b.gif","","","","","9","complex_similar","images/stimuli/spore_stims/complex_05_A_b.gif","right","","","","",""
"","null","html-keyboard-response","182","593505","0.0-35.0-0.6","SS1613098632991","","","null","","","","","<p><img src= images/blank.png width =""200"" height = ""200"" style = ""float:right""></p><p><img src=images/blank.png width =""800"" height = ""200""></p>","","","","","","","","","","","",""
"","744.3499999935739","sequential-stimulus-presentation","183","595073","0.0-35.0-1.6","SS1613098632991","trial","","40","800","1544.3499999935739","images/stimuli/spore_stims/complex_05_B_b.gif","images/stimuli/spore_stims/complex_05_A_b.gif","","","","","9","complex_similar","images/stimuli/spore_stims/complex_05_A_b.gif","right","","","","",""
"","null","html-keyboard-response","184","595950","0.0-35.0-0.7","SS1613098632991","","","null","","","","","<p><img src= images/blank.png width =""200"" height = ""200"" style = ""float:right""></p><p><img src=images/blank.png width =""800"" height = ""200""></p>","","","","","","","","","","","",""
"","566.194999992149","sequential-stimulus-presentation","185","597351","0.0-35.0-1.7","SS1613098632991","trial","","40","800","1366.194999992149","images/stimuli/spore_stims/complex_05_B_b.gif","images/stimuli/spore_stims/complex_05_A_b.gif","","","","","9","complex_similar","images/stimuli/spore_stims/complex_05_A_b.gif","right","","","","",""
"","3044.3000000086613","html-keyboard-response","186","600422","0.0-36.0","SS1613098632991","pref_question","","49","","","","","<video width ='960' height = '540' style='padding-top:8%' autoplay muted><source src='images/stimuli/wall_pref.mp4' type='video/mp4'></video>","1","left","25%","9","","","","","","","",""
"","2091.5200000163168","sequential-stimulus-presentation","187","603414","0.0-37.0","SS1613098632991","pref_reveal","","40","800","2891.5200000163168","null","null","","","","","9","","","","deviant","","","",""
"","null","html-keyboard-response","188","604743","0.0-38.0-0.0","SS1613098632991","","","null","","","","","<p><img src= images/blank.png width =""200"" height = ""200"" style = ""float:right""></p><p><img src=images/blank.png width =""800"" height = ""200""></p>","","","","","","","","","","","",""
"","2089.3900000082795","sequential-stimulus-presentation","189","607663","0.0-38.0-1.0","SS1613098632991","trial","","40","800","2889.3900000082795","images/stimuli/spore_stims/simple_12_B_a.gif","images/stimuli/spore_stims/simple_12_A_a.gif","","","","","10","simple_similar","images/stimuli/spore_stims/simple_12_A_a.gif","middle","","","","",""
"","null","html-keyboard-response","190","608792","0.0-38.0-0.1","SS1613098632991","","","null","","","","","<p><img src= images/blank.png width =""200"" height = ""200"" style = ""float:right""></p><p><img src=images/blank.png width =""800"" height = ""200""></p>","","","","","","","","","","","",""
"","742.6900000136811","sequential-stimulus-presentation","191","610374","0.0-38.0-1.1","SS1613098632991","trial","","40","800","1542.6900000136811","images/stimuli/spore_stims/simple_12_B_a.gif","images/stimuli/spore_stims/simple_12_A_a.gif","","","","","10","simple_similar","images/stimuli/spore_stims/simple_12_A_a.gif","middle","","","","",""
"","null","html-keyboard-response","192","611350","0.0-38.0-0.2","SS1613098632991","","","null","","","","","<p><img src= images/blank.png width =""200"" height = ""200"" style = ""float:right""></p><p><img src=images/blank.png width =""800"" height = ""200""></p>","","","","","","","","","","","",""
"","421.10499998671","sequential-stimulus-presentation","193","612603","0.0-38.0-1.2","SS1613098632991","trial","","40","800","1221.10499998671","images/stimuli/spore_stims/simple_12_B_a.gif","images/stimuli/spore_stims/simple_12_A_a.gif","","","","","10","simple_similar","images/stimuli/spore_stims/simple_12_A_a.gif","middle","","","","",""
"","null","html-keyboard-response","194","613649","0.0-38.0-0.3","SS1613098632991","","","null","","","","","<p><img src= images/blank.png width =""200"" height = ""200"" style = ""float:right""></p><p><img src=images/blank.png width =""800"" height = ""200""></p>","","","","","","","","","","","",""
"","356.33499998948537","sequential-stimulus-presentation","195","614897","0.0-38.0-1.3","SS1613098632991","trial","","40","800","1156.3349999894854","images/stimuli/spore_stims/simple_12_B_a.gif","images/stimuli/spore_stims/simple_12_A_a.gif","","","","","10","simple_similar","images/stimuli/spore_stims/simple_12_A_a.gif","middle","","","","",""
"","null","html-keyboard-response","196","615936","0.0-38.0-0.4","SS1613098632991","","","null","","","","","<p><img src= images/blank.png width =""200"" height = ""200"" style = ""float:right""></p><p><img src=images/blank.png width =""800"" height = ""200""></p>","","","","","","","","","","","",""
"","1019.2849999875762","sequential-stimulus-presentation","197","617781","0.0-38.0-1.4","SS1613098632991","trial","","40","800","1819.2849999875762","images/stimuli/spore_stims/simple_12_B_a.gif","images/stimuli/spore_stims/simple_12_A_a.gif","","","","","10","simple_similar","images/stimuli/spore_stims/simple_12_A_a.gif","middle","","","","",""
"","null","html-keyboard-response","198","618633","0.0-38.0-0.5","SS1613098632991","","","null","","","","","<p><img src= images/blank.png width =""200"" height = ""200"" style = ""float:right""></p><p><img src=images/blank.png width =""800"" height = ""200""></p>","","","","","","","","","","","",""
"","399.48000002186745","sequential-stimulus-presentation","199","619873","0.0-38.0-1.5","SS1613098632991","trial","","40","800","1199.4800000218675","images/stimuli/spore_stims/simple_12_B_a.gif","images/stimuli/spore_stims/simple_12_A_a.gif","","","","","10","simple_similar","images/stimuli/spore_stims/simple_12_B_a.gif","right","","","","",""
"","null","html-keyboard-response","200","620882","0.0-38.0-0.6","SS1613098632991","","","null","","","","","<p><img src= images/blank.png width =""200"" height = ""200"" style = ""float:right""></p><p><img src=images/blank.png width =""800"" height = ""200""></p>","","","","","","","","","","","",""
"","413.54999999748543","sequential-stimulus-presentation","201","622132","0.0-38.0-1.6","SS1613098632991","trial","","40","800","1213.5499999974854","images/stimuli/spore_stims/simple_12_B_a.gif","images/stimuli/spore_stims/simple_12_A_a.gif","","","","","10","simple_similar","images/stimuli/spore_stims/simple_12_A_a.gif","middle","","","","",""
"","null","html-keyboard-response","202","623416","0.0-38.0-0.7","SS1613098632991","","","null","","","","","<p><img src= images/blank.png width =""200"" height = ""200"" style = ""float:right""></p><p><img src=images/blank.png width =""800"" height = ""200""></p>","","","","","","","","","","","",""
"","1080.710000009276","sequential-stimulus-presentation","203","625405","0.0-38.0-1.7","SS1613098632991","trial","","40","800","1880.710000009276","images/stimuli/spore_stims/simple_12_B_a.gif","images/stimuli/spore_stims/simple_12_A_a.gif","","","","","10","simple_similar","images/stimuli/spore_stims/simple_12_A_a.gif","middle","","","","",""
"","2609.9300000059884","html-keyboard-response","204","628073","0.0-39.0","SS1613098632991","pref_question","","51","","","","","<video width ='960' height = '540' style='padding-top:8%' autoplay muted><source src='images/stimuli/wall_pref.mp4' type='video/mp4'></video>","3","right","66%","10","","","","","","","",""
"","1802.7799999981653","sequential-stimulus-presentation","205","630703","0.0-40.0","SS1613098632991","pref_reveal","","40","800","2602.7799999981653","null","null","","","","","10","","","","deviant","","","",""
"","null","html-keyboard-response","206","631703","0.0-41.0-0.0","SS1613098632991","","","null","","","","","<p><img src= images/blank.png width =""200"" height = ""200"" style = ""float:right""></p><p><img src=images/blank.png width =""800"" height = ""200""></p>","","","","","","","","","","","",""
"","2817.50999999349","sequential-stimulus-presentation","207","635354","0.0-41.0-1.0","SS1613098632991","trial","","40","800","3617.50999999349","images/stimuli/spore_stims/simple_10_B_b.gif","images/stimuli/spore_stims/simple_10_A_b.gif","","","","","11","simple_similar","images/stimuli/spore_stims/simple_10_A_b.gif","middle","","","","",""
"","null","html-keyboard-response","208","636294","0.0-41.0-0.1","SS1613098632991","","","null","","","","","<p><img src= images/blank.png width =""200"" height = ""200"" style = ""float:right""></p><p><img src=images/blank.png width =""800"" height = ""200""></p>","","","","","","","","","","","",""
"","1430.339999991702","sequential-stimulus-presentation","209","638554","0.0-41.0-1.1","SS1613098632991","trial","","40","800","2230.339999991702","images/stimuli/spore_stims/simple_10_B_b.gif","images/stimuli/spore_stims/simple_10_A_b.gif","","","","","11","simple_similar","images/stimuli/spore_stims/simple_10_A_b.gif","middle","","","","",""
"","null","html-keyboard-response","210","639450","0.0-41.0-0.2","SS1613098632991","","","null","","","","","<p><img src= images/blank.png width =""200"" height = ""200"" style = ""float:right""></p><p><img src=images/blank.png width =""800"" height = ""200""></p>","","","","","","","","","","","",""
"","697.729999985313","sequential-stimulus-presentation","211","641060","0.0-41.0-1.2","SS1613098632991","trial","","40","800","1497.729999985313","images/stimuli/spore_stims/simple_10_B_b.gif","images/stimuli/spore_stims/simple_10_A_b.gif","","","","","11","simple_similar","images/stimuli/spore_stims/simple_10_A_b.gif","middle","","","","",""
"","null","html-keyboard-response","212","641963","0.0-41.0-0.3","SS1613098632991","","","null","","","","","<p><img src= images/blank.png width =""200"" height = ""200"" style = ""float:right""></p><p><img src=images/blank.png width =""800"" height = ""200""></p>","","","","","","","","","","","",""
"","536.9249999930616","sequential-stimulus-presentation","213","643332","0.0-41.0-1.3","SS1613098632991","trial","","40","800","1336.9249999930616","images/stimuli/spore_stims/simple_10_B_b.gif","images/stimuli/spore_stims/simple_10_A_b.gif","","","","","11","simple_similar","images/stimuli/spore_stims/simple_10_A_b.gif","middle","","","","",""
"","null","html-keyboard-response","214","644536","0.0-41.0-0.4","SS1613098632991","","","null","","","","","<p><img src= images/blank.png width =""200"" height = ""200"" style = ""float:right""></p><p><img src=images/blank.png width =""800"" height = ""200""></p>","","","","","","","","","","","",""
"","1040.5200000095647","sequential-stimulus-presentation","215","646404","0.0-41.0-1.4","SS1613098632991","trial","","40","800","1840.5200000095647","images/stimuli/spore_stims/simple_10_B_b.gif","images/stimuli/spore_stims/simple_10_A_b.gif","","","","","11","simple_similar","images/stimuli/spore_stims/simple_10_A_b.gif","middle","","","","",""
"","null","html-keyboard-response","216","647340","0.0-41.0-0.5","SS1613098632991","","","null","","","","","<p><img src= images/blank.png width =""200"" height = ""200"" style = ""float:right""></p><p><img src=images/blank.png width =""800"" height = ""200""></p>","","","","","","","","","","","",""
"","1063.8849999813829","sequential-stimulus-presentation","217","649326","0.0-41.0-1.5","SS1613098632991","trial","","40","800","1863.8849999813829","images/stimuli/spore_stims/simple_10_B_b.gif","images/stimuli/spore_stims/simple_10_A_b.gif","","","","","11","simple_similar","images/stimuli/spore_stims/simple_10_A_b.gif","middle","","","","",""
"","null","html-keyboard-response","218","650235","0.0-41.0-0.6","SS1613098632991","","","null","","","","","<p><img src= images/blank.png width =""200"" height = ""200"" style = ""float:right""></p><p><img src=images/blank.png width =""800"" height = ""200""></p>","","","","","","","","","","","",""
"","458.32000000518747","sequential-stimulus-presentation","219","651524","0.0-41.0-1.6","SS1613098632991","trial","","40","800","1258.3200000051875","images/stimuli/spore_stims/simple_10_B_b.gif","images/stimuli/spore_stims/simple_10_A_b.gif","","","","","11","simple_similar","images/stimuli/spore_stims/simple_10_A_b.gif","middle","","","","",""
"","null","html-keyboard-response","220","652657","0.0-41.0-0.7","SS1613098632991","","","null","","","","","<p><img src= images/blank.png width =""200"" height = ""200"" style = ""float:right""></p><p><img src=images/blank.png width =""800"" height = ""200""></p>","","","","","","","","","","","",""
"","5523.079999984475","sequential-stimulus-presentation","221","659023","0.0-41.0-1.7","SS1613098632991","trial","","40","800","6323.079999984475","images/stimuli/spore_stims/simple_10_B_b.gif","images/stimuli/spore_stims/simple_10_A_b.gif","","","","","11","simple_similar","images/stimuli/spore_stims/simple_10_B_b.gif","left","","","","",""
"","3006.519999995362","html-keyboard-response","222","662055","0.0-42.0","SS1613098632991","pref_question","","50","","","","","<video width ='960' height = '540' style='padding-top:8%' autoplay muted><source src='images/stimuli/wall_pref.mp4' type='video/mp4'></video>","2","middle","45%","11","","","","","","","",""
"","2031.4200000138953","sequential-stimulus-presentation","223","664915","0.0-43.0","SS1613098632991","pref_reveal","","40","800","2831.4200000138953","null","null","","","","","11","","","","background","","","",""
"","null","html-keyboard-response","224","666241","0.0-44.0-0.0","SS1613098632991","","","null","","","","","<p><img src= images/blank.png width =""200"" height = ""200"" style = ""float:right""></p><p><img src=images/blank.png width =""800"" height = ""200""></p>","","","","","","","","","","","",""
"","3040.0399999925867","sequential-stimulus-presentation","225","670114","0.0-44.0-1.0","SS1613098632991","trial","","40","800","3840.0399999925867","images/stimuli/spore_stims/simple_13_A_b.gif","images/stimuli/spore_stims/simple_13_B_b.gif","","","","","12","simple_similar","images/stimuli/spore_stims/simple_13_B_b.gif","left","","","","",""
"","null","html-keyboard-response","226","671355","0.0-44.0-0.1","SS1613098632991","","","null","","","","","<p><img src= images/blank.png width =""200"" height = ""200"" style = ""float:right""></p><p><img src=images/blank.png width =""800"" height = ""200""></p>","","","","","","","","","","","",""
"","952.1999999997206","sequential-stimulus-presentation","227","673135","0.0-44.0-1.1","SS1613098632991","trial","","40","800","1752.1999999997206","images/stimuli/spore_stims/simple_13_A_b.gif","images/stimuli/spore_stims/simple_13_B_b.gif","","","","","12","simple_similar","images/stimuli/spore_stims/simple_13_B_b.gif","left","","","","",""
"","null","html-keyboard-response","228","674197","0.0-44.0-0.2","SS1613098632991","","","null","","","","","<p><img src= images/blank.png width =""200"" height = ""200"" style = ""float:right""></p><p><img src=images/blank.png width =""800"" height = ""200""></p>","","","","","","","","","","","",""
"","585.6199999980163","sequential-stimulus-presentation","229","675614","0.0-44.0-1.2","SS1613098632991","trial","","40","800","1385.6199999980163","images/stimuli/spore_stims/simple_13_A_b.gif","images/stimuli/spore_stims/simple_13_B_b.gif","","","","","12","simple_similar","images/stimuli/spore_stims/simple_13_B_b.gif","left","","","","",""
"","null","html-keyboard-response","230","676879","0.0-44.0-0.3","SS1613098632991","","","null","","","","","<p><img src= images/blank.png width =""200"" height = ""200"" style = ""float:right""></p><p><img src=images/blank.png width =""800"" height = ""200""></p>","","","","","","","","","","","",""
"","994.860000006156","sequential-stimulus-presentation","231","678714","0.0-44.0-1.3","SS1613098632991","trial","","40","800","1794.860000006156","images/stimuli/spore_stims/simple_13_A_b.gif","images/stimuli/spore_stims/simple_13_B_b.gif","","","","","12","simple_similar","images/stimuli/spore_stims/simple_13_B_b.gif","left","","","","",""
"","null","html-keyboard-response","232","679867","0.0-44.0-0.4","SS1613098632991","","","null","","","","","<p><img src= images/blank.png width =""200"" height = ""200"" style = ""float:right""></p><p><img src=images/blank.png width =""800"" height = ""200""></p>","","","","","","","","","","","",""
"","704.9950000073295","sequential-stimulus-presentation","233","681409","0.0-44.0-1.4","SS1613098632991","trial","","40","800","1504.9950000073295","images/stimuli/spore_stims/simple_13_A_b.gif","images/stimuli/spore_stims/simple_13_B_b.gif","","","","","12","simple_similar","images/stimuli/spore_stims/simple_13_B_b.gif","left","","","","",""
"","null","html-keyboard-response","234","682488","0.0-44.0-0.5","SS1613098632991","","","null","","","","","<p><img src= images/blank.png width =""200"" height = ""200"" style = ""float:right""></p><p><img src=images/blank.png width =""800"" height = ""200""></p>","","","","","","","","","","","",""
"","829.0799999958836","sequential-stimulus-presentation","235","684145","0.0-44.0-1.5","SS1613098632991","trial","","40","800","1629.0799999958836","images/stimuli/spore_stims/simple_13_A_b.gif","images/stimuli/spore_stims/simple_13_B_b.gif","","","","","12","simple_similar","images/stimuli/spore_stims/simple_13_B_b.gif","left","","","","",""
"","null","html-keyboard-response","236","685312","0.0-44.0-0.6","SS1613098632991","","","null","","","","","<p><img src= images/blank.png width =""200"" height = ""200"" style = ""float:right""></p><p><img src=images/blank.png width =""800"" height = ""200""></p>","","","","","","","","","","","",""
"","842.9999999934807","sequential-stimulus-presentation","237","686995","0.0-44.0-1.6","SS1613098632991","trial","","40","800","1642.9999999934807","images/stimuli/spore_stims/simple_13_A_b.gif","images/stimuli/spore_stims/simple_13_B_b.gif","","","","","12","simple_similar","images/stimuli/spore_stims/simple_13_A_b.gif","middle","","","","",""
"","null","html-keyboard-response","238","688209","0.0-44.0-0.7","SS1613098632991","","","null","","","","","<p><img src= images/blank.png width =""200"" height = ""200"" style = ""float:right""></p><p><img src=images/blank.png width =""800"" height = ""200""></p>","","","","","","","","","","","",""
"","462.24999998230487","sequential-stimulus-presentation","239","689505","0.0-44.0-1.7","SS1613098632991","trial","","40","800","1262.2499999823049","images/stimuli/spore_stims/simple_13_A_b.gif","images/stimuli/spore_stims/simple_13_B_b.gif","","","","","12","simple_similar","images/stimuli/spore_stims/simple_13_B_b.gif","left","","","","",""
"","2110.0549999973737","html-keyboard-response","240","691716","0.0-45.0","SS1613098632991","pref_question","","51","","","","","<video width ='960' height = '540' style='padding-top:8%' autoplay muted><source src='images/stimuli/wall_pref.mp4' type='video/mp4'></video>","3","right","66%","12","","","","","","","",""
"","2951.195000001462","sequential-stimulus-presentation","241","695505","0.0-46.0","SS1613098632991","pref_reveal","","40","800","3751.195000001462","null","null","","","","","12","","","","novel","","","",""
"","null","html-keyboard-response","242","696723","0.0-47.0-0.0","SS1613098632991","","","null","","","","","<p><img src= images/blank.png width =""200"" height = ""200"" style = ""float:right""></p><p><img src=images/blank.png width =""800"" height = ""200""></p>","","","","","","","","","","","",""
"","4737.429999979213","sequential-stimulus-presentation","243","702285","0.0-47.0-1.0","SS1613098632991","trial","","40","800","5537.429999979213","images/stimuli/spore_stims/complex_11_B_d.gif","images/stimuli/spore_stims/complex_11_A_d.gif","","","","","13","complex_similar","images/stimuli/spore_stims/complex_11_A_d.gif","right","","","","",""
"","null","html-keyboard-response","244","703473","0.0-47.0-0.1","SS1613098632991","","","null","","","","","<p><img src= images/blank.png width =""200"" height = ""200"" style = ""float:right""></p><p><img src=images/blank.png width =""800"" height = ""200""></p>","","","","","","","","","","","",""
"","540.2950000134297","sequential-stimulus-presentation","245","704845","0.0-47.0-1.1","SS1613098632991","trial","","40","800","1340.2950000134297","images/stimuli/spore_stims/complex_11_B_d.gif","images/stimuli/spore_stims/complex_11_A_d.gif","","","","","13","complex_similar","images/stimuli/spore_stims/complex_11_A_d.gif","right","","","","",""
"","null","html-keyboard-response","246","706115","0.0-47.0-0.2","SS1613098632991","","","null","","","","","<p><img src= images/blank.png width =""200"" height = ""200"" style = ""float:right""></p><p><img src=images/blank.png width =""800"" height = ""200""></p>","","","","","","","","","","","",""
"","1090.649999998277","sequential-stimulus-presentation","247","708036","0.0-47.0-1.2","SS1613098632991","trial","","40","800","1890.649999998277","images/stimuli/spore_stims/complex_11_B_d.gif","images/stimuli/spore_stims/complex_11_A_d.gif","","","","","13","complex_similar","images/stimuli/spore_stims/complex_11_A_d.gif","right","","","","",""
"","null","html-keyboard-response","248","709092","0.0-47.0-0.3","SS1613098632991","","","null","","","","","<p><img src= images/blank.png width =""200"" height = ""200"" style = ""float:right""></p><p><img src=images/blank.png width =""800"" height = ""200""></p>","","","","","","","","","","","",""
"","896.630000002915","sequential-stimulus-presentation","249","710815","0.0-47.0-1.3","SS1613098632991","trial","","40","800","1696.630000002915","images/stimuli/spore_stims/complex_11_B_d.gif","images/stimuli/spore_stims/complex_11_A_d.gif","","","","","13","complex_similar","images/stimuli/spore_stims/complex_11_A_d.gif","right","","","","",""
"","null","html-keyboard-response","250","711945","0.0-47.0-0.4","SS1613098632991","","","null","","","","","<p><img src= images/blank.png width =""200"" height = ""200"" style = ""float:right""></p><p><img src=images/blank.png width =""800"" height = ""200""></p>","","","","","","","","","","","",""
"","545.9949999931268","sequential-stimulus-presentation","251","713324","0.0-47.0-1.4","SS1613098632991","trial","","40","800","1345.9949999931268","images/stimuli/spore_stims/complex_11_B_d.gif","images/stimuli/spore_stims/complex_11_A_d.gif","","","","","13","complex_similar","images/stimuli/spore_stims/complex_11_A_d.gif","right","","","","",""
"","null","html-keyboard-response","252","714543","0.0-47.0-0.5","SS1613098632991","","","null","","","","","<p><img src= images/blank.png width =""200"" height = ""200"" style = ""float:right""></p><p><img src=images/blank.png width =""800"" height = ""200""></p>","","","","","","","","","","","",""
"","2245.9950000047684","sequential-stimulus-presentation","253","717615","0.0-47.0-1.5","SS1613098632991","trial","","40","800","3045.9950000047684","images/stimuli/spore_stims/complex_11_B_d.gif","images/stimuli/spore_stims/complex_11_A_d.gif","","","","","13","complex_similar","images/stimuli/spore_stims/complex_11_B_d.gif","middle","","","","",""
"","null","html-keyboard-response","254","718843","0.0-47.0-0.6","SS1613098632991","","","null","","","","","<p><img src= images/blank.png width =""200"" height = ""200"" style = ""float:right""></p><p><img src=images/blank.png width =""800"" height = ""200""></p>","","","","","","","","","","","",""
"","936.7349999956787","sequential-stimulus-presentation","255","720616","0.0-47.0-1.6","SS1613098632991","trial","","40","800","1736.7349999956787","images/stimuli/spore_stims/complex_11_B_d.gif","images/stimuli/spore_stims/complex_11_A_d.gif","","","","","13","complex_similar","images/stimuli/spore_stims/complex_11_A_d.gif","right","","","","",""
"","null","html-keyboard-response","256","721699","0.0-47.0-0.7","SS1613098632991","","","null","","","","","<p><img src= images/blank.png width =""200"" height = ""200"" style = ""float:right""></p><p><img src=images/blank.png width =""800"" height = ""200""></p>","","","","","","","","","","","",""
"","1236.5299999946728","sequential-stimulus-presentation","257","723776","0.0-47.0-1.7","SS1613098632991","trial","","40","800","2036.5299999946728","images/stimuli/spore_stims/complex_11_B_d.gif","images/stimuli/spore_stims/complex_11_A_d.gif","","","","","13","complex_similar","images/stimuli/spore_stims/complex_11_A_d.gif","right","","","","",""
"","2155.979999981355","html-keyboard-response","258","726095","0.0-48.0","SS1613098632991","pref_question","","49","","","","","<video width ='960' height = '540' style='padding-top:8%' autoplay muted><source src='images/stimuli/wall_pref.mp4' type='video/mp4'></video>","1","left","25%","13","","","","","","","",""
"","3736.799999984214","sequential-stimulus-presentation","259","730668","0.0-49.0","SS1613098632991","pref_reveal","","40","800","4536.799999984214","null","null","","","","","13","","","","novel","","","",""
"","null","html-keyboard-response","260","731933","0.0-50.0-0.0","SS1613098632991","","","null","","","","","<p><img src= images/blank.png width =""200"" height = ""200"" style = ""float:right""></p><p><img src=images/blank.png width =""800"" height = ""200""></p>","","","","","","","","","","","",""
"","2440.1399999915157","sequential-stimulus-presentation","261","735206","0.0-50.0-1.0","SS1613098632991","trial","","40","800","3240.1399999915157","images/stimuli/spore_stims/complex_04_A_c.gif","images/stimuli/spore_stims/complex_03_A_d.gif","","","","","14","complex_dissimilar","images/stimuli/spore_stims/complex_03_A_d.gif","left","","","","",""
"","null","html-keyboard-response","262","736534","0.0-50.0-0.1","SS1613098632991","","","null","","","","","<p><img src= images/blank.png width =""200"" height = ""200"" style = ""float:right""></p><p><img src=images/blank.png width =""800"" height = ""200""></p>","","","","","","","","","","","",""
"","621.1749999783933","sequential-stimulus-presentation","263","737998","0.0-50.0-1.1","SS1613098632991","trial","","40","800","1421.1749999783933","images/stimuli/spore_stims/complex_04_A_c.gif","images/stimuli/spore_stims/complex_03_A_d.gif","","","","","14","complex_dissimilar","images/stimuli/spore_stims/complex_03_A_d.gif","left","","","","",""
"","null","html-keyboard-response","264","739192","0.0-50.0-0.2","SS1613098632991","","","null","","","","","<p><img src= images/blank.png width =""200"" height = ""200"" style = ""float:right""></p><p><img src=images/blank.png width =""800"" height = ""200""></p>","","","","","","","","","","","",""
"","674.8800000059418","sequential-stimulus-presentation","265","740708","0.0-50.0-1.2","SS1613098632991","trial","","40","800","1474.8800000059418","images/stimuli/spore_stims/complex_04_A_c.gif","images/stimuli/spore_stims/complex_03_A_d.gif","","","","","14","complex_dissimilar","images/stimuli/spore_stims/complex_03_A_d.gif","left","","","","",""
"","null","html-keyboard-response","266","741795","0.0-50.0-0.3","SS1613098632991","","","null","","","","","<p><img src= images/blank.png width =""200"" height = ""200"" style = ""float:right""></p><p><img src=images/blank.png width =""800"" height = ""200""></p>","","","","","","","","","","","",""
"","524.135000014212","sequential-stimulus-presentation","267","743194","0.0-50.0-1.3","SS1613098632991","trial","","40","800","1324.135000014212","images/stimuli/spore_stims/complex_04_A_c.gif","images/stimuli/spore_stims/complex_03_A_d.gif","","","","","14","complex_dissimilar","images/stimuli/spore_stims/complex_03_A_d.gif","left","","","","",""
"","null","html-keyboard-response","268","744364","0.0-50.0-0.4","SS1613098632991","","","null","","","","","<p><img src= images/blank.png width =""200"" height = ""200"" style = ""float:right""></p><p><img src=images/blank.png width =""800"" height = ""200""></p>","","","","","","","","","","","",""
"","432.60499997995794","sequential-stimulus-presentation","269","745627","0.0-50.0-1.4","SS1613098632991","trial","","40","800","1232.604999979958","images/stimuli/spore_stims/complex_04_A_c.gif","images/stimuli/spore_stims/complex_03_A_d.gif","","","","","14","complex_dissimilar","images/stimuli/spore_stims/complex_03_A_d.gif","left","","","","",""
"","null","html-keyboard-response","270","746861","0.0-50.0-0.5","SS1613098632991","","","null","","","","","<p><img src= images/blank.png width =""200"" height = ""200"" style = ""float:right""></p><p><img src=images/blank.png width =""800"" height = ""200""></p>","","","","","","","","","","","",""
"","329.48500002385117","sequential-stimulus-presentation","271","748036","0.0-50.0-1.5","SS1613098632991","trial","","40","800","1129.4850000238512","images/stimuli/spore_stims/complex_04_A_c.gif","images/stimuli/spore_stims/complex_03_A_d.gif","","","","","14","complex_dissimilar","images/stimuli/spore_stims/complex_03_A_d.gif","left","","","","",""
"","null","html-keyboard-response","272","748949","0.0-50.0-0.6","SS1613098632991","","","null","","","","","<p><img src= images/blank.png width =""200"" height = ""200"" style = ""float:right""></p><p><img src=images/blank.png width =""800"" height = ""200""></p>","","","","","","","","","","","",""
"","681.734999991022","sequential-stimulus-presentation","273","750457","0.0-50.0-1.6","SS1613098632991","trial","","40","800","1481.734999991022","images/stimuli/spore_stims/complex_04_A_c.gif","images/stimuli/spore_stims/complex_03_A_d.gif","","","","","14","complex_dissimilar","images/stimuli/spore_stims/complex_04_A_c.gif","right","","","","",""
"","null","html-keyboard-response","274","751517","0.0-50.0-0.7","SS1613098632991","","","null","","","","","<p><img src= images/blank.png width =""200"" height = ""200"" style = ""float:right""></p><p><img src=images/blank.png width =""800"" height = ""200""></p>","","","","","","","","","","","",""
"","1608.795000007376","sequential-stimulus-presentation","275","753964","0.0-50.0-1.7","SS1613098632991","trial","","40","800","2408.795000007376","images/stimuli/spore_stims/complex_04_A_c.gif","images/stimuli/spore_stims/complex_03_A_d.gif","","","","","14","complex_dissimilar","images/stimuli/spore_stims/complex_03_A_d.gif","left","","","","",""
"","2407.724999997299","html-keyboard-response","276","756386","0.0-51.0","SS1613098632991","pref_question","","50","","","","","<video width ='960' height = '540' style='padding-top:8%' autoplay muted><source src='images/stimuli/wall_pref.mp4' type='video/mp4'></video>","2","middle","45%","14","","","","","","","",""
"","12812.94999999227","sequential-stimulus-presentation","277","770029","0.0-52.0","SS1613098632991","pref_reveal","","40","800","13612.94999999227","null","null","","","","","14","","","","novel","","","",""
"","null","html-keyboard-response","278","771131","0.0-53.0-0.0","SS1613098632991","","","null","","","","","<p><img src= images/blank.png width =""200"" height = ""200"" style = ""float:right""></p><p><img src=images/blank.png width =""800"" height = ""200""></p>","","","","","","","","","","","",""
"","512.6750000054017","sequential-stimulus-presentation","279","772496","0.0-53.0-1.0","SS1613098632991","trial","","40","800","1312.6750000054017","images/stimuli/spore_stims/complex_13_B_a.gif","images/stimuli/spore_stims/complex_13_A_a.gif","","","","","15","complex_similar","images/stimuli/spore_stims/complex_13_A_a.gif","left","","","","",""
"","null","html-keyboard-response","280","773457","0.0-53.0-0.1","SS1613098632991","","","null","","","","","<p><img src= images/blank.png width =""200"" height = ""200"" style = ""float:right""></p><p><img src=images/blank.png width =""800"" height = ""200""></p>","","","","","","","","","","","",""
"","488.17999998573214","sequential-stimulus-presentation","281","774779","0.0-53.0-1.1","SS1613098632991","trial","","40","800","1288.1799999857321","images/stimuli/spore_stims/complex_13_B_a.gif","images/stimuli/spore_stims/complex_13_A_a.gif","","","","","15","complex_similar","images/stimuli/spore_stims/complex_13_A_a.gif","left","","","","",""
"","null","html-keyboard-response","282","775984","0.0-53.0-0.2","SS1613098632991","","","null","","","","","<p><img src= images/blank.png width =""200"" height = ""200"" style = ""float:right""></p><p><img src=images/blank.png width =""800"" height = ""200""></p>","","","","","","","","","","","",""
"","438.58499999623746","sequential-stimulus-presentation","283","777261","0.0-53.0-1.2","SS1613098632991","trial","","40","800","1238.5849999962375","images/stimuli/spore_stims/complex_13_B_a.gif","images/stimuli/spore_stims/complex_13_A_a.gif","","","","","15","complex_similar","images/stimuli/spore_stims/complex_13_B_a.gif","middle","","","","",""
"","null","html-keyboard-response","284","778615","0.0-53.0-0.3","SS1613098632991","","","null","","","","","<p><img src= images/blank.png width =""200"" height = ""200"" style = ""float:right""></p><p><img src=images/blank.png width =""800"" height = ""200""></p>","","","","","","","","","","","",""
"","371.7150000156835","sequential-stimulus-presentation","285","779828","0.0-53.0-1.3","SS1613098632991","trial","","40","800","1171.7150000156835","images/stimuli/spore_stims/complex_13_B_a.gif","images/stimuli/spore_stims/complex_13_A_a.gif","","","","","15","complex_similar","images/stimuli/spore_stims/complex_13_A_a.gif","left","","","","",""
"","null","html-keyboard-response","286","781027","0.0-53.0-0.4","SS1613098632991","","","null","","","","","<p><img src= images/blank.png width =""200"" height = ""200"" style = ""float:right""></p><p><img src=images/blank.png width =""800"" height = ""200""></p>","","","","","","","","","","","",""
"","648.4399999899324","sequential-stimulus-presentation","287","782498","0.0-53.0-1.4","SS1613098632991","trial","","40","800","1448.4399999899324","images/stimuli/spore_stims/complex_13_B_a.gif","images/stimuli/spore_stims/complex_13_A_a.gif","","","","","15","complex_similar","images/stimuli/spore_stims/complex_13_A_a.gif","left","","","","",""
"","null","html-keyboard-response","288","783603","0.0-53.0-0.5","SS1613098632991","","","null","","","","","<p><img src= images/blank.png width =""200"" height = ""200"" style = ""float:right""></p><p><img src=images/blank.png width =""800"" height = ""200""></p>","","","","","","","","","","","",""
"","594.3250000127591","sequential-stimulus-presentation","289","785030","0.0-53.0-1.5","SS1613098632991","trial","","40","800","1394.3250000127591","images/stimuli/spore_stims/complex_13_B_a.gif","images/stimuli/spore_stims/complex_13_A_a.gif","","","","","15","complex_similar","images/stimuli/spore_stims/complex_13_A_a.gif","left","","","","",""
"","null","html-keyboard-response","290","786240","0.0-53.0-0.6","SS1613098632991","","","null","","","","","<p><img src= images/blank.png width =""200"" height = ""200"" style = ""float:right""></p><p><img src=images/blank.png width =""800"" height = ""200""></p>","","","","","","","","","","","",""
"","312.2250000014901","sequential-stimulus-presentation","291","787388","0.0-53.0-1.6","SS1613098632991","trial","","40","800","1112.2250000014901","images/stimuli/spore_stims/complex_13_B_a.gif","images/stimuli/spore_stims/complex_13_A_a.gif","","","","","15","complex_similar","images/stimuli/spore_stims/complex_13_A_a.gif","left","","","","",""
"","null","html-keyboard-response","292","788619","0.0-53.0-0.7","SS1613098632991","","","null","","","","","<p><img src= images/blank.png width =""200"" height = ""200"" style = ""float:right""></p><p><img src=images/blank.png width =""800"" height = ""200""></p>","","","","","","","","","","","",""
"","394.05999999144115","sequential-stimulus-presentation","293","789856","0.0-53.0-1.7","SS1613098632991","trial","","40","800","1194.0599999914411","images/stimuli/spore_stims/complex_13_B_a.gif","images/stimuli/spore_stims/complex_13_A_a.gif","","","","","15","complex_similar","images/stimuli/spore_stims/complex_13_A_a.gif","left","","","","",""
"","2359.0250000124797","html-keyboard-response","294","792267","0.0-54.0","SS1613098632991","pref_question","","50","","","","","<video width ='960' height = '540' style='padding-top:8%' autoplay muted><source src='images/stimuli/wall_pref.mp4' type='video/mp4'></video>","2","middle","45%","15","","","","","","","",""
"","2070.8400000003166","sequential-stimulus-presentation","295","795188","0.0-55.0","SS1613098632991","pref_reveal","","40","800","2870.8400000003166","null","null","","","","","15","","","","deviant","","","",""
"","null","html-keyboard-response","296","796192","0.0-56.0-0.0","SS1613098632991","","","null","","","","","<p><img src= images/blank.png width =""200"" height = ""200"" style = ""float:right""></p><p><img src=images/blank.png width =""800"" height = ""200""></p>","","","","","","","","","","","",""
"","1533.8100000226405","sequential-stimulus-presentation","297","798657","0.0-56.0-1.0","SS1613098632991","trial","","40","800","2333.8100000226405","images/stimuli/spore_stims/simple_18_A_a.gif","images/stimuli/spore_stims/simple_15_A_d.gif","","","","","16","simple_dissimilar","images/stimuli/spore_stims/simple_15_A_d.gif","middle","","","","",""
"","null","html-keyboard-response","298","799961","0.0-56.0-0.1","SS1613098632991","","","null","","","","","<p><img src= images/blank.png width =""200"" height = ""200"" style = ""float:right""></p><p><img src=images/blank.png width =""800"" height = ""200""></p>","","","","","","","","","","","",""
"","534.0750000032131","sequential-stimulus-presentation","299","801335","0.0-56.0-1.1","SS1613098632991","trial","","40","800","1334.075000003213","images/stimuli/spore_stims/simple_18_A_a.gif","images/stimuli/spore_stims/simple_15_A_d.gif","","","","","16","simple_dissimilar","images/stimuli/spore_stims/simple_15_A_d.gif","middle","","","","",""
"","null","html-keyboard-response","300","802339","0.0-56.0-0.2","SS1613098632991","","","null","","","","","<p><img src= images/blank.png width =""200"" height = ""200"" style = ""float:right""></p><p><img src=images/blank.png width =""800"" height = ""200""></p>","","","","","","","","","","","",""
"","501.34499999694526","sequential-stimulus-presentation","301","803676","0.0-56.0-1.2","SS1613098632991","trial","","40","800","1301.3449999969453","images/stimuli/spore_stims/simple_18_A_a.gif","images/stimuli/spore_stims/simple_15_A_d.gif","","","","","16","simple_dissimilar","images/stimuli/spore_stims/simple_15_A_d.gif","middle","","","","",""
"","null","html-keyboard-response","302","804946","0.0-56.0-0.3","SS1613098632991","","","null","","","","","<p><img src= images/blank.png width =""200"" height = ""200"" style = ""float:right""></p><p><img src=images/blank.png width =""800"" height = ""200""></p>","","","","","","","","","","","",""
"","577.2750000178348","sequential-stimulus-presentation","303","806368","0.0-56.0-1.3","SS1613098632991","trial","","40","800","1377.2750000178348","images/stimuli/spore_stims/simple_18_A_a.gif","images/stimuli/spore_stims/simple_15_A_d.gif","","","","","16","simple_dissimilar","images/stimuli/spore_stims/simple_15_A_d.gif","middle","","","","",""
"","null","html-keyboard-response","304","807357","0.0-56.0-0.4","SS1613098632991","","","null","","","","","<p><img src= images/blank.png width =""200"" height = ""200"" style = ""float:right""></p><p><img src=images/blank.png width =""800"" height = ""200""></p>","","","","","","","","","","","",""
"","1268.7350000196602","sequential-stimulus-presentation","305","809537","0.0-56.0-1.4","SS1613098632991","trial","","40","800","2068.73500001966","images/stimuli/spore_stims/simple_18_A_a.gif","images/stimuli/spore_stims/simple_15_A_d.gif","","","","","16","simple_dissimilar","images/stimuli/spore_stims/simple_18_A_a.gif","left","","","","",""
"","null","html-keyboard-response","306","810680","0.0-56.0-0.5","SS1613098632991","","","null","","","","","<p><img src= images/blank.png width =""200"" height = ""200"" style = ""float:right""></p><p><img src=images/blank.png width =""800"" height = ""200""></p>","","","","","","","","","","","",""
"","794.03000001912","sequential-stimulus-presentation","307","812307","0.0-56.0-1.5","SS1613098632991","trial","","40","800","1594.03000001912","images/stimuli/spore_stims/simple_18_A_a.gif","images/stimuli/spore_stims/simple_15_A_d.gif","","","","","16","simple_dissimilar","images/stimuli/spore_stims/simple_15_A_d.gif","middle","","","","",""
"","null","html-keyboard-response","308","813530","0.0-56.0-0.6","SS1613098632991","","","null","","","","","<p><img src= images/blank.png width =""200"" height = ""200"" style = ""float:right""></p><p><img src=images/blank.png width =""800"" height = ""200""></p>","","","","","","","","","","","",""
"","641.5050000068732","sequential-stimulus-presentation","309","814998","0.0-56.0-1.6","SS1613098632991","trial","","40","800","1441.5050000068732","images/stimuli/spore_stims/simple_18_A_a.gif","images/stimuli/spore_stims/simple_15_A_d.gif","","","","","16","simple_dissimilar","images/stimuli/spore_stims/simple_15_A_d.gif","middle","","","","",""
"","null","html-keyboard-response","310","816316","0.0-56.0-0.7","SS1613098632991","","","null","","","","","<p><img src= images/blank.png width =""200"" height = ""200"" style = ""float:right""></p><p><img src=images/blank.png width =""800"" height = ""200""></p>","","","","","","","","","","","",""
"","389.73499997518957","sequential-stimulus-presentation","311","817539","0.0-56.0-1.7","SS1613098632991","trial","","40","800","1189.7349999751896","images/stimuli/spore_stims/simple_18_A_a.gif","images/stimuli/spore_stims/simple_15_A_d.gif","","","","","16","simple_dissimilar","images/stimuli/spore_stims/simple_15_A_d.gif","middle","","","","",""
"","1860.1699999999255","html-keyboard-response","312","819538","0.0-57.0","SS1613098632991","pref_question","","51","","","","","<video width ='960' height = '540' style='padding-top:8%' autoplay muted><source src='images/stimuli/wall_pref.mp4' type='video/mp4'></video>","3","right","66%","16","","","","","","","",""
