"view_history","rt","trial_type","trial_index","time_elapsed","internal_node_id","subject","stimulus_type","trial_stimulus","key_press","minimum_viewing_duration","trial_looking_time","block_deviant","block_background","stimulus","wall_pref","location","location_percent","block_number","block_type","stimulus_displayed","position_displayed","stim_type_selected","responses","question_order","stimulus_left","stimulus_right"
"[{""page_index"":0,""viewing_time"":2609.999999869615}]","2611.999999731779","instructions","0","2613","0.0-0.0","SS1613140495340","","","","","","","","","","","","","","","","","","","",""
"[{""page_index"":0,""viewing_time"":2052.000000141561},{""page_index"":1,""viewing_time"":3594.9999997392297}]","5646.999999880791","instructions","1","10265","0.0-1.0","SS1613140495340","instructions","","","","","","","","","","","","","","","","","","",""
"","7930.99999986589","sequential-stimulus-presentation","2","19007","0.0-2.0","SS1613140495340","","","40","800","8730.99999986589","null","null","","","","","","","","","","","","",""
"","416.99999989941716","sequential-stimulus-presentation","3","20246","0.0-3.0","SS1613140495340","","","40","800","1216.9999998994172","null","null","","","","","","","","","","","","",""
"[{""page_index"":0,""viewing_time"":1762.9999998025596}]","1762.9999998025596","instructions","4","22010","0.0-4.0","SS1613140495340","instructions","","","","","","","","","","","","","","","","","","",""
"","9709.000000264496","html-keyboard-response","5","31724","0.0-5.0","SS1613140495340","instructions","","51","","","","","<video width ='960' height = '540' autoplay muted><source src='images/stimuli/wall_pref.mp4' type='video/mp4'></video>","3","right","66%","","","","","","","","",""
"","5621.0000002756715","sequential-stimulus-presentation","6","38202","0.0-6.0","SS1613140495340","pref_reveal","","40","800","6421.0000002756715","null","null","","","","","","","","","","","","",""
"[{""page_index"":0,""viewing_time"":1675.0000002793968},{""page_index"":1,""viewing_time"":1356.9999998435378},{""page_index"":2,""viewing_time"":1865.999999921769},{""page_index"":3,""viewing_time"":1427.9999998398125}]","6327.000000048429","instructions","7","44531","0.0-7.0","SS1613140495340","instructions","","","","","","","","","","","","","","","","","","",""
"","null","html-keyboard-response","8","45602","0.0-8.0-0.0","SS1613140495340","","","null","","","","","<p><img src= images/blank.png width =""200"" height = ""200"" style = ""float:right""></p><p><img src=images/blank.png width =""800"" height = ""200""></p>","","","","","","","","","","","",""
"","6089.000000152737","sequential-stimulus-presentation","9","52539","0.0-8.0-1.0","SS1613140495340","trial","","40","800","6889.000000152737","images/stimuli/spore_stims/complex_17_A_a.gif","images/stimuli/spore_stims/complex_17_B_a.gif","","","","","0","complex_similar","images/stimuli/spore_stims/complex_17_B_a.gif","right","","","","",""
"","null","html-keyboard-response","10","53645","0.0-8.0-0.1","SS1613140495340","","","null","","","","","<p><img src= images/blank.png width =""200"" height = ""200"" style = ""float:right""></p><p><img src=images/blank.png width =""800"" height = ""200""></p>","","","","","","","","","","","",""
"","4532.000000122935","sequential-stimulus-presentation","11","59047","0.0-8.0-1.1","SS1613140495340","trial","","40","800","5332.000000122935","images/stimuli/spore_stims/complex_17_A_a.gif","images/stimuli/spore_stims/complex_17_B_a.gif","","","","","0","complex_similar","images/stimuli/spore_stims/complex_17_B_a.gif","right","","","","",""
"","null","html-keyboard-response","12","60331","0.0-8.0-0.2","SS1613140495340","","","null","","","","","<p><img src= images/blank.png width =""200"" height = ""200"" style = ""float:right""></p><p><img src=images/blank.png width =""800"" height = ""200""></p>","","","","","","","","","","","",""
"","2822.999999858439","sequential-stimulus-presentation","13","64018","0.0-8.0-1.2","SS1613140495340","trial","","40","800","3622.999999858439","images/stimuli/spore_stims/complex_17_A_a.gif","images/stimuli/spore_stims/complex_17_B_a.gif","","","","","0","complex_similar","images/stimuli/spore_stims/complex_17_B_a.gif","right","","","","",""
"","null","html-keyboard-response","14","65149","0.0-8.0-0.3","SS1613140495340","","","null","","","","","<p><img src= images/blank.png width =""200"" height = ""200"" style = ""float:right""></p><p><img src=images/blank.png width =""800"" height = ""200""></p>","","","","","","","","","","","",""
"","12254.999999888241","sequential-stimulus-presentation","15","78239","0.0-8.0-1.3","SS1613140495340","trial","","40","800","13054.999999888241","images/stimuli/spore_stims/complex_17_A_a.gif","images/stimuli/spore_stims/complex_17_B_a.gif","","","","","0","complex_similar","images/stimuli/spore_stims/complex_17_B_a.gif","right","","","","",""
"","null","html-keyboard-response","16","79311","0.0-8.0-0.4","SS1613140495340","","","null","","","","","<p><img src= images/blank.png width =""200"" height = ""200"" style = ""float:right""></p><p><img src=images/blank.png width =""800"" height = ""200""></p>","","","","","","","","","","","",""
"","1092.9999998770654","sequential-stimulus-presentation","17","81248","0.0-8.0-1.4","SS1613140495340","trial","","40","800","1892.9999998770654","images/stimuli/spore_stims/complex_17_A_a.gif","images/stimuli/spore_stims/complex_17_B_a.gif","","","","","0","complex_similar","images/stimuli/spore_stims/complex_17_B_a.gif","right","","","","",""
"","null","html-keyboard-response","18","82327","0.0-8.0-0.5","SS1613140495340","","","null","","","","","<p><img src= images/blank.png width =""200"" height = ""200"" style = ""float:right""></p><p><img src=images/blank.png width =""800"" height = ""200""></p>","","","","","","","","","","","",""
"","347.0000000670552","sequential-stimulus-presentation","19","83515","0.0-8.0-1.5","SS1613140495340","trial","","40","800","1147.0000000670552","images/stimuli/spore_stims/complex_17_A_a.gif","images/stimuli/spore_stims/complex_17_B_a.gif","","","","","0","complex_similar","images/stimuli/spore_stims/complex_17_A_a.gif","middle","","","","",""
"","null","html-keyboard-response","20","84766","0.0-8.0-0.6","SS1613140495340","","","null","","","","","<p><img src= images/blank.png width =""200"" height = ""200"" style = ""float:right""></p><p><img src=images/blank.png width =""800"" height = ""200""></p>","","","","","","","","","","","",""
"","64.99999994412065","sequential-stimulus-presentation","21","85764","0.0-8.0-1.6","SS1613140495340","trial","","40","800","864.9999999441206","images/stimuli/spore_stims/complex_17_A_a.gif","images/stimuli/spore_stims/complex_17_B_a.gif","","","","","0","complex_similar","images/stimuli/spore_stims/complex_17_B_a.gif","right","","","","",""
"","null","html-keyboard-response","22","86895","0.0-8.0-0.7","SS1613140495340","","","null","","","","","<p><img src= images/blank.png width =""200"" height = ""200"" style = ""float:right""></p><p><img src=images/blank.png width =""800"" height = ""200""></p>","","","","","","","","","","","",""
"","181.00000033155084","sequential-stimulus-presentation","23","87916","0.0-8.0-1.7","SS1613140495340","trial","","40","800","981.0000003315508","images/stimuli/spore_stims/complex_17_A_a.gif","images/stimuli/spore_stims/complex_17_B_a.gif","","","","","0","complex_similar","images/stimuli/spore_stims/complex_17_B_a.gif","right","","","","",""
"","2822.999999858439","html-keyboard-response","24","90744","0.0-9.0","SS1613140495340","pref_question","","51","","","","","<video width ='960' height = '540' style='padding-top:8%' autoplay muted><source src='images/stimuli/wall_pref.mp4' type='video/mp4'></video>","3","right","66%","0","","","","","","","",""
"","1327.9999997466803","sequential-stimulus-presentation","25","92903","0.0-10.0","SS1613140495340","pref_reveal","","40","800","2127.9999997466803","null","null","","","","","0","","","","background","","","",""
"","null","html-keyboard-response","26","94196","0.0-11.0-0.0","SS1613140495340","","","null","","","","","<p><img src= images/blank.png width =""200"" height = ""200"" style = ""float:right""></p><p><img src=images/blank.png width =""800"" height = ""200""></p>","","","","","","","","","","","",""
"","851.000000257045","sequential-stimulus-presentation","27","95872","0.0-11.0-1.0","SS1613140495340","trial","","40","800","1651.000000257045","images/stimuli/spore_stims/complex_10_B_d.gif","images/stimuli/spore_stims/complex_10_A_d.gif","","","","","1","complex_similar","images/stimuli/spore_stims/complex_10_A_d.gif","right","","","","",""
"","null","html-keyboard-response","28","96897","0.0-11.0-0.1","SS1613140495340","","","null","","","","","<p><img src= images/blank.png width =""200"" height = ""200"" style = ""float:right""></p><p><img src=images/blank.png width =""800"" height = ""200""></p>","","","","","","","","","","","",""
"","119.99999964609742","sequential-stimulus-presentation","29","97886","0.0-11.0-1.1","SS1613140495340","trial","","40","800","919.9999996460974","images/stimuli/spore_stims/complex_10_B_d.gif","images/stimuli/spore_stims/complex_10_A_d.gif","","","","","1","complex_similar","images/stimuli/spore_stims/complex_10_A_d.gif","right","","","","",""
"","null","html-keyboard-response","30","99123","0.0-11.0-0.2","SS1613140495340","","","null","","","","","<p><img src= images/blank.png width =""200"" height = ""200"" style = ""float:right""></p><p><img src=images/blank.png width =""800"" height = ""200""></p>","","","","","","","","","","","",""
"","118.00000024959445","sequential-stimulus-presentation","31","100098","0.0-11.0-1.2","SS1613140495340","trial","","40","800","918.0000002495944","images/stimuli/spore_stims/complex_10_B_d.gif","images/stimuli/spore_stims/complex_10_A_d.gif","","","","","1","complex_similar","images/stimuli/spore_stims/complex_10_A_d.gif","right","","","","",""
"","null","html-keyboard-response","32","101177","0.0-11.0-0.3","SS1613140495340","","","null","","","","","<p><img src= images/blank.png width =""200"" height = ""200"" style = ""float:right""></p><p><img src=images/blank.png width =""800"" height = ""200""></p>","","","","","","","","","","","",""
"","2326.0000003501773","sequential-stimulus-presentation","33","104337","0.0-11.0-1.3","SS1613140495340","trial","","40","800","3126.0000003501773","images/stimuli/spore_stims/complex_10_B_d.gif","images/stimuli/spore_stims/complex_10_A_d.gif","","","","","1","complex_similar","images/stimuli/spore_stims/complex_10_A_d.gif","right","","","","",""
"","null","html-keyboard-response","34","105263","0.0-11.0-0.4","SS1613140495340","","","null","","","","","<p><img src= images/blank.png width =""200"" height = ""200"" style = ""float:right""></p><p><img src=images/blank.png width =""800"" height = ""200""></p>","","","","","","","","","","","",""
"","1870.0000001117587","sequential-stimulus-presentation","35","107947","0.0-11.0-1.4","SS1613140495340","trial","","40","800","2670.0000001117587","images/stimuli/spore_stims/complex_10_B_d.gif","images/stimuli/spore_stims/complex_10_A_d.gif","","","","","1","complex_similar","images/stimuli/spore_stims/complex_10_B_d.gif","left","","","","",""
"","null","html-keyboard-response","36","109205","0.0-11.0-0.5","SS1613140495340","","","null","","","","","<p><img src= images/blank.png width =""200"" height = ""200"" style = ""float:right""></p><p><img src=images/blank.png width =""800"" height = ""200""></p>","","","","","","","","","","","",""
"","817.0000002719462","sequential-stimulus-presentation","37","110894","0.0-11.0-1.5","SS1613140495340","trial","","40","800","1617.0000002719462","images/stimuli/spore_stims/complex_10_B_d.gif","images/stimuli/spore_stims/complex_10_A_d.gif","","","","","1","complex_similar","images/stimuli/spore_stims/complex_10_A_d.gif","right","","","","",""
"","null","html-keyboard-response","38","111832","0.0-11.0-0.6","SS1613140495340","","","null","","","","","<p><img src= images/blank.png width =""200"" height = ""200"" style = ""float:right""></p><p><img src=images/blank.png width =""800"" height = ""200""></p>","","","","","","","","","","","",""
"","114.00000005960464","sequential-stimulus-presentation","39","112787","0.0-11.0-1.6","SS1613140495340","trial","","40","800","914.0000000596046","images/stimuli/spore_stims/complex_10_B_d.gif","images/stimuli/spore_stims/complex_10_A_d.gif","","","","","1","complex_similar","images/stimuli/spore_stims/complex_10_A_d.gif","right","","","","",""
"","null","html-keyboard-response","40","113842","0.0-11.0-0.7","SS1613140495340","","","null","","","","","<p><img src= images/blank.png width =""200"" height = ""200"" style = ""float:right""></p><p><img src=images/blank.png width =""800"" height = ""200""></p>","","","","","","","","","","","",""
"","865.9999999217689","sequential-stimulus-presentation","41","115688","0.0-11.0-1.7","SS1613140495340","trial","","40","800","1665.999999921769","images/stimuli/spore_stims/complex_10_B_d.gif","images/stimuli/spore_stims/complex_10_A_d.gif","","","","","1","complex_similar","images/stimuli/spore_stims/complex_10_A_d.gif","right","","","","",""
"","5897.000000346452","html-keyboard-response","42","121590","0.0-12.0","SS1613140495340","pref_question","","51","","","","","<video width ='960' height = '540' style='padding-top:8%' autoplay muted><source src='images/stimuli/wall_pref.mp4' type='video/mp4'></video>","3","right","66%","1","","","","","","","",""
"","74.99999972060323","sequential-stimulus-presentation","43","122525","0.0-13.0","SS1613140495340","pref_reveal","","40","800","874.9999997206032","null","null","","","","","1","","","","background","","","",""
"","null","html-keyboard-response","44","123352","0.0-14.0-0.0","SS1613140495340","","","null","","","","","<p><img src= images/blank.png width =""200"" height = ""200"" style = ""float:right""></p><p><img src=images/blank.png width =""800"" height = ""200""></p>","","","","","","","","","","","",""
"","1033.9999999850988","sequential-stimulus-presentation","45","125205","0.0-14.0-1.0","SS1613140495340","trial","","40","800","1833.9999999850988","images/stimuli/spore_stims/simple_20_A_b.gif","images/stimuli/spore_stims/simple_07_A_d.gif","","","","","2","simple_dissimilar","images/stimuli/spore_stims/simple_07_A_d.gif","middle","","","","",""
"","null","html-keyboard-response","46","126286","0.0-14.0-0.1","SS1613140495340","","","null","","","","","<p><img src= images/blank.png width =""200"" height = ""200"" style = ""float:right""></p><p><img src=images/blank.png width =""800"" height = ""200""></p>","","","","","","","","","","","",""
"","1.0000001639127731","sequential-stimulus-presentation","47","127127","0.0-14.0-1.1","SS1613140495340","trial","","40","800","801.0000001639128","images/stimuli/spore_stims/simple_20_A_b.gif","images/stimuli/spore_stims/simple_07_A_d.gif","","","","","2","simple_dissimilar","images/stimuli/spore_stims/simple_07_A_d.gif","middle","","","","",""
"","null","html-keyboard-response","48","128446","0.0-14.0-0.2","SS1613140495340","","","null","","","","","<p><img src= images/blank.png width =""200"" height = ""200"" style = ""float:right""></p><p><img src=images/blank.png width =""800"" height = ""200""></p>","","","","","","","","","","","",""
"","0.9999996982514858","sequential-stimulus-presentation","49","129293","0.0-14.0-1.2","SS1613140495340","trial","","40","800","800.9999996982515","images/stimuli/spore_stims/simple_20_A_b.gif","images/stimuli/spore_stims/simple_07_A_d.gif","","","","","2","simple_dissimilar","images/stimuli/spore_stims/simple_07_A_d.gif","middle","","","","",""
"","null","html-keyboard-response","50","130341","0.0-14.0-0.3","SS1613140495340","","","null","","","","","<p><img src= images/blank.png width =""200"" height = ""200"" style = ""float:right""></p><p><img src=images/blank.png width =""800"" height = ""200""></p>","","","","","","","","","","","",""
"","469.0000000409782","sequential-stimulus-presentation","51","131670","0.0-14.0-1.3","SS1613140495340","trial","","40","800","1269.0000000409782","images/stimuli/spore_stims/simple_20_A_b.gif","images/stimuli/spore_stims/simple_07_A_d.gif","","","","","2","simple_dissimilar","images/stimuli/spore_stims/simple_07_A_d.gif","middle","","","","",""
"","null","html-keyboard-response","52","132560","0.0-14.0-0.4","SS1613140495340","","","null","","","","","<p><img src= images/blank.png width =""200"" height = ""200"" style = ""float:right""></p><p><img src=images/blank.png width =""800"" height = ""200""></p>","","","","","","","","","","","",""
"","155.00000026077032","sequential-stimulus-presentation","53","133547","0.0-14.0-1.4","SS1613140495340","trial","","40","800","955.0000002607703","images/stimuli/spore_stims/simple_20_A_b.gif","images/stimuli/spore_stims/simple_07_A_d.gif","","","","","2","simple_dissimilar","images/stimuli/spore_stims/simple_07_A_d.gif","middle","","","","",""
"","null","html-keyboard-response","54","134794","0.0-14.0-0.5","SS1613140495340","","","null","","","","","<p><img src= images/blank.png width =""200"" height = ""200"" style = ""float:right""></p><p><img src=images/blank.png width =""800"" height = ""200""></p>","","","","","","","","","","","",""
"","188.0000000819564","sequential-stimulus-presentation","55","135890","0.0-14.0-1.5","SS1613140495340","trial","","40","800","988.0000000819564","images/stimuli/spore_stims/simple_20_A_b.gif","images/stimuli/spore_stims/simple_07_A_d.gif","","","","","2","simple_dissimilar","images/stimuli/spore_stims/simple_07_A_d.gif","middle","","","","",""
"","null","html-keyboard-response","56","136947","0.0-14.0-0.6","SS1613140495340","","","null","","","","","<p><img src= images/blank.png width =""200"" height = ""200"" style = ""float:right""></p><p><img src=images/blank.png width =""800"" height = ""200""></p>","","","","","","","","","","","",""
"","46.99999978765845","sequential-stimulus-presentation","57","137856","0.0-14.0-1.6","SS1613140495340","trial","","40","800","846.9999997876585","images/stimuli/spore_stims/simple_20_A_b.gif","images/stimuli/spore_stims/simple_07_A_d.gif","","","","","2","simple_dissimilar","images/stimuli/spore_stims/simple_20_A_b.gif","right","","","","",""
"","null","html-keyboard-response","58","138934","0.0-14.0-0.7","SS1613140495340","","","null","","","","","<p><img src= images/blank.png width =""200"" height = ""200"" style = ""float:right""></p><p><img src=images/blank.png width =""800"" height = ""200""></p>","","","","","","","","","","","",""
"","0.9999996982514858","sequential-stimulus-presentation","59","139764","0.0-14.0-1.7","SS1613140495340","trial","","40","800","800.9999996982515","images/stimuli/spore_stims/simple_20_A_b.gif","images/stimuli/spore_stims/simple_07_A_d.gif","","","","","2","simple_dissimilar","images/stimuli/spore_stims/simple_07_A_d.gif","middle","","","","",""
"","2100.0000000931323","html-keyboard-response","60","141902","0.0-15.0","SS1613140495340","pref_question","","50","","","","","<video width ='960' height = '540' style='padding-top:8%' autoplay muted><source src='images/stimuli/wall_pref.mp4' type='video/mp4'></video>","2","middle","45%","2","","","","","","","",""
"","174.99999981373549","sequential-stimulus-presentation","61","142909","0.0-16.0","SS1613140495340","pref_reveal","","40","800","974.9999998137355","null","null","","","","","2","","","","background","","","",""
"","null","html-keyboard-response","62","143841","0.0-17.0-0.0","SS1613140495340","","","null","","","","","<p><img src= images/blank.png width =""200"" height = ""200"" style = ""float:right""></p><p><img src=images/blank.png width =""800"" height = ""200""></p>","","","","","","","","","","","",""
"","33.99999998509884","sequential-stimulus-presentation","63","144766","0.0-17.0-1.0","SS1613140495340","trial","","40","800","833.9999999850988","images/stimuli/spore_stims/simple_19_B_c.gif","images/stimuli/spore_stims/simple_02_A_b.gif","","","","","3","simple_dissimilar","images/stimuli/spore_stims/simple_02_A_b.gif","middle","","","","",""
"","null","html-keyboard-response","64","146019","0.0-17.0-0.1","SS1613140495340","","","null","","","","","<p><img src= images/blank.png width =""200"" height = ""200"" style = ""float:right""></p><p><img src=images/blank.png width =""800"" height = ""200""></p>","","","","","","","","","","","",""
"","356.9999998435378","sequential-stimulus-presentation","65","147231","0.0-17.0-1.1","SS1613140495340","trial","","40","800","1156.9999998435378","images/stimuli/spore_stims/simple_19_B_c.gif","images/stimuli/spore_stims/simple_02_A_b.gif","","","","","3","simple_dissimilar","images/stimuli/spore_stims/simple_02_A_b.gif","middle","","","","",""
"","null","html-keyboard-response","66","148230","0.0-17.0-0.2","SS1613140495340","","","null","","","","","<p><img src= images/blank.png width =""200"" height = ""200"" style = ""float:right""></p><p><img src=images/blank.png width =""800"" height = ""200""></p>","","","","","","","","","","","",""
"","430.00000016763806","sequential-stimulus-presentation","67","149473","0.0-17.0-1.2","SS1613140495340","trial","","40","800","1230.000000167638","images/stimuli/spore_stims/simple_19_B_c.gif","images/stimuli/spore_stims/simple_02_A_b.gif","","","","","3","simple_dissimilar","images/stimuli/spore_stims/simple_19_B_c.gif","left","","","","",""
"","null","html-keyboard-response","68","150722","0.0-17.0-0.3","SS1613140495340","","","null","","","","","<p><img src= images/blank.png width =""200"" height = ""200"" style = ""float:right""></p><p><img src=images/blank.png width =""800"" height = ""200""></p>","","","","","","","","","","","",""
"","2152.999999932945","sequential-stimulus-presentation","69","153723","0.0-17.0-1.3","SS1613140495340","trial","","40","800","2952.999999932945","images/stimuli/spore_stims/simple_19_B_c.gif","images/stimuli/spore_stims/simple_02_A_b.gif","","","","","3","simple_dissimilar","images/stimuli/spore_stims/simple_02_A_b.gif","middle","","","","",""
"","null","html-keyboard-response","70","154807","0.0-17.0-0.4","SS1613140495340","","","null","","","","","<p><img src= images/blank.png width =""200"" height = ""200"" style = ""float:right""></p><p><img src=images/blank.png width =""800"" height = ""200""></p>","","","","","","","","","","","",""
"","726.9999999552965","sequential-stimulus-presentation","71","156354","0.0-17.0-1.4","SS1613140495340","trial","","40","800","1526.9999999552965","images/stimuli/spore_stims/simple_19_B_c.gif","images/stimuli/spore_stims/simple_02_A_b.gif","","","","","3","simple_dissimilar","images/stimuli/spore_stims/simple_02_A_b.gif","middle","","","","",""
"","null","html-keyboard-response","72","157329","0.0-17.0-0.5","SS1613140495340","","","null","","","","","<p><img src= images/blank.png width =""200"" height = ""200"" style = ""float:right""></p><p><img src=images/blank.png width =""800"" height = ""200""></p>","","","","","","","","","","","",""
"","146.9999998807907","sequential-stimulus-presentation","73","158290","0.0-17.0-1.5","SS1613140495340","trial","","40","800","946.9999998807907","images/stimuli/spore_stims/simple_19_B_c.gif","images/stimuli/spore_stims/simple_02_A_b.gif","","","","","3","simple_dissimilar","images/stimuli/spore_stims/simple_02_A_b.gif","middle","","","","",""
"","null","html-keyboard-response","74","159492","0.0-17.0-0.6","SS1613140495340","","","null","","","","","<p><img src= images/blank.png width =""200"" height = ""200"" style = ""float:right""></p><p><img src=images/blank.png width =""800"" height = ""200""></p>","","","","","","","","","","","",""
"","1154.0000000968575","sequential-stimulus-presentation","75","161507","0.0-17.0-1.6","SS1613140495340","trial","","40","800","1954.0000000968575","images/stimuli/spore_stims/simple_19_B_c.gif","images/stimuli/spore_stims/simple_02_A_b.gif","","","","","3","simple_dissimilar","images/stimuli/spore_stims/simple_02_A_b.gif","middle","","","","",""
"","null","html-keyboard-response","76","162531","0.0-17.0-0.7","SS1613140495340","","","null","","","","","<p><img src= images/blank.png width =""200"" height = ""200"" style = ""float:right""></p><p><img src=images/blank.png width =""800"" height = ""200""></p>","","","","","","","","","","","",""
"","89.99999985098839","sequential-stimulus-presentation","77","163449","0.0-17.0-1.7","SS1613140495340","trial","","40","800","889.9999998509884","images/stimuli/spore_stims/simple_19_B_c.gif","images/stimuli/spore_stims/simple_02_A_b.gif","","","","","3","simple_dissimilar","images/stimuli/spore_stims/simple_02_A_b.gif","middle","","","","",""
"","2529.999999795109","html-keyboard-response","78","166015","0.0-18.0","SS1613140495340","pref_question","","49","","","","","<video width ='960' height = '540' style='padding-top:8%' autoplay muted><source src='images/stimuli/wall_pref.mp4' type='video/mp4'></video>","1","left","25%","3","","","","","","","",""
"","723.000000230968","sequential-stimulus-presentation","79","167553","0.0-19.0","SS1613140495340","pref_reveal","","40","800","1523.000000230968","null","null","","","","","3","","","","deviant","","","",""
"","null","html-keyboard-response","80","168711","0.0-20.0-0.0","SS1613140495340","","","null","","","","","<p><img src= images/blank.png width =""200"" height = ""200"" style = ""float:right""></p><p><img src=images/blank.png width =""800"" height = ""200""></p>","","","","","","","","","","","",""
"","2421.000000089407","sequential-stimulus-presentation","81","171949","0.0-20.0-1.0","SS1613140495340","trial","","40","800","3221.000000089407","images/stimuli/spore_stims/simple_14_B_b.gif","images/stimuli/spore_stims/simple_14_A_b.gif","","","","","4","simple_similar","images/stimuli/spore_stims/simple_14_A_b.gif","left","","","","",""
"","null","html-keyboard-response","82","172864","0.0-20.0-0.1","SS1613140495340","","","null","","","","","<p><img src= images/blank.png width =""200"" height = ""200"" style = ""float:right""></p><p><img src=images/blank.png width =""800"" height = ""200""></p>","","","","","","","","","","","",""
"","1069.0000001341105","sequential-stimulus-presentation","83","174793","0.0-20.0-1.1","SS1613140495340","trial","","40","800","1869.0000001341105","images/stimuli/spore_stims/simple_14_B_b.gif","images/stimuli/spore_stims/simple_14_A_b.gif","","","","","4","simple_similar","images/stimuli/spore_stims/simple_14_A_b.gif","left","","","","",""
"","null","html-keyboard-response","84","175705","0.0-20.0-0.2","SS1613140495340","","","null","","","","","<p><img src= images/blank.png width =""200"" height = ""200"" style = ""float:right""></p><p><img src=images/blank.png width =""800"" height = ""200""></p>","","","","","","","","","","","",""
"","430.00000016763806","sequential-stimulus-presentation","85","176976","0.0-20.0-1.2","SS1613140495340","trial","","40","800","1230.000000167638","images/stimuli/spore_stims/simple_14_B_b.gif","images/stimuli/spore_stims/simple_14_A_b.gif","","","","","4","simple_similar","images/stimuli/spore_stims/simple_14_A_b.gif","left","","","","",""
"","null","html-keyboard-response","86","178099","0.0-20.0-0.3","SS1613140495340","","","null","","","","","<p><img src= images/blank.png width =""200"" height = ""200"" style = ""float:right""></p><p><img src=images/blank.png width =""800"" height = ""200""></p>","","","","","","","","","","","",""
"","374.0000003017485","sequential-stimulus-presentation","87","179339","0.0-20.0-1.3","SS1613140495340","trial","","40","800","1174.0000003017485","images/stimuli/spore_stims/simple_14_B_b.gif","images/stimuli/spore_stims/simple_14_A_b.gif","","","","","4","simple_similar","images/stimuli/spore_stims/simple_14_A_b.gif","left","","","","",""
"","null","html-keyboard-response","88","180531","0.0-20.0-0.4","SS1613140495340","","","null","","","","","<p><img src= images/blank.png width =""200"" height = ""200"" style = ""float:right""></p><p><img src=images/blank.png width =""800"" height = ""200""></p>","","","","","","","","","","","",""
"","1402.9999999329448","sequential-stimulus-presentation","89","182767","0.0-20.0-1.4","SS1613140495340","trial","","40","800","2202.999999932945","images/stimuli/spore_stims/simple_14_B_b.gif","images/stimuli/spore_stims/simple_14_A_b.gif","","","","","4","simple_similar","images/stimuli/spore_stims/simple_14_A_b.gif","left","","","","",""
"","null","html-keyboard-response","90","184064","0.0-20.0-0.5","SS1613140495340","","","null","","","","","<p><img src= images/blank.png width =""200"" height = ""200"" style = ""float:right""></p><p><img src=images/blank.png width =""800"" height = ""200""></p>","","","","","","","","","","","",""
"","1966.0000000149012","sequential-stimulus-presentation","91","186856","0.0-20.0-1.5","SS1613140495340","trial","","40","800","2766.000000014901","images/stimuli/spore_stims/simple_14_B_b.gif","images/stimuli/spore_stims/simple_14_A_b.gif","","","","","4","simple_similar","images/stimuli/spore_stims/simple_14_B_b.gif","middle","","","","",""
"","null","html-keyboard-response","92","187724","0.0-20.0-0.6","SS1613140495340","","","null","","","","","<p><img src= images/blank.png width =""200"" height = ""200"" style = ""float:right""></p><p><img src=images/blank.png width =""800"" height = ""200""></p>","","","","","","","","","","","",""
"","76.00000035017729","sequential-stimulus-presentation","93","188624","0.0-20.0-1.6","SS1613140495340","trial","","40","800","876.0000003501773","images/stimuli/spore_stims/simple_14_B_b.gif","images/stimuli/spore_stims/simple_14_A_b.gif","","","","","4","simple_similar","images/stimuli/spore_stims/simple_14_A_b.gif","left","","","","",""
"","null","html-keyboard-response","94","189711","0.0-20.0-0.7","SS1613140495340","","","null","","","","","<p><img src= images/blank.png width =""200"" height = ""200"" style = ""float:right""></p><p><img src=images/blank.png width =""800"" height = ""200""></p>","","","","","","","","","","","",""
"","850.0000000931323","sequential-stimulus-presentation","95","191391","0.0-20.0-1.7","SS1613140495340","trial","","40","800","1650.0000000931323","images/stimuli/spore_stims/simple_14_B_b.gif","images/stimuli/spore_stims/simple_14_A_b.gif","","","","","4","simple_similar","images/stimuli/spore_stims/simple_14_A_b.gif","left","","","","",""
"","2186.9999999180436","html-keyboard-response","96","193584","0.0-21.0","SS1613140495340","pref_question","","50","","","","","<video width ='960' height = '540' style='padding-top:8%' autoplay muted><source src='images/stimuli/wall_pref.mp4' type='video/mp4'></video>","2","middle","45%","4","","","","","","","",""
"","1482.000000309199","sequential-stimulus-presentation","97","195921","0.0-22.0","SS1613140495340","pref_reveal","","40","800","2282.000000309199","null","null","","","","","4","","","","deviant","","","",""
"","null","html-keyboard-response","98","197067","0.0-23.0-0.0","SS1613140495340","","","null","","","","","<p><img src= images/blank.png width =""200"" height = ""200"" style = ""float:right""></p><p><img src=images/blank.png width =""800"" height = ""200""></p>","","","","","","","","","","","",""
"","4802.9999998398125","sequential-stimulus-presentation","99","202705","0.0-23.0-1.0","SS1613140495340","trial","","40","800","5602.9999998398125","images/stimuli/spore_stims/complex_13_B_d.gif","images/stimuli/spore_stims/complex_13_A_d.gif","","","","","5","complex_similar","images/stimuli/spore_stims/complex_13_A_d.gif","middle","","","","",""
"","null","html-keyboard-response","100","203819","0.0-23.0-0.1","SS1613140495340","","","null","","","","","<p><img src= images/blank.png width =""200"" height = ""200"" style = ""float:right""></p><p><img src=images/blank.png width =""800"" height = ""200""></p>","","","","","","","","","","","",""
"","1459.999999962747","sequential-stimulus-presentation","101","206101","0.0-23.0-1.1","SS1613140495340","trial","","40","800","2259.999999962747","images/stimuli/spore_stims/complex_13_B_d.gif","images/stimuli/spore_stims/complex_13_A_d.gif","","","","","5","complex_similar","images/stimuli/spore_stims/complex_13_A_d.gif","middle","","","","",""
"","null","html-keyboard-response","102","206940","0.0-23.0-0.2","SS1613140495340","","","null","","","","","<p><img src= images/blank.png width =""200"" height = ""200"" style = ""float:right""></p><p><img src=images/blank.png width =""800"" height = ""200""></p>","","","","","","","","","","","",""
"","2524.9999999068677","sequential-stimulus-presentation","103","210415","0.0-23.0-1.2","SS1613140495340","trial","","40","800","3324.9999999068677","images/stimuli/spore_stims/complex_13_B_d.gif","images/stimuli/spore_stims/complex_13_A_d.gif","","","","","5","complex_similar","images/stimuli/spore_stims/complex_13_A_d.gif","middle","","","","",""
"","null","html-keyboard-response","104","211710","0.0-23.0-0.3","SS1613140495340","","","null","","","","","<p><img src= images/blank.png width =""200"" height = ""200"" style = ""float:right""></p><p><img src=images/blank.png width =""800"" height = ""200""></p>","","","","","","","","","","","",""
"","586.9999998249114","sequential-stimulus-presentation","105","213136","0.0-23.0-1.3","SS1613140495340","trial","","40","800","1386.9999998249114","images/stimuli/spore_stims/complex_13_B_d.gif","images/stimuli/spore_stims/complex_13_A_d.gif","","","","","5","complex_similar","images/stimuli/spore_stims/complex_13_A_d.gif","middle","","","","",""
"","null","html-keyboard-response","106","214146","0.0-23.0-0.4","SS1613140495340","","","null","","","","","<p><img src= images/blank.png width =""200"" height = ""200"" style = ""float:right""></p><p><img src=images/blank.png width =""800"" height = ""200""></p>","","","","","","","","","","","",""
"","54.00000000372529","sequential-stimulus-presentation","107","215035","0.0-23.0-1.4","SS1613140495340","trial","","40","800","854.0000000037253","images/stimuli/spore_stims/complex_13_B_d.gif","images/stimuli/spore_stims/complex_13_A_d.gif","","","","","5","complex_similar","images/stimuli/spore_stims/complex_13_B_d.gif","right","","","","",""
"","null","html-keyboard-response","108","215909","0.0-23.0-0.5","SS1613140495340","","","null","","","","","<p><img src= images/blank.png width =""200"" height = ""200"" style = ""float:right""></p><p><img src=images/blank.png width =""800"" height = ""200""></p>","","","","","","","","","","","",""
"","1995.9999998100102","sequential-stimulus-presentation","109","218858","0.0-23.0-1.5","SS1613140495340","trial","","40","800","2795.99999981001","images/stimuli/spore_stims/complex_13_B_d.gif","images/stimuli/spore_stims/complex_13_A_d.gif","","","","","5","complex_similar","images/stimuli/spore_stims/complex_13_A_d.gif","middle","","","","",""
"","null","html-keyboard-response","110","219999","0.0-23.0-0.6","SS1613140495340","","","null","","","","","<p><img src= images/blank.png width =""200"" height = ""200"" style = ""float:right""></p><p><img src=images/blank.png width =""800"" height = ""200""></p>","","","","","","","","","","","",""
"","162.00000001117587","sequential-stimulus-presentation","111","220984","0.0-23.0-1.6","SS1613140495340","trial","","40","800","962.0000000111759","images/stimuli/spore_stims/complex_13_B_d.gif","images/stimuli/spore_stims/complex_13_A_d.gif","","","","","5","complex_similar","images/stimuli/spore_stims/complex_13_A_d.gif","middle","","","","",""
"","null","html-keyboard-response","112","221836","0.0-23.0-0.7","SS1613140495340","","","null","","","","","<p><img src= images/blank.png width =""200"" height = ""200"" style = ""float:right""></p><p><img src=images/blank.png width =""800"" height = ""200""></p>","","","","","","","","","","","",""
"","932.9999997280538","sequential-stimulus-presentation","113","223605","0.0-23.0-1.7","SS1613140495340","trial","","40","800","1732.9999997280538","images/stimuli/spore_stims/complex_13_B_d.gif","images/stimuli/spore_stims/complex_13_A_d.gif","","","","","5","complex_similar","images/stimuli/spore_stims/complex_13_A_d.gif","middle","","","","",""
"","3975.0000000931323","html-keyboard-response","114","227620","0.0-24.0","SS1613140495340","pref_question","","49","","","","","<video width ='960' height = '540' style='padding-top:8%' autoplay muted><source src='images/stimuli/wall_pref.mp4' type='video/mp4'></video>","1","left","25%","5","","","","","","","",""
"","395.99999971687794","sequential-stimulus-presentation","115","228843","0.0-25.0","SS1613140495340","pref_reveal","","40","800","1195.999999716878","null","null","","","","","5","","","","novel","","","",""
"","null","html-keyboard-response","116","229968","0.0-26.0-0.0","SS1613140495340","","","null","","","","","<p><img src= images/blank.png width =""200"" height = ""200"" style = ""float:right""></p><p><img src=images/blank.png width =""800"" height = ""200""></p>","","","","","","","","","","","",""
"","533.0000002868474","sequential-stimulus-presentation","117","231320","0.0-26.0-1.0","SS1613140495340","trial","","40","800","1333.0000002868474","images/stimuli/spore_stims/complex_04_A_c.gif","images/stimuli/spore_stims/complex_03_A_a.gif","","","","","6","complex_dissimilar","images/stimuli/spore_stims/complex_03_A_a.gif","right","","","","",""
"","null","html-keyboard-response","118","232537","0.0-26.0-0.1","SS1613140495340","","","null","","","","","<p><img src= images/blank.png width =""200"" height = ""200"" style = ""float:right""></p><p><img src=images/blank.png width =""800"" height = ""200""></p>","","","","","","","","","","","",""
"","177.99999983981252","sequential-stimulus-presentation","119","233536","0.0-26.0-1.1","SS1613140495340","trial","","40","800","977.9999998398125","images/stimuli/spore_stims/complex_04_A_c.gif","images/stimuli/spore_stims/complex_03_A_a.gif","","","","","6","complex_dissimilar","images/stimuli/spore_stims/complex_03_A_a.gif","right","","","","",""
"","null","html-keyboard-response","120","234823","0.0-26.0-0.2","SS1613140495340","","","null","","","","","<p><img src= images/blank.png width =""200"" height = ""200"" style = ""float:right""></p><p><img src=images/blank.png width =""800"" height = ""200""></p>","","","","","","","","","","","",""
"","1080.0000000745058","sequential-stimulus-presentation","121","236719","0.0-26.0-1.2","SS1613140495340","trial","","40","800","1880.0000000745058","images/stimuli/spore_stims/complex_04_A_c.gif","images/stimuli/spore_stims/complex_03_A_a.gif","","","","","6","complex_dissimilar","images/stimuli/spore_stims/complex_03_A_a.gif","right","","","","",""
"","null","html-keyboard-response","122","237856","0.0-26.0-0.3","SS1613140495340","","","null","","","","","<p><img src= images/blank.png width =""200"" height = ""200"" style = ""float:right""></p><p><img src=images/blank.png width =""800"" height = ""200""></p>","","","","","","","","","","","",""
"","7702.000000048429","sequential-stimulus-presentation","123","247320","0.0-26.0-1.3","SS1613140495340","trial","","40","800","8502.000000048429","images/stimuli/spore_stims/complex_04_A_c.gif","images/stimuli/spore_stims/complex_03_A_a.gif","","","","","6","complex_dissimilar","images/stimuli/spore_stims/complex_04_A_c.gif","middle","","","","",""
"","null","html-keyboard-response","124","248276","0.0-26.0-0.4","SS1613140495340","","","null","","","","","<p><img src= images/blank.png width =""200"" height = ""200"" style = ""float:right""></p><p><img src=images/blank.png width =""800"" height = ""200""></p>","","","","","","","","","","","",""
"","4665.000000037253","sequential-stimulus-presentation","125","253795","0.0-26.0-1.4","SS1613140495340","trial","","40","800","5465.000000037253","images/stimuli/spore_stims/complex_04_A_c.gif","images/stimuli/spore_stims/complex_03_A_a.gif","","","","","6","complex_dissimilar","images/stimuli/spore_stims/complex_03_A_a.gif","right","","","","",""
"","null","html-keyboard-response","126","254806","0.0-26.0-0.5","SS1613140495340","","","null","","","","","<p><img src= images/blank.png width =""200"" height = ""200"" style = ""float:right""></p><p><img src=images/blank.png width =""800"" height = ""200""></p>","","","","","","","","","","","",""
"","242.00000008568168","sequential-stimulus-presentation","127","255970","0.0-26.0-1.5","SS1613140495340","trial","","40","800","1042.0000000856817","images/stimuli/spore_stims/complex_04_A_c.gif","images/stimuli/spore_stims/complex_03_A_a.gif","","","","","6","complex_dissimilar","images/stimuli/spore_stims/complex_03_A_a.gif","right","","","","",""
"","null","html-keyboard-response","128","256891","0.0-26.0-0.6","SS1613140495340","","","null","","","","","<p><img src= images/blank.png width =""200"" height = ""200"" style = ""float:right""></p><p><img src=images/blank.png width =""800"" height = ""200""></p>","","","","","","","","","","","",""
"","191.00000010803342","sequential-stimulus-presentation","129","257918","0.0-26.0-1.6","SS1613140495340","trial","","40","800","991.0000001080334","images/stimuli/spore_stims/complex_04_A_c.gif","images/stimuli/spore_stims/complex_03_A_a.gif","","","","","6","complex_dissimilar","images/stimuli/spore_stims/complex_03_A_a.gif","right","","","","",""
"","null","html-keyboard-response","130","259219","0.0-26.0-0.7","SS1613140495340","","","null","","","","","<p><img src= images/blank.png width =""200"" height = ""200"" style = ""float:right""></p><p><img src=images/blank.png width =""800"" height = ""200""></p>","","","","","","","","","","","",""
"","1.0000001639127731","sequential-stimulus-presentation","131","260141","0.0-26.0-1.7","SS1613140495340","trial","","40","800","801.0000001639128","images/stimuli/spore_stims/complex_04_A_c.gif","images/stimuli/spore_stims/complex_03_A_a.gif","","","","","6","complex_dissimilar","images/stimuli/spore_stims/complex_03_A_a.gif","right","","","","",""
"","2100.0000000931323","html-keyboard-response","132","262251","0.0-27.0","SS1613140495340","pref_question","","50","","","","","<video width ='960' height = '540' style='padding-top:8%' autoplay muted><source src='images/stimuli/wall_pref.mp4' type='video/mp4'></video>","2","middle","45%","6","","","","","","","",""
"","444.00000013411045","sequential-stimulus-presentation","133","263546","0.0-28.0","SS1613140495340","pref_reveal","","40","800","1244.0000001341105","null","null","","","","","6","","","","deviant","","","",""
"","null","html-keyboard-response","134","264474","0.0-29.0-0.0","SS1613140495340","","","null","","","","","<p><img src= images/blank.png width =""200"" height = ""200"" style = ""float:right""></p><p><img src=images/blank.png width =""800"" height = ""200""></p>","","","","","","","","","","","",""
"","3537.000000011176","sequential-stimulus-presentation","135","268829","0.0-29.0-1.0","SS1613140495340","trial","","40","800","4337.000000011176","images/stimuli/spore_stims/simple_04_A_b.gif","images/stimuli/spore_stims/simple_07_B_c.gif","","","","","7","simple_dissimilar","images/stimuli/spore_stims/simple_07_B_c.gif","middle","","","","",""
"","null","html-keyboard-response","136","269967","0.0-29.0-0.1","SS1613140495340","","","null","","","","","<p><img src= images/blank.png width =""200"" height = ""200"" style = ""float:right""></p><p><img src=images/blank.png width =""800"" height = ""200""></p>","","","","","","","","","","","",""
"","273.0000000447035","sequential-stimulus-presentation","137","271100","0.0-29.0-1.1","SS1613140495340","trial","","40","800","1073.0000000447035","images/stimuli/spore_stims/simple_04_A_b.gif","images/stimuli/spore_stims/simple_07_B_c.gif","","","","","7","simple_dissimilar","images/stimuli/spore_stims/simple_07_B_c.gif","middle","","","","",""
"","null","html-keyboard-response","138","272234","0.0-29.0-0.2","SS1613140495340","","","null","","","","","<p><img src= images/blank.png width =""200"" height = ""200"" style = ""float:right""></p><p><img src=images/blank.png width =""800"" height = ""200""></p>","","","","","","","","","","","",""
"","205.0000000745058","sequential-stimulus-presentation","139","273255","0.0-29.0-1.2","SS1613140495340","trial","","40","800","1005.0000000745058","images/stimuli/spore_stims/simple_04_A_b.gif","images/stimuli/spore_stims/simple_07_B_c.gif","","","","","7","simple_dissimilar","images/stimuli/spore_stims/simple_04_A_b.gif","left","","","","",""
"","null","html-keyboard-response","140","274359","0.0-29.0-0.3","SS1613140495340","","","null","","","","","<p><img src= images/blank.png width =""200"" height = ""200"" style = ""float:right""></p><p><img src=images/blank.png width =""800"" height = ""200""></p>","","","","","","","","","","","",""
"","149.00000020861626","sequential-stimulus-presentation","141","275322","0.0-29.0-1.3","SS1613140495340","trial","","40","800","949.0000002086163","images/stimuli/spore_stims/simple_04_A_b.gif","images/stimuli/spore_stims/simple_07_B_c.gif","","","","","7","simple_dissimilar","images/stimuli/spore_stims/simple_07_B_c.gif","middle","","","","",""
"","null","html-keyboard-response","142","276153","0.0-29.0-0.4","SS1613140495340","","","null","","","","","<p><img src= images/blank.png width =""200"" height = ""200"" style = ""float:right""></p><p><img src=images/blank.png width =""800"" height = ""200""></p>","","","","","","","","","","","",""
"","1080.9999997727573","sequential-stimulus-presentation","143","278112","0.0-29.0-1.4","SS1613140495340","trial","","40","800","1880.9999997727573","images/stimuli/spore_stims/simple_04_A_b.gif","images/stimuli/spore_stims/simple_07_B_c.gif","","","","","7","simple_dissimilar","images/stimuli/spore_stims/simple_07_B_c.gif","middle","","","","",""
"","null","html-keyboard-response","144","279319","0.0-29.0-0.5","SS1613140495340","","","null","","","","","<p><img src= images/blank.png width =""200"" height = ""200"" style = ""float:right""></p><p><img src=images/blank.png width =""800"" height = ""200""></p>","","","","","","","","","","","",""
"","591.9999997131526","sequential-stimulus-presentation","145","280727","0.0-29.0-1.5","SS1613140495340","trial","","40","800","1391.9999997131526","images/stimuli/spore_stims/simple_04_A_b.gif","images/stimuli/spore_stims/simple_07_B_c.gif","","","","","7","simple_dissimilar","images/stimuli/spore_stims/simple_07_B_c.gif","middle","","","","",""
"","null","html-keyboard-response","146","281568","0.0-29.0-0.6","SS1613140495340","","","null","","","","","<p><img src= images/blank.png width =""200"" height = ""200"" style = ""float:right""></p><p><img src=images/blank.png width =""800"" height = ""200""></p>","","","","","","","","","","","",""
"","1.0000001639127731","sequential-stimulus-presentation","147","282453","0.0-29.0-1.6","SS1613140495340","trial","","40","800","801.0000001639128","images/stimuli/spore_stims/simple_04_A_b.gif","images/stimuli/spore_stims/simple_07_B_c.gif","","","","","7","simple_dissimilar","images/stimuli/spore_stims/simple_07_B_c.gif","middle","","","","",""
"","null","html-keyboard-response","148","283690","0.0-29.0-0.7","SS1613140495340","","","null","","","","","<p><img src= images/blank.png width =""200"" height = ""200"" style = ""float:right""></p><p><img src=images/blank.png width =""800"" height = ""200""></p>","","","","","","","","","","","",""
"","906.9999996572733","sequential-stimulus-presentation","149","285449","0.0-29.0-1.7","SS1613140495340","trial","","40","800","1706.9999996572733","images/stimuli/spore_stims/simple_04_A_b.gif","images/stimuli/spore_stims/simple_07_B_c.gif","","","","","7","simple_dissimilar","images/stimuli/spore_stims/simple_07_B_c.gif","middle","","","","",""
"","1910.0000001490116","html-keyboard-response","150","287460","0.0-30.0","SS1613140495340","pref_question","","50","","","","","<video width ='960' height = '540' style='padding-top:8%' autoplay muted><source src='images/stimuli/wall_pref.mp4' type='video/mp4'></video>","2","middle","45%","7","","","","","","","",""
"","478.0000001192093","sequential-stimulus-presentation","151","288811","0.0-31.0","SS1613140495340","pref_reveal","","40","800","1278.0000001192093","null","null","","","","","7","","","","background","","","",""
"","null","html-keyboard-response","152","290081","0.0-32.0-0.0","SS1613140495340","","","null","","","","","<p><img src= images/blank.png width =""200"" height = ""200"" style = ""float:right""></p><p><img src=images/blank.png width =""800"" height = ""200""></p>","","","","","","","","","","","",""
"","44.00000022724271","sequential-stimulus-presentation","153","291026","0.0-32.0-1.0","SS1613140495340","trial","","40","800","844.0000002272427","images/stimuli/spore_stims/simple_17_A_b.gif","images/stimuli/spore_stims/simple_17_B_b.gif","","","","","8","simple_similar","images/stimuli/spore_stims/simple_17_B_b.gif","right","","","","",""
"","null","html-keyboard-response","154","292042","0.0-32.0-0.1","SS1613140495340","","","null","","","","","<p><img src= images/blank.png width =""200"" height = ""200"" style = ""float:right""></p><p><img src=images/blank.png width =""800"" height = ""200""></p>","","","","","","","","","","","",""
"","117.99999978393316","sequential-stimulus-presentation","155","292975","0.0-32.0-1.1","SS1613140495340","trial","","40","800","917.9999997839332","images/stimuli/spore_stims/simple_17_A_b.gif","images/stimuli/spore_stims/simple_17_B_b.gif","","","","","8","simple_similar","images/stimuli/spore_stims/simple_17_B_b.gif","right","","","","",""
"","null","html-keyboard-response","156","294076","0.0-32.0-0.2","SS1613140495340","","","null","","","","","<p><img src= images/blank.png width =""200"" height = ""200"" style = ""float:right""></p><p><img src=images/blank.png width =""800"" height = ""200""></p>","","","","","","","","","","","",""
"","498.9999998360872","sequential-stimulus-presentation","157","295452","0.0-32.0-1.2","SS1613140495340","trial","","40","800","1298.9999998360872","images/stimuli/spore_stims/simple_17_A_b.gif","images/stimuli/spore_stims/simple_17_B_b.gif","","","","","8","simple_similar","images/stimuli/spore_stims/simple_17_A_b.gif","middle","","","","",""
"","null","html-keyboard-response","158","296319","0.0-32.0-0.3","SS1613140495340","","","null","","","","","<p><img src= images/blank.png width =""200"" height = ""200"" style = ""float:right""></p><p><img src=images/blank.png width =""800"" height = ""200""></p>","","","","","","","","","","","",""
"","34.000000450760126","sequential-stimulus-presentation","159","297170","0.0-32.0-1.3","SS1613140495340","trial","","40","800","834.0000004507601","images/stimuli/spore_stims/simple_17_A_b.gif","images/stimuli/spore_stims/simple_17_B_b.gif","","","","","8","simple_similar","images/stimuli/spore_stims/simple_17_B_b.gif","right","","","","",""
"","null","html-keyboard-response","160","298365","0.0-32.0-0.4","SS1613140495340","","","null","","","","","<p><img src= images/blank.png width =""200"" height = ""200"" style = ""float:right""></p><p><img src=images/blank.png width =""800"" height = ""200""></p>","","","","","","","","","","","",""
"","560.0000000558794","sequential-stimulus-presentation","161","299760","0.0-32.0-1.4","SS1613140495340","trial","","40","800","1360.0000000558794","images/stimuli/spore_stims/simple_17_A_b.gif","images/stimuli/spore_stims/simple_17_B_b.gif","","","","","8","simple_similar","images/stimuli/spore_stims/simple_17_B_b.gif","right","","","","",""
"","null","html-keyboard-response","162","300783","0.0-32.0-0.5","SS1613140495340","","","null","","","","","<p><img src= images/blank.png width =""200"" height = ""200"" style = ""float:right""></p><p><img src=images/blank.png width =""800"" height = ""200""></p>","","","","","","","","","","","",""
"","371.99999997392297","sequential-stimulus-presentation","163","301981","0.0-32.0-1.5","SS1613140495340","trial","","40","800","1171.999999973923","images/stimuli/spore_stims/simple_17_A_b.gif","images/stimuli/spore_stims/simple_17_B_b.gif","","","","","8","simple_similar","images/stimuli/spore_stims/simple_17_B_b.gif","right","","","","",""
"","null","html-keyboard-response","164","303000","0.0-32.0-0.6","SS1613140495340","","","null","","","","","<p><img src= images/blank.png width =""200"" height = ""200"" style = ""float:right""></p><p><img src=images/blank.png width =""800"" height = ""200""></p>","","","","","","","","","","","",""
"","592.0000001788139","sequential-stimulus-presentation","165","304482","0.0-32.0-1.6","SS1613140495340","trial","","40","800","1392.000000178814","images/stimuli/spore_stims/simple_17_A_b.gif","images/stimuli/spore_stims/simple_17_B_b.gif","","","","","8","simple_similar","images/stimuli/spore_stims/simple_17_B_b.gif","right","","","","",""
"","null","html-keyboard-response","166","305556","0.0-32.0-0.7","SS1613140495340","","","null","","","","","<p><img src= images/blank.png width =""200"" height = ""200"" style = ""float:right""></p><p><img src=images/blank.png width =""800"" height = ""200""></p>","","","","","","","","","","","",""
"","344.0000000409782","sequential-stimulus-presentation","167","306732","0.0-32.0-1.7","SS1613140495340","trial","","40","800","1144.0000000409782","images/stimuli/spore_stims/simple_17_A_b.gif","images/stimuli/spore_stims/simple_17_B_b.gif","","","","","8","simple_similar","images/stimuli/spore_stims/simple_17_B_b.gif","right","","","","",""
"","1902.9999999329448","html-keyboard-response","168","308651","0.0-33.0","SS1613140495340","pref_question","","49","","","","","<video width ='960' height = '540' style='padding-top:8%' autoplay muted><source src='images/stimuli/wall_pref.mp4' type='video/mp4'></video>","1","left","25%","8","","","","","","","",""
"","370.9999998100102","sequential-stimulus-presentation","169","309852","0.0-34.0","SS1613140495340","pref_reveal","","40","800","1170.9999998100102","null","null","","","","","8","","","","novel","","","",""
"","null","html-keyboard-response","170","310915","0.0-35.0-0.0","SS1613140495340","","","null","","","","","<p><img src= images/blank.png width =""200"" height = ""200"" style = ""float:right""></p><p><img src=images/blank.png width =""800"" height = ""200""></p>","","","","","","","","","","","",""
"","1000","sequential-stimulus-presentation","171","312734","0.0-35.0-1.0","SS1613140495340","trial","","40","800","1800","images/stimuli/spore_stims/simple_10_B_d.gif","images/stimuli/spore_stims/simple_04_B_a.gif","","","","","9","simple_dissimilar","images/stimuli/spore_stims/simple_04_B_a.gif","left","","","","",""
"","null","html-keyboard-response","172","313814","0.0-35.0-0.1","SS1613140495340","","","null","","","","","<p><img src= images/blank.png width =""200"" height = ""200"" style = ""float:right""></p><p><img src=images/blank.png width =""800"" height = ""200""></p>","","","","","","","","","","","",""
"","405.9999999590218","sequential-stimulus-presentation","173","315072","0.0-35.0-1.1","SS1613140495340","trial","","40","800","1205.9999999590218","images/stimuli/spore_stims/simple_10_B_d.gif","images/stimuli/spore_stims/simple_04_B_a.gif","","","","","9","simple_dissimilar","images/stimuli/spore_stims/simple_04_B_a.gif","left","","","","",""
"","null","html-keyboard-response","174","316116","0.0-35.0-0.2","SS1613140495340","","","null","","","","","<p><img src= images/blank.png width =""200"" height = ""200"" style = ""float:right""></p><p><img src=images/blank.png width =""800"" height = ""200""></p>","","","","","","","","","","","",""
"","506.00000005215406","sequential-stimulus-presentation","175","317488","0.0-35.0-1.2","SS1613140495340","trial","","40","800","1306.000000052154","images/stimuli/spore_stims/simple_10_B_d.gif","images/stimuli/spore_stims/simple_04_B_a.gif","","","","","9","simple_dissimilar","images/stimuli/spore_stims/simple_10_B_d.gif","right","","","","",""
"","null","html-keyboard-response","176","318654","0.0-35.0-0.3","SS1613140495340","","","null","","","","","<p><img src= images/blank.png width =""200"" height = ""200"" style = ""float:right""></p><p><img src=images/blank.png width =""800"" height = ""200""></p>","","","","","","","","","","","",""
"","271.9999998807907","sequential-stimulus-presentation","177","319788","0.0-35.0-1.3","SS1613140495340","trial","","40","800","1071.9999998807907","images/stimuli/spore_stims/simple_10_B_d.gif","images/stimuli/spore_stims/simple_04_B_a.gif","","","","","9","simple_dissimilar","images/stimuli/spore_stims/simple_04_B_a.gif","left","","","","",""
"","null","html-keyboard-response","178","320876","0.0-35.0-0.4","SS1613140495340","","","null","","","","","<p><img src= images/blank.png width =""200"" height = ""200"" style = ""float:right""></p><p><img src=images/blank.png width =""800"" height = ""200""></p>","","","","","","","","","","","",""
"","1155.9999999590218","sequential-stimulus-presentation","179","322883","0.0-35.0-1.4","SS1613140495340","trial","","40","800","1955.9999999590218","images/stimuli/spore_stims/simple_10_B_d.gif","images/stimuli/spore_stims/simple_04_B_a.gif","","","","","9","simple_dissimilar","images/stimuli/spore_stims/simple_04_B_a.gif","left","","","","",""
"","null","html-keyboard-response","180","324029","0.0-35.0-0.5","SS1613140495340","","","null","","","","","<p><img src= images/blank.png width =""200"" height = ""200"" style = ""float:right""></p><p><img src=images/blank.png width =""800"" height = ""200""></p>","","","","","","","","","","","",""
"","660.9999998472631","sequential-stimulus-presentation","181","325520","0.0-35.0-1.5","SS1613140495340","trial","","40","800","1460.999999847263","images/stimuli/spore_stims/simple_10_B_d.gif","images/stimuli/spore_stims/simple_04_B_a.gif","","","","","9","simple_dissimilar","images/stimuli/spore_stims/simple_04_B_a.gif","left","","","","",""
"","null","html-keyboard-response","182","326623","0.0-35.0-0.6","SS1613140495340","","","null","","","","","<p><img src= images/blank.png width =""200"" height = ""200"" style = ""float:right""></p><p><img src=images/blank.png width =""800"" height = ""200""></p>","","","","","","","","","","","",""
"","3709.0000002644956","sequential-stimulus-presentation","183","331158","0.0-35.0-1.6","SS1613140495340","trial","","40","800","4509.000000264496","images/stimuli/spore_stims/simple_10_B_d.gif","images/stimuli/spore_stims/simple_04_B_a.gif","","","","","9","simple_dissimilar","images/stimuli/spore_stims/simple_04_B_a.gif","left","","","","",""
"","null","html-keyboard-response","184","332232","0.0-35.0-0.7","SS1613140495340","","","null","","","","","<p><img src= images/blank.png width =""200"" height = ""200"" style = ""float:right""></p><p><img src=images/blank.png width =""800"" height = ""200""></p>","","","","","","","","","","","",""
"","140.00000013038516","sequential-stimulus-presentation","185","333188","0.0-35.0-1.7","SS1613140495340","trial","","40","800","940.0000001303852","images/stimuli/spore_stims/simple_10_B_d.gif","images/stimuli/spore_stims/simple_04_B_a.gif","","","","","9","simple_dissimilar","images/stimuli/spore_stims/simple_04_B_a.gif","left","","","","",""
"","1673.9999996498227","html-keyboard-response","186","334869","0.0-36.0","SS1613140495340","pref_question","","50","","","","","<video width ='960' height = '540' style='padding-top:8%' autoplay muted><source src='images/stimuli/wall_pref.mp4' type='video/mp4'></video>","2","middle","45%","9","","","","","","","",""
"","182.00000002980232","sequential-stimulus-presentation","187","335912","0.0-37.0","SS1613140495340","pref_reveal","","40","800","982.0000000298023","null","null","","","","","9","","","","novel","","","",""
"","null","html-keyboard-response","188","337032","0.0-38.0-0.0","SS1613140495340","","","null","","","","","<p><img src= images/blank.png width =""200"" height = ""200"" style = ""float:right""></p><p><img src=images/blank.png width =""800"" height = ""200""></p>","","","","","","","","","","","",""
"","67.00000027194619","sequential-stimulus-presentation","189","337922","0.0-38.0-1.0","SS1613140495340","trial","","40","800","867.0000002719462","images/stimuli/spore_stims/simple_13_A_b.gif","images/stimuli/spore_stims/simple_08_B_d.gif","","","","","10","simple_dissimilar","images/stimuli/spore_stims/simple_08_B_d.gif","right","","","","",""
"","null","html-keyboard-response","190","338864","0.0-38.0-0.1","SS1613140495340","","","null","","","","","<p><img src= images/blank.png width =""200"" height = ""200"" style = ""float:right""></p><p><img src=images/blank.png width =""800"" height = ""200""></p>","","","","","","","","","","","",""
"","7.999999914318323","sequential-stimulus-presentation","191","339890","0.0-38.0-1.1","SS1613140495340","trial","","40","800","807.9999999143183","images/stimuli/spore_stims/simple_13_A_b.gif","images/stimuli/spore_stims/simple_08_B_d.gif","","","","","10","simple_dissimilar","images/stimuli/spore_stims/simple_08_B_d.gif","right","","","","",""
"","null","html-keyboard-response","192","340930","0.0-38.0-0.2","SS1613140495340","","","null","","","","","<p><img src= images/blank.png width =""200"" height = ""200"" style = ""float:right""></p><p><img src=images/blank.png width =""800"" height = ""200""></p>","","","","","","","","","","","",""
"","69.00000013411045","sequential-stimulus-presentation","193","341828","0.0-38.0-1.2","SS1613140495340","trial","","40","800","869.0000001341105","images/stimuli/spore_stims/simple_13_A_b.gif","images/stimuli/spore_stims/simple_08_B_d.gif","","","","","10","simple_dissimilar","images/stimuli/spore_stims/simple_08_B_d.gif","right","","","","",""
"","null","html-keyboard-response","194","342824","0.0-38.0-0.3","SS1613140495340","","","null","","","","","<p><img src= images/blank.png width =""200"" height = ""200"" style = ""float:right""></p><p><img src=images/blank.png width =""800"" height = ""200""></p>","","","","","","","","","","","",""
"","146.9999998807907","sequential-stimulus-presentation","195","343787","0.0-38.0-1.3","SS1613140495340","trial","","40","800","946.9999998807907","images/stimuli/spore_stims/simple_13_A_b.gif","images/stimuli/spore_stims/simple_08_B_d.gif","","","","","10","simple_dissimilar","images/stimuli/spore_stims/simple_08_B_d.gif","right","","","","",""
"","null","html-keyboard-response","196","344730","0.0-38.0-0.4","SS1613140495340","","","null","","","","","<p><img src= images/blank.png width =""200"" height = ""200"" style = ""float:right""></p><p><img src=images/blank.png width =""800"" height = ""200""></p>","","","","","","","","","","","",""
"","94.0000000409782","sequential-stimulus-presentation","197","345668","0.0-38.0-1.4","SS1613140495340","trial","","40","800","894.0000000409782","images/stimuli/spore_stims/simple_13_A_b.gif","images/stimuli/spore_stims/simple_08_B_d.gif","","","","","10","simple_dissimilar","images/stimuli/spore_stims/simple_08_B_d.gif","right","","","","",""
"","null","html-keyboard-response","198","346789","0.0-38.0-0.5","SS1613140495340","","","null","","","","","<p><img src= images/blank.png width =""200"" height = ""200"" style = ""float:right""></p><p><img src=images/blank.png width =""800"" height = ""200""></p>","","","","","","","","","","","",""
"","166.99999989941716","sequential-stimulus-presentation","199","347892","0.0-38.0-1.5","SS1613140495340","trial","","40","800","966.9999998994172","images/stimuli/spore_stims/simple_13_A_b.gif","images/stimuli/spore_stims/simple_08_B_d.gif","","","","","10","simple_dissimilar","images/stimuli/spore_stims/simple_08_B_d.gif","right","","","","",""
"","null","html-keyboard-response","200","348732","0.0-38.0-0.6","SS1613140495340","","","null","","","","","<p><img src= images/blank.png width =""200"" height = ""200"" style = ""float:right""></p><p><img src=images/blank.png width =""800"" height = ""200""></p>","","","","","","","","","","","",""
"","83.00000010058284","sequential-stimulus-presentation","201","349666","0.0-38.0-1.6","SS1613140495340","trial","","40","800","883.0000001005828","images/stimuli/spore_stims/simple_13_A_b.gif","images/stimuli/spore_stims/simple_08_B_d.gif","","","","","10","simple_dissimilar","images/stimuli/spore_stims/simple_08_B_d.gif","right","","","","",""
"","null","html-keyboard-response","202","350716","0.0-38.0-0.7","SS1613140495340","","","null","","","","","<p><img src= images/blank.png width =""200"" height = ""200"" style = ""float:right""></p><p><img src=images/blank.png width =""800"" height = ""200""></p>","","","","","","","","","","","",""
"","1.999999862164259","sequential-stimulus-presentation","203","351546","0.0-38.0-1.7","SS1613140495340","trial","","40","800","801.9999998621643","images/stimuli/spore_stims/simple_13_A_b.gif","images/stimuli/spore_stims/simple_08_B_d.gif","","","","","10","simple_dissimilar","images/stimuli/spore_stims/simple_13_A_b.gif","left","","","","",""
"","1623.9999998360872","html-keyboard-response","204","353177","0.0-39.0","SS1613140495340","pref_question","","50","","","","","<video width ='960' height = '540' style='padding-top:8%' autoplay muted><source src='images/stimuli/wall_pref.mp4' type='video/mp4'></video>","2","middle","45%","10","","","","","","","",""
"","180.00000016763806","sequential-stimulus-presentation","205","354171","0.0-40.0","SS1613140495340","pref_reveal","","40","800","980.0000001676381","null","null","","","","","10","","","","novel","","","",""
"","null","html-keyboard-response","206","355080","0.0-41.0-0.0","SS1613140495340","","","null","","","","","<p><img src= images/blank.png width =""200"" height = ""200"" style = ""float:right""></p><p><img src=images/blank.png width =""800"" height = ""200""></p>","","","","","","","","","","","",""
"","9.999999776482582","sequential-stimulus-presentation","207","355984","0.0-41.0-1.0","SS1613140495340","trial","","40","800","809.9999997764826","images/stimuli/spore_stims/simple_12_A_b.gif","images/stimuli/spore_stims/simple_12_B_b.gif","","","","","11","simple_similar","images/stimuli/spore_stims/simple_12_B_b.gif","left","","","","",""
"","null","html-keyboard-response","208","357081","0.0-41.0-0.1","SS1613140495340","","","null","","","","","<p><img src= images/blank.png width =""200"" height = ""200"" style = ""float:right""></p><p><img src=images/blank.png width =""800"" height = ""200""></p>","","","","","","","","","","","",""
"","152.0000002346933","sequential-stimulus-presentation","209","358104","0.0-41.0-1.1","SS1613140495340","trial","","40","800","952.0000002346933","images/stimuli/spore_stims/simple_12_A_b.gif","images/stimuli/spore_stims/simple_12_B_b.gif","","","","","11","simple_similar","images/stimuli/spore_stims/simple_12_B_b.gif","left","","","","",""
"","null","html-keyboard-response","210","359365","0.0-41.0-0.2","SS1613140495340","","","null","","","","","<p><img src= images/blank.png width =""200"" height = ""200"" style = ""float:right""></p><p><img src=images/blank.png width =""800"" height = ""200""></p>","","","","","","","","","","","",""
"","345.00000020489097","sequential-stimulus-presentation","211","360611","0.0-41.0-1.2","SS1613140495340","trial","","40","800","1145.000000204891","images/stimuli/spore_stims/simple_12_A_b.gif","images/stimuli/spore_stims/simple_12_B_b.gif","","","","","11","simple_similar","images/stimuli/spore_stims/simple_12_B_b.gif","left","","","","",""
"","null","html-keyboard-response","212","361804","0.0-41.0-0.3","SS1613140495340","","","null","","","","","<p><img src= images/blank.png width =""200"" height = ""200"" style = ""float:right""></p><p><img src=images/blank.png width =""800"" height = ""200""></p>","","","","","","","","","","","",""
"","214.9999998509884","sequential-stimulus-presentation","213","362853","0.0-41.0-1.3","SS1613140495340","trial","","40","800","1014.9999998509884","images/stimuli/spore_stims/simple_12_A_b.gif","images/stimuli/spore_stims/simple_12_B_b.gif","","","","","11","simple_similar","images/stimuli/spore_stims/simple_12_B_b.gif","left","","","","",""
"","null","html-keyboard-response","214","363924","0.0-41.0-0.4","SS1613140495340","","","null","","","","","<p><img src= images/blank.png width =""200"" height = ""200"" style = ""float:right""></p><p><img src=images/blank.png width =""800"" height = ""200""></p>","","","","","","","","","","","",""
"","810.0000000558794","sequential-stimulus-presentation","215","365609","0.0-41.0-1.4","SS1613140495340","trial","","40","800","1610.0000000558794","images/stimuli/spore_stims/simple_12_A_b.gif","images/stimuli/spore_stims/simple_12_B_b.gif","","","","","11","simple_similar","images/stimuli/spore_stims/simple_12_A_b.gif","middle","","","","",""
"","null","html-keyboard-response","216","366658","0.0-41.0-0.5","SS1613140495340","","","null","","","","","<p><img src= images/blank.png width =""200"" height = ""200"" style = ""float:right""></p><p><img src=images/blank.png width =""800"" height = ""200""></p>","","","","","","","","","","","",""
"","98.000000230968","sequential-stimulus-presentation","217","367578","0.0-41.0-1.5","SS1613140495340","trial","","40","800","898.000000230968","images/stimuli/spore_stims/simple_12_A_b.gif","images/stimuli/spore_stims/simple_12_B_b.gif","","","","","11","simple_similar","images/stimuli/spore_stims/simple_12_B_b.gif","left","","","","",""
"","null","html-keyboard-response","218","368691","0.0-41.0-0.6","SS1613140495340","","","null","","","","","<p><img src= images/blank.png width =""200"" height = ""200"" style = ""float:right""></p><p><img src=images/blank.png width =""800"" height = ""200""></p>","","","","","","","","","","","",""
"","182.00000002980232","sequential-stimulus-presentation","219","369730","0.0-41.0-1.6","SS1613140495340","trial","","40","800","982.0000000298023","images/stimuli/spore_stims/simple_12_A_b.gif","images/stimuli/spore_stims/simple_12_B_b.gif","","","","","11","simple_similar","images/stimuli/spore_stims/simple_12_B_b.gif","left","","","","",""
"","null","html-keyboard-response","220","370748","0.0-41.0-0.7","SS1613140495340","","","null","","","","","<p><img src= images/blank.png width =""200"" height = ""200"" style = ""float:right""></p><p><img src=images/blank.png width =""800"" height = ""200""></p>","","","","","","","","","","","",""
"","185.00000005587935","sequential-stimulus-presentation","221","371762","0.0-41.0-1.7","SS1613140495340","trial","","40","800","985.0000000558794","images/stimuli/spore_stims/simple_12_A_b.gif","images/stimuli/spore_stims/simple_12_B_b.gif","","","","","11","simple_similar","images/stimuli/spore_stims/simple_12_B_b.gif","left","","","","",""
"","1779.0000000968575","html-keyboard-response","222","373581","0.0-42.0","SS1613140495340","pref_question","","50","","","","","<video width ='960' height = '540' style='padding-top:8%' autoplay muted><source src='images/stimuli/wall_pref.mp4' type='video/mp4'></video>","2","middle","45%","11","","","","","","","",""
"","155.9999999590218","sequential-stimulus-presentation","223","374547","0.0-43.0","SS1613140495340","pref_reveal","","40","800","955.9999999590218","null","null","","","","","11","","","","deviant","","","",""
"","null","html-keyboard-response","224","375802","0.0-44.0-0.0","SS1613140495340","","","null","","","","","<p><img src= images/blank.png width =""200"" height = ""200"" style = ""float:right""></p><p><img src=images/blank.png width =""800"" height = ""200""></p>","","","","","","","","","","","",""
"","239.00000005960464","sequential-stimulus-presentation","225","376877","0.0-44.0-1.0","SS1613140495340","trial","","40","800","1039.0000000596046","images/stimuli/spore_stims/complex_19_B_c.gif","images/stimuli/spore_stims/complex_12_A_b.gif","","","","","12","complex_dissimilar","images/stimuli/spore_stims/complex_12_A_b.gif","left","","","","",""
"","null","html-keyboard-response","226","378118","0.0-44.0-0.1","SS1613140495340","","","null","","","","","<p><img src= images/blank.png width =""200"" height = ""200"" style = ""float:right""></p><p><img src=images/blank.png width =""800"" height = ""200""></p>","","","","","","","","","","","",""
"","75.999999884516","sequential-stimulus-presentation","227","379074","0.0-44.0-1.1","SS1613140495340","trial","","40","800","875.999999884516","images/stimuli/spore_stims/complex_19_B_c.gif","images/stimuli/spore_stims/complex_12_A_b.gif","","","","","12","complex_dissimilar","images/stimuli/spore_stims/complex_12_A_b.gif","left","","","","",""
"","null","html-keyboard-response","228","380222","0.0-44.0-0.2","SS1613140495340","","","null","","","","","<p><img src= images/blank.png width =""200"" height = ""200"" style = ""float:right""></p><p><img src=images/blank.png width =""800"" height = ""200""></p>","","","","","","","","","","","",""
"","75.999999884516","sequential-stimulus-presentation","229","381173","0.0-44.0-1.2","SS1613140495340","trial","","40","800","875.999999884516","images/stimuli/spore_stims/complex_19_B_c.gif","images/stimuli/spore_stims/complex_12_A_b.gif","","","","","12","complex_dissimilar","images/stimuli/spore_stims/complex_12_A_b.gif","left","","","","",""
"","null","html-keyboard-response","230","382247","0.0-44.0-0.3","SS1613140495340","","","null","","","","","<p><img src= images/blank.png width =""200"" height = ""200"" style = ""float:right""></p><p><img src=images/blank.png width =""800"" height = ""200""></p>","","","","","","","","","","","",""
"","249.0000003017485","sequential-stimulus-presentation","231","383354","0.0-44.0-1.3","SS1613140495340","trial","","40","800","1049.0000003017485","images/stimuli/spore_stims/complex_19_B_c.gif","images/stimuli/spore_stims/complex_12_A_b.gif","","","","","12","complex_dissimilar","images/stimuli/spore_stims/complex_19_B_c.gif","right","","","","",""
"","null","html-keyboard-response","232","384443","0.0-44.0-0.4","SS1613140495340","","","null","","","","","<p><img src= images/blank.png width =""200"" height = ""200"" style = ""float:right""></p><p><img src=images/blank.png width =""800"" height = ""200""></p>","","","","","","","","","","","",""
"","130.99999958649278","sequential-stimulus-presentation","233","385393","0.0-44.0-1.4","SS1613140495340","trial","","40","800","930.9999995864928","images/stimuli/spore_stims/complex_19_B_c.gif","images/stimuli/spore_stims/complex_12_A_b.gif","","","","","12","complex_dissimilar","images/stimuli/spore_stims/complex_12_A_b.gif","left","","","","",""
"","null","html-keyboard-response","234","386549","0.0-44.0-0.5","SS1613140495340","","","null","","","","","<p><img src= images/blank.png width =""200"" height = ""200"" style = ""float:right""></p><p><img src=images/blank.png width =""800"" height = ""200""></p>","","","","","","","","","","","",""
"","87.99999998882413","sequential-stimulus-presentation","235","387477","0.0-44.0-1.5","SS1613140495340","trial","","40","800","887.9999999888241","images/stimuli/spore_stims/complex_19_B_c.gif","images/stimuli/spore_stims/complex_12_A_b.gif","","","","","12","complex_dissimilar","images/stimuli/spore_stims/complex_12_A_b.gif","left","","","","",""
"","null","html-keyboard-response","236","388688","0.0-44.0-0.6","SS1613140495340","","","null","","","","","<p><img src= images/blank.png width =""200"" height = ""200"" style = ""float:right""></p><p><img src=images/blank.png width =""800"" height = ""200""></p>","","","","","","","","","","","",""
"","180.99999986588955","sequential-stimulus-presentation","237","389693","0.0-44.0-1.6","SS1613140495340","trial","","40","800","980.9999998658895","images/stimuli/spore_stims/complex_19_B_c.gif","images/stimuli/spore_stims/complex_12_A_b.gif","","","","","12","complex_dissimilar","images/stimuli/spore_stims/complex_12_A_b.gif","left","","","","",""
"","null","html-keyboard-response","238","390587","0.0-44.0-0.7","SS1613140495340","","","null","","","","","<p><img src= images/blank.png width =""200"" height = ""200"" style = ""float:right""></p><p><img src=images/blank.png width =""800"" height = ""200""></p>","","","","","","","","","","","",""
"","1.999999862164259","sequential-stimulus-presentation","239","391514","0.0-44.0-1.7","SS1613140495340","trial","","40","800","801.9999998621643","images/stimuli/spore_stims/complex_19_B_c.gif","images/stimuli/spore_stims/complex_12_A_b.gif","","","","","12","complex_dissimilar","images/stimuli/spore_stims/complex_12_A_b.gif","left","","","","",""
"","7020.000000018626","html-keyboard-response","240","398551","0.0-45.0","SS1613140495340","pref_question","","50","","","","","<video width ='960' height = '540' style='padding-top:8%' autoplay muted><source src='images/stimuli/wall_pref.mp4' type='video/mp4'></video>","2","middle","45%","12","","","","","","","",""
"","540.0000000372529","sequential-stimulus-presentation","241","399925","0.0-46.0","SS1613140495340","pref_reveal","","40","800","1340.000000037253","null","null","","","","","12","","","","novel","","","",""
"","null","html-keyboard-response","242","401207","0.0-47.0-0.0","SS1613140495340","","","null","","","","","<p><img src= images/blank.png width =""200"" height = ""200"" style = ""float:right""></p><p><img src=images/blank.png width =""800"" height = ""200""></p>","","","","","","","","","","","",""
"","34.999999683350325","sequential-stimulus-presentation","243","402082","0.0-47.0-1.0","SS1613140495340","trial","","40","800","834.9999996833503","images/stimuli/spore_stims/complex_14_A_a.gif","images/stimuli/spore_stims/complex_20_B_d.gif","","","","","13","complex_dissimilar","images/stimuli/spore_stims/complex_20_B_d.gif","left","","","","",""
"","null","html-keyboard-response","244","403106","0.0-47.0-0.1","SS1613140495340","","","null","","","","","<p><img src= images/blank.png width =""200"" height = ""200"" style = ""float:right""></p><p><img src=images/blank.png width =""800"" height = ""200""></p>","","","","","","","","","","","",""
"","126.00000016391277","sequential-stimulus-presentation","245","404107","0.0-47.0-1.1","SS1613140495340","trial","","40","800","926.0000001639128","images/stimuli/spore_stims/complex_14_A_a.gif","images/stimuli/spore_stims/complex_20_B_d.gif","","","","","13","complex_dissimilar","images/stimuli/spore_stims/complex_20_B_d.gif","left","","","","",""
"","null","html-keyboard-response","246","404983","0.0-47.0-0.2","SS1613140495340","","","null","","","","","<p><img src= images/blank.png width =""200"" height = ""200"" style = ""float:right""></p><p><img src=images/blank.png width =""800"" height = ""200""></p>","","","","","","","","","","","",""
"","1376.0000001639128","sequential-stimulus-presentation","247","407198","0.0-47.0-1.2","SS1613140495340","trial","","40","800","2176.000000163913","images/stimuli/spore_stims/complex_14_A_a.gif","images/stimuli/spore_stims/complex_20_B_d.gif","","","","","13","complex_dissimilar","images/stimuli/spore_stims/complex_14_A_a.gif","middle","","","","",""
"","null","html-keyboard-response","248","408154","0.0-47.0-0.3","SS1613140495340","","","null","","","","","<p><img src= images/blank.png width =""200"" height = ""200"" style = ""float:right""></p><p><img src=images/blank.png width =""800"" height = ""200""></p>","","","","","","","","","","","",""
"","280.9999999590218","sequential-stimulus-presentation","249","409267","0.0-47.0-1.3","SS1613140495340","trial","","40","800","1080.9999999590218","images/stimuli/spore_stims/complex_14_A_a.gif","images/stimuli/spore_stims/complex_20_B_d.gif","","","","","13","complex_dissimilar","images/stimuli/spore_stims/complex_20_B_d.gif","left","","","","",""
"","null","html-keyboard-response","250","410425","0.0-47.0-0.4","SS1613140495340","","","null","","","","","<p><img src= images/blank.png width =""200"" height = ""200"" style = ""float:right""></p><p><img src=images/blank.png width =""800"" height = ""200""></p>","","","","","","","","","","","",""
"","2109.999999869615","sequential-stimulus-presentation","251","413356","0.0-47.0-1.4","SS1613140495340","trial","","40","800","2909.999999869615","images/stimuli/spore_stims/complex_14_A_a.gif","images/stimuli/spore_stims/complex_20_B_d.gif","","","","","13","complex_dissimilar","images/stimuli/spore_stims/complex_20_B_d.gif","left","","","","",""
"","null","html-keyboard-response","252","414180","0.0-47.0-0.5","SS1613140495340","","","null","","","","","<p><img src= images/blank.png width =""200"" height = ""200"" style = ""float:right""></p><p><img src=images/blank.png width =""800"" height = ""200""></p>","","","","","","","","","","","",""
"","6.000000052154064","sequential-stimulus-presentation","253","415015","0.0-47.0-1.5","SS1613140495340","trial","","40","800","806.0000000521541","images/stimuli/spore_stims/complex_14_A_a.gif","images/stimuli/spore_stims/complex_20_B_d.gif","","","","","13","complex_dissimilar","images/stimuli/spore_stims/complex_20_B_d.gif","left","","","","",""
"","null","html-keyboard-response","254","416022","0.0-47.0-0.6","SS1613140495340","","","null","","","","","<p><img src= images/blank.png width =""200"" height = ""200"" style = ""float:right""></p><p><img src=images/blank.png width =""800"" height = ""200""></p>","","","","","","","","","","","",""
"","120.9999998100102","sequential-stimulus-presentation","255","417074","0.0-47.0-1.6","SS1613140495340","trial","","40","800","920.9999998100102","images/stimuli/spore_stims/complex_14_A_a.gif","images/stimuli/spore_stims/complex_20_B_d.gif","","","","","13","complex_dissimilar","images/stimuli/spore_stims/complex_20_B_d.gif","left","","","","",""
"","null","html-keyboard-response","256","418304","0.0-47.0-0.7","SS1613140495340","","","null","","","","","<p><img src= images/blank.png width =""200"" height = ""200"" style = ""float:right""></p><p><img src=images/blank.png width =""800"" height = ""200""></p>","","","","","","","","","","","",""
"","91.00000001490116","sequential-stimulus-presentation","257","419255","0.0-47.0-1.7","SS1613140495340","trial","","40","800","891.0000000149012","images/stimuli/spore_stims/complex_14_A_a.gif","images/stimuli/spore_stims/complex_20_B_d.gif","","","","","13","complex_dissimilar","images/stimuli/spore_stims/complex_20_B_d.gif","left","","","","",""
"","8177.000000141561","html-keyboard-response","258","427439","0.0-48.0","SS1613140495340","pref_question","","50","","","","","<video width ='960' height = '540' style='padding-top:8%' autoplay muted><source src='images/stimuli/wall_pref.mp4' type='video/mp4'></video>","2","middle","45%","13","","","","","","","",""
"","531.9999996572733","sequential-stimulus-presentation","259","428798","0.0-49.0","SS1613140495340","pref_reveal","","40","800","1331.9999996572733","null","null","","","","","13","","","","deviant","","","",""
"","null","html-keyboard-response","260","429905","0.0-50.0-0.0","SS1613140495340","","","null","","","","","<p><img src= images/blank.png width =""200"" height = ""200"" style = ""float:right""></p><p><img src=images/blank.png width =""800"" height = ""200""></p>","","","","","","","","","","","",""
"","530.9999999590218","sequential-stimulus-presentation","261","431323","0.0-50.0-1.0","SS1613140495340","trial","","40","800","1330.9999999590218","images/stimuli/spore_stims/simple_18_B_c.gif","images/stimuli/spore_stims/simple_18_A_c.gif","","","","","14","simple_similar","images/stimuli/spore_stims/simple_18_A_c.gif","middle","","","","",""
"","null","html-keyboard-response","262","432480","0.0-50.0-0.1","SS1613140495340","","","null","","","","","<p><img src= images/blank.png width =""200"" height = ""200"" style = ""float:right""></p><p><img src=images/blank.png width =""800"" height = ""200""></p>","","","","","","","","","","","",""
"","216.00000001490116","sequential-stimulus-presentation","263","433515","0.0-50.0-1.1","SS1613140495340","trial","","40","800","1016.0000000149012","images/stimuli/spore_stims/simple_18_B_c.gif","images/stimuli/spore_stims/simple_18_A_c.gif","","","","","14","simple_similar","images/stimuli/spore_stims/simple_18_A_c.gif","middle","","","","",""
"","null","html-keyboard-response","264","434459","0.0-50.0-0.2","SS1613140495340","","","null","","","","","<p><img src= images/blank.png width =""200"" height = ""200"" style = ""float:right""></p><p><img src=images/blank.png width =""800"" height = ""200""></p>","","","","","","","","","","","",""
"","875","sequential-stimulus-presentation","265","436167","0.0-50.0-1.2","SS1613140495340","trial","","40","800","1675","images/stimuli/spore_stims/simple_18_B_c.gif","images/stimuli/spore_stims/simple_18_A_c.gif","","","","","14","simple_similar","images/stimuli/spore_stims/simple_18_A_c.gif","middle","","","","",""
"","null","html-keyboard-response","266","437062","0.0-50.0-0.3","SS1613140495340","","","null","","","","","<p><img src= images/blank.png width =""200"" height = ""200"" style = ""float:right""></p><p><img src=images/blank.png width =""800"" height = ""200""></p>","","","","","","","","","","","",""
"","191.00000010803342","sequential-stimulus-presentation","267","438167","0.0-50.0-1.3","SS1613140495340","trial","","40","800","991.0000001080334","images/stimuli/spore_stims/simple_18_B_c.gif","images/stimuli/spore_stims/simple_18_A_c.gif","","","","","14","simple_similar","images/stimuli/spore_stims/simple_18_A_c.gif","middle","","","","",""
"","null","html-keyboard-response","268","439244","0.0-50.0-0.4","SS1613140495340","","","null","","","","","<p><img src= images/blank.png width =""200"" height = ""200"" style = ""float:right""></p><p><img src=images/blank.png width =""800"" height = ""200""></p>","","","","","","","","","","","",""
"","149.00000020861626","sequential-stimulus-presentation","269","440258","0.0-50.0-1.4","SS1613140495340","trial","","40","800","949.0000002086163","images/stimuli/spore_stims/simple_18_B_c.gif","images/stimuli/spore_stims/simple_18_A_c.gif","","","","","14","simple_similar","images/stimuli/spore_stims/simple_18_B_c.gif","right","","","","",""
"","null","html-keyboard-response","270","441145","0.0-50.0-0.5","SS1613140495340","","","null","","","","","<p><img src= images/blank.png width =""200"" height = ""200"" style = ""float:right""></p><p><img src=images/blank.png width =""800"" height = ""200""></p>","","","","","","","","","","","",""
"","209.9999999627471","sequential-stimulus-presentation","271","442184","0.0-50.0-1.5","SS1613140495340","trial","","40","800","1009.9999999627471","images/stimuli/spore_stims/simple_18_B_c.gif","images/stimuli/spore_stims/simple_18_A_c.gif","","","","","14","simple_similar","images/stimuli/spore_stims/simple_18_A_c.gif","middle","","","","",""
"","null","html-keyboard-response","272","443247","0.0-50.0-0.6","SS1613140495340","","","null","","","","","<p><img src= images/blank.png width =""200"" height = ""200"" style = ""float:right""></p><p><img src=images/blank.png width =""800"" height = ""200""></p>","","","","","","","","","","","",""
"","44.00000022724271","sequential-stimulus-presentation","273","444132","0.0-50.0-1.6","SS1613140495340","trial","","40","800","844.0000002272427","images/stimuli/spore_stims/simple_18_B_c.gif","images/stimuli/spore_stims/simple_18_A_c.gif","","","","","14","simple_similar","images/stimuli/spore_stims/simple_18_A_c.gif","middle","","","","",""
"","null","html-keyboard-response","274","445418","0.0-50.0-0.7","SS1613140495340","","","null","","","","","<p><img src= images/blank.png width =""200"" height = ""200"" style = ""float:right""></p><p><img src=images/blank.png width =""800"" height = ""200""></p>","","","","","","","","","","","",""
"","160.0000001490116","sequential-stimulus-presentation","275","446453","0.0-50.0-1.7","SS1613140495340","trial","","40","800","960.0000001490116","images/stimuli/spore_stims/simple_18_B_c.gif","images/stimuli/spore_stims/simple_18_A_c.gif","","","","","14","simple_similar","images/stimuli/spore_stims/simple_18_A_c.gif","middle","","","","",""
"","2043.9999997615814","html-keyboard-response","276","448510","0.0-51.0","SS1613140495340","pref_question","","50","","","","","<video width ='960' height = '540' style='padding-top:8%' autoplay muted><source src='images/stimuli/wall_pref.mp4' type='video/mp4'></video>","2","middle","45%","14","","","","","","","",""
"","524.9999999068677","sequential-stimulus-presentation","277","449853","0.0-52.0","SS1613140495340","pref_reveal","","40","800","1324.9999999068677","null","null","","","","","14","","","","background","","","",""
"","null","html-keyboard-response","278","451154","0.0-53.0-0.0","SS1613140495340","","","null","","","","","<p><img src= images/blank.png width =""200"" height = ""200"" style = ""float:right""></p><p><img src=images/blank.png width =""800"" height = ""200""></p>","","","","","","","","","","","",""
"","1.999999862164259","sequential-stimulus-presentation","279","451983","0.0-53.0-1.0","SS1613140495340","trial","","40","800","801.9999998621643","images/stimuli/spore_stims/complex_02_A_a.gif","images/stimuli/spore_stims/complex_12_B_b.gif","","","","","15","complex_dissimilar","images/stimuli/spore_stims/complex_12_B_b.gif","right","","","","",""
"","null","html-keyboard-response","280","453013","0.0-53.0-0.1","SS1613140495340","","","null","","","","","<p><img src= images/blank.png width =""200"" height = ""200"" style = ""float:right""></p><p><img src=images/blank.png width =""800"" height = ""200""></p>","","","","","","","","","","","",""
"","58.99999989196658","sequential-stimulus-presentation","281","453888","0.0-53.0-1.1","SS1613140495340","trial","","40","800","858.9999998919666","images/stimuli/spore_stims/complex_02_A_a.gif","images/stimuli/spore_stims/complex_12_B_b.gif","","","","","15","complex_dissimilar","images/stimuli/spore_stims/complex_12_B_b.gif","right","","","","",""
"","null","html-keyboard-response","282","454938","0.0-53.0-0.2","SS1613140495340","","","null","","","","","<p><img src= images/blank.png width =""200"" height = ""200"" style = ""float:right""></p><p><img src=images/blank.png width =""800"" height = ""200""></p>","","","","","","","","","","","",""
"","125.99999969825149","sequential-stimulus-presentation","283","455915","0.0-53.0-1.2","SS1613140495340","trial","","40","800","925.9999996982515","images/stimuli/spore_stims/complex_02_A_a.gif","images/stimuli/spore_stims/complex_12_B_b.gif","","","","","15","complex_dissimilar","images/stimuli/spore_stims/complex_12_B_b.gif","right","","","","",""
"","null","html-keyboard-response","284","456895","0.0-53.0-0.3","SS1613140495340","","","null","","","","","<p><img src= images/blank.png width =""200"" height = ""200"" style = ""float:right""></p><p><img src=images/blank.png width =""800"" height = ""200""></p>","","","","","","","","","","","",""
"","129.9999998882413","sequential-stimulus-presentation","285","457858","0.0-53.0-1.3","SS1613140495340","trial","","40","800","929.9999998882413","images/stimuli/spore_stims/complex_02_A_a.gif","images/stimuli/spore_stims/complex_12_B_b.gif","","","","","15","complex_dissimilar","images/stimuli/spore_stims/complex_02_A_a.gif","left","","","","",""
"","null","html-keyboard-response","286","458944","0.0-53.0-0.4","SS1613140495340","","","null","","","","","<p><img src= images/blank.png width =""200"" height = ""200"" style = ""float:right""></p><p><img src=images/blank.png width =""800"" height = ""200""></p>","","","","","","","","","","","",""
"","0.9999996982514858","sequential-stimulus-presentation","287","459821","0.0-53.0-1.4","SS1613140495340","trial","","40","800","800.9999996982515","images/stimuli/spore_stims/complex_02_A_a.gif","images/stimuli/spore_stims/complex_12_B_b.gif","","","","","15","complex_dissimilar","images/stimuli/spore_stims/complex_12_B_b.gif","right","","","","",""
"","null","html-keyboard-response","288","461062","0.0-53.0-0.5","SS1613140495340","","","null","","","","","<p><img src= images/blank.png width =""200"" height = ""200"" style = ""float:right""></p><p><img src=images/blank.png width =""800"" height = ""200""></p>","","","","","","","","","","","",""
"","151.00000007078052","sequential-stimulus-presentation","289","462038","0.0-53.0-1.5","SS1613140495340","trial","","40","800","951.0000000707805","images/stimuli/spore_stims/complex_02_A_a.gif","images/stimuli/spore_stims/complex_12_B_b.gif","","","","","15","complex_dissimilar","images/stimuli/spore_stims/complex_12_B_b.gif","right","","","","",""
"","null","html-keyboard-response","290","463215","0.0-53.0-0.6","SS1613140495340","","","null","","","","","<p><img src= images/blank.png width =""200"" height = ""200"" style = ""float:right""></p><p><img src=images/blank.png width =""800"" height = ""200""></p>","","","","","","","","","","","",""
"","125.99999969825149","sequential-stimulus-presentation","291","464168","0.0-53.0-1.6","SS1613140495340","trial","","40","800","925.9999996982515","images/stimuli/spore_stims/complex_02_A_a.gif","images/stimuli/spore_stims/complex_12_B_b.gif","","","","","15","complex_dissimilar","images/stimuli/spore_stims/complex_12_B_b.gif","right","","","","",""
"","null","html-keyboard-response","292","465194","0.0-53.0-0.7","SS1613140495340","","","null","","","","","<p><img src= images/blank.png width =""200"" height = ""200"" style = ""float:right""></p><p><img src=images/blank.png width =""800"" height = ""200""></p>","","","","","","","","","","","",""
"","92.00000017881393","sequential-stimulus-presentation","293","466107","0.0-53.0-1.7","SS1613140495340","trial","","40","800","892.0000001788139","images/stimuli/spore_stims/complex_02_A_a.gif","images/stimuli/spore_stims/complex_12_B_b.gif","","","","","15","complex_dissimilar","images/stimuli/spore_stims/complex_12_B_b.gif","right","","","","",""
"","5851.9999999552965","html-keyboard-response","294","471968","0.0-54.0","SS1613140495340","pref_question","","51","","","","","<video width ='960' height = '540' style='padding-top:8%' autoplay muted><source src='images/stimuli/wall_pref.mp4' type='video/mp4'></video>","3","right","66%","15","","","","","","","",""
"","407.0000001229346","sequential-stimulus-presentation","295","473298","0.0-55.0","SS1613140495340","pref_reveal","","40","800","1207.0000001229346","null","null","","","","","15","","","","background","","","",""
"","null","html-keyboard-response","296","474114","0.0-56.0-0.0","SS1613140495340","","","null","","","","","<p><img src= images/blank.png width =""200"" height = ""200"" style = ""float:right""></p><p><img src=images/blank.png width =""800"" height = ""200""></p>","","","","","","","","","","","",""
"","2046.9999997876585","sequential-stimulus-presentation","297","477032","0.0-56.0-1.0","SS1613140495340","trial","","40","800","2846.9999997876585","images/stimuli/spore_stims/complex_16_A_c.gif","images/stimuli/spore_stims/complex_16_B_c.gif","","","","","16","complex_similar","images/stimuli/spore_stims/complex_16_B_c.gif","left","","","","",""
"","null","html-keyboard-response","298","478234","0.0-56.0-0.1","SS1613140495340","","","null","","","","","<p><img src= images/blank.png width =""200"" height = ""200"" style = ""float:right""></p><p><img src=images/blank.png width =""800"" height = ""200""></p>","","","","","","","","","","","",""
"","84.00000026449561","sequential-stimulus-presentation","299","479131","0.0-56.0-1.1","SS1613140495340","trial","","40","800","884.0000002644956","images/stimuli/spore_stims/complex_16_A_c.gif","images/stimuli/spore_stims/complex_16_B_c.gif","","","","","16","complex_similar","images/stimuli/spore_stims/complex_16_B_c.gif","left","","","","",""
"","null","html-keyboard-response","300","479975","0.0-56.0-0.2","SS1613140495340","","","null","","","","","<p><img src= images/blank.png width =""200"" height = ""200"" style = ""float:right""></p><p><img src=images/blank.png width =""800"" height = ""200""></p>","","","","","","","","","","","",""
"","1.0000001639127731","sequential-stimulus-presentation","301","480791","0.0-56.0-1.2","SS1613140495340","trial","","40","800","801.0000001639128","images/stimuli/spore_stims/complex_16_A_c.gif","images/stimuli/spore_stims/complex_16_B_c.gif","","","","","16","complex_similar","images/stimuli/spore_stims/complex_16_A_c.gif","right","","","","",""
"","null","html-keyboard-response","302","481775","0.0-56.0-0.3","SS1613140495340","","","null","","","","","<p><img src= images/blank.png width =""200"" height = ""200"" style = ""float:right""></p><p><img src=images/blank.png width =""800"" height = ""200""></p>","","","","","","","","","","","",""
"","60.000000055879354","sequential-stimulus-presentation","303","482668","0.0-56.0-1.3","SS1613140495340","trial","","40","800","860.0000000558794","images/stimuli/spore_stims/complex_16_A_c.gif","images/stimuli/spore_stims/complex_16_B_c.gif","","","","","16","complex_similar","images/stimuli/spore_stims/complex_16_B_c.gif","left","","","","",""
"","null","html-keyboard-response","304","483553","0.0-56.0-0.4","SS1613140495340","","","null","","","","","<p><img src= images/blank.png width =""200"" height = ""200"" style = ""float:right""></p><p><img src=images/blank.png width =""800"" height = ""200""></p>","","","","","","","","","","","",""
"","203.99999991059303","sequential-stimulus-presentation","305","484597","0.0-56.0-1.4","SS1613140495340","trial","","40","800","1003.999999910593","images/stimuli/spore_stims/complex_16_A_c.gif","images/stimuli/spore_stims/complex_16_B_c.gif","","","","","16","complex_similar","images/stimuli/spore_stims/complex_16_B_c.gif","left","","","","",""
"","null","html-keyboard-response","306","485577","0.0-56.0-0.5","SS1613140495340","","","null","","","","","<p><img src= images/blank.png width =""200"" height = ""200"" style = ""float:right""></p><p><img src=images/blank.png width =""800"" height = ""200""></p>","","","","","","","","","","","",""
"","179.0000000037253","sequential-stimulus-presentation","307","486571","0.0-56.0-1.5","SS1613140495340","trial","","40","800","979.0000000037253","images/stimuli/spore_stims/complex_16_A_c.gif","images/stimuli/spore_stims/complex_16_B_c.gif","","","","","16","complex_similar","images/stimuli/spore_stims/complex_16_B_c.gif","left","","","","",""
"","null","html-keyboard-response","308","487781","0.0-56.0-0.6","SS1613140495340","","","null","","","","","<p><img src= images/blank.png width =""200"" height = ""200"" style = ""float:right""></p><p><img src=images/blank.png width =""800"" height = ""200""></p>","","","","","","","","","","","",""
"","239.00000005960464","sequential-stimulus-presentation","309","488876","0.0-56.0-1.6","SS1613140495340","trial","","40","800","1039.0000000596046","images/stimuli/spore_stims/complex_16_A_c.gif","images/stimuli/spore_stims/complex_16_B_c.gif","","","","","16","complex_similar","images/stimuli/spore_stims/complex_16_B_c.gif","left","","","","",""
"","null","html-keyboard-response","310","489878","0.0-56.0-0.7","SS1613140495340","","","null","","","","","<p><img src= images/blank.png width =""200"" height = ""200"" style = ""float:right""></p><p><img src=images/blank.png width =""800"" height = ""200""></p>","","","","","","","","","","","",""
"","279.00000009685755","sequential-stimulus-presentation","311","490982","0.0-56.0-1.7","SS1613140495340","trial","","40","800","1079.0000000968575","images/stimuli/spore_stims/complex_16_A_c.gif","images/stimuli/spore_stims/complex_16_B_c.gif","","","","","16","complex_similar","images/stimuli/spore_stims/complex_16_B_c.gif","left","","","","",""
"","1992.0000000856817","html-keyboard-response","312","492985","0.0-57.0","SS1613140495340","pref_question","","50","","","","","<video width ='960' height = '540' style='padding-top:8%' autoplay muted><source src='images/stimuli/wall_pref.mp4' type='video/mp4'></video>","2","middle","45%","16","","","","","","","",""
