"view_history","rt","trial_type","trial_index","time_elapsed","internal_node_id","subject","stimulus_type","trial_stimulus","key_press","minimum_viewing_duration","trial_looking_time","block_deviant","block_background","stimulus","wall_pref","location","location_percent","block_number","block_type","stimulus_displayed","position_displayed","stim_type_selected","responses","question_order","stimulus_left","stimulus_right"
"[{""page_index"":0,""viewing_time"":6016.710000112653}]","6018.540000077337","instructions","0","6022","0.0-0.0","SS1613178183117","","","","","","","","","","","","","","","","","","","",""
"[{""page_index"":0,""viewing_time"":6934.000000008382},{""page_index"":1,""viewing_time"":21020.909999962896}]","27955.575000029057","instructions","1","35983","0.0-1.0","SS1613178183117","instructions","","","","","","","","","","","","","","","","","","",""
"","25212.474999949336","sequential-stimulus-presentation","2","62010","0.0-2.0","SS1613178183117","","","40","800","26012.474999949336","null","null","","","","","","","","","","","","",""
"","10740.684999967925","sequential-stimulus-presentation","3","73560","0.0-3.0","SS1613178183117","","","40","800","11540.684999967925","null","null","","","","","","","","","","","","",""
"[{""page_index"":0,""viewing_time"":11492.02000000514}]","11492.510000010952","instructions","4","85055","0.0-4.0","SS1613178183117","instructions","","","","","","","","","","","","","","","","","","",""
"","22546.98499990627","html-keyboard-response","5","107608","0.0-5.0","SS1613178183117","instructions","","49","","","","","<video width ='960' height = '540' autoplay muted><source src='images/stimuli/wall_pref.mp4' type='video/mp4'></video>","1","left","25%","","","","","","","","",""
"","2319.069999968633","sequential-stimulus-presentation","6","110742","0.0-6.0","SS1613178183117","pref_reveal","","40","800","3119.069999968633","null","null","","","","","","","","","","","","",""
"[{""page_index"":0,""viewing_time"":6145.980000030249},{""page_index"":1,""viewing_time"":4463.67999992799},{""page_index"":2,""viewing_time"":2775.1400000415742},{""page_index"":3,""viewing_time"":1544.4750000024214}]","14929.905000026338","instructions","7","125676","0.0-7.0","SS1613178183117","instructions","","","","","","","","","","","","","","","","","","",""
"","null","html-keyboard-response","8","126653","0.0-8.0-0.0","SS1613178183117","","","null","","","","","<p><img src= images/blank.png width =""200"" height = ""200"" style = ""float:right""></p><p><img src=images/blank.png width =""800"" height = ""200""></p>","","","","","","","","","","","",""
"","1629.7400000039488","sequential-stimulus-presentation","9","129094","0.0-8.0-1.0","SS1613178183117","trial","","40","800","2429.740000003949","images/stimuli/spore_stims/simple_19_B_c.gif","images/stimuli/spore_stims/simple_19_A_c.gif","","","","","0","simple_similar","images/stimuli/spore_stims/simple_19_A_c.gif","left","","","","",""
"","null","html-keyboard-response","10","130011","0.0-8.0-0.1","SS1613178183117","","","null","","","","","<p><img src= images/blank.png width =""200"" height = ""200"" style = ""float:right""></p><p><img src=images/blank.png width =""800"" height = ""200""></p>","","","","","","","","","","","",""
"","1126.7350000562146","sequential-stimulus-presentation","11","131952","0.0-8.0-1.1","SS1613178183117","trial","","40","800","1926.7350000562146","images/stimuli/spore_stims/simple_19_B_c.gif","images/stimuli/spore_stims/simple_19_A_c.gif","","","","","0","simple_similar","images/stimuli/spore_stims/simple_19_A_c.gif","left","","","","",""
"","null","html-keyboard-response","12","132880","0.0-8.0-0.2","SS1613178183117","","","null","","","","","<p><img src= images/blank.png width =""200"" height = ""200"" style = ""float:right""></p><p><img src=images/blank.png width =""800"" height = ""200""></p>","","","","","","","","","","","",""
"","553.6050000227988","sequential-stimulus-presentation","13","134246","0.0-8.0-1.2","SS1613178183117","trial","","40","800","1353.6050000227988","images/stimuli/spore_stims/simple_19_B_c.gif","images/stimuli/spore_stims/simple_19_A_c.gif","","","","","0","simple_similar","images/stimuli/spore_stims/simple_19_A_c.gif","left","","","","",""
"","null","html-keyboard-response","14","135387","0.0-8.0-0.3","SS1613178183117","","","null","","","","","<p><img src= images/blank.png width =""200"" height = ""200"" style = ""float:right""></p><p><img src=images/blank.png width =""800"" height = ""200""></p>","","","","","","","","","","","",""
"","663.8950000051409","sequential-stimulus-presentation","15","136862","0.0-8.0-1.3","SS1613178183117","trial","","40","800","1463.895000005141","images/stimuli/spore_stims/simple_19_B_c.gif","images/stimuli/spore_stims/simple_19_A_c.gif","","","","","0","simple_similar","images/stimuli/spore_stims/simple_19_A_c.gif","left","","","","",""
"","null","html-keyboard-response","16","137726","0.0-8.0-0.4","SS1613178183117","","","null","","","","","<p><img src= images/blank.png width =""200"" height = ""200"" style = ""float:right""></p><p><img src=images/blank.png width =""800"" height = ""200""></p>","","","","","","","","","","","",""
"","571.17000001017","sequential-stimulus-presentation","17","139110","0.0-8.0-1.4","SS1613178183117","trial","","40","800","1371.17000001017","images/stimuli/spore_stims/simple_19_B_c.gif","images/stimuli/spore_stims/simple_19_A_c.gif","","","","","0","simple_similar","images/stimuli/spore_stims/simple_19_A_c.gif","left","","","","",""
"","null","html-keyboard-response","18","140093","0.0-8.0-0.5","SS1613178183117","","","null","","","","","<p><img src= images/blank.png width =""200"" height = ""200"" style = ""float:right""></p><p><img src=images/blank.png width =""800"" height = ""200""></p>","","","","","","","","","","","",""
"","4541.770000010729","sequential-stimulus-presentation","19","145446","0.0-8.0-1.5","SS1613178183117","trial","","40","800","5341.770000010729","images/stimuli/spore_stims/simple_19_B_c.gif","images/stimuli/spore_stims/simple_19_A_c.gif","","","","","0","simple_similar","images/stimuli/spore_stims/simple_19_B_c.gif","right","","","","",""
"","null","html-keyboard-response","20","146290","0.0-8.0-0.6","SS1613178183117","","","null","","","","","<p><img src= images/blank.png width =""200"" height = ""200"" style = ""float:right""></p><p><img src=images/blank.png width =""800"" height = ""200""></p>","","","","","","","","","","","",""
"","972.5649999454618","sequential-stimulus-presentation","21","148077","0.0-8.0-1.6","SS1613178183117","trial","","40","800","1772.5649999454618","images/stimuli/spore_stims/simple_19_B_c.gif","images/stimuli/spore_stims/simple_19_A_c.gif","","","","","0","simple_similar","images/stimuli/spore_stims/simple_19_A_c.gif","left","","","","",""
"","null","html-keyboard-response","22","148924","0.0-8.0-0.7","SS1613178183117","","","null","","","","","<p><img src= images/blank.png width =""200"" height = ""200"" style = ""float:right""></p><p><img src=images/blank.png width =""800"" height = ""200""></p>","","","","","","","","","","","",""
"","636.5650000516325","sequential-stimulus-presentation","23","150374","0.0-8.0-1.7","SS1613178183117","trial","","40","800","1436.5650000516325","images/stimuli/spore_stims/simple_19_B_c.gif","images/stimuli/spore_stims/simple_19_A_c.gif","","","","","0","simple_similar","images/stimuli/spore_stims/simple_19_A_c.gif","left","","","","",""
"","3935.7750000199303","html-keyboard-response","24","154317","0.0-9.0","SS1613178183117","pref_question","","49","","","","","<video width ='960' height = '540' style='padding-top:8%' autoplay muted><source src='images/stimuli/wall_pref.mp4' type='video/mp4'></video>","1","left","25%","0","","","","","","","",""
"","654.5049999840558","sequential-stimulus-presentation","25","155783","0.0-10.0","SS1613178183117","pref_reveal","","40","800","1454.5049999840558","null","null","","","","","0","","","","background","","","",""
"","null","html-keyboard-response","26","156965","0.0-11.0-0.0","SS1613178183117","","","null","","","","","<p><img src= images/blank.png width =""200"" height = ""200"" style = ""float:right""></p><p><img src=images/blank.png width =""800"" height = ""200""></p>","","","","","","","","","","","",""
"","1868.6599999200553","sequential-stimulus-presentation","27","159646","0.0-11.0-1.0","SS1613178183117","trial","","40","800","2668.6599999200553","images/stimuli/spore_stims/simple_18_B_c.gif","images/stimuli/spore_stims/simple_18_A_c.gif","","","","","1","simple_similar","images/stimuli/spore_stims/simple_18_A_c.gif","left","","","","",""
"","null","html-keyboard-response","28","160874","0.0-11.0-0.1","SS1613178183117","","","null","","","","","<p><img src= images/blank.png width =""200"" height = ""200"" style = ""float:right""></p><p><img src=images/blank.png width =""800"" height = ""200""></p>","","","","","","","","","","","",""
"","752.6599999982864","sequential-stimulus-presentation","29","162438","0.0-11.0-1.1","SS1613178183117","trial","","40","800","1552.6599999982864","images/stimuli/spore_stims/simple_18_B_c.gif","images/stimuli/spore_stims/simple_18_A_c.gif","","","","","1","simple_similar","images/stimuli/spore_stims/simple_18_A_c.gif","left","","","","",""
"","null","html-keyboard-response","30","163459","0.0-11.0-0.2","SS1613178183117","","","null","","","","","<p><img src= images/blank.png width =""200"" height = ""200"" style = ""float:right""></p><p><img src=images/blank.png width =""800"" height = ""200""></p>","","","","","","","","","","","",""
"","835.4849999304861","sequential-stimulus-presentation","31","165109","0.0-11.0-1.2","SS1613178183117","trial","","40","800","1635.484999930486","images/stimuli/spore_stims/simple_18_B_c.gif","images/stimuli/spore_stims/simple_18_A_c.gif","","","","","1","simple_similar","images/stimuli/spore_stims/simple_18_A_c.gif","left","","","","",""
"","null","html-keyboard-response","32","166221","0.0-11.0-0.3","SS1613178183117","","","null","","","","","<p><img src= images/blank.png width =""200"" height = ""200"" style = ""float:right""></p><p><img src=images/blank.png width =""800"" height = ""200""></p>","","","","","","","","","","","",""
"","604.2649999726564","sequential-stimulus-presentation","33","167639","0.0-11.0-1.3","SS1613178183117","trial","","40","800","1404.2649999726564","images/stimuli/spore_stims/simple_18_B_c.gif","images/stimuli/spore_stims/simple_18_A_c.gif","","","","","1","simple_similar","images/stimuli/spore_stims/simple_18_A_c.gif","left","","","","",""
"","null","html-keyboard-response","34","168719","0.0-11.0-0.4","SS1613178183117","","","null","","","","","<p><img src= images/blank.png width =""200"" height = ""200"" style = ""float:right""></p><p><img src=images/blank.png width =""800"" height = ""200""></p>","","","","","","","","","","","",""
"","667.0349999330938","sequential-stimulus-presentation","35","170197","0.0-11.0-1.4","SS1613178183117","trial","","40","800","1467.0349999330938","images/stimuli/spore_stims/simple_18_B_c.gif","images/stimuli/spore_stims/simple_18_A_c.gif","","","","","1","simple_similar","images/stimuli/spore_stims/simple_18_A_c.gif","left","","","","",""
"","null","html-keyboard-response","36","171127","0.0-11.0-0.5","SS1613178183117","","","null","","","","","<p><img src= images/blank.png width =""200"" height = ""200"" style = ""float:right""></p><p><img src=images/blank.png width =""800"" height = ""200""></p>","","","","","","","","","","","",""
"","552.2900000214577","sequential-stimulus-presentation","37","172493","0.0-11.0-1.5","SS1613178183117","trial","","40","800","1352.2900000214577","images/stimuli/spore_stims/simple_18_B_c.gif","images/stimuli/spore_stims/simple_18_A_c.gif","","","","","1","simple_similar","images/stimuli/spore_stims/simple_18_A_c.gif","left","","","","",""
"","null","html-keyboard-response","38","173415","0.0-11.0-0.6","SS1613178183117","","","null","","","","","<p><img src= images/blank.png width =""200"" height = ""200"" style = ""float:right""></p><p><img src=images/blank.png width =""800"" height = ""200""></p>","","","","","","","","","","","",""
"","1003.6000000545755","sequential-stimulus-presentation","39","175229","0.0-11.0-1.6","SS1613178183117","trial","","40","800","1803.6000000545755","images/stimuli/spore_stims/simple_18_B_c.gif","images/stimuli/spore_stims/simple_18_A_c.gif","","","","","1","simple_similar","images/stimuli/spore_stims/simple_18_B_c.gif","middle","","","","",""
"","null","html-keyboard-response","40","176165","0.0-11.0-0.7","SS1613178183117","","","null","","","","","<p><img src= images/blank.png width =""200"" height = ""200"" style = ""float:right""></p><p><img src=images/blank.png width =""800"" height = ""200""></p>","","","","","","","","","","","",""
"","527.0849999506027","sequential-stimulus-presentation","41","177502","0.0-11.0-1.7","SS1613178183117","trial","","40","800","1327.0849999506027","images/stimuli/spore_stims/simple_18_B_c.gif","images/stimuli/spore_stims/simple_18_A_c.gif","","","","","1","simple_similar","images/stimuli/spore_stims/simple_18_A_c.gif","left","","","","",""
"","1535.4050000896677","html-keyboard-response","42","179048","0.0-12.0","SS1613178183117","pref_question","","49","","","","","<video width ='960' height = '540' style='padding-top:8%' autoplay muted><source src='images/stimuli/wall_pref.mp4' type='video/mp4'></video>","1","left","25%","1","","","","","","","",""
"","1050.66499998793","sequential-stimulus-presentation","43","180910","0.0-13.0","SS1613178183117","pref_reveal","","40","800","1850.66499998793","null","null","","","","","1","","","","background","","","",""
"","null","html-keyboard-response","44","182120","0.0-14.0-0.0","SS1613178183117","","","null","","","","","<p><img src= images/blank.png width =""200"" height = ""200"" style = ""float:right""></p><p><img src=images/blank.png width =""800"" height = ""200""></p>","","","","","","","","","","","",""
"","896.5199999511242","sequential-stimulus-presentation","45","183830","0.0-14.0-1.0","SS1613178183117","trial","","40","800","1696.5199999511242","images/stimuli/spore_stims/complex_01_A_c.gif","images/stimuli/spore_stims/complex_04_B_d.gif","","","","","2","complex_dissimilar","images/stimuli/spore_stims/complex_04_B_d.gif","left","","","","",""
"","null","html-keyboard-response","46","184677","0.0-14.0-0.1","SS1613178183117","","","null","","","","","<p><img src= images/blank.png width =""200"" height = ""200"" style = ""float:right""></p><p><img src=images/blank.png width =""800"" height = ""200""></p>","","","","","","","","","","","",""
"","701.3599999481812","sequential-stimulus-presentation","47","186190","0.0-14.0-1.1","SS1613178183117","trial","","40","800","1501.3599999481812","images/stimuli/spore_stims/complex_01_A_c.gif","images/stimuli/spore_stims/complex_04_B_d.gif","","","","","2","complex_dissimilar","images/stimuli/spore_stims/complex_04_B_d.gif","left","","","","",""
"","null","html-keyboard-response","48","187298","0.0-14.0-0.2","SS1613178183117","","","null","","","","","<p><img src= images/blank.png width =""200"" height = ""200"" style = ""float:right""></p><p><img src=images/blank.png width =""800"" height = ""200""></p>","","","","","","","","","","","",""
"","712.1899999910966","sequential-stimulus-presentation","49","188821","0.0-14.0-1.2","SS1613178183117","trial","","40","800","1512.1899999910966","images/stimuli/spore_stims/complex_01_A_c.gif","images/stimuli/spore_stims/complex_04_B_d.gif","","","","","2","complex_dissimilar","images/stimuli/spore_stims/complex_04_B_d.gif","left","","","","",""
"","null","html-keyboard-response","50","190115","0.0-14.0-0.3","SS1613178183117","","","null","","","","","<p><img src= images/blank.png width =""200"" height = ""200"" style = ""float:right""></p><p><img src=images/blank.png width =""800"" height = ""200""></p>","","","","","","","","","","","",""
"","504.45999996736646","sequential-stimulus-presentation","51","191431","0.0-14.0-1.3","SS1613178183117","trial","","40","800","1304.4599999673665","images/stimuli/spore_stims/complex_01_A_c.gif","images/stimuli/spore_stims/complex_04_B_d.gif","","","","","2","complex_dissimilar","images/stimuli/spore_stims/complex_04_B_d.gif","left","","","","",""
"","null","html-keyboard-response","52","192245","0.0-14.0-0.4","SS1613178183117","","","null","","","","","<p><img src= images/blank.png width =""200"" height = ""200"" style = ""float:right""></p><p><img src=images/blank.png width =""800"" height = ""200""></p>","","","","","","","","","","","",""
"","436.8149999063462","sequential-stimulus-presentation","53","193493","0.0-14.0-1.4","SS1613178183117","trial","","40","800","1236.8149999063462","images/stimuli/spore_stims/complex_01_A_c.gif","images/stimuli/spore_stims/complex_04_B_d.gif","","","","","2","complex_dissimilar","images/stimuli/spore_stims/complex_04_B_d.gif","left","","","","",""
"","null","html-keyboard-response","54","194641","0.0-14.0-0.5","SS1613178183117","","","null","","","","","<p><img src= images/blank.png width =""200"" height = ""200"" style = ""float:right""></p><p><img src=images/blank.png width =""800"" height = ""200""></p>","","","","","","","","","","","",""
"","424.6699999785051","sequential-stimulus-presentation","55","195877","0.0-14.0-1.5","SS1613178183117","trial","","40","800","1224.669999978505","images/stimuli/spore_stims/complex_01_A_c.gif","images/stimuli/spore_stims/complex_04_B_d.gif","","","","","2","complex_dissimilar","images/stimuli/spore_stims/complex_04_B_d.gif","left","","","","",""
"","null","html-keyboard-response","56","197078","0.0-14.0-0.6","SS1613178183117","","","null","","","","","<p><img src= images/blank.png width =""200"" height = ""200"" style = ""float:right""></p><p><img src=images/blank.png width =""800"" height = ""200""></p>","","","","","","","","","","","",""
"","459.5549999503419","sequential-stimulus-presentation","57","198349","0.0-14.0-1.6","SS1613178183117","trial","","40","800","1259.5549999503419","images/stimuli/spore_stims/complex_01_A_c.gif","images/stimuli/spore_stims/complex_04_B_d.gif","","","","","2","complex_dissimilar","images/stimuli/spore_stims/complex_04_B_d.gif","left","","","","",""
"","null","html-keyboard-response","58","199629","0.0-14.0-0.7","SS1613178183117","","","null","","","","","<p><img src= images/blank.png width =""200"" height = ""200"" style = ""float:right""></p><p><img src=images/blank.png width =""800"" height = ""200""></p>","","","","","","","","","","","",""
"","596.6100000077859","sequential-stimulus-presentation","59","201038","0.0-14.0-1.7","SS1613178183117","trial","","40","800","1396.6100000077859","images/stimuli/spore_stims/complex_01_A_c.gif","images/stimuli/spore_stims/complex_04_B_d.gif","","","","","2","complex_dissimilar","images/stimuli/spore_stims/complex_01_A_c.gif","middle","","","","",""
"","2003.2149999169633","html-keyboard-response","60","203047","0.0-15.0","SS1613178183117","pref_question","","49","","","","","<video width ='960' height = '540' style='padding-top:8%' autoplay muted><source src='images/stimuli/wall_pref.mp4' type='video/mp4'></video>","1","left","25%","2","","","","","","","",""
"","907.0000000065193","sequential-stimulus-presentation","61","204765","0.0-16.0","SS1613178183117","pref_reveal","","40","800","1707.0000000065193","null","null","","","","","2","","","","background","","","",""
"","null","html-keyboard-response","62","205615","0.0-17.0-0.0","SS1613178183117","","","null","","","","","<p><img src= images/blank.png width =""200"" height = ""200"" style = ""float:right""></p><p><img src=images/blank.png width =""800"" height = ""200""></p>","","","","","","","","","","","",""
"","512.6799999270588","sequential-stimulus-presentation","63","206941","0.0-17.0-1.0","SS1613178183117","trial","","40","800","1312.6799999270588","images/stimuli/spore_stims/simple_11_A_d.gif","images/stimuli/spore_stims/simple_07_B_c.gif","","","","","3","simple_dissimilar","images/stimuli/spore_stims/simple_07_B_c.gif","left","","","","",""
"","null","html-keyboard-response","64","207882","0.0-17.0-0.1","SS1613178183117","","","null","","","","","<p><img src= images/blank.png width =""200"" height = ""200"" style = ""float:right""></p><p><img src=images/blank.png width =""800"" height = ""200""></p>","","","","","","","","","","","",""
"","2137.2749999864027","sequential-stimulus-presentation","65","210837","0.0-17.0-1.1","SS1613178183117","trial","","40","800","2937.2749999864027","images/stimuli/spore_stims/simple_11_A_d.gif","images/stimuli/spore_stims/simple_07_B_c.gif","","","","","3","simple_dissimilar","images/stimuli/spore_stims/simple_07_B_c.gif","left","","","","",""
"","null","html-keyboard-response","66","212003","0.0-17.0-0.2","SS1613178183117","","","null","","","","","<p><img src= images/blank.png width =""200"" height = ""200"" style = ""float:right""></p><p><img src=images/blank.png width =""800"" height = ""200""></p>","","","","","","","","","","","",""
"","670.174999977462","sequential-stimulus-presentation","67","213487","0.0-17.0-1.2","SS1613178183117","trial","","40","800","1470.174999977462","images/stimuli/spore_stims/simple_11_A_d.gif","images/stimuli/spore_stims/simple_07_B_c.gif","","","","","3","simple_dissimilar","images/stimuli/spore_stims/simple_07_B_c.gif","left","","","","",""
"","null","html-keyboard-response","68","214498","0.0-17.0-0.3","SS1613178183117","","","null","","","","","<p><img src= images/blank.png width =""200"" height = ""200"" style = ""float:right""></p><p><img src=images/blank.png width =""800"" height = ""200""></p>","","","","","","","","","","","",""
"","727.6549999369308","sequential-stimulus-presentation","69","216037","0.0-17.0-1.3","SS1613178183117","trial","","40","800","1527.6549999369308","images/stimuli/spore_stims/simple_11_A_d.gif","images/stimuli/spore_stims/simple_07_B_c.gif","","","","","3","simple_dissimilar","images/stimuli/spore_stims/simple_07_B_c.gif","left","","","","",""
"","null","html-keyboard-response","70","216866","0.0-17.0-0.4","SS1613178183117","","","null","","","","","<p><img src= images/blank.png width =""200"" height = ""200"" style = ""float:right""></p><p><img src=images/blank.png width =""800"" height = ""200""></p>","","","","","","","","","","","",""
"","1966.4600000251085","sequential-stimulus-presentation","71","219645","0.0-17.0-1.4","SS1613178183117","trial","","40","800","2766.4600000251085","images/stimuli/spore_stims/simple_11_A_d.gif","images/stimuli/spore_stims/simple_07_B_c.gif","","","","","3","simple_dissimilar","images/stimuli/spore_stims/simple_11_A_d.gif","right","","","","",""
"","null","html-keyboard-response","72","220697","0.0-17.0-0.5","SS1613178183117","","","null","","","","","<p><img src= images/blank.png width =""200"" height = ""200"" style = ""float:right""></p><p><img src=images/blank.png width =""800"" height = ""200""></p>","","","","","","","","","","","",""
"","1947.3149999976158","sequential-stimulus-presentation","73","223461","0.0-17.0-1.5","SS1613178183117","trial","","40","800","2747.314999997616","images/stimuli/spore_stims/simple_11_A_d.gif","images/stimuli/spore_stims/simple_07_B_c.gif","","","","","3","simple_dissimilar","images/stimuli/spore_stims/simple_07_B_c.gif","left","","","","",""
"","null","html-keyboard-response","74","224761","0.0-17.0-0.6","SS1613178183117","","","null","","","","","<p><img src= images/blank.png width =""200"" height = ""200"" style = ""float:right""></p><p><img src=images/blank.png width =""800"" height = ""200""></p>","","","","","","","","","","","",""
"","816.2999999476597","sequential-stimulus-presentation","75","226390","0.0-17.0-1.6","SS1613178183117","trial","","40","800","1616.2999999476597","images/stimuli/spore_stims/simple_11_A_d.gif","images/stimuli/spore_stims/simple_07_B_c.gif","","","","","3","simple_dissimilar","images/stimuli/spore_stims/simple_07_B_c.gif","left","","","","",""
"","null","html-keyboard-response","76","227646","0.0-17.0-0.7","SS1613178183117","","","null","","","","","<p><img src= images/blank.png width =""200"" height = ""200"" style = ""float:right""></p><p><img src=images/blank.png width =""800"" height = ""200""></p>","","","","","","","","","","","",""
"","403.9799999445677","sequential-stimulus-presentation","77","228861","0.0-17.0-1.7","SS1613178183117","trial","","40","800","1203.9799999445677","images/stimuli/spore_stims/simple_11_A_d.gif","images/stimuli/spore_stims/simple_07_B_c.gif","","","","","3","simple_dissimilar","images/stimuli/spore_stims/simple_07_B_c.gif","left","","","","",""
"","1941.880000056699","html-keyboard-response","78","230812","0.0-18.0","SS1613178183117","pref_question","","50","","","","","<video width ='960' height = '540' style='padding-top:8%' autoplay muted><source src='images/stimuli/wall_pref.mp4' type='video/mp4'></video>","2","middle","45%","3","","","","","","","",""
"","1473.6399999819696","sequential-stimulus-presentation","79","233092","0.0-19.0","SS1613178183117","pref_reveal","","40","800","2273.6399999819696","null","null","","","","","3","","","","novel","","","",""
"","null","html-keyboard-response","80","234084","0.0-20.0-0.0","SS1613178183117","","","null","","","","","<p><img src= images/blank.png width =""200"" height = ""200"" style = ""float:right""></p><p><img src=images/blank.png width =""800"" height = ""200""></p>","","","","","","","","","","","",""
"","584.5199999166653","sequential-stimulus-presentation","81","235476","0.0-20.0-1.0","SS1613178183117","trial","","40","800","1384.5199999166653","images/stimuli/spore_stims/simple_12_A_d.gif","images/stimuli/spore_stims/simple_12_B_d.gif","","","","","4","simple_similar","images/stimuli/spore_stims/simple_12_B_d.gif","left","","","","",""
"","null","html-keyboard-response","82","236470","0.0-20.0-0.1","SS1613178183117","","","null","","","","","<p><img src= images/blank.png width =""200"" height = ""200"" style = ""float:right""></p><p><img src=images/blank.png width =""800"" height = ""200""></p>","","","","","","","","","","","",""
"","395.6750000361353","sequential-stimulus-presentation","83","237679","0.0-20.0-1.1","SS1613178183117","trial","","40","800","1195.6750000361353","images/stimuli/spore_stims/simple_12_A_d.gif","images/stimuli/spore_stims/simple_12_B_d.gif","","","","","4","simple_similar","images/stimuli/spore_stims/simple_12_B_d.gif","left","","","","",""
"","null","html-keyboard-response","84","238961","0.0-20.0-0.2","SS1613178183117","","","null","","","","","<p><img src= images/blank.png width =""200"" height = ""200"" style = ""float:right""></p><p><img src=images/blank.png width =""800"" height = ""200""></p>","","","","","","","","","","","",""
"","408.2750000525266","sequential-stimulus-presentation","85","240182","0.0-20.0-1.2","SS1613178183117","trial","","40","800","1208.2750000525266","images/stimuli/spore_stims/simple_12_A_d.gif","images/stimuli/spore_stims/simple_12_B_d.gif","","","","","4","simple_similar","images/stimuli/spore_stims/simple_12_B_d.gif","left","","","","",""
"","null","html-keyboard-response","86","240996","0.0-20.0-0.3","SS1613178183117","","","null","","","","","<p><img src= images/blank.png width =""200"" height = ""200"" style = ""float:right""></p><p><img src=images/blank.png width =""800"" height = ""200""></p>","","","","","","","","","","","",""
"","661.3150000339374","sequential-stimulus-presentation","87","242469","0.0-20.0-1.3","SS1613178183117","trial","","40","800","1461.3150000339374","images/stimuli/spore_stims/simple_12_A_d.gif","images/stimuli/spore_stims/simple_12_B_d.gif","","","","","4","simple_similar","images/stimuli/spore_stims/simple_12_A_d.gif","right","","","","",""
"","null","html-keyboard-response","88","243543","0.0-20.0-0.4","SS1613178183117","","","null","","","","","<p><img src= images/blank.png width =""200"" height = ""200"" style = ""float:right""></p><p><img src=images/blank.png width =""800"" height = ""200""></p>","","","","","","","","","","","",""
"","428.5349999554455","sequential-stimulus-presentation","89","244805","0.0-20.0-1.4","SS1613178183117","trial","","40","800","1228.5349999554455","images/stimuli/spore_stims/simple_12_A_d.gif","images/stimuli/spore_stims/simple_12_B_d.gif","","","","","4","simple_similar","images/stimuli/spore_stims/simple_12_B_d.gif","left","","","","",""
"","null","html-keyboard-response","90","246094","0.0-20.0-0.5","SS1613178183117","","","null","","","","","<p><img src= images/blank.png width =""200"" height = ""200"" style = ""float:right""></p><p><img src=images/blank.png width =""800"" height = ""200""></p>","","","","","","","","","","","",""
"","378.80499998573214","sequential-stimulus-presentation","91","247285","0.0-20.0-1.5","SS1613178183117","trial","","40","800","1178.8049999857321","images/stimuli/spore_stims/simple_12_A_d.gif","images/stimuli/spore_stims/simple_12_B_d.gif","","","","","4","simple_similar","images/stimuli/spore_stims/simple_12_B_d.gif","left","","","","",""
"","null","html-keyboard-response","92","248338","0.0-20.0-0.6","SS1613178183117","","","null","","","","","<p><img src= images/blank.png width =""200"" height = ""200"" style = ""float:right""></p><p><img src=images/blank.png width =""800"" height = ""200""></p>","","","","","","","","","","","",""
"","512.7650001086295","sequential-stimulus-presentation","93","249664","0.0-20.0-1.6","SS1613178183117","trial","","40","800","1312.7650001086295","images/stimuli/spore_stims/simple_12_A_d.gif","images/stimuli/spore_stims/simple_12_B_d.gif","","","","","4","simple_similar","images/stimuli/spore_stims/simple_12_B_d.gif","left","","","","",""
"","null","html-keyboard-response","94","250533","0.0-20.0-0.7","SS1613178183117","","","null","","","","","<p><img src= images/blank.png width =""200"" height = ""200"" style = ""float:right""></p><p><img src=images/blank.png width =""800"" height = ""200""></p>","","","","","","","","","","","",""
"","523.5049999319017","sequential-stimulus-presentation","95","251869","0.0-20.0-1.7","SS1613178183117","trial","","40","800","1323.5049999319017","images/stimuli/spore_stims/simple_12_A_d.gif","images/stimuli/spore_stims/simple_12_B_d.gif","","","","","4","simple_similar","images/stimuli/spore_stims/simple_12_B_d.gif","left","","","","",""
"","1917.769999941811","html-keyboard-response","96","253797","0.0-21.0","SS1613178183117","pref_question","","49","","","","","<video width ='960' height = '540' style='padding-top:8%' autoplay muted><source src='images/stimuli/wall_pref.mp4' type='video/mp4'></video>","1","left","25%","4","","","","","","","",""
"","557.4299999279901","sequential-stimulus-presentation","97","255173","0.0-22.0","SS1613178183117","pref_reveal","","40","800","1357.4299999279901","null","null","","","","","4","","","","background","","","",""
"","null","html-keyboard-response","98","256221","0.0-23.0-0.0","SS1613178183117","","","null","","","","","<p><img src= images/blank.png width =""200"" height = ""200"" style = ""float:right""></p><p><img src=images/blank.png width =""800"" height = ""200""></p>","","","","","","","","","","","",""
"","489.9849999928847","sequential-stimulus-presentation","99","257525","0.0-23.0-1.0","SS1613178183117","trial","","40","800","1289.9849999928847","images/stimuli/spore_stims/complex_18_A_d.gif","images/stimuli/spore_stims/complex_02_B_c.gif","","","","","5","complex_dissimilar","images/stimuli/spore_stims/complex_02_B_c.gif","left","","","","",""
"","null","html-keyboard-response","100","258528","0.0-23.0-0.1","SS1613178183117","","","null","","","","","<p><img src= images/blank.png width =""200"" height = ""200"" style = ""float:right""></p><p><img src=images/blank.png width =""800"" height = ""200""></p>","","","","","","","","","","","",""
"","513.3650000207126","sequential-stimulus-presentation","101","259854","0.0-23.0-1.1","SS1613178183117","trial","","40","800","1313.3650000207126","images/stimuli/spore_stims/complex_18_A_d.gif","images/stimuli/spore_stims/complex_02_B_c.gif","","","","","5","complex_dissimilar","images/stimuli/spore_stims/complex_02_B_c.gif","left","","","","",""
"","null","html-keyboard-response","102","260936","0.0-23.0-0.2","SS1613178183117","","","null","","","","","<p><img src= images/blank.png width =""200"" height = ""200"" style = ""float:right""></p><p><img src=images/blank.png width =""800"" height = ""200""></p>","","","","","","","","","","","",""
"","432.7599999960512","sequential-stimulus-presentation","103","262181","0.0-23.0-1.2","SS1613178183117","trial","","40","800","1232.7599999960512","images/stimuli/spore_stims/complex_18_A_d.gif","images/stimuli/spore_stims/complex_02_B_c.gif","","","","","5","complex_dissimilar","images/stimuli/spore_stims/complex_02_B_c.gif","left","","","","",""
"","null","html-keyboard-response","104","263262","0.0-23.0-0.3","SS1613178183117","","","null","","","","","<p><img src= images/blank.png width =""200"" height = ""200"" style = ""float:right""></p><p><img src=images/blank.png width =""800"" height = ""200""></p>","","","","","","","","","","","",""
"","308.0049999989569","sequential-stimulus-presentation","105","264383","0.0-23.0-1.3","SS1613178183117","trial","","40","800","1108.004999998957","images/stimuli/spore_stims/complex_18_A_d.gif","images/stimuli/spore_stims/complex_02_B_c.gif","","","","","5","complex_dissimilar","images/stimuli/spore_stims/complex_02_B_c.gif","left","","","","",""
"","null","html-keyboard-response","106","265281","0.0-23.0-0.4","SS1613178183117","","","null","","","","","<p><img src= images/blank.png width =""200"" height = ""200"" style = ""float:right""></p><p><img src=images/blank.png width =""800"" height = ""200""></p>","","","","","","","","","","","",""
"","804.2600000044331","sequential-stimulus-presentation","107","266901","0.0-23.0-1.4","SS1613178183117","trial","","40","800","1604.260000004433","images/stimuli/spore_stims/complex_18_A_d.gif","images/stimuli/spore_stims/complex_02_B_c.gif","","","","","5","complex_dissimilar","images/stimuli/spore_stims/complex_18_A_d.gif","middle","","","","",""
"","null","html-keyboard-response","108","268207","0.0-23.0-0.5","SS1613178183117","","","null","","","","","<p><img src= images/blank.png width =""200"" height = ""200"" style = ""float:right""></p><p><img src=images/blank.png width =""800"" height = ""200""></p>","","","","","","","","","","","",""
"","384.5100000035018","sequential-stimulus-presentation","109","269405","0.0-23.0-1.5","SS1613178183117","trial","","40","800","1184.5100000035018","images/stimuli/spore_stims/complex_18_A_d.gif","images/stimuli/spore_stims/complex_02_B_c.gif","","","","","5","complex_dissimilar","images/stimuli/spore_stims/complex_02_B_c.gif","left","","","","",""
"","null","html-keyboard-response","110","270471","0.0-23.0-0.6","SS1613178183117","","","null","","","","","<p><img src= images/blank.png width =""200"" height = ""200"" style = ""float:right""></p><p><img src=images/blank.png width =""800"" height = ""200""></p>","","","","","","","","","","","",""
"","546.0099999327213","sequential-stimulus-presentation","111","271830","0.0-23.0-1.6","SS1613178183117","trial","","40","800","1346.0099999327213","images/stimuli/spore_stims/complex_18_A_d.gif","images/stimuli/spore_stims/complex_02_B_c.gif","","","","","5","complex_dissimilar","images/stimuli/spore_stims/complex_02_B_c.gif","left","","","","",""
"","null","html-keyboard-response","112","272818","0.0-23.0-0.7","SS1613178183117","","","null","","","","","<p><img src= images/blank.png width =""200"" height = ""200"" style = ""float:right""></p><p><img src=images/blank.png width =""800"" height = ""200""></p>","","","","","","","","","","","",""
"","662.8449999261647","sequential-stimulus-presentation","113","274293","0.0-23.0-1.7","SS1613178183117","trial","","40","800","1462.8449999261647","images/stimuli/spore_stims/complex_18_A_d.gif","images/stimuli/spore_stims/complex_02_B_c.gif","","","","","5","complex_dissimilar","images/stimuli/spore_stims/complex_02_B_c.gif","left","","","","",""
"","1966.234999941662","html-keyboard-response","114","276269","0.0-24.0","SS1613178183117","pref_question","","49","","","","","<video width ='960' height = '540' style='padding-top:8%' autoplay muted><source src='images/stimuli/wall_pref.mp4' type='video/mp4'></video>","1","left","25%","5","","","","","","","",""
"","506.0100000118837","sequential-stimulus-presentation","115","277589","0.0-25.0","SS1613178183117","pref_reveal","","40","800","1306.0100000118837","null","null","","","","","5","","","","background","","","",""
"","null","html-keyboard-response","116","278539","0.0-26.0-0.0","SS1613178183117","","","null","","","","","<p><img src= images/blank.png width =""200"" height = ""200"" style = ""float:right""></p><p><img src=images/blank.png width =""800"" height = ""200""></p>","","","","","","","","","","","",""
"","370.58499990962446","sequential-stimulus-presentation","117","279724","0.0-26.0-1.0","SS1613178183117","trial","","40","800","1170.5849999096245","images/stimuli/spore_stims/complex_13_A_d.gif","images/stimuli/spore_stims/complex_18_B_c.gif","","","","","6","complex_dissimilar","images/stimuli/spore_stims/complex_18_B_c.gif","right","","","","",""
"","null","html-keyboard-response","118","280655","0.0-26.0-0.1","SS1613178183117","","","null","","","","","<p><img src= images/blank.png width =""200"" height = ""200"" style = ""float:right""></p><p><img src=images/blank.png width =""800"" height = ""200""></p>","","","","","","","","","","","",""
"","369.71499992068857","sequential-stimulus-presentation","119","281838","0.0-26.0-1.1","SS1613178183117","trial","","40","800","1169.7149999206886","images/stimuli/spore_stims/complex_13_A_d.gif","images/stimuli/spore_stims/complex_18_B_c.gif","","","","","6","complex_dissimilar","images/stimuli/spore_stims/complex_18_B_c.gif","right","","","","",""
"","null","html-keyboard-response","120","282863","0.0-26.0-0.2","SS1613178183117","","","null","","","","","<p><img src= images/blank.png width =""200"" height = ""200"" style = ""float:right""></p><p><img src=images/blank.png width =""800"" height = ""200""></p>","","","","","","","","","","","",""
"","878.7950000260025","sequential-stimulus-presentation","121","284557","0.0-26.0-1.2","SS1613178183117","trial","","40","800","1678.7950000260025","images/stimuli/spore_stims/complex_13_A_d.gif","images/stimuli/spore_stims/complex_18_B_c.gif","","","","","6","complex_dissimilar","images/stimuli/spore_stims/complex_18_B_c.gif","right","","","","",""
"","null","html-keyboard-response","122","285567","0.0-26.0-0.3","SS1613178183117","","","null","","","","","<p><img src= images/blank.png width =""200"" height = ""200"" style = ""float:right""></p><p><img src=images/blank.png width =""800"" height = ""200""></p>","","","","","","","","","","","",""
"","390.6999999890104","sequential-stimulus-presentation","123","286773","0.0-26.0-1.3","SS1613178183117","trial","","40","800","1190.6999999890104","images/stimuli/spore_stims/complex_13_A_d.gif","images/stimuli/spore_stims/complex_18_B_c.gif","","","","","6","complex_dissimilar","images/stimuli/spore_stims/complex_18_B_c.gif","right","","","","",""
"","null","html-keyboard-response","124","287965","0.0-26.0-0.4","SS1613178183117","","","null","","","","","<p><img src= images/blank.png width =""200"" height = ""200"" style = ""float:right""></p><p><img src=images/blank.png width =""800"" height = ""200""></p>","","","","","","","","","","","",""
"","456.9400000618771","sequential-stimulus-presentation","125","289237","0.0-26.0-1.4","SS1613178183117","trial","","40","800","1256.940000061877","images/stimuli/spore_stims/complex_13_A_d.gif","images/stimuli/spore_stims/complex_18_B_c.gif","","","","","6","complex_dissimilar","images/stimuli/spore_stims/complex_13_A_d.gif","left","","","","",""
"","null","html-keyboard-response","126","290409","0.0-26.0-0.5","SS1613178183117","","","null","","","","","<p><img src= images/blank.png width =""200"" height = ""200"" style = ""float:right""></p><p><img src=images/blank.png width =""800"" height = ""200""></p>","","","","","","","","","","","",""
"","334.80000006966293","sequential-stimulus-presentation","127","291556","0.0-26.0-1.5","SS1613178183117","trial","","40","800","1134.800000069663","images/stimuli/spore_stims/complex_13_A_d.gif","images/stimuli/spore_stims/complex_18_B_c.gif","","","","","6","complex_dissimilar","images/stimuli/spore_stims/complex_18_B_c.gif","right","","","","",""
"","null","html-keyboard-response","128","292668","0.0-26.0-0.6","SS1613178183117","","","null","","","","","<p><img src= images/blank.png width =""200"" height = ""200"" style = ""float:right""></p><p><img src=images/blank.png width =""800"" height = ""200""></p>","","","","","","","","","","","",""
"","435.484999907203","sequential-stimulus-presentation","129","293918","0.0-26.0-1.6","SS1613178183117","trial","","40","800","1235.484999907203","images/stimuli/spore_stims/complex_13_A_d.gif","images/stimuli/spore_stims/complex_18_B_c.gif","","","","","6","complex_dissimilar","images/stimuli/spore_stims/complex_18_B_c.gif","right","","","","",""
"","null","html-keyboard-response","130","295220","0.0-26.0-0.7","SS1613178183117","","","null","","","","","<p><img src= images/blank.png width =""200"" height = ""200"" style = ""float:right""></p><p><img src=images/blank.png width =""800"" height = ""200""></p>","","","","","","","","","","","",""
"","523.3800000278279","sequential-stimulus-presentation","131","296556","0.0-26.0-1.7","SS1613178183117","trial","","40","800","1323.380000027828","images/stimuli/spore_stims/complex_13_A_d.gif","images/stimuli/spore_stims/complex_18_B_c.gif","","","","","6","complex_dissimilar","images/stimuli/spore_stims/complex_18_B_c.gif","right","","","","",""
"","2380.9549999423325","html-keyboard-response","132","298950","0.0-27.0","SS1613178183117","pref_question","","51","","","","","<video width ='960' height = '540' style='padding-top:8%' autoplay muted><source src='images/stimuli/wall_pref.mp4' type='video/mp4'></video>","3","right","66%","6","","","","","","","",""
"","1402.5499999988824","sequential-stimulus-presentation","133","301166","0.0-28.0","SS1613178183117","pref_reveal","","40","800","2202.5499999988824","null","null","","","","","6","","","","background","","","",""
"","null","html-keyboard-response","134","302317","0.0-29.0-0.0","SS1613178183117","","","null","","","","","<p><img src= images/blank.png width =""200"" height = ""200"" style = ""float:right""></p><p><img src=images/blank.png width =""800"" height = ""200""></p>","","","","","","","","","","","",""
"","474.46500009391457","sequential-stimulus-presentation","135","303606","0.0-29.0-1.0","SS1613178183117","trial","","40","800","1274.4650000939146","images/stimuli/spore_stims/complex_15_B_b.gif","images/stimuli/spore_stims/complex_02_A_a.gif","","","","","7","complex_dissimilar","images/stimuli/spore_stims/complex_02_A_a.gif","left","","","","",""
"","null","html-keyboard-response","136","304744","0.0-29.0-0.1","SS1613178183117","","","null","","","","","<p><img src= images/blank.png width =""200"" height = ""200"" style = ""float:right""></p><p><img src=images/blank.png width =""800"" height = ""200""></p>","","","","","","","","","","","",""
"","547.0000000204891","sequential-stimulus-presentation","137","306135","0.0-29.0-1.1","SS1613178183117","trial","","40","800","1347.000000020489","images/stimuli/spore_stims/complex_15_B_b.gif","images/stimuli/spore_stims/complex_02_A_a.gif","","","","","7","complex_dissimilar","images/stimuli/spore_stims/complex_02_A_a.gif","left","","","","",""
"","null","html-keyboard-response","138","307374","0.0-29.0-0.2","SS1613178183117","","","null","","","","","<p><img src= images/blank.png width =""200"" height = ""200"" style = ""float:right""></p><p><img src=images/blank.png width =""800"" height = ""200""></p>","","","","","","","","","","","",""
"","393.4549998957664","sequential-stimulus-presentation","139","308582","0.0-29.0-1.2","SS1613178183117","trial","","40","800","1193.4549998957664","images/stimuli/spore_stims/complex_15_B_b.gif","images/stimuli/spore_stims/complex_02_A_a.gif","","","","","7","complex_dissimilar","images/stimuli/spore_stims/complex_02_A_a.gif","left","","","","",""
"","null","html-keyboard-response","140","309435","0.0-29.0-0.3","SS1613178183117","","","null","","","","","<p><img src= images/blank.png width =""200"" height = ""200"" style = ""float:right""></p><p><img src=images/blank.png width =""800"" height = ""200""></p>","","","","","","","","","","","",""
"","1060.330000007525","sequential-stimulus-presentation","141","311310","0.0-29.0-1.3","SS1613178183117","trial","","40","800","1860.330000007525","images/stimuli/spore_stims/complex_15_B_b.gif","images/stimuli/spore_stims/complex_02_A_a.gif","","","","","7","complex_dissimilar","images/stimuli/spore_stims/complex_15_B_b.gif","middle","","","","",""
"","null","html-keyboard-response","142","312527","0.0-29.0-0.4","SS1613178183117","","","null","","","","","<p><img src= images/blank.png width =""200"" height = ""200"" style = ""float:right""></p><p><img src=images/blank.png width =""800"" height = ""200""></p>","","","","","","","","","","","",""
"","598.9750000881031","sequential-stimulus-presentation","143","313942","0.0-29.0-1.4","SS1613178183117","trial","","40","800","1398.9750000881031","images/stimuli/spore_stims/complex_15_B_b.gif","images/stimuli/spore_stims/complex_02_A_a.gif","","","","","7","complex_dissimilar","images/stimuli/spore_stims/complex_02_A_a.gif","left","","","","",""
"","null","html-keyboard-response","144","315087","0.0-29.0-0.5","SS1613178183117","","","null","","","","","<p><img src= images/blank.png width =""200"" height = ""200"" style = ""float:right""></p><p><img src=images/blank.png width =""800"" height = ""200""></p>","","","","","","","","","","","",""
"","378.8700000150129","sequential-stimulus-presentation","145","316281","0.0-29.0-1.5","SS1613178183117","trial","","40","800","1178.870000015013","images/stimuli/spore_stims/complex_15_B_b.gif","images/stimuli/spore_stims/complex_02_A_a.gif","","","","","7","complex_dissimilar","images/stimuli/spore_stims/complex_02_A_a.gif","left","","","","",""
"","null","html-keyboard-response","146","317542","0.0-29.0-0.6","SS1613178183117","","","null","","","","","<p><img src= images/blank.png width =""200"" height = ""200"" style = ""float:right""></p><p><img src=images/blank.png width =""800"" height = ""200""></p>","","","","","","","","","","","",""
"","425.66499998793006","sequential-stimulus-presentation","147","318782","0.0-29.0-1.6","SS1613178183117","trial","","40","800","1225.66499998793","images/stimuli/spore_stims/complex_15_B_b.gif","images/stimuli/spore_stims/complex_02_A_a.gif","","","","","7","complex_dissimilar","images/stimuli/spore_stims/complex_02_A_a.gif","left","","","","",""
"","null","html-keyboard-response","148","320022","0.0-29.0-0.7","SS1613178183117","","","null","","","","","<p><img src= images/blank.png width =""200"" height = ""200"" style = ""float:right""></p><p><img src=images/blank.png width =""800"" height = ""200""></p>","","","","","","","","","","","",""
"","496.540000080131","sequential-stimulus-presentation","149","321334","0.0-29.0-1.7","SS1613178183117","trial","","40","800","1296.540000080131","images/stimuli/spore_stims/complex_15_B_b.gif","images/stimuli/spore_stims/complex_02_A_a.gif","","","","","7","complex_dissimilar","images/stimuli/spore_stims/complex_02_A_a.gif","left","","","","",""
"","2011.6500000003725","html-keyboard-response","150","323358","0.0-30.0","SS1613178183117","pref_question","","49","","","","","<video width ='960' height = '540' style='padding-top:8%' autoplay muted><source src='images/stimuli/wall_pref.mp4' type='video/mp4'></video>","1","left","25%","7","","","","","","","",""
"","747.4749999819323","sequential-stimulus-presentation","151","324919","0.0-31.0","SS1613178183117","pref_reveal","","40","800","1547.4749999819323","null","null","","","","","7","","","","background","","","",""
"","null","html-keyboard-response","152","325812","0.0-32.0-0.0","SS1613178183117","","","null","","","","","<p><img src= images/blank.png width =""200"" height = ""200"" style = ""float:right""></p><p><img src=images/blank.png width =""800"" height = ""200""></p>","","","","","","","","","","","",""
"","440.50000002607703","sequential-stimulus-presentation","153","327071","0.0-32.0-1.0","SS1613178183117","trial","","40","800","1240.500000026077","images/stimuli/spore_stims/complex_20_A_c.gif","images/stimuli/spore_stims/complex_20_B_c.gif","","","","","8","complex_similar","images/stimuli/spore_stims/complex_20_B_c.gif","left","","","","",""
"","null","html-keyboard-response","154","328285","0.0-32.0-0.1","SS1613178183117","","","null","","","","","<p><img src= images/blank.png width =""200"" height = ""200"" style = ""float:right""></p><p><img src=images/blank.png width =""800"" height = ""200""></p>","","","","","","","","","","","",""
"","369.96499996166676","sequential-stimulus-presentation","155","329469","0.0-32.0-1.1","SS1613178183117","trial","","40","800","1169.9649999616668","images/stimuli/spore_stims/complex_20_A_c.gif","images/stimuli/spore_stims/complex_20_B_c.gif","","","","","8","complex_similar","images/stimuli/spore_stims/complex_20_B_c.gif","left","","","","",""
"","null","html-keyboard-response","156","330283","0.0-32.0-0.2","SS1613178183117","","","null","","","","","<p><img src= images/blank.png width =""200"" height = ""200"" style = ""float:right""></p><p><img src=images/blank.png width =""800"" height = ""200""></p>","","","","","","","","","","","",""
"","387.77499995194376","sequential-stimulus-presentation","157","331485","0.0-32.0-1.2","SS1613178183117","trial","","40","800","1187.7749999519438","images/stimuli/spore_stims/complex_20_A_c.gif","images/stimuli/spore_stims/complex_20_B_c.gif","","","","","8","complex_similar","images/stimuli/spore_stims/complex_20_B_c.gif","left","","","","",""
"","null","html-keyboard-response","158","332499","0.0-32.0-0.3","SS1613178183117","","","null","","","","","<p><img src= images/blank.png width =""200"" height = ""200"" style = ""float:right""></p><p><img src=images/blank.png width =""800"" height = ""200""></p>","","","","","","","","","","","",""
"","1363.5100000537932","sequential-stimulus-presentation","159","334677","0.0-32.0-1.3","SS1613178183117","trial","","40","800","2163.510000053793","images/stimuli/spore_stims/complex_20_A_c.gif","images/stimuli/spore_stims/complex_20_B_c.gif","","","","","8","complex_similar","images/stimuli/spore_stims/complex_20_B_c.gif","left","","","","",""
"","null","html-keyboard-response","160","335834","0.0-32.0-0.4","SS1613178183117","","","null","","","","","<p><img src= images/blank.png width =""200"" height = ""200"" style = ""float:right""></p><p><img src=images/blank.png width =""800"" height = ""200""></p>","","","","","","","","","","","",""
"","605.5199999827892","sequential-stimulus-presentation","161","337255","0.0-32.0-1.4","SS1613178183117","trial","","40","800","1405.5199999827892","images/stimuli/spore_stims/complex_20_A_c.gif","images/stimuli/spore_stims/complex_20_B_c.gif","","","","","8","complex_similar","images/stimuli/spore_stims/complex_20_B_c.gif","left","","","","",""
"","null","html-keyboard-response","162","338473","0.0-32.0-0.5","SS1613178183117","","","null","","","","","<p><img src= images/blank.png width =""200"" height = ""200"" style = ""float:right""></p><p><img src=images/blank.png width =""800"" height = ""200""></p>","","","","","","","","","","","",""
"","838.1499999668449","sequential-stimulus-presentation","163","340125","0.0-32.0-1.5","SS1613178183117","trial","","40","800","1638.149999966845","images/stimuli/spore_stims/complex_20_A_c.gif","images/stimuli/spore_stims/complex_20_B_c.gif","","","","","8","complex_similar","images/stimuli/spore_stims/complex_20_B_c.gif","left","","","","",""
"","null","html-keyboard-response","164","341105","0.0-32.0-0.6","SS1613178183117","","","null","","","","","<p><img src= images/blank.png width =""200"" height = ""200"" style = ""float:right""></p><p><img src=images/blank.png width =""800"" height = ""200""></p>","","","","","","","","","","","",""
"","662.0649999240413","sequential-stimulus-presentation","165","342581","0.0-32.0-1.6","SS1613178183117","trial","","40","800","1462.0649999240413","images/stimuli/spore_stims/complex_20_A_c.gif","images/stimuli/spore_stims/complex_20_B_c.gif","","","","","8","complex_similar","images/stimuli/spore_stims/complex_20_B_c.gif","left","","","","",""
"","null","html-keyboard-response","166","343617","0.0-32.0-0.7","SS1613178183117","","","null","","","","","<p><img src= images/blank.png width =""200"" height = ""200"" style = ""float:right""></p><p><img src=images/blank.png width =""800"" height = ""200""></p>","","","","","","","","","","","",""
"","589.0349999535829","sequential-stimulus-presentation","167","345021","0.0-32.0-1.7","SS1613178183117","trial","","40","800","1389.0349999535829","images/stimuli/spore_stims/complex_20_A_c.gif","images/stimuli/spore_stims/complex_20_B_c.gif","","","","","8","complex_similar","images/stimuli/spore_stims/complex_20_A_c.gif","middle","","","","",""
"","2099.6649999869987","html-keyboard-response","168","347133","0.0-33.0","SS1613178183117","pref_question","","49","","","","","<video width ='960' height = '540' style='padding-top:8%' autoplay muted><source src='images/stimuli/wall_pref.mp4' type='video/mp4'></video>","1","left","25%","8","","","","","","","",""
"","1899.1299999179319","sequential-stimulus-presentation","169","349847","0.0-34.0","SS1613178183117","pref_reveal","","40","800","2699.129999917932","null","null","","","","","8","","","","background","","","",""
"","null","html-keyboard-response","170","350685","0.0-35.0-0.0","SS1613178183117","","","null","","","","","<p><img src= images/blank.png width =""200"" height = ""200"" style = ""float:right""></p><p><img src=images/blank.png width =""800"" height = ""200""></p>","","","","","","","","","","","",""
"","8265.669999993406","sequential-stimulus-presentation","171","359766","0.0-35.0-1.0","SS1613178183117","trial","","40","800","9065.669999993406","images/stimuli/spore_stims/complex_06_A_d.gif","images/stimuli/spore_stims/complex_04_A_a.gif","","","","","9","complex_dissimilar","images/stimuli/spore_stims/complex_04_A_a.gif","middle","","","","",""
"","null","html-keyboard-response","172","360727","0.0-35.0-0.1","SS1613178183117","","","null","","","","","<p><img src= images/blank.png width =""200"" height = ""200"" style = ""float:right""></p><p><img src=images/blank.png width =""800"" height = ""200""></p>","","","","","","","","","","","",""
"","555.6349999969825","sequential-stimulus-presentation","173","362127","0.0-35.0-1.1","SS1613178183117","trial","","40","800","1355.6349999969825","images/stimuli/spore_stims/complex_06_A_d.gif","images/stimuli/spore_stims/complex_04_A_a.gif","","","","","9","complex_dissimilar","images/stimuli/spore_stims/complex_04_A_a.gif","middle","","","","",""
"","null","html-keyboard-response","174","363147","0.0-35.0-0.2","SS1613178183117","","","null","","","","","<p><img src= images/blank.png width =""200"" height = ""200"" style = ""float:right""></p><p><img src=images/blank.png width =""800"" height = ""200""></p>","","","","","","","","","","","",""
"","670.3399999532849","sequential-stimulus-presentation","175","364629","0.0-35.0-1.2","SS1613178183117","trial","","40","800","1470.3399999532849","images/stimuli/spore_stims/complex_06_A_d.gif","images/stimuli/spore_stims/complex_04_A_a.gif","","","","","9","complex_dissimilar","images/stimuli/spore_stims/complex_04_A_a.gif","middle","","","","",""
"","null","html-keyboard-response","176","365461","0.0-35.0-0.3","SS1613178183117","","","null","","","","","<p><img src= images/blank.png width =""200"" height = ""200"" style = ""float:right""></p><p><img src=images/blank.png width =""800"" height = ""200""></p>","","","","","","","","","","","",""
"","815.7449999125674","sequential-stimulus-presentation","177","367094","0.0-35.0-1.3","SS1613178183117","trial","","40","800","1615.7449999125674","images/stimuli/spore_stims/complex_06_A_d.gif","images/stimuli/spore_stims/complex_04_A_a.gif","","","","","9","complex_dissimilar","images/stimuli/spore_stims/complex_06_A_d.gif","left","","","","",""
"","null","html-keyboard-response","178","368276","0.0-35.0-0.4","SS1613178183117","","","null","","","","","<p><img src= images/blank.png width =""200"" height = ""200"" style = ""float:right""></p><p><img src=images/blank.png width =""800"" height = ""200""></p>","","","","","","","","","","","",""
"","854.630000074394","sequential-stimulus-presentation","179","369949","0.0-35.0-1.4","SS1613178183117","trial","","40","800","1654.630000074394","images/stimuli/spore_stims/complex_06_A_d.gif","images/stimuli/spore_stims/complex_04_A_a.gif","","","","","9","complex_dissimilar","images/stimuli/spore_stims/complex_04_A_a.gif","middle","","","","",""
"","null","html-keyboard-response","180","370831","0.0-35.0-0.5","SS1613178183117","","","null","","","","","<p><img src= images/blank.png width =""200"" height = ""200"" style = ""float:right""></p><p><img src=images/blank.png width =""800"" height = ""200""></p>","","","","","","","","","","","",""
"","735.3900000452995","sequential-stimulus-presentation","181","372382","0.0-35.0-1.5","SS1613178183117","trial","","40","800","1535.3900000452995","images/stimuli/spore_stims/complex_06_A_d.gif","images/stimuli/spore_stims/complex_04_A_a.gif","","","","","9","complex_dissimilar","images/stimuli/spore_stims/complex_04_A_a.gif","middle","","","","",""
"","null","html-keyboard-response","182","373215","0.0-35.0-0.6","SS1613178183117","","","null","","","","","<p><img src= images/blank.png width =""200"" height = ""200"" style = ""float:right""></p><p><img src=images/blank.png width =""800"" height = ""200""></p>","","","","","","","","","","","",""
"","995.3349999850616","sequential-stimulus-presentation","183","375061","0.0-35.0-1.6","SS1613178183117","trial","","40","800","1795.3349999850616","images/stimuli/spore_stims/complex_06_A_d.gif","images/stimuli/spore_stims/complex_04_A_a.gif","","","","","9","complex_dissimilar","images/stimuli/spore_stims/complex_04_A_a.gif","middle","","","","",""
"","null","html-keyboard-response","184","375915","0.0-35.0-0.7","SS1613178183117","","","null","","","","","<p><img src= images/blank.png width =""200"" height = ""200"" style = ""float:right""></p><p><img src=images/blank.png width =""800"" height = ""200""></p>","","","","","","","","","","","",""
"","1262.275000102818","sequential-stimulus-presentation","185","377997","0.0-35.0-1.7","SS1613178183117","trial","","40","800","2062.275000102818","images/stimuli/spore_stims/complex_06_A_d.gif","images/stimuli/spore_stims/complex_04_A_a.gif","","","","","9","complex_dissimilar","images/stimuli/spore_stims/complex_04_A_a.gif","middle","","","","",""
"","1711.600000038743","html-keyboard-response","186","379718","0.0-36.0","SS1613178183117","pref_question","","49","","","","","<video width ='960' height = '540' style='padding-top:8%' autoplay muted><source src='images/stimuli/wall_pref.mp4' type='video/mp4'></video>","1","left","25%","9","","","","","","","",""
"","469.88500002771616","sequential-stimulus-presentation","187","381005","0.0-37.0","SS1613178183117","pref_reveal","","40","800","1269.8850000277162","null","null","","","","","9","","","","deviant","","","",""
"","null","html-keyboard-response","188","381888","0.0-38.0-0.0","SS1613178183117","","","null","","","","","<p><img src= images/blank.png width =""200"" height = ""200"" style = ""float:right""></p><p><img src=images/blank.png width =""800"" height = ""200""></p>","","","","","","","","","","","",""
"","609.1849999502301","sequential-stimulus-presentation","189","383318","0.0-38.0-1.0","SS1613178183117","trial","","40","800","1409.1849999502301","images/stimuli/spore_stims/simple_03_A_c.gif","images/stimuli/spore_stims/simple_02_B_b.gif","","","","","10","simple_dissimilar","images/stimuli/spore_stims/simple_02_B_b.gif","middle","","","","",""
"","null","html-keyboard-response","190","384573","0.0-38.0-0.1","SS1613178183117","","","null","","","","","<p><img src= images/blank.png width =""200"" height = ""200"" style = ""float:right""></p><p><img src=images/blank.png width =""800"" height = ""200""></p>","","","","","","","","","","","",""
"","613.9999999431893","sequential-stimulus-presentation","191","386031","0.0-38.0-1.1","SS1613178183117","trial","","40","800","1413.9999999431893","images/stimuli/spore_stims/simple_03_A_c.gif","images/stimuli/spore_stims/simple_02_B_b.gif","","","","","10","simple_dissimilar","images/stimuli/spore_stims/simple_02_B_b.gif","middle","","","","",""
"","null","html-keyboard-response","192","387151","0.0-38.0-0.2","SS1613178183117","","","null","","","","","<p><img src= images/blank.png width =""200"" height = ""200"" style = ""float:right""></p><p><img src=images/blank.png width =""800"" height = ""200""></p>","","","","","","","","","","","",""
"","397.43000001180917","sequential-stimulus-presentation","193","388365","0.0-38.0-1.2","SS1613178183117","trial","","40","800","1197.4300000118092","images/stimuli/spore_stims/simple_03_A_c.gif","images/stimuli/spore_stims/simple_02_B_b.gif","","","","","10","simple_dissimilar","images/stimuli/spore_stims/simple_02_B_b.gif","middle","","","","",""
"","null","html-keyboard-response","194","389578","0.0-38.0-0.3","SS1613178183117","","","null","","","","","<p><img src= images/blank.png width =""200"" height = ""200"" style = ""float:right""></p><p><img src=images/blank.png width =""800"" height = ""200""></p>","","","","","","","","","","","",""
"","619.3900000071153","sequential-stimulus-presentation","195","391013","0.0-38.0-1.3","SS1613178183117","trial","","40","800","1419.3900000071153","images/stimuli/spore_stims/simple_03_A_c.gif","images/stimuli/spore_stims/simple_02_B_b.gif","","","","","10","simple_dissimilar","images/stimuli/spore_stims/simple_02_B_b.gif","middle","","","","",""
"","null","html-keyboard-response","196","392067","0.0-38.0-0.4","SS1613178183117","","","null","","","","","<p><img src= images/blank.png width =""200"" height = ""200"" style = ""float:right""></p><p><img src=images/blank.png width =""800"" height = ""200""></p>","","","","","","","","","","","",""
"","674.7150000883266","sequential-stimulus-presentation","197","393559","0.0-38.0-1.4","SS1613178183117","trial","","40","800","1474.7150000883266","images/stimuli/spore_stims/simple_03_A_c.gif","images/stimuli/spore_stims/simple_02_B_b.gif","","","","","10","simple_dissimilar","images/stimuli/spore_stims/simple_03_A_c.gif","right","","","","",""
"","null","html-keyboard-response","198","394760","0.0-38.0-0.5","SS1613178183117","","","null","","","","","<p><img src= images/blank.png width =""200"" height = ""200"" style = ""float:right""></p><p><img src=images/blank.png width =""800"" height = ""200""></p>","","","","","","","","","","","",""
"","645.299999974668","sequential-stimulus-presentation","199","396221","0.0-38.0-1.5","SS1613178183117","trial","","40","800","1445.299999974668","images/stimuli/spore_stims/simple_03_A_c.gif","images/stimuli/spore_stims/simple_02_B_b.gif","","","","","10","simple_dissimilar","images/stimuli/spore_stims/simple_02_B_b.gif","middle","","","","",""
"","null","html-keyboard-response","200","397370","0.0-38.0-0.6","SS1613178183117","","","null","","","","","<p><img src= images/blank.png width =""200"" height = ""200"" style = ""float:right""></p><p><img src=images/blank.png width =""800"" height = ""200""></p>","","","","","","","","","","","",""
"","945.8250000607222","sequential-stimulus-presentation","201","399133","0.0-38.0-1.6","SS1613178183117","trial","","40","800","1745.8250000607222","images/stimuli/spore_stims/simple_03_A_c.gif","images/stimuli/spore_stims/simple_02_B_b.gif","","","","","10","simple_dissimilar","images/stimuli/spore_stims/simple_02_B_b.gif","middle","","","","",""
"","null","html-keyboard-response","202","400364","0.0-38.0-0.7","SS1613178183117","","","null","","","","","<p><img src= images/blank.png width =""200"" height = ""200"" style = ""float:right""></p><p><img src=images/blank.png width =""800"" height = ""200""></p>","","","","","","","","","","","",""
"","1056.319999974221","sequential-stimulus-presentation","203","402238","0.0-38.0-1.7","SS1613178183117","trial","","40","800","1856.319999974221","images/stimuli/spore_stims/simple_03_A_c.gif","images/stimuli/spore_stims/simple_02_B_b.gif","","","","","10","simple_dissimilar","images/stimuli/spore_stims/simple_02_B_b.gif","middle","","","","",""
"","4973.644999903627","html-keyboard-response","204","407223","0.0-39.0","SS1613178183117","pref_question","","49","","","","","<video width ='960' height = '540' style='padding-top:8%' autoplay muted><source src='images/stimuli/wall_pref.mp4' type='video/mp4'></video>","1","left","25%","10","","","","","","","",""
"","1429.0150000015274","sequential-stimulus-presentation","205","409470","0.0-40.0","SS1613178183117","pref_reveal","","40","800","2229.0150000015274","null","null","","","","","10","","","","novel","","","",""
"","null","html-keyboard-response","206","410301","0.0-41.0-0.0","SS1613178183117","","","null","","","","","<p><img src= images/blank.png width =""200"" height = ""200"" style = ""float:right""></p><p><img src=images/blank.png width =""800"" height = ""200""></p>","","","","","","","","","","","",""
"","1371.7150000156835","sequential-stimulus-presentation","207","412493","0.0-41.0-1.0","SS1613178183117","trial","","40","800","2171.7150000156835","images/stimuli/spore_stims/complex_16_A_c.gif","images/stimuli/spore_stims/complex_16_B_c.gif","","","","","11","complex_similar","images/stimuli/spore_stims/complex_16_B_c.gif","right","","","","",""
"","null","html-keyboard-response","208","413770","0.0-41.0-0.1","SS1613178183117","","","null","","","","","<p><img src= images/blank.png width =""200"" height = ""200"" style = ""float:right""></p><p><img src=images/blank.png width =""800"" height = ""200""></p>","","","","","","","","","","","",""
"","1040.0699999881908","sequential-stimulus-presentation","209","415621","0.0-41.0-1.1","SS1613178183117","trial","","40","800","1840.0699999881908","images/stimuli/spore_stims/complex_16_A_c.gif","images/stimuli/spore_stims/complex_16_B_c.gif","","","","","11","complex_similar","images/stimuli/spore_stims/complex_16_B_c.gif","right","","","","",""
"","null","html-keyboard-response","210","416919","0.0-41.0-0.2","SS1613178183117","","","null","","","","","<p><img src= images/blank.png width =""200"" height = ""200"" style = ""float:right""></p><p><img src=images/blank.png width =""800"" height = ""200""></p>","","","","","","","","","","","",""
"","11260.519999894314","sequential-stimulus-presentation","211","429000","0.0-41.0-1.2","SS1613178183117","trial","","40","800","12060.519999894314","images/stimuli/spore_stims/complex_16_A_c.gif","images/stimuli/spore_stims/complex_16_B_c.gif","","","","","11","complex_similar","images/stimuli/spore_stims/complex_16_A_c.gif","middle","","","","",""
"","null","html-keyboard-response","212","430088","0.0-41.0-0.3","SS1613178183117","","","null","","","","","<p><img src= images/blank.png width =""200"" height = ""200"" style = ""float:right""></p><p><img src=images/blank.png width =""800"" height = ""200""></p>","","","","","","","","","","","",""
"","1338.9999999199063","sequential-stimulus-presentation","213","432246","0.0-41.0-1.3","SS1613178183117","trial","","40","800","2138.9999999199063","images/stimuli/spore_stims/complex_16_A_c.gif","images/stimuli/spore_stims/complex_16_B_c.gif","","","","","11","complex_similar","images/stimuli/spore_stims/complex_16_B_c.gif","right","","","","",""
"","null","html-keyboard-response","214","433100","0.0-41.0-0.4","SS1613178183117","","","null","","","","","<p><img src= images/blank.png width =""200"" height = ""200"" style = ""float:right""></p><p><img src=images/blank.png width =""800"" height = ""200""></p>","","","","","","","","","","","",""
"","457.010000012815","sequential-stimulus-presentation","215","434374","0.0-41.0-1.4","SS1613178183117","trial","","40","800","1257.010000012815","images/stimuli/spore_stims/complex_16_A_c.gif","images/stimuli/spore_stims/complex_16_B_c.gif","","","","","11","complex_similar","images/stimuli/spore_stims/complex_16_B_c.gif","right","","","","",""
"","null","html-keyboard-response","216","435395","0.0-41.0-0.5","SS1613178183117","","","null","","","","","<p><img src= images/blank.png width =""200"" height = ""200"" style = ""float:right""></p><p><img src=images/blank.png width =""800"" height = ""200""></p>","","","","","","","","","","","",""
"","430.73999998159707","sequential-stimulus-presentation","217","436646","0.0-41.0-1.5","SS1613178183117","trial","","40","800","1230.739999981597","images/stimuli/spore_stims/complex_16_A_c.gif","images/stimuli/spore_stims/complex_16_B_c.gif","","","","","11","complex_similar","images/stimuli/spore_stims/complex_16_B_c.gif","right","","","","",""
"","null","html-keyboard-response","218","437780","0.0-41.0-0.6","SS1613178183117","","","null","","","","","<p><img src= images/blank.png width =""200"" height = ""200"" style = ""float:right""></p><p><img src=images/blank.png width =""800"" height = ""200""></p>","","","","","","","","","","","",""
"","522.715000086464","sequential-stimulus-presentation","219","439120","0.0-41.0-1.6","SS1613178183117","trial","","40","800","1322.715000086464","images/stimuli/spore_stims/complex_16_A_c.gif","images/stimuli/spore_stims/complex_16_B_c.gif","","","","","11","complex_similar","images/stimuli/spore_stims/complex_16_B_c.gif","right","","","","",""
"","null","html-keyboard-response","220","440285","0.0-41.0-0.7","SS1613178183117","","","null","","","","","<p><img src= images/blank.png width =""200"" height = ""200"" style = ""float:right""></p><p><img src=images/blank.png width =""800"" height = ""200""></p>","","","","","","","","","","","",""
"","504.1049999417737","sequential-stimulus-presentation","221","441607","0.0-41.0-1.7","SS1613178183117","trial","","40","800","1304.1049999417737","images/stimuli/spore_stims/complex_16_A_c.gif","images/stimuli/spore_stims/complex_16_B_c.gif","","","","","11","complex_similar","images/stimuli/spore_stims/complex_16_B_c.gif","right","","","","",""
"","1656.404999899678","html-keyboard-response","222","443278","0.0-42.0","SS1613178183117","pref_question","","49","","","","","<video width ='960' height = '540' style='padding-top:8%' autoplay muted><source src='images/stimuli/wall_pref.mp4' type='video/mp4'></video>","1","left","25%","11","","","","","","","",""
"","1454.8850000137463","sequential-stimulus-presentation","223","445550","0.0-43.0","SS1613178183117","pref_reveal","","40","800","2254.8850000137463","null","null","","","","","11","","","","novel","","","",""
"","null","html-keyboard-response","224","446701","0.0-44.0-0.0","SS1613178183117","","","null","","","","","<p><img src= images/blank.png width =""200"" height = ""200"" style = ""float:right""></p><p><img src=images/blank.png width =""800"" height = ""200""></p>","","","","","","","","","","","",""
"","420.95000005792826","sequential-stimulus-presentation","225","447941","0.0-44.0-1.0","SS1613178183117","trial","","40","800","1220.9500000579283","images/stimuli/spore_stims/complex_14_A_b.gif","images/stimuli/spore_stims/complex_14_B_b.gif","","","","","12","complex_similar","images/stimuli/spore_stims/complex_14_B_b.gif","middle","","","","",""
"","null","html-keyboard-response","226","448782","0.0-44.0-0.1","SS1613178183117","","","null","","","","","<p><img src= images/blank.png width =""200"" height = ""200"" style = ""float:right""></p><p><img src=images/blank.png width =""800"" height = ""200""></p>","","","","","","","","","","","",""
"","490.57499994523823","sequential-stimulus-presentation","227","450091","0.0-44.0-1.1","SS1613178183117","trial","","40","800","1290.5749999452382","images/stimuli/spore_stims/complex_14_A_b.gif","images/stimuli/spore_stims/complex_14_B_b.gif","","","","","12","complex_similar","images/stimuli/spore_stims/complex_14_B_b.gif","middle","","","","",""
"","null","html-keyboard-response","228","451319","0.0-44.0-0.2","SS1613178183117","","","null","","","","","<p><img src= images/blank.png width =""200"" height = ""200"" style = ""float:right""></p><p><img src=images/blank.png width =""800"" height = ""200""></p>","","","","","","","","","","","",""
"","392.6699999719858","sequential-stimulus-presentation","229","452525","0.0-44.0-1.2","SS1613178183117","trial","","40","800","1192.6699999719858","images/stimuli/spore_stims/complex_14_A_b.gif","images/stimuli/spore_stims/complex_14_B_b.gif","","","","","12","complex_similar","images/stimuli/spore_stims/complex_14_B_b.gif","middle","","","","",""
"","null","html-keyboard-response","230","453672","0.0-44.0-0.3","SS1613178183117","","","null","","","","","<p><img src= images/blank.png width =""200"" height = ""200"" style = ""float:right""></p><p><img src=images/blank.png width =""800"" height = ""200""></p>","","","","","","","","","","","",""
"","4051.8600000068545","sequential-stimulus-presentation","231","458541","0.0-44.0-1.3","SS1613178183117","trial","","40","800","4851.8600000068545","images/stimuli/spore_stims/complex_14_A_b.gif","images/stimuli/spore_stims/complex_14_B_b.gif","","","","","12","complex_similar","images/stimuli/spore_stims/complex_14_A_b.gif","left","","","","",""
"","null","html-keyboard-response","232","459654","0.0-44.0-0.4","SS1613178183117","","","null","","","","","<p><img src= images/blank.png width =""200"" height = ""200"" style = ""float:right""></p><p><img src=images/blank.png width =""800"" height = ""200""></p>","","","","","","","","","","","",""
"","2782.9299999866635","sequential-stimulus-presentation","233","463256","0.0-44.0-1.4","SS1613178183117","trial","","40","800","3582.9299999866635","images/stimuli/spore_stims/complex_14_A_b.gif","images/stimuli/spore_stims/complex_14_B_b.gif","","","","","12","complex_similar","images/stimuli/spore_stims/complex_14_B_b.gif","middle","","","","",""
"","null","html-keyboard-response","234","464473","0.0-44.0-0.5","SS1613178183117","","","null","","","","","<p><img src= images/blank.png width =""200"" height = ""200"" style = ""float:right""></p><p><img src=images/blank.png width =""800"" height = ""200""></p>","","","","","","","","","","","",""
"","513.9850000850856","sequential-stimulus-presentation","235","465805","0.0-44.0-1.5","SS1613178183117","trial","","40","800","1313.9850000850856","images/stimuli/spore_stims/complex_14_A_b.gif","images/stimuli/spore_stims/complex_14_B_b.gif","","","","","12","complex_similar","images/stimuli/spore_stims/complex_14_B_b.gif","middle","","","","",""
"","null","html-keyboard-response","236","466765","0.0-44.0-0.6","SS1613178183117","","","null","","","","","<p><img src= images/blank.png width =""200"" height = ""200"" style = ""float:right""></p><p><img src=images/blank.png width =""800"" height = ""200""></p>","","","","","","","","","","","",""
"","374.7250000014901","sequential-stimulus-presentation","237","467957","0.0-44.0-1.6","SS1613178183117","trial","","40","800","1174.7250000014901","images/stimuli/spore_stims/complex_14_A_b.gif","images/stimuli/spore_stims/complex_14_B_b.gif","","","","","12","complex_similar","images/stimuli/spore_stims/complex_14_B_b.gif","middle","","","","",""
"","null","html-keyboard-response","238","468882","0.0-44.0-0.7","SS1613178183117","","","null","","","","","<p><img src= images/blank.png width =""200"" height = ""200"" style = ""float:right""></p><p><img src=images/blank.png width =""800"" height = ""200""></p>","","","","","","","","","","","",""
"","339.54000007361174","sequential-stimulus-presentation","239","470038","0.0-44.0-1.7","SS1613178183117","trial","","40","800","1139.5400000736117","images/stimuli/spore_stims/complex_14_A_b.gif","images/stimuli/spore_stims/complex_14_B_b.gif","","","","","12","complex_similar","images/stimuli/spore_stims/complex_14_B_b.gif","middle","","","","",""
"","1725.1450000330806","html-keyboard-response","240","471772","0.0-45.0","SS1613178183117","pref_question","","50","","","","","<video width ='960' height = '540' style='padding-top:8%' autoplay muted><source src='images/stimuli/wall_pref.mp4' type='video/mp4'></video>","2","middle","45%","12","","","","","","","",""
"","1196.845000027679","sequential-stimulus-presentation","241","473783","0.0-46.0","SS1613178183117","pref_reveal","","40","800","1996.845000027679","null","null","","","","","12","","","","background","","","",""
"","null","html-keyboard-response","242","474842","0.0-47.0-0.0","SS1613178183117","","","null","","","","","<p><img src= images/blank.png width =""200"" height = ""200"" style = ""float:right""></p><p><img src=images/blank.png width =""800"" height = ""200""></p>","","","","","","","","","","","",""
"","461.2150000175461","sequential-stimulus-presentation","243","476152","0.0-47.0-1.0","SS1613178183117","trial","","40","800","1261.2150000175461","images/stimuli/spore_stims/simple_08_A_d.gif","images/stimuli/spore_stims/simple_05_B_d.gif","","","","","13","simple_dissimilar","images/stimuli/spore_stims/simple_05_B_d.gif","middle","","","","",""
"","null","html-keyboard-response","244","477439","0.0-47.0-0.1","SS1613178183117","","","null","","","","","<p><img src= images/blank.png width =""200"" height = ""200"" style = ""float:right""></p><p><img src=images/blank.png width =""800"" height = ""200""></p>","","","","","","","","","","","",""
"","387.37999997101724","sequential-stimulus-presentation","245","478645","0.0-47.0-1.1","SS1613178183117","trial","","40","800","1187.3799999710172","images/stimuli/spore_stims/simple_08_A_d.gif","images/stimuli/spore_stims/simple_05_B_d.gif","","","","","13","simple_dissimilar","images/stimuli/spore_stims/simple_05_B_d.gif","middle","","","","",""
"","null","html-keyboard-response","246","479754","0.0-47.0-0.2","SS1613178183117","","","null","","","","","<p><img src= images/blank.png width =""200"" height = ""200"" style = ""float:right""></p><p><img src=images/blank.png width =""800"" height = ""200""></p>","","","","","","","","","","","",""
"","553.1200000550598","sequential-stimulus-presentation","247","481122","0.0-47.0-1.2","SS1613178183117","trial","","40","800","1353.1200000550598","images/stimuli/spore_stims/simple_08_A_d.gif","images/stimuli/spore_stims/simple_05_B_d.gif","","","","","13","simple_dissimilar","images/stimuli/spore_stims/simple_05_B_d.gif","middle","","","","",""
"","null","html-keyboard-response","248","482012","0.0-47.0-0.3","SS1613178183117","","","null","","","","","<p><img src= images/blank.png width =""200"" height = ""200"" style = ""float:right""></p><p><img src=images/blank.png width =""800"" height = ""200""></p>","","","","","","","","","","","",""
"","481.10500001348555","sequential-stimulus-presentation","249","483309","0.0-47.0-1.3","SS1613178183117","trial","","40","800","1281.1050000134856","images/stimuli/spore_stims/simple_08_A_d.gif","images/stimuli/spore_stims/simple_05_B_d.gif","","","","","13","simple_dissimilar","images/stimuli/spore_stims/simple_05_B_d.gif","middle","","","","",""
"","null","html-keyboard-response","250","484254","0.0-47.0-0.4","SS1613178183117","","","null","","","","","<p><img src= images/blank.png width =""200"" height = ""200"" style = ""float:right""></p><p><img src=images/blank.png width =""800"" height = ""200""></p>","","","","","","","","","","","",""
"","1549.0099999587983","sequential-stimulus-presentation","251","486689","0.0-47.0-1.4","SS1613178183117","trial","","40","800","2349.0099999587983","images/stimuli/spore_stims/simple_08_A_d.gif","images/stimuli/spore_stims/simple_05_B_d.gif","","","","","13","simple_dissimilar","images/stimuli/spore_stims/simple_05_B_d.gif","middle","","","","",""
"","null","html-keyboard-response","252","487959","0.0-47.0-0.5","SS1613178183117","","","null","","","","","<p><img src= images/blank.png width =""200"" height = ""200"" style = ""float:right""></p><p><img src=images/blank.png width =""800"" height = ""200""></p>","","","","","","","","","","","",""
"","393.7800000421703","sequential-stimulus-presentation","253","489174","0.0-47.0-1.5","SS1613178183117","trial","","40","800","1193.7800000421703","images/stimuli/spore_stims/simple_08_A_d.gif","images/stimuli/spore_stims/simple_05_B_d.gif","","","","","13","simple_dissimilar","images/stimuli/spore_stims/simple_08_A_d.gif","right","","","","",""
"","null","html-keyboard-response","254","490096","0.0-47.0-0.6","SS1613178183117","","","null","","","","","<p><img src= images/blank.png width =""200"" height = ""200"" style = ""float:right""></p><p><img src=images/blank.png width =""800"" height = ""200""></p>","","","","","","","","","","","",""
"","323.8800000399351","sequential-stimulus-presentation","255","491237","0.0-47.0-1.6","SS1613178183117","trial","","40","800","1123.880000039935","images/stimuli/spore_stims/simple_08_A_d.gif","images/stimuli/spore_stims/simple_05_B_d.gif","","","","","13","simple_dissimilar","images/stimuli/spore_stims/simple_05_B_d.gif","middle","","","","",""
"","null","html-keyboard-response","256","492140","0.0-47.0-0.7","SS1613178183117","","","null","","","","","<p><img src= images/blank.png width =""200"" height = ""200"" style = ""float:right""></p><p><img src=images/blank.png width =""800"" height = ""200""></p>","","","","","","","","","","","",""
"","398.8450000761077","sequential-stimulus-presentation","257","493358","0.0-47.0-1.7","SS1613178183117","trial","","40","800","1198.8450000761077","images/stimuli/spore_stims/simple_08_A_d.gif","images/stimuli/spore_stims/simple_05_B_d.gif","","","","","13","simple_dissimilar","images/stimuli/spore_stims/simple_05_B_d.gif","middle","","","","",""
"","1758.339999942109","html-keyboard-response","258","495157","0.0-48.0","SS1613178183117","pref_question","","49","","","","","<video width ='960' height = '540' style='padding-top:8%' autoplay muted><source src='images/stimuli/wall_pref.mp4' type='video/mp4'></video>","1","left","25%","13","","","","","","","",""
"","2123.2050000689924","sequential-stimulus-presentation","259","498111","0.0-49.0","SS1613178183117","pref_reveal","","40","800","2923.2050000689924","null","null","","","","","13","","","","novel","","","",""
"","null","html-keyboard-response","260","499095","0.0-50.0-0.0","SS1613178183117","","","null","","","","","<p><img src= images/blank.png width =""200"" height = ""200"" style = ""float:right""></p><p><img src=images/blank.png width =""800"" height = ""200""></p>","","","","","","","","","","","",""
"","833.0699999351054","sequential-stimulus-presentation","261","500741","0.0-50.0-1.0","SS1613178183117","trial","","40","800","1633.0699999351054","images/stimuli/spore_stims/simple_10_B_b.gif","images/stimuli/spore_stims/simple_08_B_d.gif","","","","","14","simple_dissimilar","images/stimuli/spore_stims/simple_08_B_d.gif","middle","","","","",""
"","null","html-keyboard-response","262","501630","0.0-50.0-0.1","SS1613178183117","","","null","","","","","<p><img src= images/blank.png width =""200"" height = ""200"" style = ""float:right""></p><p><img src=images/blank.png width =""800"" height = ""200""></p>","","","","","","","","","","","",""
"","757.6750000007451","sequential-stimulus-presentation","263","503198","0.0-50.0-1.1","SS1613178183117","trial","","40","800","1557.675000000745","images/stimuli/spore_stims/simple_10_B_b.gif","images/stimuli/spore_stims/simple_08_B_d.gif","","","","","14","simple_dissimilar","images/stimuli/spore_stims/simple_08_B_d.gif","middle","","","","",""
"","null","html-keyboard-response","264","504093","0.0-50.0-0.2","SS1613178183117","","","null","","","","","<p><img src= images/blank.png width =""200"" height = ""200"" style = ""float:right""></p><p><img src=images/blank.png width =""800"" height = ""200""></p>","","","","","","","","","","","",""
"","3558.7349999696016","sequential-stimulus-presentation","265","508470","0.0-50.0-1.2","SS1613178183117","trial","","40","800","4358.734999969602","images/stimuli/spore_stims/simple_10_B_b.gif","images/stimuli/spore_stims/simple_08_B_d.gif","","","","","14","simple_dissimilar","images/stimuli/spore_stims/simple_08_B_d.gif","middle","","","","",""
"","null","html-keyboard-response","266","509656","0.0-50.0-0.3","SS1613178183117","","","null","","","","","<p><img src= images/blank.png width =""200"" height = ""200"" style = ""float:right""></p><p><img src=images/blank.png width =""800"" height = ""200""></p>","","","","","","","","","","","",""
"","429.4549999758601","sequential-stimulus-presentation","267","510950","0.0-50.0-1.3","SS1613178183117","trial","","40","800","1229.4549999758601","images/stimuli/spore_stims/simple_10_B_b.gif","images/stimuli/spore_stims/simple_08_B_d.gif","","","","","14","simple_dissimilar","images/stimuli/spore_stims/simple_08_B_d.gif","middle","","","","",""
"","null","html-keyboard-response","268","511960","0.0-50.0-0.4","SS1613178183117","","","null","","","","","<p><img src= images/blank.png width =""200"" height = ""200"" style = ""float:right""></p><p><img src=images/blank.png width =""800"" height = ""200""></p>","","","","","","","","","","","",""
"","473.34999998565763","sequential-stimulus-presentation","269","513253","0.0-50.0-1.4","SS1613178183117","trial","","40","800","1273.3499999856576","images/stimuli/spore_stims/simple_10_B_b.gif","images/stimuli/spore_stims/simple_08_B_d.gif","","","","","14","simple_dissimilar","images/stimuli/spore_stims/simple_08_B_d.gif","middle","","","","",""
"","null","html-keyboard-response","270","514340","0.0-50.0-0.5","SS1613178183117","","","null","","","","","<p><img src= images/blank.png width =""200"" height = ""200"" style = ""float:right""></p><p><img src=images/blank.png width =""800"" height = ""200""></p>","","","","","","","","","","","",""
"","752.4599999887869","sequential-stimulus-presentation","271","515909","0.0-50.0-1.5","SS1613178183117","trial","","40","800","1552.4599999887869","images/stimuli/spore_stims/simple_10_B_b.gif","images/stimuli/spore_stims/simple_08_B_d.gif","","","","","14","simple_dissimilar","images/stimuli/spore_stims/simple_10_B_b.gif","left","","","","",""
"","null","html-keyboard-response","272","516969","0.0-50.0-0.6","SS1613178183117","","","null","","","","","<p><img src= images/blank.png width =""200"" height = ""200"" style = ""float:right""></p><p><img src=images/blank.png width =""800"" height = ""200""></p>","","","","","","","","","","","",""
"","635.6649999506772","sequential-stimulus-presentation","273","518422","0.0-50.0-1.6","SS1613178183117","trial","","40","800","1435.6649999506772","images/stimuli/spore_stims/simple_10_B_b.gif","images/stimuli/spore_stims/simple_08_B_d.gif","","","","","14","simple_dissimilar","images/stimuli/spore_stims/simple_08_B_d.gif","middle","","","","",""
"","null","html-keyboard-response","274","519303","0.0-50.0-0.7","SS1613178183117","","","null","","","","","<p><img src= images/blank.png width =""200"" height = ""200"" style = ""float:right""></p><p><img src=images/blank.png width =""800"" height = ""200""></p>","","","","","","","","","","","",""
"","945.4400000395253","sequential-stimulus-presentation","275","521093","0.0-50.0-1.7","SS1613178183117","trial","","40","800","1745.4400000395253","images/stimuli/spore_stims/simple_10_B_b.gif","images/stimuli/spore_stims/simple_08_B_d.gif","","","","","14","simple_dissimilar","images/stimuli/spore_stims/simple_08_B_d.gif","middle","","","","",""
"","1717.3249999759719","html-keyboard-response","276","522821","0.0-51.0","SS1613178183117","pref_question","","49","","","","","<video width ='960' height = '540' style='padding-top:8%' autoplay muted><source src='images/stimuli/wall_pref.mp4' type='video/mp4'></video>","1","left","25%","14","","","","","","","",""
"","3751.0950000723824","sequential-stimulus-presentation","277","527389","0.0-52.0","SS1613178183117","pref_reveal","","40","800","4551.095000072382","null","null","","","","","14","","","","deviant","","","",""
"","null","html-keyboard-response","278","528267","0.0-53.0-0.0","SS1613178183117","","","null","","","","","<p><img src= images/blank.png width =""200"" height = ""200"" style = ""float:right""></p><p><img src=images/blank.png width =""800"" height = ""200""></p>","","","","","","","","","","","",""
"","1871.724999975413","sequential-stimulus-presentation","279","530957","0.0-53.0-1.0","SS1613178183117","trial","","40","800","2671.724999975413","images/stimuli/spore_stims/simple_01_B_a.gif","images/stimuli/spore_stims/simple_17_A_c.gif","","","","","15","simple_dissimilar","images/stimuli/spore_stims/simple_17_A_c.gif","left","","","","",""
"","null","html-keyboard-response","280","532214","0.0-53.0-0.1","SS1613178183117","","","null","","","","","<p><img src= images/blank.png width =""200"" height = ""200"" style = ""float:right""></p><p><img src=images/blank.png width =""800"" height = ""200""></p>","","","","","","","","","","","",""
"","3581.9200000260025","sequential-stimulus-presentation","281","536606","0.0-53.0-1.1","SS1613178183117","trial","","40","800","4381.9200000260025","images/stimuli/spore_stims/simple_01_B_a.gif","images/stimuli/spore_stims/simple_17_A_c.gif","","","","","15","simple_dissimilar","images/stimuli/spore_stims/simple_17_A_c.gif","left","","","","",""
"","null","html-keyboard-response","282","537580","0.0-53.0-0.2","SS1613178183117","","","null","","","","","<p><img src= images/blank.png width =""200"" height = ""200"" style = ""float:right""></p><p><img src=images/blank.png width =""800"" height = ""200""></p>","","","","","","","","","","","",""
"","1258.1899999640882","sequential-stimulus-presentation","283","539662","0.0-53.0-1.2","SS1613178183117","trial","","40","800","2058.189999964088","images/stimuli/spore_stims/simple_01_B_a.gif","images/stimuli/spore_stims/simple_17_A_c.gif","","","","","15","simple_dissimilar","images/stimuli/spore_stims/simple_17_A_c.gif","left","","","","",""
"","null","html-keyboard-response","284","540738","0.0-53.0-0.3","SS1613178183117","","","null","","","","","<p><img src= images/blank.png width =""200"" height = ""200"" style = ""float:right""></p><p><img src=images/blank.png width =""800"" height = ""200""></p>","","","","","","","","","","","",""
"","1440.7699999865144","sequential-stimulus-presentation","285","542998","0.0-53.0-1.3","SS1613178183117","trial","","40","800","2240.7699999865144","images/stimuli/spore_stims/simple_01_B_a.gif","images/stimuli/spore_stims/simple_17_A_c.gif","","","","","15","simple_dissimilar","images/stimuli/spore_stims/simple_17_A_c.gif","left","","","","",""
"","null","html-keyboard-response","286","543992","0.0-53.0-0.4","SS1613178183117","","","null","","","","","<p><img src= images/blank.png width =""200"" height = ""200"" style = ""float:right""></p><p><img src=images/blank.png width =""800"" height = ""200""></p>","","","","","","","","","","","",""
"","763.7499999254942","sequential-stimulus-presentation","287","545574","0.0-53.0-1.4","SS1613178183117","trial","","40","800","1563.7499999254942","images/stimuli/spore_stims/simple_01_B_a.gif","images/stimuli/spore_stims/simple_17_A_c.gif","","","","","15","simple_dissimilar","images/stimuli/spore_stims/simple_01_B_a.gif","middle","","","","",""
"","null","html-keyboard-response","288","546438","0.0-53.0-0.5","SS1613178183117","","","null","","","","","<p><img src= images/blank.png width =""200"" height = ""200"" style = ""float:right""></p><p><img src=images/blank.png width =""800"" height = ""200""></p>","","","","","","","","","","","",""
"","406.8250000709668","sequential-stimulus-presentation","289","547664","0.0-53.0-1.5","SS1613178183117","trial","","40","800","1206.8250000709668","images/stimuli/spore_stims/simple_01_B_a.gif","images/stimuli/spore_stims/simple_17_A_c.gif","","","","","15","simple_dissimilar","images/stimuli/spore_stims/simple_17_A_c.gif","left","","","","",""
"","null","html-keyboard-response","290","548512","0.0-53.0-0.6","SS1613178183117","","","null","","","","","<p><img src= images/blank.png width =""200"" height = ""200"" style = ""float:right""></p><p><img src=images/blank.png width =""800"" height = ""200""></p>","","","","","","","","","","","",""
"","888.8850000221282","sequential-stimulus-presentation","291","550222","0.0-53.0-1.6","SS1613178183117","trial","","40","800","1688.8850000221282","images/stimuli/spore_stims/simple_01_B_a.gif","images/stimuli/spore_stims/simple_17_A_c.gif","","","","","15","simple_dissimilar","images/stimuli/spore_stims/simple_17_A_c.gif","left","","","","",""
"","null","html-keyboard-response","292","551406","0.0-53.0-0.7","SS1613178183117","","","null","","","","","<p><img src= images/blank.png width =""200"" height = ""200"" style = ""float:right""></p><p><img src=images/blank.png width =""800"" height = ""200""></p>","","","","","","","","","","","",""
"","483.0100000835955","sequential-stimulus-presentation","293","552710","0.0-53.0-1.7","SS1613178183117","trial","","40","800","1283.0100000835955","images/stimuli/spore_stims/simple_01_B_a.gif","images/stimuli/spore_stims/simple_17_A_c.gif","","","","","15","simple_dissimilar","images/stimuli/spore_stims/simple_17_A_c.gif","left","","","","",""
"","1614.42499991972","html-keyboard-response","294","554342","0.0-54.0","SS1613178183117","pref_question","","49","","","","","<video width ='960' height = '540' style='padding-top:8%' autoplay muted><source src='images/stimuli/wall_pref.mp4' type='video/mp4'></video>","1","left","25%","15","","","","","","","",""
"","925.9750000201166","sequential-stimulus-presentation","295","556086","0.0-55.0","SS1613178183117","pref_reveal","","40","800","1725.9750000201166","null","null","","","","","15","","","","background","","","",""
"","null","html-keyboard-response","296","557121","0.0-56.0-0.0","SS1613178183117","","","null","","","","","<p><img src= images/blank.png width =""200"" height = ""200"" style = ""float:right""></p><p><img src=images/blank.png width =""800"" height = ""200""></p>","","","","","","","","","","","",""
"","829.7700000694022","sequential-stimulus-presentation","297","558774","0.0-56.0-1.0","SS1613178183117","trial","","40","800","1629.7700000694022","images/stimuli/spore_stims/simple_05_B_b.gif","images/stimuli/spore_stims/simple_05_A_b.gif","","","","","16","simple_similar","images/stimuli/spore_stims/simple_05_A_b.gif","right","","","","",""
"","null","html-keyboard-response","298","559900","0.0-56.0-0.1","SS1613178183117","","","null","","","","","<p><img src= images/blank.png width =""200"" height = ""200"" style = ""float:right""></p><p><img src=images/blank.png width =""800"" height = ""200""></p>","","","","","","","","","","","",""
"","645.4299999168143","sequential-stimulus-presentation","299","561365","0.0-56.0-1.1","SS1613178183117","trial","","40","800","1445.4299999168143","images/stimuli/spore_stims/simple_05_B_b.gif","images/stimuli/spore_stims/simple_05_A_b.gif","","","","","16","simple_similar","images/stimuli/spore_stims/simple_05_A_b.gif","right","","","","",""
"","null","html-keyboard-response","300","562227","0.0-56.0-0.2","SS1613178183117","","","null","","","","","<p><img src= images/blank.png width =""200"" height = ""200"" style = ""float:right""></p><p><img src=images/blank.png width =""800"" height = ""200""></p>","","","","","","","","","","","",""
"","481.56500002369285","sequential-stimulus-presentation","301","563534","0.0-56.0-1.2","SS1613178183117","trial","","40","800","1281.5650000236928","images/stimuli/spore_stims/simple_05_B_b.gif","images/stimuli/spore_stims/simple_05_A_b.gif","","","","","16","simple_similar","images/stimuli/spore_stims/simple_05_A_b.gif","right","","","","",""
"","null","html-keyboard-response","302","564547","0.0-56.0-0.3","SS1613178183117","","","null","","","","","<p><img src= images/blank.png width =""200"" height = ""200"" style = ""float:right""></p><p><img src=images/blank.png width =""800"" height = ""200""></p>","","","","","","","","","","","",""
"","479.5699999667704","sequential-stimulus-presentation","303","565845","0.0-56.0-1.3","SS1613178183117","trial","","40","800","1279.5699999667704","images/stimuli/spore_stims/simple_05_B_b.gif","images/stimuli/spore_stims/simple_05_A_b.gif","","","","","16","simple_similar","images/stimuli/spore_stims/simple_05_A_b.gif","right","","","","",""
"","null","html-keyboard-response","304","566882","0.0-56.0-0.4","SS1613178183117","","","null","","","","","<p><img src= images/blank.png width =""200"" height = ""200"" style = ""float:right""></p><p><img src=images/blank.png width =""800"" height = ""200""></p>","","","","","","","","","","","",""
"","610.5499999830499","sequential-stimulus-presentation","305","568310","0.0-56.0-1.4","SS1613178183117","trial","","40","800","1410.54999998305","images/stimuli/spore_stims/simple_05_B_b.gif","images/stimuli/spore_stims/simple_05_A_b.gif","","","","","16","simple_similar","images/stimuli/spore_stims/simple_05_A_b.gif","right","","","","",""
"","null","html-keyboard-response","306","569619","0.0-56.0-0.5","SS1613178183117","","","null","","","","","<p><img src= images/blank.png width =""200"" height = ""200"" style = ""float:right""></p><p><img src=images/blank.png width =""800"" height = ""200""></p>","","","","","","","","","","","",""
"","1816.5550000267103","sequential-stimulus-presentation","307","572255","0.0-56.0-1.5","SS1613178183117","trial","","40","800","2616.5550000267103","images/stimuli/spore_stims/simple_05_B_b.gif","images/stimuli/spore_stims/simple_05_A_b.gif","","","","","16","simple_similar","images/stimuli/spore_stims/simple_05_A_b.gif","right","","","","",""
"","null","html-keyboard-response","308","573073","0.0-56.0-0.6","SS1613178183117","","","null","","","","","<p><img src= images/blank.png width =""200"" height = ""200"" style = ""float:right""></p><p><img src=images/blank.png width =""800"" height = ""200""></p>","","","","","","","","","","","",""
"","3369.025000021793","sequential-stimulus-presentation","309","577261","0.0-56.0-1.6","SS1613178183117","trial","","40","800","4169.025000021793","images/stimuli/spore_stims/simple_05_B_b.gif","images/stimuli/spore_stims/simple_05_A_b.gif","","","","","16","simple_similar","images/stimuli/spore_stims/simple_05_B_b.gif","middle","","","","",""
"","null","html-keyboard-response","310","578154","0.0-56.0-0.7","SS1613178183117","","","null","","","","","<p><img src= images/blank.png width =""200"" height = ""200"" style = ""float:right""></p><p><img src=images/blank.png width =""800"" height = ""200""></p>","","","","","","","","","","","",""
"","1182.7700000721961","sequential-stimulus-presentation","311","580189","0.0-56.0-1.7","SS1613178183117","trial","","40","800","1982.7700000721961","images/stimuli/spore_stims/simple_05_B_b.gif","images/stimuli/spore_stims/simple_05_A_b.gif","","","","","16","simple_similar","images/stimuli/spore_stims/simple_05_A_b.gif","right","","","","",""
