"view_history","rt","trial_type","trial_index","time_elapsed","internal_node_id","subject","stimulus_type","trial_stimulus","key_press","minimum_viewing_duration","trial_looking_time","block_deviant","block_background","stimulus","wall_pref","location","location_percent","block_number","block_type","stimulus_displayed","position_displayed","stim_type_selected","responses","question_order","stimulus_left","stimulus_right"
"[{""page_index"":0,""viewing_time"":10481.89499998989}]","10482.40499998792","instructions","0","10485","0.0-0.0","SS1613098982847","","","","","","","","","","","","","","","","","","","",""
"[{""page_index"":0,""viewing_time"":1308.709999997518},{""page_index"":1,""viewing_time"":12575.595000002068}]","13885.094999990542","instructions","1","26373","0.0-1.0","SS1613098982847","instructions","","","","","","","","","","","","","","","","","","",""
"","1257.1400000015274","sequential-stimulus-presentation","2","28435","0.0-2.0","SS1613098982847","","","40","800","2057.1400000015274","null","null","","","","","","","","","","","","",""
"","1520.0049999984913","sequential-stimulus-presentation","3","30768","0.0-3.0","SS1613098982847","","","40","800","2320.0049999984913","null","null","","","","","","","","","","","","",""
"[{""page_index"":0,""viewing_time"":1375.4550000012387}]","1375.704999998561","instructions","4","32147","0.0-4.0","SS1613098982847","instructions","","","","","","","","","","","","","","","","","","",""
"","3029.320000001462","html-keyboard-response","5","35180","0.0-5.0","SS1613098982847","instructions","","98","","","","","<video width ='960' height = '540' autoplay muted><source src='images/stimuli/wall_pref.mp4' type='video/mp4'></video>","2","middle","45%","","","","","","","","",""
"","925.1800000056392","sequential-stimulus-presentation","6","36910","0.0-6.0","SS1613098982847","pref_reveal","","40","800","1725.1800000056392","null","null","","","","","","","","","","","","",""
"[{""page_index"":0,""viewing_time"":1227.6199999905657},{""page_index"":1,""viewing_time"":778.1800000084331},{""page_index"":2,""viewing_time"":1197.939999998198},{""page_index"":3,""viewing_time"":1319.9800000002142}]","4523.994999995921","instructions","7","41435","0.0-7.0","SS1613098982847","instructions","","","","","","","","","","","","","","","","","","",""
"","null","html-keyboard-response","8","42703","0.0-8.0-0.0","SS1613098982847","","","null","","","","","<p><img src= images/blank.png width =""200"" height = ""200"" style = ""float:right""></p><p><img src=images/blank.png width =""800"" height = ""200""></p>","","","","","","","","","","","",""
"","1197.9849999916041","sequential-stimulus-presentation","9","44707","0.0-8.0-1.0","SS1613098982847","trial","","40","800","1997.9849999916041","images/stimuli/spore_stims/complex_03_B_d.gif","images/stimuli/spore_stims/complex_10_A_d.gif","","","","","0","complex_dissimilar","images/stimuli/spore_stims/complex_10_A_d.gif","left","","","","",""
"","null","html-keyboard-response","10","45952","0.0-8.0-0.1","SS1613098982847","","","null","","","","","<p><img src= images/blank.png width =""200"" height = ""200"" style = ""float:right""></p><p><img src=images/blank.png width =""800"" height = ""200""></p>","","","","","","","","","","","",""
"","1496.514999991632","sequential-stimulus-presentation","11","48252","0.0-8.0-1.1","SS1613098982847","trial","","40","800","2296.514999991632","images/stimuli/spore_stims/complex_03_B_d.gif","images/stimuli/spore_stims/complex_10_A_d.gif","","","","","0","complex_dissimilar","images/stimuli/spore_stims/complex_10_A_d.gif","left","","","","",""
"","null","html-keyboard-response","12","49428","0.0-8.0-0.2","SS1613098982847","","","null","","","","","<p><img src= images/blank.png width =""200"" height = ""200"" style = ""float:right""></p><p><img src=images/blank.png width =""800"" height = ""200""></p>","","","","","","","","","","","",""
"","1170.4349999927217","sequential-stimulus-presentation","13","51405","0.0-8.0-1.2","SS1613098982847","trial","","40","800","1970.4349999927217","images/stimuli/spore_stims/complex_03_B_d.gif","images/stimuli/spore_stims/complex_10_A_d.gif","","","","","0","complex_dissimilar","images/stimuli/spore_stims/complex_10_A_d.gif","left","","","","",""
"","null","html-keyboard-response","14","52234","0.0-8.0-0.3","SS1613098982847","","","null","","","","","<p><img src= images/blank.png width =""200"" height = ""200"" style = ""float:right""></p><p><img src=images/blank.png width =""800"" height = ""200""></p>","","","","","","","","","","","",""
"","1803.9500000013504","sequential-stimulus-presentation","15","54843","0.0-8.0-1.3","SS1613098982847","trial","","40","800","2603.9500000013504","images/stimuli/spore_stims/complex_03_B_d.gif","images/stimuli/spore_stims/complex_10_A_d.gif","","","","","0","complex_dissimilar","images/stimuli/spore_stims/complex_10_A_d.gif","left","","","","",""
"","null","html-keyboard-response","16","55878","0.0-8.0-0.4","SS1613098982847","","","null","","","","","<p><img src= images/blank.png width =""200"" height = ""200"" style = ""float:right""></p><p><img src=images/blank.png width =""800"" height = ""200""></p>","","","","","","","","","","","",""
"","1609.4999999913853","sequential-stimulus-presentation","17","58293","0.0-8.0-1.4","SS1613098982847","trial","","40","800","2409.4999999913853","images/stimuli/spore_stims/complex_03_B_d.gif","images/stimuli/spore_stims/complex_10_A_d.gif","","","","","0","complex_dissimilar","images/stimuli/spore_stims/complex_10_A_d.gif","left","","","","",""
"","null","html-keyboard-response","18","59526","0.0-8.0-0.5","SS1613098982847","","","null","","","","","<p><img src= images/blank.png width =""200"" height = ""200"" style = ""float:right""></p><p><img src=images/blank.png width =""800"" height = ""200""></p>","","","","","","","","","","","",""
"","270.2350000035949","sequential-stimulus-presentation","19","60603","0.0-8.0-1.5","SS1613098982847","trial","","40","800","1070.235000003595","images/stimuli/spore_stims/complex_03_B_d.gif","images/stimuli/spore_stims/complex_10_A_d.gif","","","","","0","complex_dissimilar","images/stimuli/spore_stims/complex_10_A_d.gif","left","","","","",""
"","null","html-keyboard-response","20","61733","0.0-8.0-0.6","SS1613098982847","","","null","","","","","<p><img src= images/blank.png width =""200"" height = ""200"" style = ""float:right""></p><p><img src=images/blank.png width =""800"" height = ""200""></p>","","","","","","","","","","","",""
"","582.3349999991478","sequential-stimulus-presentation","21","63122","0.0-8.0-1.6","SS1613098982847","trial","","40","800","1382.3349999991478","images/stimuli/spore_stims/complex_03_B_d.gif","images/stimuli/spore_stims/complex_10_A_d.gif","","","","","0","complex_dissimilar","images/stimuli/spore_stims/complex_03_B_d.gif","right","","","","",""
"","null","html-keyboard-response","22","63933","0.0-8.0-0.7","SS1613098982847","","","null","","","","","<p><img src= images/blank.png width =""200"" height = ""200"" style = ""float:right""></p><p><img src=images/blank.png width =""800"" height = ""200""></p>","","","","","","","","","","","",""
"","1506.3349999982165","sequential-stimulus-presentation","23","66243","0.0-8.0-1.7","SS1613098982847","trial","","40","800","2306.3349999982165","images/stimuli/spore_stims/complex_03_B_d.gif","images/stimuli/spore_stims/complex_10_A_d.gif","","","","","0","complex_dissimilar","images/stimuli/spore_stims/complex_10_A_d.gif","left","","","","",""
"","2836.8050000135554","html-keyboard-response","24","69084","0.0-9.0","SS1613098982847","pref_question","","97","","","","","<video width ='960' height = '540' style='padding-top:8%' autoplay muted><source src='images/stimuli/wall_pref.mp4' type='video/mp4'></video>","1","left","25%","0","","","","","","","",""
"","5529.669999988982","sequential-stimulus-presentation","25","75419","0.0-10.0","SS1613098982847","pref_reveal","","40","800","6329.669999988982","null","null","","","","","0","","","","background","","","",""
"","null","html-keyboard-response","26","76360","0.0-11.0-0.0","SS1613098982847","","","null","","","","","<p><img src= images/blank.png width =""200"" height = ""200"" style = ""float:right""></p><p><img src=images/blank.png width =""800"" height = ""200""></p>","","","","","","","","","","","",""
"","3007.400000002235","sequential-stimulus-presentation","27","80173","0.0-11.0-1.0","SS1613098982847","trial","","40","800","3807.400000002235","images/stimuli/spore_stims/complex_13_A_d.gif","images/stimuli/spore_stims/complex_10_B_a.gif","","","","","1","complex_dissimilar","images/stimuli/spore_stims/complex_10_B_a.gif","right","","","","",""
"","null","html-keyboard-response","28","81442","0.0-11.0-0.1","SS1613098982847","","","null","","","","","<p><img src= images/blank.png width =""200"" height = ""200"" style = ""float:right""></p><p><img src=images/blank.png width =""800"" height = ""200""></p>","","","","","","","","","","","",""
"","300.5399999965448","sequential-stimulus-presentation","29","82547","0.0-11.0-1.1","SS1613098982847","trial","","40","800","1100.5399999965448","images/stimuli/spore_stims/complex_13_A_d.gif","images/stimuli/spore_stims/complex_10_B_a.gif","","","","","1","complex_dissimilar","images/stimuli/spore_stims/complex_10_B_a.gif","right","","","","",""
"","null","html-keyboard-response","30","83558","0.0-11.0-0.2","SS1613098982847","","","null","","","","","<p><img src= images/blank.png width =""200"" height = ""200"" style = ""float:right""></p><p><img src=images/blank.png width =""800"" height = ""200""></p>","","","","","","","","","","","",""
"","295.48000000067987","sequential-stimulus-presentation","31","84658","0.0-11.0-1.2","SS1613098982847","trial","","40","800","1095.4800000006799","images/stimuli/spore_stims/complex_13_A_d.gif","images/stimuli/spore_stims/complex_10_B_a.gif","","","","","1","complex_dissimilar","images/stimuli/spore_stims/complex_10_B_a.gif","right","","","","",""
"","null","html-keyboard-response","32","85739","0.0-11.0-0.3","SS1613098982847","","","null","","","","","<p><img src= images/blank.png width =""200"" height = ""200"" style = ""float:right""></p><p><img src=images/blank.png width =""800"" height = ""200""></p>","","","","","","","","","","","",""
"","1724.8799999943003","sequential-stimulus-presentation","33","88268","0.0-11.0-1.3","SS1613098982847","trial","","40","800","2524.8799999943003","images/stimuli/spore_stims/complex_13_A_d.gif","images/stimuli/spore_stims/complex_10_B_a.gif","","","","","1","complex_dissimilar","images/stimuli/spore_stims/complex_10_B_a.gif","right","","","","",""
"","null","html-keyboard-response","34","89527","0.0-11.0-0.4","SS1613098982847","","","null","","","","","<p><img src= images/blank.png width =""200"" height = ""200"" style = ""float:right""></p><p><img src=images/blank.png width =""800"" height = ""200""></p>","","","","","","","","","","","",""
"","5935.810000009951","sequential-stimulus-presentation","35","96268","0.0-11.0-1.4","SS1613098982847","trial","","40","800","6735.810000009951","images/stimuli/spore_stims/complex_13_A_d.gif","images/stimuli/spore_stims/complex_10_B_a.gif","","","","","1","complex_dissimilar","images/stimuli/spore_stims/complex_10_B_a.gif","right","","","","",""
"","null","html-keyboard-response","36","97304","0.0-11.0-0.5","SS1613098982847","","","null","","","","","<p><img src= images/blank.png width =""200"" height = ""200"" style = ""float:right""></p><p><img src=images/blank.png width =""800"" height = ""200""></p>","","","","","","","","","","","",""
"","22621.274999997695","sequential-stimulus-presentation","37","120730","0.0-11.0-1.5","SS1613098982847","trial","","40","800","23421.274999997695","images/stimuli/spore_stims/complex_13_A_d.gif","images/stimuli/spore_stims/complex_10_B_a.gif","","","","","1","complex_dissimilar","images/stimuli/spore_stims/complex_10_B_a.gif","right","","","","",""
"","null","html-keyboard-response","38","121807","0.0-11.0-0.6","SS1613098982847","","","null","","","","","<p><img src= images/blank.png width =""200"" height = ""200"" style = ""float:right""></p><p><img src=images/blank.png width =""800"" height = ""200""></p>","","","","","","","","","","","",""
"","6014.035000000149","sequential-stimulus-presentation","39","128626","0.0-11.0-1.6","SS1613098982847","trial","","40","800","6814.035000000149","images/stimuli/spore_stims/complex_13_A_d.gif","images/stimuli/spore_stims/complex_10_B_a.gif","","","","","1","complex_dissimilar","images/stimuli/spore_stims/complex_10_B_a.gif","right","","","","",""
"","null","html-keyboard-response","40","129900","0.0-11.0-0.7","SS1613098982847","","","null","","","","","<p><img src= images/blank.png width =""200"" height = ""200"" style = ""float:right""></p><p><img src=images/blank.png width =""800"" height = ""200""></p>","","","","","","","","","","","",""
"","1882.0200000045588","sequential-stimulus-presentation","41","132587","0.0-11.0-1.7","SS1613098982847","trial","","40","800","2682.020000004559","images/stimuli/spore_stims/complex_13_A_d.gif","images/stimuli/spore_stims/complex_10_B_a.gif","","","","","1","complex_dissimilar","images/stimuli/spore_stims/complex_13_A_d.gif","middle","","","","",""
"","5075.584999998682","html-keyboard-response","42","137667","0.0-12.0","SS1613098982847","pref_question","","98","","","","","<video width ='960' height = '540' style='padding-top:8%' autoplay muted><source src='images/stimuli/wall_pref.mp4' type='video/mp4'></video>","2","middle","45%","1","","","","","","","",""
"","3776.4250000036554","sequential-stimulus-presentation","43","142261","0.0-13.0","SS1613098982847","pref_reveal","","40","800","4576.425000003655","null","null","","","","","1","","","","deviant","","","",""
"","null","html-keyboard-response","44","143265","0.0-14.0-0.0","SS1613098982847","","","null","","","","","<p><img src= images/blank.png width =""200"" height = ""200"" style = ""float:right""></p><p><img src=images/blank.png width =""800"" height = ""200""></p>","","","","","","","","","","","",""
"","1581.000000005588","sequential-stimulus-presentation","45","145650","0.0-14.0-1.0","SS1613098982847","trial","","40","800","2381.000000005588","images/stimuli/spore_stims/simple_20_A_d.gif","images/stimuli/spore_stims/simple_08_B_c.gif","","","","","2","simple_dissimilar","images/stimuli/spore_stims/simple_08_B_c.gif","middle","","","","",""
"","null","html-keyboard-response","46","146863","0.0-14.0-0.1","SS1613098982847","","","null","","","","","<p><img src= images/blank.png width =""200"" height = ""200"" style = ""float:right""></p><p><img src=images/blank.png width =""800"" height = ""200""></p>","","","","","","","","","","","",""
"","1017.8600000072038","sequential-stimulus-presentation","47","148686","0.0-14.0-1.1","SS1613098982847","trial","","40","800","1817.8600000072038","images/stimuli/spore_stims/simple_20_A_d.gif","images/stimuli/spore_stims/simple_08_B_c.gif","","","","","2","simple_dissimilar","images/stimuli/spore_stims/simple_08_B_c.gif","middle","","","","",""
"","null","html-keyboard-response","48","149794","0.0-14.0-0.2","SS1613098982847","","","null","","","","","<p><img src= images/blank.png width =""200"" height = ""200"" style = ""float:right""></p><p><img src=images/blank.png width =""800"" height = ""200""></p>","","","","","","","","","","","",""
"","1754.9700000090525","sequential-stimulus-presentation","49","152355","0.0-14.0-1.2","SS1613098982847","trial","","40","800","2554.9700000090525","images/stimuli/spore_stims/simple_20_A_d.gif","images/stimuli/spore_stims/simple_08_B_c.gif","","","","","2","simple_dissimilar","images/stimuli/spore_stims/simple_08_B_c.gif","middle","","","","",""
"","null","html-keyboard-response","50","153253","0.0-14.0-0.3","SS1613098982847","","","null","","","","","<p><img src= images/blank.png width =""200"" height = ""200"" style = ""float:right""></p><p><img src=images/blank.png width =""800"" height = ""200""></p>","","","","","","","","","","","",""
"","1320.0250000081724","sequential-stimulus-presentation","51","155378","0.0-14.0-1.3","SS1613098982847","trial","","40","800","2120.0250000081724","images/stimuli/spore_stims/simple_20_A_d.gif","images/stimuli/spore_stims/simple_08_B_c.gif","","","","","2","simple_dissimilar","images/stimuli/spore_stims/simple_08_B_c.gif","middle","","","","",""
"","null","html-keyboard-response","52","156203","0.0-14.0-0.4","SS1613098982847","","","null","","","","","<p><img src= images/blank.png width =""200"" height = ""200"" style = ""float:right""></p><p><img src=images/blank.png width =""800"" height = ""200""></p>","","","","","","","","","","","",""
"","1947.3549999966053","sequential-stimulus-presentation","53","158955","0.0-14.0-1.4","SS1613098982847","trial","","40","800","2747.3549999966053","images/stimuli/spore_stims/simple_20_A_d.gif","images/stimuli/spore_stims/simple_08_B_c.gif","","","","","2","simple_dissimilar","images/stimuli/spore_stims/simple_08_B_c.gif","middle","","","","",""
"","null","html-keyboard-response","54","160189","0.0-14.0-0.5","SS1613098982847","","","null","","","","","<p><img src= images/blank.png width =""200"" height = ""200"" style = ""float:right""></p><p><img src=images/blank.png width =""800"" height = ""200""></p>","","","","","","","","","","","",""
"","1625.1550000015413","sequential-stimulus-presentation","55","162620","0.0-14.0-1.5","SS1613098982847","trial","","40","800","2425.1550000015413","images/stimuli/spore_stims/simple_20_A_d.gif","images/stimuli/spore_stims/simple_08_B_c.gif","","","","","2","simple_dissimilar","images/stimuli/spore_stims/simple_20_A_d.gif","right","","","","",""
"","null","html-keyboard-response","56","163492","0.0-14.0-0.6","SS1613098982847","","","null","","","","","<p><img src= images/blank.png width =""200"" height = ""200"" style = ""float:right""></p><p><img src=images/blank.png width =""800"" height = ""200""></p>","","","","","","","","","","","",""
"","2367.1599999943282","sequential-stimulus-presentation","57","166667","0.0-14.0-1.6","SS1613098982847","trial","","40","800","3167.1599999943282","images/stimuli/spore_stims/simple_20_A_d.gif","images/stimuli/spore_stims/simple_08_B_c.gif","","","","","2","simple_dissimilar","images/stimuli/spore_stims/simple_08_B_c.gif","middle","","","","",""
"","null","html-keyboard-response","58","167522","0.0-14.0-0.7","SS1613098982847","","","null","","","","","<p><img src= images/blank.png width =""200"" height = ""200"" style = ""float:right""></p><p><img src=images/blank.png width =""800"" height = ""200""></p>","","","","","","","","","","","",""
"","1766.635000007227","sequential-stimulus-presentation","59","170098","0.0-14.0-1.7","SS1613098982847","trial","","40","800","2566.635000007227","images/stimuli/spore_stims/simple_20_A_d.gif","images/stimuli/spore_stims/simple_08_B_c.gif","","","","","2","simple_dissimilar","images/stimuli/spore_stims/simple_08_B_c.gif","middle","","","","",""
"","3936.325000002398","html-keyboard-response","60","174051","0.0-15.0","SS1613098982847","pref_question","","98","","","","","<video width ='960' height = '540' style='padding-top:8%' autoplay muted><source src='images/stimuli/wall_pref.mp4' type='video/mp4'></video>","2","middle","45%","2","","","","","","","",""
"","4906.914999999572","sequential-stimulus-presentation","61","179763","0.0-16.0","SS1613098982847","pref_reveal","","40","800","5706.914999999572","null","null","","","","","2","","","","background","","","",""
"","null","html-keyboard-response","62","180972","0.0-17.0-0.0","SS1613098982847","","","null","","","","","<p><img src= images/blank.png width =""200"" height = ""200"" style = ""float:right""></p><p><img src=images/blank.png width =""800"" height = ""200""></p>","","","","","","","","","","","",""
"","490.56999999447726","sequential-stimulus-presentation","63","182269","0.0-17.0-1.0","SS1613098982847","trial","","40","800","1290.5699999944773","images/stimuli/spore_stims/complex_05_B_c.gif","images/stimuli/spore_stims/complex_05_A_c.gif","","","","","3","complex_similar","images/stimuli/spore_stims/complex_05_A_c.gif","right","","","","",""
"","null","html-keyboard-response","64","183411","0.0-17.0-0.1","SS1613098982847","","","null","","","","","<p><img src= images/blank.png width =""200"" height = ""200"" style = ""float:right""></p><p><img src=images/blank.png width =""800"" height = ""200""></p>","","","","","","","","","","","",""
"","2166.0200000042096","sequential-stimulus-presentation","65","186382","0.0-17.0-1.1","SS1613098982847","trial","","40","800","2966.0200000042096","images/stimuli/spore_stims/complex_05_B_c.gif","images/stimuli/spore_stims/complex_05_A_c.gif","","","","","3","complex_similar","images/stimuli/spore_stims/complex_05_A_c.gif","right","","","","",""
"","null","html-keyboard-response","66","187293","0.0-17.0-0.2","SS1613098982847","","","null","","","","","<p><img src= images/blank.png width =""200"" height = ""200"" style = ""float:right""></p><p><img src=images/blank.png width =""800"" height = ""200""></p>","","","","","","","","","","","",""
"","951.1250000068685","sequential-stimulus-presentation","67","189051","0.0-17.0-1.2","SS1613098982847","trial","","40","800","1751.1250000068685","images/stimuli/spore_stims/complex_05_B_c.gif","images/stimuli/spore_stims/complex_05_A_c.gif","","","","","3","complex_similar","images/stimuli/spore_stims/complex_05_B_c.gif","left","","","","",""
"","null","html-keyboard-response","68","189932","0.0-17.0-0.3","SS1613098982847","","","null","","","","","<p><img src= images/blank.png width =""200"" height = ""200"" style = ""float:right""></p><p><img src=images/blank.png width =""800"" height = ""200""></p>","","","","","","","","","","","",""
"","736.5850000060163","sequential-stimulus-presentation","69","191474","0.0-17.0-1.3","SS1613098982847","trial","","40","800","1536.5850000060163","images/stimuli/spore_stims/complex_05_B_c.gif","images/stimuli/spore_stims/complex_05_A_c.gif","","","","","3","complex_similar","images/stimuli/spore_stims/complex_05_A_c.gif","right","","","","",""
"","null","html-keyboard-response","70","192576","0.0-17.0-0.4","SS1613098982847","","","null","","","","","<p><img src= images/blank.png width =""200"" height = ""200"" style = ""float:right""></p><p><img src=images/blank.png width =""800"" height = ""200""></p>","","","","","","","","","","","",""
"","1668.600000004517","sequential-stimulus-presentation","71","195050","0.0-17.0-1.4","SS1613098982847","trial","","40","800","2468.600000004517","images/stimuli/spore_stims/complex_05_B_c.gif","images/stimuli/spore_stims/complex_05_A_c.gif","","","","","3","complex_similar","images/stimuli/spore_stims/complex_05_A_c.gif","right","","","","",""
"","null","html-keyboard-response","72","196235","0.0-17.0-0.5","SS1613098982847","","","null","","","","","<p><img src= images/blank.png width =""200"" height = ""200"" style = ""float:right""></p><p><img src=images/blank.png width =""800"" height = ""200""></p>","","","","","","","","","","","",""
"","2193.9949999941746","sequential-stimulus-presentation","73","199234","0.0-17.0-1.5","SS1613098982847","trial","","40","800","2993.9949999941746","images/stimuli/spore_stims/complex_05_B_c.gif","images/stimuli/spore_stims/complex_05_A_c.gif","","","","","3","complex_similar","images/stimuli/spore_stims/complex_05_A_c.gif","right","","","","",""
"","null","html-keyboard-response","74","200456","0.0-17.0-0.6","SS1613098982847","","","null","","","","","<p><img src= images/blank.png width =""200"" height = ""200"" style = ""float:right""></p><p><img src=images/blank.png width =""800"" height = ""200""></p>","","","","","","","","","","","",""
"","860.7250000059139","sequential-stimulus-presentation","75","202123","0.0-17.0-1.6","SS1613098982847","trial","","40","800","1660.725000005914","images/stimuli/spore_stims/complex_05_B_c.gif","images/stimuli/spore_stims/complex_05_A_c.gif","","","","","3","complex_similar","images/stimuli/spore_stims/complex_05_A_c.gif","right","","","","",""
"","null","html-keyboard-response","76","203266","0.0-17.0-0.7","SS1613098982847","","","null","","","","","<p><img src= images/blank.png width =""200"" height = ""200"" style = ""float:right""></p><p><img src=images/blank.png width =""800"" height = ""200""></p>","","","","","","","","","","","",""
"","3419.25999999512","sequential-stimulus-presentation","77","207491","0.0-17.0-1.7","SS1613098982847","trial","","40","800","4219.25999999512","images/stimuli/spore_stims/complex_05_B_c.gif","images/stimuli/spore_stims/complex_05_A_c.gif","","","","","3","complex_similar","images/stimuli/spore_stims/complex_05_A_c.gif","right","","","","",""
"","2193.4000000037486","html-keyboard-response","78","209690","0.0-18.0","SS1613098982847","pref_question","","97","","","","","<video width ='960' height = '540' style='padding-top:8%' autoplay muted><source src='images/stimuli/wall_pref.mp4' type='video/mp4'></video>","1","left","25%","3","","","","","","","",""
"","3906.829999992624","sequential-stimulus-presentation","79","214401","0.0-19.0","SS1613098982847","pref_reveal","","40","800","4706.829999992624","null","null","","","","","3","","","","deviant","","","",""
"","null","html-keyboard-response","80","215333","0.0-20.0-0.0","SS1613098982847","","","null","","","","","<p><img src= images/blank.png width =""200"" height = ""200"" style = ""float:right""></p><p><img src=images/blank.png width =""800"" height = ""200""></p>","","","","","","","","","","","",""
"","278.14500000386033","sequential-stimulus-presentation","81","216418","0.0-20.0-1.0","SS1613098982847","trial","","40","800","1078.1450000038603","images/stimuli/spore_stims/complex_02_B_b.gif","images/stimuli/spore_stims/complex_02_A_b.gif","","","","","4","complex_similar","images/stimuli/spore_stims/complex_02_A_b.gif","middle","","","","",""
"","null","html-keyboard-response","82","217333","0.0-20.0-0.1","SS1613098982847","","","null","","","","","<p><img src= images/blank.png width =""200"" height = ""200"" style = ""float:right""></p><p><img src=images/blank.png width =""800"" height = ""200""></p>","","","","","","","","","","","",""
"","1720.4400000046007","sequential-stimulus-presentation","83","219859","0.0-20.0-1.1","SS1613098982847","trial","","40","800","2520.4400000046007","images/stimuli/spore_stims/complex_02_B_b.gif","images/stimuli/spore_stims/complex_02_A_b.gif","","","","","4","complex_similar","images/stimuli/spore_stims/complex_02_A_b.gif","middle","","","","",""
"","null","html-keyboard-response","84","220731","0.0-20.0-0.2","SS1613098982847","","","null","","","","","<p><img src= images/blank.png width =""200"" height = ""200"" style = ""float:right""></p><p><img src=images/blank.png width =""800"" height = ""200""></p>","","","","","","","","","","","",""
"","346.399999994901","sequential-stimulus-presentation","85","221882","0.0-20.0-1.2","SS1613098982847","trial","","40","800","1146.399999994901","images/stimuli/spore_stims/complex_02_B_b.gif","images/stimuli/spore_stims/complex_02_A_b.gif","","","","","4","complex_similar","images/stimuli/spore_stims/complex_02_B_b.gif","right","","","","",""
"","null","html-keyboard-response","86","222922","0.0-20.0-0.3","SS1613098982847","","","null","","","","","<p><img src= images/blank.png width =""200"" height = ""200"" style = ""float:right""></p><p><img src=images/blank.png width =""800"" height = ""200""></p>","","","","","","","","","","","",""
"","3403.180000008433","sequential-stimulus-presentation","87","227131","0.0-20.0-1.3","SS1613098982847","trial","","40","800","4203.180000008433","images/stimuli/spore_stims/complex_02_B_b.gif","images/stimuli/spore_stims/complex_02_A_b.gif","","","","","4","complex_similar","images/stimuli/spore_stims/complex_02_A_b.gif","middle","","","","",""
"","null","html-keyboard-response","88","227975","0.0-20.0-0.4","SS1613098982847","","","null","","","","","<p><img src= images/blank.png width =""200"" height = ""200"" style = ""float:right""></p><p><img src=images/blank.png width =""800"" height = ""200""></p>","","","","","","","","","","","",""
"","1219.6750000002794","sequential-stimulus-presentation","89","230000","0.0-20.0-1.4","SS1613098982847","trial","","40","800","2019.6750000002794","images/stimuli/spore_stims/complex_02_B_b.gif","images/stimuli/spore_stims/complex_02_A_b.gif","","","","","4","complex_similar","images/stimuli/spore_stims/complex_02_A_b.gif","middle","","","","",""
"","null","html-keyboard-response","90","231216","0.0-20.0-0.5","SS1613098982847","","","null","","","","","<p><img src= images/blank.png width =""200"" height = ""200"" style = ""float:right""></p><p><img src=images/blank.png width =""800"" height = ""200""></p>","","","","","","","","","","","",""
"","1564.3099999870174","sequential-stimulus-presentation","91","233587","0.0-20.0-1.5","SS1613098982847","trial","","40","800","2364.3099999870174","images/stimuli/spore_stims/complex_02_B_b.gif","images/stimuli/spore_stims/complex_02_A_b.gif","","","","","4","complex_similar","images/stimuli/spore_stims/complex_02_A_b.gif","middle","","","","",""
"","null","html-keyboard-response","92","234676","0.0-20.0-0.6","SS1613098982847","","","null","","","","","<p><img src= images/blank.png width =""200"" height = ""200"" style = ""float:right""></p><p><img src=images/blank.png width =""800"" height = ""200""></p>","","","","","","","","","","","",""
"","3992.3600000038277","sequential-stimulus-presentation","93","239474","0.0-20.0-1.6","SS1613098982847","trial","","40","800","4792.360000003828","images/stimuli/spore_stims/complex_02_B_b.gif","images/stimuli/spore_stims/complex_02_A_b.gif","","","","","4","complex_similar","images/stimuli/spore_stims/complex_02_A_b.gif","middle","","","","",""
"","null","html-keyboard-response","94","240323","0.0-20.0-0.7","SS1613098982847","","","null","","","","","<p><img src= images/blank.png width =""200"" height = ""200"" style = ""float:right""></p><p><img src=images/blank.png width =""800"" height = ""200""></p>","","","","","","","","","","","",""
"","1318.4700000128942","sequential-stimulus-presentation","95","242457","0.0-20.0-1.7","SS1613098982847","trial","","40","800","2118.470000012894","images/stimuli/spore_stims/complex_02_B_b.gif","images/stimuli/spore_stims/complex_02_A_b.gif","","","","","4","complex_similar","images/stimuli/spore_stims/complex_02_A_b.gif","middle","","","","",""
"","1427.9749999986961","html-keyboard-response","96","243889","0.0-21.0","SS1613098982847","pref_question","","97","","","","","<video width ='960' height = '540' style='padding-top:8%' autoplay muted><source src='images/stimuli/wall_pref.mp4' type='video/mp4'></video>","1","left","25%","4","","","","","","","",""
"","2154.1200000065146","sequential-stimulus-presentation","97","246848","0.0-22.0","SS1613098982847","pref_reveal","","40","800","2954.1200000065146","null","null","","","","","4","","","","novel","","","",""
"","null","html-keyboard-response","98","247864","0.0-23.0-0.0","SS1613098982847","","","null","","","","","<p><img src= images/blank.png width =""200"" height = ""200"" style = ""float:right""></p><p><img src=images/blank.png width =""800"" height = ""200""></p>","","","","","","","","","","","",""
"","515.3100000025006","sequential-stimulus-presentation","99","249186","0.0-23.0-1.0","SS1613098982847","trial","","40","800","1315.3100000025006","images/stimuli/spore_stims/complex_06_B_c.gif","images/stimuli/spore_stims/complex_06_A_c.gif","","","","","5","complex_similar","images/stimuli/spore_stims/complex_06_A_c.gif","right","","","","",""
"","null","html-keyboard-response","100","250335","0.0-23.0-0.1","SS1613098982847","","","null","","","","","<p><img src= images/blank.png width =""200"" height = ""200"" style = ""float:right""></p><p><img src=images/blank.png width =""800"" height = ""200""></p>","","","","","","","","","","","",""
"","2476.525000005495","sequential-stimulus-presentation","101","253618","0.0-23.0-1.1","SS1613098982847","trial","","40","800","3276.525000005495","images/stimuli/spore_stims/complex_06_B_c.gif","images/stimuli/spore_stims/complex_06_A_c.gif","","","","","5","complex_similar","images/stimuli/spore_stims/complex_06_A_c.gif","right","","","","",""
"","null","html-keyboard-response","102","254711","0.0-23.0-0.2","SS1613098982847","","","null","","","","","<p><img src= images/blank.png width =""200"" height = ""200"" style = ""float:right""></p><p><img src=images/blank.png width =""800"" height = ""200""></p>","","","","","","","","","","","",""
"","352.9149999958463","sequential-stimulus-presentation","103","255871","0.0-23.0-1.2","SS1613098982847","trial","","40","800","1152.9149999958463","images/stimuli/spore_stims/complex_06_B_c.gif","images/stimuli/spore_stims/complex_06_A_c.gif","","","","","5","complex_similar","images/stimuli/spore_stims/complex_06_A_c.gif","right","","","","",""
"","null","html-keyboard-response","104","256806","0.0-23.0-0.3","SS1613098982847","","","null","","","","","<p><img src= images/blank.png width =""200"" height = ""200"" style = ""float:right""></p><p><img src=images/blank.png width =""800"" height = ""200""></p>","","","","","","","","","","","",""
"","2764.2850000120234","sequential-stimulus-presentation","105","260377","0.0-23.0-1.3","SS1613098982847","trial","","40","800","3564.2850000120234","images/stimuli/spore_stims/complex_06_B_c.gif","images/stimuli/spore_stims/complex_06_A_c.gif","","","","","5","complex_similar","images/stimuli/spore_stims/complex_06_A_c.gif","right","","","","",""
"","null","html-keyboard-response","106","261292","0.0-23.0-0.4","SS1613098982847","","","null","","","","","<p><img src= images/blank.png width =""200"" height = ""200"" style = ""float:right""></p><p><img src=images/blank.png width =""800"" height = ""200""></p>","","","","","","","","","","","",""
"","3981.5749999979744","sequential-stimulus-presentation","107","266089","0.0-23.0-1.4","SS1613098982847","trial","","40","800","4781.574999997974","images/stimuli/spore_stims/complex_06_B_c.gif","images/stimuli/spore_stims/complex_06_A_c.gif","","","","","5","complex_similar","images/stimuli/spore_stims/complex_06_A_c.gif","right","","","","",""
"","null","html-keyboard-response","108","267185","0.0-23.0-0.5","SS1613098982847","","","null","","","","","<p><img src= images/blank.png width =""200"" height = ""200"" style = ""float:right""></p><p><img src=images/blank.png width =""800"" height = ""200""></p>","","","","","","","","","","","",""
"","3104.705000005197","sequential-stimulus-presentation","109","271097","0.0-23.0-1.5","SS1613098982847","trial","","40","800","3904.705000005197","images/stimuli/spore_stims/complex_06_B_c.gif","images/stimuli/spore_stims/complex_06_A_c.gif","","","","","5","complex_similar","images/stimuli/spore_stims/complex_06_B_c.gif","left","","","","",""
"","null","html-keyboard-response","110","272070","0.0-23.0-0.6","SS1613098982847","","","null","","","","","<p><img src= images/blank.png width =""200"" height = ""200"" style = ""float:right""></p><p><img src=images/blank.png width =""800"" height = ""200""></p>","","","","","","","","","","","",""
"","5.464999994728714","sequential-stimulus-presentation","111","272884","0.0-23.0-1.6","SS1613098982847","trial","","40","800","805.4649999947287","images/stimuli/spore_stims/complex_06_B_c.gif","images/stimuli/spore_stims/complex_06_A_c.gif","","","","","5","complex_similar","images/stimuli/spore_stims/complex_06_A_c.gif","right","","","","",""
"","null","html-keyboard-response","112","274136","0.0-23.0-0.7","SS1613098982847","","","null","","","","","<p><img src= images/blank.png width =""200"" height = ""200"" style = ""float:right""></p><p><img src=images/blank.png width =""800"" height = ""200""></p>","","","","","","","","","","","",""
"","2846.0250000061933","sequential-stimulus-presentation","113","277793","0.0-23.0-1.7","SS1613098982847","trial","","40","800","3646.0250000061933","images/stimuli/spore_stims/complex_06_B_c.gif","images/stimuli/spore_stims/complex_06_A_c.gif","","","","","5","complex_similar","images/stimuli/spore_stims/complex_06_A_c.gif","right","","","","",""
"","4027.1649999922374","html-keyboard-response","114","281825","0.0-24.0","SS1613098982847","pref_question","","97","","","","","<video width ='960' height = '540' style='padding-top:8%' autoplay muted><source src='images/stimuli/wall_pref.mp4' type='video/mp4'></video>","1","left","25%","5","","","","","","","",""
"","7858.145000005607","sequential-stimulus-presentation","115","290489","0.0-25.0","SS1613098982847","pref_reveal","","40","800","8658.145000005607","null","null","","","","","5","","","","deviant","","","",""
"","null","html-keyboard-response","116","291477","0.0-26.0-0.0","SS1613098982847","","","null","","","","","<p><img src= images/blank.png width =""200"" height = ""200"" style = ""float:right""></p><p><img src=images/blank.png width =""800"" height = ""200""></p>","","","","","","","","","","","",""
"","1423.224999991362","sequential-stimulus-presentation","117","293712","0.0-26.0-1.0","SS1613098982847","trial","","40","800","2223.224999991362","images/stimuli/spore_stims/complex_19_A_d.gif","images/stimuli/spore_stims/complex_19_B_d.gif","","","","","6","complex_similar","images/stimuli/spore_stims/complex_19_B_d.gif","left","","","","",""
"","null","html-keyboard-response","118","294675","0.0-26.0-0.1","SS1613098982847","","","null","","","","","<p><img src= images/blank.png width =""200"" height = ""200"" style = ""float:right""></p><p><img src=images/blank.png width =""800"" height = ""200""></p>","","","","","","","","","","","",""
"","1527.1800000045914","sequential-stimulus-presentation","119","297010","0.0-26.0-1.1","SS1613098982847","trial","","40","800","2327.1800000045914","images/stimuli/spore_stims/complex_19_A_d.gif","images/stimuli/spore_stims/complex_19_B_d.gif","","","","","6","complex_similar","images/stimuli/spore_stims/complex_19_B_d.gif","left","","","","",""
"","null","html-keyboard-response","120","297834","0.0-26.0-0.2","SS1613098982847","","","null","","","","","<p><img src= images/blank.png width =""200"" height = ""200"" style = ""float:right""></p><p><img src=images/blank.png width =""800"" height = ""200""></p>","","","","","","","","","","","",""
"","2425.9300000121584","sequential-stimulus-presentation","121","301067","0.0-26.0-1.2","SS1613098982847","trial","","40","800","3225.9300000121584","images/stimuli/spore_stims/complex_19_A_d.gif","images/stimuli/spore_stims/complex_19_B_d.gif","","","","","6","complex_similar","images/stimuli/spore_stims/complex_19_B_d.gif","left","","","","",""
"","null","html-keyboard-response","122","302302","0.0-26.0-0.3","SS1613098982847","","","null","","","","","<p><img src= images/blank.png width =""200"" height = ""200"" style = ""float:right""></p><p><img src=images/blank.png width =""800"" height = ""200""></p>","","","","","","","","","","","",""
"","1082.5199999962933","sequential-stimulus-presentation","123","304193","0.0-26.0-1.3","SS1613098982847","trial","","40","800","1882.5199999962933","images/stimuli/spore_stims/complex_19_A_d.gif","images/stimuli/spore_stims/complex_19_B_d.gif","","","","","6","complex_similar","images/stimuli/spore_stims/complex_19_B_d.gif","left","","","","",""
"","null","html-keyboard-response","124","305096","0.0-26.0-0.4","SS1613098982847","","","null","","","","","<p><img src= images/blank.png width =""200"" height = ""200"" style = ""float:right""></p><p><img src=images/blank.png width =""800"" height = ""200""></p>","","","","","","","","","","","",""
"","1279.2999999946915","sequential-stimulus-presentation","125","307210","0.0-26.0-1.4","SS1613098982847","trial","","40","800","2079.2999999946915","images/stimuli/spore_stims/complex_19_A_d.gif","images/stimuli/spore_stims/complex_19_B_d.gif","","","","","6","complex_similar","images/stimuli/spore_stims/complex_19_A_d.gif","middle","","","","",""
"","null","html-keyboard-response","126","308498","0.0-26.0-0.5","SS1613098982847","","","null","","","","","<p><img src= images/blank.png width =""200"" height = ""200"" style = ""float:right""></p><p><img src=images/blank.png width =""800"" height = ""200""></p>","","","","","","","","","","","",""
"","254.25499999255408","sequential-stimulus-presentation","127","309560","0.0-26.0-1.5","SS1613098982847","trial","","40","800","1054.254999992554","images/stimuli/spore_stims/complex_19_A_d.gif","images/stimuli/spore_stims/complex_19_B_d.gif","","","","","6","complex_similar","images/stimuli/spore_stims/complex_19_B_d.gif","left","","","","",""
"","null","html-keyboard-response","128","310547","0.0-26.0-0.6","SS1613098982847","","","null","","","","","<p><img src= images/blank.png width =""200"" height = ""200"" style = ""float:right""></p><p><img src=images/blank.png width =""800"" height = ""200""></p>","","","","","","","","","","","",""
"","3157.665000006091","sequential-stimulus-presentation","129","314514","0.0-26.0-1.6","SS1613098982847","trial","","40","800","3957.665000006091","images/stimuli/spore_stims/complex_19_A_d.gif","images/stimuli/spore_stims/complex_19_B_d.gif","","","","","6","complex_similar","images/stimuli/spore_stims/complex_19_B_d.gif","left","","","","",""
"","null","html-keyboard-response","130","315513","0.0-26.0-0.7","SS1613098982847","","","null","","","","","<p><img src= images/blank.png width =""200"" height = ""200"" style = ""float:right""></p><p><img src=images/blank.png width =""800"" height = ""200""></p>","","","","","","","","","","","",""
"","893.6650000105146","sequential-stimulus-presentation","131","317217","0.0-26.0-1.7","SS1613098982847","trial","","40","800","1693.6650000105146","images/stimuli/spore_stims/complex_19_A_d.gif","images/stimuli/spore_stims/complex_19_B_d.gif","","","","","6","complex_similar","images/stimuli/spore_stims/complex_19_B_d.gif","left","","","","",""
"","1642.8849999938393","html-keyboard-response","132","318865","0.0-27.0","SS1613098982847","pref_question","","97","","","","","<video width ='960' height = '540' style='padding-top:8%' autoplay muted><source src='images/stimuli/wall_pref.mp4' type='video/mp4'></video>","1","left","25%","6","","","","","","","",""
"","9671.650000003865","sequential-stimulus-presentation","133","329344","0.0-28.0","SS1613098982847","pref_reveal","","40","800","10471.650000003865","null","null","","","","","6","","","","background","","","",""
"","null","html-keyboard-response","134","330430","0.0-29.0-0.0","SS1613098982847","","","null","","","","","<p><img src= images/blank.png width =""200"" height = ""200"" style = ""float:right""></p><p><img src=images/blank.png width =""800"" height = ""200""></p>","","","","","","","","","","","",""
"","2225.6300000008196","sequential-stimulus-presentation","135","333464","0.0-29.0-1.0","SS1613098982847","trial","","40","800","3025.6300000008196","images/stimuli/spore_stims/simple_14_B_a.gif","images/stimuli/spore_stims/simple_14_A_a.gif","","","","","7","simple_similar","images/stimuli/spore_stims/simple_14_A_a.gif","right","","","","",""
"","null","html-keyboard-response","136","334537","0.0-29.0-0.1","SS1613098982847","","","null","","","","","<p><img src= images/blank.png width =""200"" height = ""200"" style = ""float:right""></p><p><img src=images/blank.png width =""800"" height = ""200""></p>","","","","","","","","","","","",""
"","2954.584999999497","sequential-stimulus-presentation","137","338305","0.0-29.0-1.1","SS1613098982847","trial","","40","800","3754.584999999497","images/stimuli/spore_stims/simple_14_B_a.gif","images/stimuli/spore_stims/simple_14_A_a.gif","","","","","7","simple_similar","images/stimuli/spore_stims/simple_14_A_a.gif","right","","","","",""
"","null","html-keyboard-response","138","339314","0.0-29.0-0.2","SS1613098982847","","","null","","","","","<p><img src= images/blank.png width =""200"" height = ""200"" style = ""float:right""></p><p><img src=images/blank.png width =""800"" height = ""200""></p>","","","","","","","","","","","",""
"","2463.0050000123447","sequential-stimulus-presentation","139","342585","0.0-29.0-1.2","SS1613098982847","trial","","40","800","3263.0050000123447","images/stimuli/spore_stims/simple_14_B_a.gif","images/stimuli/spore_stims/simple_14_A_a.gif","","","","","7","simple_similar","images/stimuli/spore_stims/simple_14_A_a.gif","right","","","","",""
"","null","html-keyboard-response","140","343395","0.0-29.0-0.3","SS1613098982847","","","null","","","","","<p><img src= images/blank.png width =""200"" height = ""200"" style = ""float:right""></p><p><img src=images/blank.png width =""800"" height = ""200""></p>","","","","","","","","","","","",""
"","614.0450000093551","sequential-stimulus-presentation","141","344816","0.0-29.0-1.3","SS1613098982847","trial","","40","800","1414.0450000093551","images/stimuli/spore_stims/simple_14_B_a.gif","images/stimuli/spore_stims/simple_14_A_a.gif","","","","","7","simple_similar","images/stimuli/spore_stims/simple_14_A_a.gif","right","","","","",""
"","null","html-keyboard-response","142","345933","0.0-29.0-0.4","SS1613098982847","","","null","","","","","<p><img src= images/blank.png width =""200"" height = ""200"" style = ""float:right""></p><p><img src=images/blank.png width =""800"" height = ""200""></p>","","","","","","","","","","","",""
"","1860.1550000021234","sequential-stimulus-presentation","143","348600","0.0-29.0-1.4","SS1613098982847","trial","","40","800","2660.1550000021234","images/stimuli/spore_stims/simple_14_B_a.gif","images/stimuli/spore_stims/simple_14_A_a.gif","","","","","7","simple_similar","images/stimuli/spore_stims/simple_14_A_a.gif","right","","","","",""
"","null","html-keyboard-response","144","349455","0.0-29.0-0.5","SS1613098982847","","","null","","","","","<p><img src= images/blank.png width =""200"" height = ""200"" style = ""float:right""></p><p><img src=images/blank.png width =""800"" height = ""200""></p>","","","","","","","","","","","",""
"","121.04499999259133","sequential-stimulus-presentation","145","350407","0.0-29.0-1.5","SS1613098982847","trial","","40","800","921.0449999925913","images/stimuli/spore_stims/simple_14_B_a.gif","images/stimuli/spore_stims/simple_14_A_a.gif","","","","","7","simple_similar","images/stimuli/spore_stims/simple_14_A_a.gif","right","","","","",""
"","null","html-keyboard-response","146","351520","0.0-29.0-0.6","SS1613098982847","","","null","","","","","<p><img src= images/blank.png width =""200"" height = ""200"" style = ""float:right""></p><p><img src=images/blank.png width =""800"" height = ""200""></p>","","","","","","","","","","","",""
"","1254.56000000122","sequential-stimulus-presentation","147","353584","0.0-29.0-1.6","SS1613098982847","trial","","40","800","2054.56000000122","images/stimuli/spore_stims/simple_14_B_a.gif","images/stimuli/spore_stims/simple_14_A_a.gif","","","","","7","simple_similar","images/stimuli/spore_stims/simple_14_A_a.gif","right","","","","",""
"","null","html-keyboard-response","148","354727","0.0-29.0-0.7","SS1613098982847","","","null","","","","","<p><img src= images/blank.png width =""200"" height = ""200"" style = ""float:right""></p><p><img src=images/blank.png width =""800"" height = ""200""></p>","","","","","","","","","","","",""
"","2993.594999992638","sequential-stimulus-presentation","149","358528","0.0-29.0-1.7","SS1613098982847","trial","","40","800","3793.594999992638","images/stimuli/spore_stims/simple_14_B_a.gif","images/stimuli/spore_stims/simple_14_A_a.gif","","","","","7","simple_similar","images/stimuli/spore_stims/simple_14_B_a.gif","middle","","","","",""
"","3985.7800000027055","html-keyboard-response","150","362520","0.0-30.0","SS1613098982847","pref_question","","97","","","","","<video width ='960' height = '540' style='padding-top:8%' autoplay muted><source src='images/stimuli/wall_pref.mp4' type='video/mp4'></video>","1","left","25%","7","","","","","","","",""
"","9401.194999998552","sequential-stimulus-presentation","151","372728","0.0-31.0","SS1613098982847","pref_reveal","","40","800","10201.194999998552","null","null","","","","","7","","","","novel","","","",""
"","null","html-keyboard-response","152","373898","0.0-32.0-0.0","SS1613098982847","","","null","","","","","<p><img src= images/blank.png width =""200"" height = ""200"" style = ""float:right""></p><p><img src=images/blank.png width =""800"" height = ""200""></p>","","","","","","","","","","","",""
"","821.1350000055972","sequential-stimulus-presentation","153","375528","0.0-32.0-1.0","SS1613098982847","trial","","40","800","1621.1350000055972","images/stimuli/spore_stims/simple_13_B_c.gif","images/stimuli/spore_stims/simple_13_A_c.gif","","","","","8","simple_similar","images/stimuli/spore_stims/simple_13_A_c.gif","right","","","","",""
"","null","html-keyboard-response","154","376682","0.0-32.0-0.1","SS1613098982847","","","null","","","","","<p><img src= images/blank.png width =""200"" height = ""200"" style = ""float:right""></p><p><img src=images/blank.png width =""800"" height = ""200""></p>","","","","","","","","","","","",""
"","181.4650000014808","sequential-stimulus-presentation","155","377671","0.0-32.0-1.1","SS1613098982847","trial","","40","800","981.4650000014808","images/stimuli/spore_stims/simple_13_B_c.gif","images/stimuli/spore_stims/simple_13_A_c.gif","","","","","8","simple_similar","images/stimuli/spore_stims/simple_13_A_c.gif","right","","","","",""
"","null","html-keyboard-response","156","378666","0.0-32.0-0.2","SS1613098982847","","","null","","","","","<p><img src= images/blank.png width =""200"" height = ""200"" style = ""float:right""></p><p><img src=images/blank.png width =""800"" height = ""200""></p>","","","","","","","","","","","",""
"","1197.9149999970105","sequential-stimulus-presentation","157","380672","0.0-32.0-1.2","SS1613098982847","trial","","40","800","1997.9149999970105","images/stimuli/spore_stims/simple_13_B_c.gif","images/stimuli/spore_stims/simple_13_A_c.gif","","","","","8","simple_similar","images/stimuli/spore_stims/simple_13_A_c.gif","right","","","","",""
"","null","html-keyboard-response","158","381501","0.0-32.0-0.3","SS1613098982847","","","null","","","","","<p><img src= images/blank.png width =""200"" height = ""200"" style = ""float:right""></p><p><img src=images/blank.png width =""800"" height = ""200""></p>","","","","","","","","","","","",""
"","4443.179999987478","sequential-stimulus-presentation","159","386752","0.0-32.0-1.3","SS1613098982847","trial","","40","800","5243.179999987478","images/stimuli/spore_stims/simple_13_B_c.gif","images/stimuli/spore_stims/simple_13_A_c.gif","","","","","8","simple_similar","images/stimuli/spore_stims/simple_13_A_c.gif","right","","","","",""
"","null","html-keyboard-response","160","387644","0.0-32.0-0.4","SS1613098982847","","","null","","","","","<p><img src= images/blank.png width =""200"" height = ""200"" style = ""float:right""></p><p><img src=images/blank.png width =""800"" height = ""200""></p>","","","","","","","","","","","",""
"","1862.489999999525","sequential-stimulus-presentation","161","390320","0.0-32.0-1.4","SS1613098982847","trial","","40","800","2662.489999999525","images/stimuli/spore_stims/simple_13_B_c.gif","images/stimuli/spore_stims/simple_13_A_c.gif","","","","","8","simple_similar","images/stimuli/spore_stims/simple_13_B_c.gif","left","","","","",""
"","null","html-keyboard-response","162","391416","0.0-32.0-0.5","SS1613098982847","","","null","","","","","<p><img src= images/blank.png width =""200"" height = ""200"" style = ""float:right""></p><p><img src=images/blank.png width =""800"" height = ""200""></p>","","","","","","","","","","","",""
"","2150.500000003376","sequential-stimulus-presentation","163","394376","0.0-32.0-1.5","SS1613098982847","trial","","40","800","2950.500000003376","images/stimuli/spore_stims/simple_13_B_c.gif","images/stimuli/spore_stims/simple_13_A_c.gif","","","","","8","simple_similar","images/stimuli/spore_stims/simple_13_A_c.gif","right","","","","",""
"","null","html-keyboard-response","164","395468","0.0-32.0-0.6","SS1613098982847","","","null","","","","","<p><img src= images/blank.png width =""200"" height = ""200"" style = ""float:right""></p><p><img src=images/blank.png width =""800"" height = ""200""></p>","","","","","","","","","","","",""
"","1498.7450000044191","sequential-stimulus-presentation","165","397776","0.0-32.0-1.6","SS1613098982847","trial","","40","800","2298.745000004419","images/stimuli/spore_stims/simple_13_B_c.gif","images/stimuli/spore_stims/simple_13_A_c.gif","","","","","8","simple_similar","images/stimuli/spore_stims/simple_13_A_c.gif","right","","","","",""
"","null","html-keyboard-response","166","398725","0.0-32.0-0.7","SS1613098982847","","","null","","","","","<p><img src= images/blank.png width =""200"" height = ""200"" style = ""float:right""></p><p><img src=images/blank.png width =""800"" height = ""200""></p>","","","","","","","","","","","",""
"","1667.0149999990826","sequential-stimulus-presentation","167","401200","0.0-32.0-1.7","SS1613098982847","trial","","40","800","2467.0149999990826","images/stimuli/spore_stims/simple_13_B_c.gif","images/stimuli/spore_stims/simple_13_A_c.gif","","","","","8","simple_similar","images/stimuli/spore_stims/simple_13_A_c.gif","right","","","","",""
"","4564.429999998538","html-keyboard-response","168","405775","0.0-33.0","SS1613098982847","pref_question","","97","","","","","<video width ='960' height = '540' style='padding-top:8%' autoplay muted><source src='images/stimuli/wall_pref.mp4' type='video/mp4'></video>","1","left","25%","8","","","","","","","",""
"","2681.589999992866","sequential-stimulus-presentation","169","409264","0.0-34.0","SS1613098982847","pref_reveal","","40","800","3481.589999992866","null","null","","","","","8","","","","deviant","","","",""
"","null","html-keyboard-response","170","410317","0.0-35.0-0.0","SS1613098982847","","","null","","","","","<p><img src= images/blank.png width =""200"" height = ""200"" style = ""float:right""></p><p><img src=images/blank.png width =""800"" height = ""200""></p>","","","","","","","","","","","",""
"","2317.079999993439","sequential-stimulus-presentation","171","413447","0.0-35.0-1.0","SS1613098982847","trial","","40","800","3117.079999993439","images/stimuli/spore_stims/simple_12_B_d.gif","images/stimuli/spore_stims/simple_12_A_d.gif","","","","","9","simple_similar","images/stimuli/spore_stims/simple_12_A_d.gif","left","","","","",""
"","null","html-keyboard-response","172","414658","0.0-35.0-0.1","SS1613098982847","","","null","","","","","<p><img src= images/blank.png width =""200"" height = ""200"" style = ""float:right""></p><p><img src=images/blank.png width =""800"" height = ""200""></p>","","","","","","","","","","","",""
"","907.1350000012899","sequential-stimulus-presentation","173","416376","0.0-35.0-1.1","SS1613098982847","trial","","40","800","1707.1350000012899","images/stimuli/spore_stims/simple_12_B_d.gif","images/stimuli/spore_stims/simple_12_A_d.gif","","","","","9","simple_similar","images/stimuli/spore_stims/simple_12_A_d.gif","left","","","","",""
"","null","html-keyboard-response","174","417343","0.0-35.0-0.2","SS1613098982847","","","null","","","","","<p><img src= images/blank.png width =""200"" height = ""200"" style = ""float:right""></p><p><img src=images/blank.png width =""800"" height = ""200""></p>","","","","","","","","","","","",""
"","472.5149999867426","sequential-stimulus-presentation","175","418623","0.0-35.0-1.2","SS1613098982847","trial","","40","800","1272.5149999867426","images/stimuli/spore_stims/simple_12_B_d.gif","images/stimuli/spore_stims/simple_12_A_d.gif","","","","","9","simple_similar","images/stimuli/spore_stims/simple_12_A_d.gif","left","","","","",""
"","null","html-keyboard-response","176","419486","0.0-35.0-0.3","SS1613098982847","","","null","","","","","<p><img src= images/blank.png width =""200"" height = ""200"" style = ""float:right""></p><p><img src=images/blank.png width =""800"" height = ""200""></p>","","","","","","","","","","","",""
"","1985.7049999991432","sequential-stimulus-presentation","177","422279","0.0-35.0-1.3","SS1613098982847","trial","","40","800","2785.704999999143","images/stimuli/spore_stims/simple_12_B_d.gif","images/stimuli/spore_stims/simple_12_A_d.gif","","","","","9","simple_similar","images/stimuli/spore_stims/simple_12_A_d.gif","left","","","","",""
"","null","html-keyboard-response","178","423215","0.0-35.0-0.4","SS1613098982847","","","null","","","","","<p><img src= images/blank.png width =""200"" height = ""200"" style = ""float:right""></p><p><img src=images/blank.png width =""800"" height = ""200""></p>","","","","","","","","","","","",""
"","1760.6400000076974","sequential-stimulus-presentation","179","425784","0.0-35.0-1.4","SS1613098982847","trial","","40","800","2560.6400000076974","images/stimuli/spore_stims/simple_12_B_d.gif","images/stimuli/spore_stims/simple_12_A_d.gif","","","","","9","simple_similar","images/stimuli/spore_stims/simple_12_A_d.gif","left","","","","",""
"","null","html-keyboard-response","180","426948","0.0-35.0-0.5","SS1613098982847","","","null","","","","","<p><img src= images/blank.png width =""200"" height = ""200"" style = ""float:right""></p><p><img src=images/blank.png width =""800"" height = ""200""></p>","","","","","","","","","","","",""
"","1830.340000000433","sequential-stimulus-presentation","181","429592","0.0-35.0-1.5","SS1613098982847","trial","","40","800","2630.340000000433","images/stimuli/spore_stims/simple_12_B_d.gif","images/stimuli/spore_stims/simple_12_A_d.gif","","","","","9","simple_similar","images/stimuli/spore_stims/simple_12_A_d.gif","left","","","","",""
"","null","html-keyboard-response","182","430624","0.0-35.0-0.6","SS1613098982847","","","null","","","","","<p><img src= images/blank.png width =""200"" height = ""200"" style = ""float:right""></p><p><img src=images/blank.png width =""800"" height = ""200""></p>","","","","","","","","","","","",""
"","729.6800000040093","sequential-stimulus-presentation","183","432160","0.0-35.0-1.6","SS1613098982847","trial","","40","800","1529.6800000040093","images/stimuli/spore_stims/simple_12_B_d.gif","images/stimuli/spore_stims/simple_12_A_d.gif","","","","","9","simple_similar","images/stimuli/spore_stims/simple_12_A_d.gif","left","","","","",""
"","null","html-keyboard-response","184","433046","0.0-35.0-0.7","SS1613098982847","","","null","","","","","<p><img src= images/blank.png width =""200"" height = ""200"" style = ""float:right""></p><p><img src=images/blank.png width =""800"" height = ""200""></p>","","","","","","","","","","","",""
"","189.5349999977043","sequential-stimulus-presentation","185","434042","0.0-35.0-1.7","SS1613098982847","trial","","40","800","989.5349999977043","images/stimuli/spore_stims/simple_12_B_d.gif","images/stimuli/spore_stims/simple_12_A_d.gif","","","","","9","simple_similar","images/stimuli/spore_stims/simple_12_B_d.gif","middle","","","","",""
"","4038.5150000074646","html-keyboard-response","186","438087","0.0-36.0","SS1613098982847","pref_question","","97","","","","","<video width ='960' height = '540' style='padding-top:8%' autoplay muted><source src='images/stimuli/wall_pref.mp4' type='video/mp4'></video>","1","left","25%","9","","","","","","","",""
"","13603.309999991325","sequential-stimulus-presentation","187","452497","0.0-37.0","SS1613098982847","pref_reveal","","40","800","14403.309999991325","null","null","","","","","9","","","","background","","","",""
"","null","html-keyboard-response","188","453422","0.0-38.0-0.0","SS1613098982847","","","null","","","","","<p><img src= images/blank.png width =""200"" height = ""200"" style = ""float:right""></p><p><img src=images/blank.png width =""800"" height = ""200""></p>","","","","","","","","","","","",""
"","1481.9799999968382","sequential-stimulus-presentation","189","455712","0.0-38.0-1.0","SS1613098982847","trial","","40","800","2281.979999996838","images/stimuli/spore_stims/complex_08_B_b.gif","images/stimuli/spore_stims/complex_14_A_b.gif","","","","","10","complex_dissimilar","images/stimuli/spore_stims/complex_14_A_b.gif","right","","","","",""
"","null","html-keyboard-response","190","456673","0.0-38.0-0.1","SS1613098982847","","","null","","","","","<p><img src= images/blank.png width =""200"" height = ""200"" style = ""float:right""></p><p><img src=images/blank.png width =""800"" height = ""200""></p>","","","","","","","","","","","",""
"","1518.0449999897974","sequential-stimulus-presentation","191","459000","0.0-38.0-1.1","SS1613098982847","trial","","40","800","2318.0449999897974","images/stimuli/spore_stims/complex_08_B_b.gif","images/stimuli/spore_stims/complex_14_A_b.gif","","","","","10","complex_dissimilar","images/stimuli/spore_stims/complex_14_A_b.gif","right","","","","",""
"","null","html-keyboard-response","192","459977","0.0-38.0-0.2","SS1613098982847","","","null","","","","","<p><img src= images/blank.png width =""200"" height = ""200"" style = ""float:right""></p><p><img src=images/blank.png width =""800"" height = ""200""></p>","","","","","","","","","","","",""
"","2599.3600000074366","sequential-stimulus-presentation","193","463385","0.0-38.0-1.2","SS1613098982847","trial","","40","800","3399.3600000074366","images/stimuli/spore_stims/complex_08_B_b.gif","images/stimuli/spore_stims/complex_14_A_b.gif","","","","","10","complex_dissimilar","images/stimuli/spore_stims/complex_14_A_b.gif","right","","","","",""
"","null","html-keyboard-response","194","464230","0.0-38.0-0.3","SS1613098982847","","","null","","","","","<p><img src= images/blank.png width =""200"" height = ""200"" style = ""float:right""></p><p><img src=images/blank.png width =""800"" height = ""200""></p>","","","","","","","","","","","",""
"","2173.0749999987893","sequential-stimulus-presentation","195","467215","0.0-38.0-1.3","SS1613098982847","trial","","40","800","2973.0749999987893","images/stimuli/spore_stims/complex_08_B_b.gif","images/stimuli/spore_stims/complex_14_A_b.gif","","","","","10","complex_dissimilar","images/stimuli/spore_stims/complex_08_B_b.gif","left","","","","",""
"","null","html-keyboard-response","196","468527","0.0-38.0-0.4","SS1613098982847","","","null","","","","","<p><img src= images/blank.png width =""200"" height = ""200"" style = ""float:right""></p><p><img src=images/blank.png width =""800"" height = ""200""></p>","","","","","","","","","","","",""
"","3704.4200000091223","sequential-stimulus-presentation","197","473041","0.0-38.0-1.4","SS1613098982847","trial","","40","800","4504.420000009122","images/stimuli/spore_stims/complex_08_B_b.gif","images/stimuli/spore_stims/complex_14_A_b.gif","","","","","10","complex_dissimilar","images/stimuli/spore_stims/complex_14_A_b.gif","right","","","","",""
"","null","html-keyboard-response","198","474091","0.0-38.0-0.5","SS1613098982847","","","null","","","","","<p><img src= images/blank.png width =""200"" height = ""200"" style = ""float:right""></p><p><img src=images/blank.png width =""800"" height = ""200""></p>","","","","","","","","","","","",""
"","4871.574999997392","sequential-stimulus-presentation","199","479776","0.0-38.0-1.5","SS1613098982847","trial","","40","800","5671.574999997392","images/stimuli/spore_stims/complex_08_B_b.gif","images/stimuli/spore_stims/complex_14_A_b.gif","","","","","10","complex_dissimilar","images/stimuli/spore_stims/complex_14_A_b.gif","right","","","","",""
"","null","html-keyboard-response","200","480675","0.0-38.0-0.6","SS1613098982847","","","null","","","","","<p><img src= images/blank.png width =""200"" height = ""200"" style = ""float:right""></p><p><img src=images/blank.png width =""800"" height = ""200""></p>","","","","","","","","","","","",""
"","971.8549999961397","sequential-stimulus-presentation","201","482456","0.0-38.0-1.6","SS1613098982847","trial","","40","800","1771.8549999961397","images/stimuli/spore_stims/complex_08_B_b.gif","images/stimuli/spore_stims/complex_14_A_b.gif","","","","","10","complex_dissimilar","images/stimuli/spore_stims/complex_14_A_b.gif","right","","","","",""
"","null","html-keyboard-response","202","483284","0.0-38.0-0.7","SS1613098982847","","","null","","","","","<p><img src= images/blank.png width =""200"" height = ""200"" style = ""float:right""></p><p><img src=images/blank.png width =""800"" height = ""200""></p>","","","","","","","","","","","",""
"","1840.7499999884749","sequential-stimulus-presentation","203","485936","0.0-38.0-1.7","SS1613098982847","trial","","40","800","2640.749999988475","images/stimuli/spore_stims/complex_08_B_b.gif","images/stimuli/spore_stims/complex_14_A_b.gif","","","","","10","complex_dissimilar","images/stimuli/spore_stims/complex_14_A_b.gif","right","","","","",""
"","2674.15500000061","html-keyboard-response","204","488616","0.0-39.0","SS1613098982847","pref_question","","99","","","","","<video width ='960' height = '540' style='padding-top:8%' autoplay muted><source src='images/stimuli/wall_pref.mp4' type='video/mp4'></video>","3","right","66%","10","","","","","","","",""
"","5300.27500000142","sequential-stimulus-presentation","205","494727","0.0-40.0","SS1613098982847","pref_reveal","","40","800","6100.27500000142","null","null","","","","","10","","","","background","","","",""
"","null","html-keyboard-response","206","495786","0.0-41.0-0.0","SS1613098982847","","","null","","","","","<p><img src= images/blank.png width =""200"" height = ""200"" style = ""float:right""></p><p><img src=images/blank.png width =""800"" height = ""200""></p>","","","","","","","","","","","",""
"","1842.770000002929","sequential-stimulus-presentation","207","498438","0.0-41.0-1.0","SS1613098982847","trial","","40","800","2642.770000002929","images/stimuli/spore_stims/simple_10_A_a.gif","images/stimuli/spore_stims/simple_02_B_d.gif","","","","","11","simple_dissimilar","images/stimuli/spore_stims/simple_02_B_d.gif","left","","","","",""
"","null","html-keyboard-response","208","499395","0.0-41.0-0.1","SS1613098982847","","","null","","","","","<p><img src= images/blank.png width =""200"" height = ""200"" style = ""float:right""></p><p><img src=images/blank.png width =""800"" height = ""200""></p>","","","","","","","","","","","",""
"","2669.1399999981513","sequential-stimulus-presentation","209","502872","0.0-41.0-1.1","SS1613098982847","trial","","40","800","3469.1399999981513","images/stimuli/spore_stims/simple_10_A_a.gif","images/stimuli/spore_stims/simple_02_B_d.gif","","","","","11","simple_dissimilar","images/stimuli/spore_stims/simple_02_B_d.gif","left","","","","",""
"","null","html-keyboard-response","210","503875","0.0-41.0-0.2","SS1613098982847","","","null","","","","","<p><img src= images/blank.png width =""200"" height = ""200"" style = ""float:right""></p><p><img src=images/blank.png width =""800"" height = ""200""></p>","","","","","","","","","","","",""
"","714.1149999952177","sequential-stimulus-presentation","211","505399","0.0-41.0-1.2","SS1613098982847","trial","","40","800","1514.1149999952177","images/stimuli/spore_stims/simple_10_A_a.gif","images/stimuli/spore_stims/simple_02_B_d.gif","","","","","11","simple_dissimilar","images/stimuli/spore_stims/simple_02_B_d.gif","left","","","","",""
"","null","html-keyboard-response","212","506450","0.0-41.0-0.3","SS1613098982847","","","null","","","","","<p><img src= images/blank.png width =""200"" height = ""200"" style = ""float:right""></p><p><img src=images/blank.png width =""800"" height = ""200""></p>","","","","","","","","","","","",""
"","928.1000000046333","sequential-stimulus-presentation","213","508191","0.0-41.0-1.3","SS1613098982847","trial","","40","800","1728.1000000046333","images/stimuli/spore_stims/simple_10_A_a.gif","images/stimuli/spore_stims/simple_02_B_d.gif","","","","","11","simple_dissimilar","images/stimuli/spore_stims/simple_02_B_d.gif","left","","","","",""
"","null","html-keyboard-response","214","509292","0.0-41.0-0.4","SS1613098982847","","","null","","","","","<p><img src= images/blank.png width =""200"" height = ""200"" style = ""float:right""></p><p><img src=images/blank.png width =""800"" height = ""200""></p>","","","","","","","","","","","",""
"","795.9450000053039","sequential-stimulus-presentation","215","510903","0.0-41.0-1.4","SS1613098982847","trial","","40","800","1595.9450000053039","images/stimuli/spore_stims/simple_10_A_a.gif","images/stimuli/spore_stims/simple_02_B_d.gif","","","","","11","simple_dissimilar","images/stimuli/spore_stims/simple_02_B_d.gif","left","","","","",""
"","null","html-keyboard-response","216","512162","0.0-41.0-0.5","SS1613098982847","","","null","","","","","<p><img src= images/blank.png width =""200"" height = ""200"" style = ""float:right""></p><p><img src=images/blank.png width =""800"" height = ""200""></p>","","","","","","","","","","","",""
"","1964.3399999913527","sequential-stimulus-presentation","217","514936","0.0-41.0-1.5","SS1613098982847","trial","","40","800","2764.3399999913527","images/stimuli/spore_stims/simple_10_A_a.gif","images/stimuli/spore_stims/simple_02_B_d.gif","","","","","11","simple_dissimilar","images/stimuli/spore_stims/simple_10_A_a.gif","middle","","","","",""
"","null","html-keyboard-response","218","515806","0.0-41.0-0.6","SS1613098982847","","","null","","","","","<p><img src= images/blank.png width =""200"" height = ""200"" style = ""float:right""></p><p><img src=images/blank.png width =""800"" height = ""200""></p>","","","","","","","","","","","",""
"","1455.0549999985378","sequential-stimulus-presentation","219","518071","0.0-41.0-1.6","SS1613098982847","trial","","40","800","2255.054999998538","images/stimuli/spore_stims/simple_10_A_a.gif","images/stimuli/spore_stims/simple_02_B_d.gif","","","","","11","simple_dissimilar","images/stimuli/spore_stims/simple_02_B_d.gif","left","","","","",""
"","null","html-keyboard-response","220","518972","0.0-41.0-0.7","SS1613098982847","","","null","","","","","<p><img src= images/blank.png width =""200"" height = ""200"" style = ""float:right""></p><p><img src=images/blank.png width =""800"" height = ""200""></p>","","","","","","","","","","","",""
"","1046.025000003283","sequential-stimulus-presentation","221","520831","0.0-41.0-1.7","SS1613098982847","trial","","40","800","1846.025000003283","images/stimuli/spore_stims/simple_10_A_a.gif","images/stimuli/spore_stims/simple_02_B_d.gif","","","","","11","simple_dissimilar","images/stimuli/spore_stims/simple_02_B_d.gif","left","","","","",""
"","8497.229999993579","html-keyboard-response","222","529335","0.0-42.0","SS1613098982847","pref_question","","99","","","","","<video width ='960' height = '540' style='padding-top:8%' autoplay muted><source src='images/stimuli/wall_pref.mp4' type='video/mp4'></video>","3","right","66%","11","","","","","","","",""
"","2239.225000012084","sequential-stimulus-presentation","223","532382","0.0-43.0","SS1613098982847","pref_reveal","","40","800","3039.225000012084","null","null","","","","","11","","","","novel","","","",""
"","null","html-keyboard-response","224","533543","0.0-44.0-0.0","SS1613098982847","","","null","","","","","<p><img src= images/blank.png width =""200"" height = ""200"" style = ""float:right""></p><p><img src=images/blank.png width =""800"" height = ""200""></p>","","","","","","","","","","","",""
"","999.630000005709","sequential-stimulus-presentation","225","535352","0.0-44.0-1.0","SS1613098982847","trial","","40","800","1799.630000005709","images/stimuli/spore_stims/complex_12_B_b.gif","images/stimuli/spore_stims/complex_12_A_b.gif","","","","","12","complex_similar","images/stimuli/spore_stims/complex_12_A_b.gif","middle","","","","",""
"","null","html-keyboard-response","226","536339","0.0-44.0-0.1","SS1613098982847","","","null","","","","","<p><img src= images/blank.png width =""200"" height = ""200"" style = ""float:right""></p><p><img src=images/blank.png width =""800"" height = ""200""></p>","","","","","","","","","","","",""
"","1183.9000000036322","sequential-stimulus-presentation","227","538334","0.0-44.0-1.1","SS1613098982847","trial","","40","800","1983.9000000036322","images/stimuli/spore_stims/complex_12_B_b.gif","images/stimuli/spore_stims/complex_12_A_b.gif","","","","","12","complex_similar","images/stimuli/spore_stims/complex_12_A_b.gif","middle","","","","",""
"","null","html-keyboard-response","228","539380","0.0-44.0-0.2","SS1613098982847","","","null","","","","","<p><img src= images/blank.png width =""200"" height = ""200"" style = ""float:right""></p><p><img src=images/blank.png width =""800"" height = ""200""></p>","","","","","","","","","","","",""
"","2067.1500000025844","sequential-stimulus-presentation","229","542262","0.0-44.0-1.2","SS1613098982847","trial","","40","800","2867.1500000025844","images/stimuli/spore_stims/complex_12_B_b.gif","images/stimuli/spore_stims/complex_12_A_b.gif","","","","","12","complex_similar","images/stimuli/spore_stims/complex_12_A_b.gif","middle","","","","",""
"","null","html-keyboard-response","230","543404","0.0-44.0-0.3","SS1613098982847","","","null","","","","","<p><img src= images/blank.png width =""200"" height = ""200"" style = ""float:right""></p><p><img src=images/blank.png width =""800"" height = ""200""></p>","","","","","","","","","","","",""
"","881.6450000012992","sequential-stimulus-presentation","231","545095","0.0-44.0-1.3","SS1613098982847","trial","","40","800","1681.6450000012992","images/stimuli/spore_stims/complex_12_B_b.gif","images/stimuli/spore_stims/complex_12_A_b.gif","","","","","12","complex_similar","images/stimuli/spore_stims/complex_12_A_b.gif","middle","","","","",""
"","null","html-keyboard-response","232","546271","0.0-44.0-0.4","SS1613098982847","","","null","","","","","<p><img src= images/blank.png width =""200"" height = ""200"" style = ""float:right""></p><p><img src=images/blank.png width =""800"" height = ""200""></p>","","","","","","","","","","","",""
"","1053.3449999929871","sequential-stimulus-presentation","233","548133","0.0-44.0-1.4","SS1613098982847","trial","","40","800","1853.3449999929871","images/stimuli/spore_stims/complex_12_B_b.gif","images/stimuli/spore_stims/complex_12_A_b.gif","","","","","12","complex_similar","images/stimuli/spore_stims/complex_12_A_b.gif","middle","","","","",""
"","null","html-keyboard-response","234","549013","0.0-44.0-0.5","SS1613098982847","","","null","","","","","<p><img src= images/blank.png width =""200"" height = ""200"" style = ""float:right""></p><p><img src=images/blank.png width =""800"" height = ""200""></p>","","","","","","","","","","","",""
"","2551.579999999376","sequential-stimulus-presentation","235","552373","0.0-44.0-1.5","SS1613098982847","trial","","40","800","3351.579999999376","images/stimuli/spore_stims/complex_12_B_b.gif","images/stimuli/spore_stims/complex_12_A_b.gif","","","","","12","complex_similar","images/stimuli/spore_stims/complex_12_A_b.gif","middle","","","","",""
"","null","html-keyboard-response","236","553669","0.0-44.0-0.6","SS1613098982847","","","null","","","","","<p><img src= images/blank.png width =""200"" height = ""200"" style = ""float:right""></p><p><img src=images/blank.png width =""800"" height = ""200""></p>","","","","","","","","","","","",""
"","3983.4700000064913","sequential-stimulus-presentation","237","558461","0.0-44.0-1.6","SS1613098982847","trial","","40","800","4783.470000006491","images/stimuli/spore_stims/complex_12_B_b.gif","images/stimuli/spore_stims/complex_12_A_b.gif","","","","","12","complex_similar","images/stimuli/spore_stims/complex_12_A_b.gif","middle","","","","",""
"","null","html-keyboard-response","238","559507","0.0-44.0-0.7","SS1613098982847","","","null","","","","","<p><img src= images/blank.png width =""200"" height = ""200"" style = ""float:right""></p><p><img src=images/blank.png width =""800"" height = ""200""></p>","","","","","","","","","","","",""
"","320.1800000097137","sequential-stimulus-presentation","239","560637","0.0-44.0-1.7","SS1613098982847","trial","","40","800","1120.1800000097137","images/stimuli/spore_stims/complex_12_B_b.gif","images/stimuli/spore_stims/complex_12_A_b.gif","","","","","12","complex_similar","images/stimuli/spore_stims/complex_12_B_b.gif","left","","","","",""
"","5672.674999994342","html-keyboard-response","240","566317","0.0-45.0","SS1613098982847","pref_question","","99","","","","","<video width ='960' height = '540' style='padding-top:8%' autoplay muted><source src='images/stimuli/wall_pref.mp4' type='video/mp4'></video>","3","right","66%","12","","","","","","","",""
"","6270.795000004","sequential-stimulus-presentation","241","573396","0.0-46.0","SS1613098982847","pref_reveal","","40","800","7070.795000004","null","null","","","","","12","","","","novel","","","",""
"","null","html-keyboard-response","242","574240","0.0-47.0-0.0","SS1613098982847","","","null","","","","","<p><img src= images/blank.png width =""200"" height = ""200"" style = ""float:right""></p><p><img src=images/blank.png width =""800"" height = ""200""></p>","","","","","","","","","","","",""
"","3763.9599999965867","sequential-stimulus-presentation","243","578813","0.0-47.0-1.0","SS1613098982847","trial","","40","800","4563.959999996587","images/stimuli/spore_stims/simple_07_A_a.gif","images/stimuli/spore_stims/simple_08_A_b.gif","","","","","13","simple_dissimilar","images/stimuli/spore_stims/simple_08_A_b.gif","middle","","","","",""
"","null","html-keyboard-response","244","579712","0.0-47.0-0.1","SS1613098982847","","","null","","","","","<p><img src= images/blank.png width =""200"" height = ""200"" style = ""float:right""></p><p><img src=images/blank.png width =""800"" height = ""200""></p>","","","","","","","","","","","",""
"","2596.8699999939417","sequential-stimulus-presentation","245","583116","0.0-47.0-1.1","SS1613098982847","trial","","40","800","3396.8699999939417","images/stimuli/spore_stims/simple_07_A_a.gif","images/stimuli/spore_stims/simple_08_A_b.gif","","","","","13","simple_dissimilar","images/stimuli/spore_stims/simple_08_A_b.gif","middle","","","","",""
"","null","html-keyboard-response","246","584376","0.0-47.0-0.2","SS1613098982847","","","null","","","","","<p><img src= images/blank.png width =""200"" height = ""200"" style = ""float:right""></p><p><img src=images/blank.png width =""800"" height = ""200""></p>","","","","","","","","","","","",""
"","1692.655000006198","sequential-stimulus-presentation","247","586878","0.0-47.0-1.2","SS1613098982847","trial","","40","800","2492.655000006198","images/stimuli/spore_stims/simple_07_A_a.gif","images/stimuli/spore_stims/simple_08_A_b.gif","","","","","13","simple_dissimilar","images/stimuli/spore_stims/simple_08_A_b.gif","middle","","","","",""
"","null","html-keyboard-response","248","587920","0.0-47.0-0.3","SS1613098982847","","","null","","","","","<p><img src= images/blank.png width =""200"" height = ""200"" style = ""float:right""></p><p><img src=images/blank.png width =""800"" height = ""200""></p>","","","","","","","","","","","",""
"","4573.919999995269","sequential-stimulus-presentation","249","593317","0.0-47.0-1.3","SS1613098982847","trial","","40","800","5373.919999995269","images/stimuli/spore_stims/simple_07_A_a.gif","images/stimuli/spore_stims/simple_08_A_b.gif","","","","","13","simple_dissimilar","images/stimuli/spore_stims/simple_08_A_b.gif","middle","","","","",""
"","null","html-keyboard-response","250","594227","0.0-47.0-0.4","SS1613098982847","","","null","","","","","<p><img src= images/blank.png width =""200"" height = ""200"" style = ""float:right""></p><p><img src=images/blank.png width =""800"" height = ""200""></p>","","","","","","","","","","","",""
"","2546.0499999899184","sequential-stimulus-presentation","251","597599","0.0-47.0-1.4","SS1613098982847","trial","","40","800","3346.0499999899184","images/stimuli/spore_stims/simple_07_A_a.gif","images/stimuli/spore_stims/simple_08_A_b.gif","","","","","13","simple_dissimilar","images/stimuli/spore_stims/simple_07_A_a.gif","right","","","","",""
"","null","html-keyboard-response","252","598768","0.0-47.0-0.5","SS1613098982847","","","null","","","","","<p><img src= images/blank.png width =""200"" height = ""200"" style = ""float:right""></p><p><img src=images/blank.png width =""800"" height = ""200""></p>","","","","","","","","","","","",""
"","2473.6550000088755","sequential-stimulus-presentation","253","602058","0.0-47.0-1.5","SS1613098982847","trial","","40","800","3273.6550000088755","images/stimuli/spore_stims/simple_07_A_a.gif","images/stimuli/spore_stims/simple_08_A_b.gif","","","","","13","simple_dissimilar","images/stimuli/spore_stims/simple_08_A_b.gif","middle","","","","",""
"","null","html-keyboard-response","254","602896","0.0-47.0-0.6","SS1613098982847","","","null","","","","","<p><img src= images/blank.png width =""200"" height = ""200"" style = ""float:right""></p><p><img src=images/blank.png width =""800"" height = ""200""></p>","","","","","","","","","","","",""
"","1769.8700000037206","sequential-stimulus-presentation","255","605481","0.0-47.0-1.6","SS1613098982847","trial","","40","800","2569.8700000037206","images/stimuli/spore_stims/simple_07_A_a.gif","images/stimuli/spore_stims/simple_08_A_b.gif","","","","","13","simple_dissimilar","images/stimuli/spore_stims/simple_08_A_b.gif","middle","","","","",""
"","null","html-keyboard-response","256","606298","0.0-47.0-0.7","SS1613098982847","","","null","","","","","<p><img src= images/blank.png width =""200"" height = ""200"" style = ""float:right""></p><p><img src=images/blank.png width =""800"" height = ""200""></p>","","","","","","","","","","","",""
"","1578.0249999952503","sequential-stimulus-presentation","257","608694","0.0-47.0-1.7","SS1613098982847","trial","","40","800","2378.0249999952503","images/stimuli/spore_stims/simple_07_A_a.gif","images/stimuli/spore_stims/simple_08_A_b.gif","","","","","13","simple_dissimilar","images/stimuli/spore_stims/simple_08_A_b.gif","middle","","","","",""
"","3256.6850000002887","html-keyboard-response","258","611962","0.0-48.0","SS1613098982847","pref_question","","99","","","","","<video width ='960' height = '540' style='padding-top:8%' autoplay muted><source src='images/stimuli/wall_pref.mp4' type='video/mp4'></video>","3","right","66%","13","","","","","","","",""
"","3731.469999998808","sequential-stimulus-presentation","259","616509","0.0-49.0","SS1613098982847","pref_reveal","","40","800","4531.469999998808","null","null","","","","","13","","","","deviant","","","",""
"","null","html-keyboard-response","260","617544","0.0-50.0-0.0","SS1613098982847","","","null","","","","","<p><img src= images/blank.png width =""200"" height = ""200"" style = ""float:right""></p><p><img src=images/blank.png width =""800"" height = ""200""></p>","","","","","","","","","","","",""
"","1155.4249999899184","sequential-stimulus-presentation","261","619511","0.0-50.0-1.0","SS1613098982847","trial","","40","800","1955.4249999899184","images/stimuli/spore_stims/simple_01_A_d.gif","images/stimuli/spore_stims/simple_09_A_d.gif","","","","","14","simple_dissimilar","images/stimuli/spore_stims/simple_09_A_d.gif","middle","","","","",""
"","null","html-keyboard-response","262","620469","0.0-50.0-0.1","SS1613098982847","","","null","","","","","<p><img src= images/blank.png width =""200"" height = ""200"" style = ""float:right""></p><p><img src=images/blank.png width =""800"" height = ""200""></p>","","","","","","","","","","","",""
"","2176.065000006929","sequential-stimulus-presentation","263","623454","0.0-50.0-1.1","SS1613098982847","trial","","40","800","2976.065000006929","images/stimuli/spore_stims/simple_01_A_d.gif","images/stimuli/spore_stims/simple_09_A_d.gif","","","","","14","simple_dissimilar","images/stimuli/spore_stims/simple_09_A_d.gif","middle","","","","",""
"","null","html-keyboard-response","264","624530","0.0-50.0-0.2","SS1613098982847","","","null","","","","","<p><img src= images/blank.png width =""200"" height = ""200"" style = ""float:right""></p><p><img src=images/blank.png width =""800"" height = ""200""></p>","","","","","","","","","","","",""
"","3068.39499999478","sequential-stimulus-presentation","265","628412","0.0-50.0-1.2","SS1613098982847","trial","","40","800","3868.39499999478","images/stimuli/spore_stims/simple_01_A_d.gif","images/stimuli/spore_stims/simple_09_A_d.gif","","","","","14","simple_dissimilar","images/stimuli/spore_stims/simple_09_A_d.gif","middle","","","","",""
"","null","html-keyboard-response","266","629585","0.0-50.0-0.3","SS1613098982847","","","null","","","","","<p><img src= images/blank.png width =""200"" height = ""200"" style = ""float:right""></p><p><img src=images/blank.png width =""800"" height = ""200""></p>","","","","","","","","","","","",""
"","1804.3450000113808","sequential-stimulus-presentation","267","632199","0.0-50.0-1.3","SS1613098982847","trial","","40","800","2604.3450000113808","images/stimuli/spore_stims/simple_01_A_d.gif","images/stimuli/spore_stims/simple_09_A_d.gif","","","","","14","simple_dissimilar","images/stimuli/spore_stims/simple_01_A_d.gif","left","","","","",""
"","null","html-keyboard-response","268","633196","0.0-50.0-0.4","SS1613098982847","","","null","","","","","<p><img src= images/blank.png width =""200"" height = ""200"" style = ""float:right""></p><p><img src=images/blank.png width =""800"" height = ""200""></p>","","","","","","","","","","","",""
"","5793.20000000007","sequential-stimulus-presentation","269","639799","0.0-50.0-1.4","SS1613098982847","trial","","40","800","6593.20000000007","images/stimuli/spore_stims/simple_01_A_d.gif","images/stimuli/spore_stims/simple_09_A_d.gif","","","","","14","simple_dissimilar","images/stimuli/spore_stims/simple_09_A_d.gif","middle","","","","",""
"","null","html-keyboard-response","270","640928","0.0-50.0-0.5","SS1613098982847","","","null","","","","","<p><img src= images/blank.png width =""200"" height = ""200"" style = ""float:right""></p><p><img src=images/blank.png width =""800"" height = ""200""></p>","","","","","","","","","","","",""
"","3725.8100000035483","sequential-stimulus-presentation","271","645462","0.0-50.0-1.5","SS1613098982847","trial","","40","800","4525.810000003548","images/stimuli/spore_stims/simple_01_A_d.gif","images/stimuli/spore_stims/simple_09_A_d.gif","","","","","14","simple_dissimilar","images/stimuli/spore_stims/simple_09_A_d.gif","middle","","","","",""
"","null","html-keyboard-response","272","646686","0.0-50.0-0.6","SS1613098982847","","","null","","","","","<p><img src= images/blank.png width =""200"" height = ""200"" style = ""float:right""></p><p><img src=images/blank.png width =""800"" height = ""200""></p>","","","","","","","","","","","",""
"","3294.76999999315","sequential-stimulus-presentation","273","650792","0.0-50.0-1.6","SS1613098982847","trial","","40","800","4094.76999999315","images/stimuli/spore_stims/simple_01_A_d.gif","images/stimuli/spore_stims/simple_09_A_d.gif","","","","","14","simple_dissimilar","images/stimuli/spore_stims/simple_09_A_d.gif","middle","","","","",""
"","null","html-keyboard-response","274","651744","0.0-50.0-0.7","SS1613098982847","","","null","","","","","<p><img src= images/blank.png width =""200"" height = ""200"" style = ""float:right""></p><p><img src=images/blank.png width =""800"" height = ""200""></p>","","","","","","","","","","","",""
"","1427.0400000095833","sequential-stimulus-presentation","275","653986","0.0-50.0-1.7","SS1613098982847","trial","","40","800","2227.0400000095833","images/stimuli/spore_stims/simple_01_A_d.gif","images/stimuli/spore_stims/simple_09_A_d.gif","","","","","14","simple_dissimilar","images/stimuli/spore_stims/simple_09_A_d.gif","middle","","","","",""
"","3504.095000011148","html-keyboard-response","276","657510","0.0-51.0","SS1613098982847","pref_question","","99","","","","","<video width ='960' height = '540' style='padding-top:8%' autoplay muted><source src='images/stimuli/wall_pref.mp4' type='video/mp4'></video>","3","right","66%","14","","","","","","","",""
"","1456.9750000082422","sequential-stimulus-presentation","277","659777","0.0-52.0","SS1613098982847","pref_reveal","","40","800","2256.975000008242","null","null","","","","","14","","","","novel","","","",""
"","null","html-keyboard-response","278","660712","0.0-53.0-0.0","SS1613098982847","","","null","","","","","<p><img src= images/blank.png width =""200"" height = ""200"" style = ""float:right""></p><p><img src=images/blank.png width =""800"" height = ""200""></p>","","","","","","","","","","","",""
"","12511.725000003935","sequential-stimulus-presentation","279","674038","0.0-53.0-1.0","SS1613098982847","trial","","40","800","13311.725000003935","images/stimuli/spore_stims/complex_11_A_d.gif","images/stimuli/spore_stims/complex_01_A_c.gif","","","","","15","complex_dissimilar","images/stimuli/spore_stims/complex_01_A_c.gif","right","","","","",""
"","null","html-keyboard-response","280","675076","0.0-53.0-0.1","SS1613098982847","","","null","","","","","<p><img src= images/blank.png width =""200"" height = ""200"" style = ""float:right""></p><p><img src=images/blank.png width =""800"" height = ""200""></p>","","","","","","","","","","","",""
"","2845.5600000015693","sequential-stimulus-presentation","281","678729","0.0-53.0-1.1","SS1613098982847","trial","","40","800","3645.5600000015693","images/stimuli/spore_stims/complex_11_A_d.gif","images/stimuli/spore_stims/complex_01_A_c.gif","","","","","15","complex_dissimilar","images/stimuli/spore_stims/complex_01_A_c.gif","right","","","","",""
"","null","html-keyboard-response","282","679842","0.0-53.0-0.2","SS1613098982847","","","null","","","","","<p><img src= images/blank.png width =""200"" height = ""200"" style = ""float:right""></p><p><img src=images/blank.png width =""800"" height = ""200""></p>","","","","","","","","","","","",""
"","2002.939999991213","sequential-stimulus-presentation","283","682653","0.0-53.0-1.2","SS1613098982847","trial","","40","800","2802.939999991213","images/stimuli/spore_stims/complex_11_A_d.gif","images/stimuli/spore_stims/complex_01_A_c.gif","","","","","15","complex_dissimilar","images/stimuli/spore_stims/complex_01_A_c.gif","right","","","","",""
"","null","html-keyboard-response","284","683546","0.0-53.0-0.3","SS1613098982847","","","null","","","","","<p><img src= images/blank.png width =""200"" height = ""200"" style = ""float:right""></p><p><img src=images/blank.png width =""800"" height = ""200""></p>","","","","","","","","","","","",""
"","1484.6200000029057","sequential-stimulus-presentation","285","685853","0.0-53.0-1.3","SS1613098982847","trial","","40","800","2284.6200000029057","images/stimuli/spore_stims/complex_11_A_d.gif","images/stimuli/spore_stims/complex_01_A_c.gif","","","","","15","complex_dissimilar","images/stimuli/spore_stims/complex_01_A_c.gif","right","","","","",""
"","null","html-keyboard-response","286","686849","0.0-53.0-0.4","SS1613098982847","","","null","","","","","<p><img src= images/blank.png width =""200"" height = ""200"" style = ""float:right""></p><p><img src=images/blank.png width =""800"" height = ""200""></p>","","","","","","","","","","","",""
"","2890.1199999963865","sequential-stimulus-presentation","287","690550","0.0-53.0-1.4","SS1613098982847","trial","","40","800","3690.1199999963865","images/stimuli/spore_stims/complex_11_A_d.gif","images/stimuli/spore_stims/complex_01_A_c.gif","","","","","15","complex_dissimilar","images/stimuli/spore_stims/complex_01_A_c.gif","right","","","","",""
"","null","html-keyboard-response","288","691771","0.0-53.0-0.5","SS1613098982847","","","null","","","","","<p><img src= images/blank.png width =""200"" height = ""200"" style = ""float:right""></p><p><img src=images/blank.png width =""800"" height = ""200""></p>","","","","","","","","","","","",""
"","1109.775000004447","sequential-stimulus-presentation","289","693694","0.0-53.0-1.5","SS1613098982847","trial","","40","800","1909.775000004447","images/stimuli/spore_stims/complex_11_A_d.gif","images/stimuli/spore_stims/complex_01_A_c.gif","","","","","15","complex_dissimilar","images/stimuli/spore_stims/complex_01_A_c.gif","right","","","","",""
"","null","html-keyboard-response","290","694877","0.0-53.0-0.6","SS1613098982847","","","null","","","","","<p><img src= images/blank.png width =""200"" height = ""200"" style = ""float:right""></p><p><img src=images/blank.png width =""800"" height = ""200""></p>","","","","","","","","","","","",""
"","934.7750000015367","sequential-stimulus-presentation","291","696621","0.0-53.0-1.6","SS1613098982847","trial","","40","800","1734.7750000015367","images/stimuli/spore_stims/complex_11_A_d.gif","images/stimuli/spore_stims/complex_01_A_c.gif","","","","","15","complex_dissimilar","images/stimuli/spore_stims/complex_01_A_c.gif","right","","","","",""
"","null","html-keyboard-response","292","697804","0.0-53.0-0.7","SS1613098982847","","","null","","","","","<p><img src= images/blank.png width =""200"" height = ""200"" style = ""float:right""></p><p><img src=images/blank.png width =""800"" height = ""200""></p>","","","","","","","","","","","",""
"","1999.5899999921676","sequential-stimulus-presentation","293","700613","0.0-53.0-1.7","SS1613098982847","trial","","40","800","2799.5899999921676","images/stimuli/spore_stims/complex_11_A_d.gif","images/stimuli/spore_stims/complex_01_A_c.gif","","","","","15","complex_dissimilar","images/stimuli/spore_stims/complex_11_A_d.gif","middle","","","","",""
"","3287.6149999938207","html-keyboard-response","294","703909","0.0-54.0","SS1613098982847","pref_question","","99","","","","","<video width ='960' height = '540' style='padding-top:8%' autoplay muted><source src='images/stimuli/wall_pref.mp4' type='video/mp4'></video>","3","right","66%","15","","","","","","","",""
"","5229.919999997946","sequential-stimulus-presentation","295","709950","0.0-55.0","SS1613098982847","pref_reveal","","40","800","6029.919999997946","null","null","","","","","15","","","","background","","","",""
"","null","html-keyboard-response","296","711042","0.0-56.0-0.0","SS1613098982847","","","null","","","","","<p><img src= images/blank.png width =""200"" height = ""200"" style = ""float:right""></p><p><img src=images/blank.png width =""800"" height = ""200""></p>","","","","","","","","","","","",""
"","1863.8349999964703","sequential-stimulus-presentation","297","713715","0.0-56.0-1.0","SS1613098982847","trial","","40","800","2663.8349999964703","images/stimuli/spore_stims/simple_18_A_a.gif","images/stimuli/spore_stims/simple_18_B_a.gif","","","","","16","simple_similar","images/stimuli/spore_stims/simple_18_B_a.gif","middle","","","","",""
"","null","html-keyboard-response","298","714641","0.0-56.0-0.1","SS1613098982847","","","null","","","","","<p><img src= images/blank.png width =""200"" height = ""200"" style = ""float:right""></p><p><img src=images/blank.png width =""800"" height = ""200""></p>","","","","","","","","","","","",""
"","2296.1799999902723","sequential-stimulus-presentation","299","717749","0.0-56.0-1.1","SS1613098982847","trial","","40","800","3096.1799999902723","images/stimuli/spore_stims/simple_18_A_a.gif","images/stimuli/spore_stims/simple_18_B_a.gif","","","","","16","simple_similar","images/stimuli/spore_stims/simple_18_B_a.gif","middle","","","","",""
"","null","html-keyboard-response","300","719003","0.0-56.0-0.2","SS1613098982847","","","null","","","","","<p><img src= images/blank.png width =""200"" height = ""200"" style = ""float:right""></p><p><img src=images/blank.png width =""800"" height = ""200""></p>","","","","","","","","","","","",""
"","1768.4949999966193","sequential-stimulus-presentation","301","721582","0.0-56.0-1.2","SS1613098982847","trial","","40","800","2568.4949999966193","images/stimuli/spore_stims/simple_18_A_a.gif","images/stimuli/spore_stims/simple_18_B_a.gif","","","","","16","simple_similar","images/stimuli/spore_stims/simple_18_A_a.gif","right","","","","",""
"","null","html-keyboard-response","302","722475","0.0-56.0-0.3","SS1613098982847","","","null","","","","","<p><img src= images/blank.png width =""200"" height = ""200"" style = ""float:right""></p><p><img src=images/blank.png width =""800"" height = ""200""></p>","","","","","","","","","","","",""
"","1817.2600000107195","sequential-stimulus-presentation","303","725103","0.0-56.0-1.3","SS1613098982847","trial","","40","800","2617.2600000107195","images/stimuli/spore_stims/simple_18_A_a.gif","images/stimuli/spore_stims/simple_18_B_a.gif","","","","","16","simple_similar","images/stimuli/spore_stims/simple_18_B_a.gif","middle","","","","",""
"","null","html-keyboard-response","304","725949","0.0-56.0-0.4","SS1613098982847","","","null","","","","","<p><img src= images/blank.png width =""200"" height = ""200"" style = ""float:right""></p><p><img src=images/blank.png width =""800"" height = ""200""></p>","","","","","","","","","","","",""
"","1293.2799999980489","sequential-stimulus-presentation","305","728053","0.0-56.0-1.4","SS1613098982847","trial","","40","800","2093.279999998049","images/stimuli/spore_stims/simple_18_A_a.gif","images/stimuli/spore_stims/simple_18_B_a.gif","","","","","16","simple_similar","images/stimuli/spore_stims/simple_18_B_a.gif","middle","","","","",""
"","null","html-keyboard-response","306","729021","0.0-56.0-0.5","SS1613098982847","","","null","","","","","<p><img src= images/blank.png width =""200"" height = ""200"" style = ""float:right""></p><p><img src=images/blank.png width =""800"" height = ""200""></p>","","","","","","","","","","","",""
"","1022.6399999955902","sequential-stimulus-presentation","307","730853","0.0-56.0-1.5","SS1613098982847","trial","","40","800","1822.6399999955902","images/stimuli/spore_stims/simple_18_A_a.gif","images/stimuli/spore_stims/simple_18_B_a.gif","","","","","16","simple_similar","images/stimuli/spore_stims/simple_18_B_a.gif","middle","","","","",""
"","null","html-keyboard-response","308","732126","0.0-56.0-0.6","SS1613098982847","","","null","","","","","<p><img src= images/blank.png width =""200"" height = ""200"" style = ""float:right""></p><p><img src=images/blank.png width =""800"" height = ""200""></p>","","","","","","","","","","","",""
"","366.0200000012992","sequential-stimulus-presentation","309","733300","0.0-56.0-1.6","SS1613098982847","trial","","40","800","1166.0200000012992","images/stimuli/spore_stims/simple_18_A_a.gif","images/stimuli/spore_stims/simple_18_B_a.gif","","","","","16","simple_similar","images/stimuli/spore_stims/simple_18_B_a.gif","middle","","","","",""
"","null","html-keyboard-response","310","734129","0.0-56.0-0.7","SS1613098982847","","","null","","","","","<p><img src= images/blank.png width =""200"" height = ""200"" style = ""float:right""></p><p><img src=images/blank.png width =""800"" height = ""200""></p>","","","","","","","","","","","",""
"","2016.4799999911338","sequential-stimulus-presentation","311","736960","0.0-56.0-1.7","SS1613098982847","trial","","40","800","2816.479999991134","images/stimuli/spore_stims/simple_18_A_a.gif","images/stimuli/spore_stims/simple_18_B_a.gif","","","","","16","simple_similar","images/stimuli/spore_stims/simple_18_B_a.gif","middle","","","","",""
"","6225.179999993998","html-keyboard-response","312","743199","0.0-57.0","SS1613098982847","pref_question","","99","","","","","<video width ='960' height = '540' style='padding-top:8%' autoplay muted><source src='images/stimuli/wall_pref.mp4' type='video/mp4'></video>","3","right","66%","16","","","","","","","",""
