"view_history","rt","trial_type","trial_index","time_elapsed","internal_node_id","subject","stimulus_type","trial_stimulus","key_press","minimum_viewing_duration","trial_looking_time","block_deviant","block_background","stimulus","wall_pref","location","location_percent","block_number","block_type","stimulus_displayed","position_displayed","stim_type_selected","responses","question_order","stimulus_left","stimulus_right"
"[{""page_index"":0,""viewing_time"":19788.999999989755}]","19790.000000037253","instructions","0","19792","0.0-0.0","SS1613079901713","","","","","","","","","","","","","","","","","","","",""
"[{""page_index"":0,""viewing_time"":5081.000000005588},{""page_index"":1,""viewing_time"":18276.00000007078}]","23357.00000007637","instructions","1","45152","0.0-1.0","SS1613079901713","instructions","","","","","","","","","","","","","","","","","","",""
"","4526.0000000707805","sequential-stimulus-presentation","2","50491","0.0-2.0","SS1613079901713","","","40","800","5326.0000000707805","null","null","","","","","","","","","","","","",""
"","2767.9999999236315","sequential-stimulus-presentation","3","54069","0.0-3.0","SS1613079901713","","","40","800","3567.9999999236315","null","null","","","","","","","","","","","","",""
"[{""page_index"":0,""viewing_time"":2170.9999999729916}]","2170.9999999729916","instructions","4","56242","0.0-4.0","SS1613079901713","instructions","","","","","","","","","","","","","","","","","","",""
"","18114.000000059605","html-keyboard-response","5","74359","0.0-5.0","SS1613079901713","instructions","","51","","","","","<video width ='960' height = '540' autoplay muted><source src='images/stimuli/wall_pref.mp4' type='video/mp4'></video>","3","right","66%","","","","","","","","",""
"","9253.000000026077","sequential-stimulus-presentation","6","84418","0.0-6.0","SS1613079901713","pref_reveal","","40","800","10053.000000026077","null","null","","","","","","","","","","","","",""
"[{""page_index"":0,""viewing_time"":3149.9999999068677},{""page_index"":1,""viewing_time"":1454.0000000270084},{""page_index"":2,""viewing_time"":1434.000000008382},{""page_index"":3,""viewing_time"":1175.0000000465661}]","7212.999999988824","instructions","7","91632","0.0-7.0","SS1613079901713","instructions","","","","","","","","","","","","","","","","","","",""
"","null","html-keyboard-response","8","92671","0.0-8.0-0.0","SS1613079901713","","","null","","","","","<p><img src= images/blank.png width =""200"" height = ""200"" style = ""float:right""></p><p><img src=images/blank.png width =""800"" height = ""200""></p>","","","","","","","","","","","",""
"","11498.999999952503","sequential-stimulus-presentation","9","104978","0.0-8.0-1.0","SS1613079901713","trial","","40","800","12298.999999952503","images/stimuli/spore_stims/complex_05_B_c.gif","images/stimuli/spore_stims/complex_13_B_b.gif","","","","","0","complex_dissimilar","images/stimuli/spore_stims/complex_13_B_b.gif","middle","","","","",""
"","null","html-keyboard-response","10","106052","0.0-8.0-0.1","SS1613079901713","","","null","","","","","<p><img src= images/blank.png width =""200"" height = ""200"" style = ""float:right""></p><p><img src=images/blank.png width =""800"" height = ""200""></p>","","","","","","","","","","","",""
"","7385.000000009313","sequential-stimulus-presentation","11","114240","0.0-8.0-1.1","SS1613079901713","trial","","40","800","8185.000000009313","images/stimuli/spore_stims/complex_05_B_c.gif","images/stimuli/spore_stims/complex_13_B_b.gif","","","","","0","complex_dissimilar","images/stimuli/spore_stims/complex_13_B_b.gif","middle","","","","",""
"","null","html-keyboard-response","12","115477","0.0-8.0-0.2","SS1613079901713","","","null","","","","","<p><img src= images/blank.png width =""200"" height = ""200"" style = ""float:right""></p><p><img src=images/blank.png width =""800"" height = ""200""></p>","","","","","","","","","","","",""
"","1211.0000000102445","sequential-stimulus-presentation","13","117494","0.0-8.0-1.2","SS1613079901713","trial","","40","800","2011.0000000102445","images/stimuli/spore_stims/complex_05_B_c.gif","images/stimuli/spore_stims/complex_13_B_b.gif","","","","","0","complex_dissimilar","images/stimuli/spore_stims/complex_13_B_b.gif","middle","","","","",""
"","null","html-keyboard-response","14","118699","0.0-8.0-0.3","SS1613079901713","","","null","","","","","<p><img src= images/blank.png width =""200"" height = ""200"" style = ""float:right""></p><p><img src=images/blank.png width =""800"" height = ""200""></p>","","","","","","","","","","","",""
"","2050.9999999776483","sequential-stimulus-presentation","15","121561","0.0-8.0-1.3","SS1613079901713","trial","","40","800","2850.9999999776483","images/stimuli/spore_stims/complex_05_B_c.gif","images/stimuli/spore_stims/complex_13_B_b.gif","","","","","0","complex_dissimilar","images/stimuli/spore_stims/complex_13_B_b.gif","middle","","","","",""
"","null","html-keyboard-response","16","122471","0.0-8.0-0.4","SS1613079901713","","","null","","","","","<p><img src= images/blank.png width =""200"" height = ""200"" style = ""float:right""></p><p><img src=images/blank.png width =""800"" height = ""200""></p>","","","","","","","","","","","",""
"","1304.0000000037253","sequential-stimulus-presentation","17","124617","0.0-8.0-1.4","SS1613079901713","trial","","40","800","2104.0000000037253","images/stimuli/spore_stims/complex_05_B_c.gif","images/stimuli/spore_stims/complex_13_B_b.gif","","","","","0","complex_dissimilar","images/stimuli/spore_stims/complex_13_B_b.gif","middle","","","","",""
"","null","html-keyboard-response","18","125500","0.0-8.0-0.5","SS1613079901713","","","null","","","","","<p><img src= images/blank.png width =""200"" height = ""200"" style = ""float:right""></p><p><img src=images/blank.png width =""800"" height = ""200""></p>","","","","","","","","","","","",""
"","5064.0000000130385","sequential-stimulus-presentation","19","131377","0.0-8.0-1.5","SS1613079901713","trial","","40","800","5864.0000000130385","images/stimuli/spore_stims/complex_05_B_c.gif","images/stimuli/spore_stims/complex_13_B_b.gif","","","","","0","complex_dissimilar","images/stimuli/spore_stims/complex_13_B_b.gif","middle","","","","",""
"","null","html-keyboard-response","20","132683","0.0-8.0-0.6","SS1613079901713","","","null","","","","","<p><img src= images/blank.png width =""200"" height = ""200"" style = ""float:right""></p><p><img src=images/blank.png width =""800"" height = ""200""></p>","","","","","","","","","","","",""
"","1006.9999999832362","sequential-stimulus-presentation","21","134510","0.0-8.0-1.6","SS1613079901713","trial","","40","800","1806.9999999832362","images/stimuli/spore_stims/complex_05_B_c.gif","images/stimuli/spore_stims/complex_13_B_b.gif","","","","","0","complex_dissimilar","images/stimuli/spore_stims/complex_05_B_c.gif","right","","","","",""
"","null","html-keyboard-response","22","135398","0.0-8.0-0.7","SS1613079901713","","","null","","","","","<p><img src= images/blank.png width =""200"" height = ""200"" style = ""float:right""></p><p><img src=images/blank.png width =""800"" height = ""200""></p>","","","","","","","","","","","",""
"","2077.000000048429","sequential-stimulus-presentation","23","138288","0.0-8.0-1.7","SS1613079901713","trial","","40","800","2877.000000048429","images/stimuli/spore_stims/complex_05_B_c.gif","images/stimuli/spore_stims/complex_13_B_b.gif","","","","","0","complex_dissimilar","images/stimuli/spore_stims/complex_13_B_b.gif","middle","","","","",""
"","6628.999999957159","html-keyboard-response","24","144920","0.0-9.0","SS1613079901713","pref_question","","51","","","","","<video width ='960' height = '540' style='padding-top:8%' autoplay muted><source src='images/stimuli/wall_pref.mp4' type='video/mp4'></video>","3","right","66%","0","","","","","","","",""
"","1670.9999999729916","sequential-stimulus-presentation","25","147397","0.0-10.0","SS1613079901713","pref_reveal","","40","800","2470.9999999729916","null","null","","","","","0","","","","deviant","","","",""
"","null","html-keyboard-response","26","148357","0.0-11.0-0.0","SS1613079901713","","","null","","","","","<p><img src= images/blank.png width =""200"" height = ""200"" style = ""float:right""></p><p><img src=images/blank.png width =""800"" height = ""200""></p>","","","","","","","","","","","",""
"","4295.0000000419095","sequential-stimulus-presentation","27","153457","0.0-11.0-1.0","SS1613079901713","trial","","40","800","5095.0000000419095","images/stimuli/spore_stims/complex_16_A_c.gif","images/stimuli/spore_stims/complex_16_B_c.gif","","","","","1","complex_similar","images/stimuli/spore_stims/complex_16_B_c.gif","middle","","","","",""
"","null","html-keyboard-response","28","154698","0.0-11.0-0.1","SS1613079901713","","","null","","","","","<p><img src= images/blank.png width =""200"" height = ""200"" style = ""float:right""></p><p><img src=images/blank.png width =""800"" height = ""200""></p>","","","","","","","","","","","",""
"","1420.0000000419095","sequential-stimulus-presentation","29","156928","0.0-11.0-1.1","SS1613079901713","trial","","40","800","2220.0000000419095","images/stimuli/spore_stims/complex_16_A_c.gif","images/stimuli/spore_stims/complex_16_B_c.gif","","","","","1","complex_similar","images/stimuli/spore_stims/complex_16_B_c.gif","middle","","","","",""
"","null","html-keyboard-response","30","158182","0.0-11.0-0.2","SS1613079901713","","","null","","","","","<p><img src= images/blank.png width =""200"" height = ""200"" style = ""float:right""></p><p><img src=images/blank.png width =""800"" height = ""200""></p>","","","","","","","","","","","",""
"","361.99999996460974","sequential-stimulus-presentation","31","159353","0.0-11.0-1.2","SS1613079901713","trial","","40","800","1161.9999999646097","images/stimuli/spore_stims/complex_16_A_c.gif","images/stimuli/spore_stims/complex_16_B_c.gif","","","","","1","complex_similar","images/stimuli/spore_stims/complex_16_B_c.gif","middle","","","","",""
"","null","html-keyboard-response","32","160626","0.0-11.0-0.3","SS1613079901713","","","null","","","","","<p><img src= images/blank.png width =""200"" height = ""200"" style = ""float:right""></p><p><img src=images/blank.png width =""800"" height = ""200""></p>","","","","","","","","","","","",""
"","4783.999999985099","sequential-stimulus-presentation","33","166221","0.0-11.0-1.3","SS1613079901713","trial","","40","800","5583.999999985099","images/stimuli/spore_stims/complex_16_A_c.gif","images/stimuli/spore_stims/complex_16_B_c.gif","","","","","1","complex_similar","images/stimuli/spore_stims/complex_16_B_c.gif","middle","","","","",""
"","null","html-keyboard-response","34","167368","0.0-11.0-0.4","SS1613079901713","","","null","","","","","<p><img src= images/blank.png width =""200"" height = ""200"" style = ""float:right""></p><p><img src=images/blank.png width =""800"" height = ""200""></p>","","","","","","","","","","","",""
"","4969.99999997206","sequential-stimulus-presentation","35","173152","0.0-11.0-1.4","SS1613079901713","trial","","40","800","5769.99999997206","images/stimuli/spore_stims/complex_16_A_c.gif","images/stimuli/spore_stims/complex_16_B_c.gif","","","","","1","complex_similar","images/stimuli/spore_stims/complex_16_A_c.gif","right","","","","",""
"","null","html-keyboard-response","36","174199","0.0-11.0-0.5","SS1613079901713","","","null","","","","","<p><img src= images/blank.png width =""200"" height = ""200"" style = ""float:right""></p><p><img src=images/blank.png width =""800"" height = ""200""></p>","","","","","","","","","","","",""
"","260.99999994039536","sequential-stimulus-presentation","37","175270","0.0-11.0-1.5","SS1613079901713","trial","","40","800","1060.9999999403954","images/stimuli/spore_stims/complex_16_A_c.gif","images/stimuli/spore_stims/complex_16_B_c.gif","","","","","1","complex_similar","images/stimuli/spore_stims/complex_16_B_c.gif","middle","","","","",""
"","null","html-keyboard-response","38","176358","0.0-11.0-0.6","SS1613079901713","","","null","","","","","<p><img src= images/blank.png width =""200"" height = ""200"" style = ""float:right""></p><p><img src=images/blank.png width =""800"" height = ""200""></p>","","","","","","","","","","","",""
"","314.0000000130385","sequential-stimulus-presentation","39","177476","0.0-11.0-1.6","SS1613079901713","trial","","40","800","1114.0000000130385","images/stimuli/spore_stims/complex_16_A_c.gif","images/stimuli/spore_stims/complex_16_B_c.gif","","","","","1","complex_similar","images/stimuli/spore_stims/complex_16_B_c.gif","middle","","","","",""
"","null","html-keyboard-response","40","178480","0.0-11.0-0.7","SS1613079901713","","","null","","","","","<p><img src= images/blank.png width =""200"" height = ""200"" style = ""float:right""></p><p><img src=images/blank.png width =""800"" height = ""200""></p>","","","","","","","","","","","",""
"","994.0000000642613","sequential-stimulus-presentation","41","180289","0.0-11.0-1.7","SS1613079901713","trial","","40","800","1794.0000000642613","images/stimuli/spore_stims/complex_16_A_c.gif","images/stimuli/spore_stims/complex_16_B_c.gif","","","","","1","complex_similar","images/stimuli/spore_stims/complex_16_B_c.gif","middle","","","","",""
"","2111.0000000335276","html-keyboard-response","42","182425","0.0-12.0","SS1613079901713","pref_question","","51","","","","","<video width ='960' height = '540' style='padding-top:8%' autoplay muted><source src='images/stimuli/wall_pref.mp4' type='video/mp4'></video>","3","right","66%","1","","","","","","","",""
"","3244.9999999953434","sequential-stimulus-presentation","43","186499","0.0-13.0","SS1613079901713","pref_reveal","","40","800","4044.9999999953434","null","null","","","","","1","","","","deviant","","","",""
"","null","html-keyboard-response","44","187660","0.0-14.0-0.0","SS1613079901713","","","null","","","","","<p><img src= images/blank.png width =""200"" height = ""200"" style = ""float:right""></p><p><img src=images/blank.png width =""800"" height = ""200""></p>","","","","","","","","","","","",""
"","3271.000000066124","sequential-stimulus-presentation","45","191738","0.0-14.0-1.0","SS1613079901713","trial","","40","800","4071.000000066124","images/stimuli/spore_stims/complex_12_B_a.gif","images/stimuli/spore_stims/complex_12_A_a.gif","","","","","2","complex_similar","images/stimuli/spore_stims/complex_12_A_a.gif","middle","","","","",""
"","null","html-keyboard-response","46","192743","0.0-14.0-0.1","SS1613079901713","","","null","","","","","<p><img src= images/blank.png width =""200"" height = ""200"" style = ""float:right""></p><p><img src=images/blank.png width =""800"" height = ""200""></p>","","","","","","","","","","","",""
"","2689.0000000130385","sequential-stimulus-presentation","47","196242","0.0-14.0-1.1","SS1613079901713","trial","","40","800","3489.0000000130385","images/stimuli/spore_stims/complex_12_B_a.gif","images/stimuli/spore_stims/complex_12_A_a.gif","","","","","2","complex_similar","images/stimuli/spore_stims/complex_12_A_a.gif","middle","","","","",""
"","null","html-keyboard-response","48","197210","0.0-14.0-0.2","SS1613079901713","","","null","","","","","<p><img src= images/blank.png width =""200"" height = ""200"" style = ""float:right""></p><p><img src=images/blank.png width =""800"" height = ""200""></p>","","","","","","","","","","","",""
"","1851.0000000242144","sequential-stimulus-presentation","49","199881","0.0-14.0-1.2","SS1613079901713","trial","","40","800","2651.0000000242144","images/stimuli/spore_stims/complex_12_B_a.gif","images/stimuli/spore_stims/complex_12_A_a.gif","","","","","2","complex_similar","images/stimuli/spore_stims/complex_12_A_a.gif","middle","","","","",""
"","null","html-keyboard-response","50","201158","0.0-14.0-0.3","SS1613079901713","","","null","","","","","<p><img src= images/blank.png width =""200"" height = ""200"" style = ""float:right""></p><p><img src=images/blank.png width =""800"" height = ""200""></p>","","","","","","","","","","","",""
"","872.0000000903383","sequential-stimulus-presentation","51","202837","0.0-14.0-1.3","SS1613079901713","trial","","40","800","1672.0000000903383","images/stimuli/spore_stims/complex_12_B_a.gif","images/stimuli/spore_stims/complex_12_A_a.gif","","","","","2","complex_similar","images/stimuli/spore_stims/complex_12_A_a.gif","middle","","","","",""
"","null","html-keyboard-response","52","204138","0.0-14.0-0.4","SS1613079901713","","","null","","","","","<p><img src= images/blank.png width =""200"" height = ""200"" style = ""float:right""></p><p><img src=images/blank.png width =""800"" height = ""200""></p>","","","","","","","","","","","",""
"","1936.9999999180436","sequential-stimulus-presentation","53","206915","0.0-14.0-1.4","SS1613079901713","trial","","40","800","2736.9999999180436","images/stimuli/spore_stims/complex_12_B_a.gif","images/stimuli/spore_stims/complex_12_A_a.gif","","","","","2","complex_similar","images/stimuli/spore_stims/complex_12_A_a.gif","middle","","","","",""
"","null","html-keyboard-response","54","207843","0.0-14.0-0.5","SS1613079901713","","","null","","","","","<p><img src= images/blank.png width =""200"" height = ""200"" style = ""float:right""></p><p><img src=images/blank.png width =""800"" height = ""200""></p>","","","","","","","","","","","",""
"","1375.9999999310821","sequential-stimulus-presentation","55","210029","0.0-14.0-1.5","SS1613079901713","trial","","40","800","2175.999999931082","images/stimuli/spore_stims/complex_12_B_a.gif","images/stimuli/spore_stims/complex_12_A_a.gif","","","","","2","complex_similar","images/stimuli/spore_stims/complex_12_B_a.gif","left","","","","",""
"","null","html-keyboard-response","56","211274","0.0-14.0-0.6","SS1613079901713","","","null","","","","","<p><img src= images/blank.png width =""200"" height = ""200"" style = ""float:right""></p><p><img src=images/blank.png width =""800"" height = ""200""></p>","","","","","","","","","","","",""
"","804.0000000037253","sequential-stimulus-presentation","57","212894","0.0-14.0-1.6","SS1613079901713","trial","","40","800","1604.0000000037253","images/stimuli/spore_stims/complex_12_B_a.gif","images/stimuli/spore_stims/complex_12_A_a.gif","","","","","2","complex_similar","images/stimuli/spore_stims/complex_12_A_a.gif","middle","","","","",""
"","null","html-keyboard-response","58","213771","0.0-14.0-0.7","SS1613079901713","","","null","","","","","<p><img src= images/blank.png width =""200"" height = ""200"" style = ""float:right""></p><p><img src=images/blank.png width =""800"" height = ""200""></p>","","","","","","","","","","","",""
"","3072.9999999748543","sequential-stimulus-presentation","59","217659","0.0-14.0-1.7","SS1613079901713","trial","","40","800","3872.9999999748543","images/stimuli/spore_stims/complex_12_B_a.gif","images/stimuli/spore_stims/complex_12_A_a.gif","","","","","2","complex_similar","images/stimuli/spore_stims/complex_12_A_a.gif","middle","","","","",""
"","2763.9999999664724","html-keyboard-response","60","220427","0.0-15.0","SS1613079901713","pref_question","","51","","","","","<video width ='960' height = '540' style='padding-top:8%' autoplay muted><source src='images/stimuli/wall_pref.mp4' type='video/mp4'></video>","3","right","66%","2","","","","","","","",""
"","6905.00000002794","sequential-stimulus-presentation","61","228143","0.0-16.0","SS1613079901713","pref_reveal","","40","800","7705.00000002794","null","null","","","","","2","","","","novel","","","",""
"","null","html-keyboard-response","62","229249","0.0-17.0-0.0","SS1613079901713","","","null","","","","","<p><img src= images/blank.png width =""200"" height = ""200"" style = ""float:right""></p><p><img src=images/blank.png width =""800"" height = ""200""></p>","","","","","","","","","","","",""
"","3922.999999951571","sequential-stimulus-presentation","63","233987","0.0-17.0-1.0","SS1613079901713","trial","","40","800","4722.999999951571","images/stimuli/spore_stims/complex_10_A_a.gif","images/stimuli/spore_stims/complex_10_B_a.gif","","","","","3","complex_similar","images/stimuli/spore_stims/complex_10_B_a.gif","right","","","","",""
"","null","html-keyboard-response","64","234901","0.0-17.0-0.1","SS1613079901713","","","null","","","","","<p><img src= images/blank.png width =""200"" height = ""200"" style = ""float:right""></p><p><img src=images/blank.png width =""800"" height = ""200""></p>","","","","","","","","","","","",""
"","6178.000000072643","sequential-stimulus-presentation","65","241886","0.0-17.0-1.1","SS1613079901713","trial","","40","800","6978.000000072643","images/stimuli/spore_stims/complex_10_A_a.gif","images/stimuli/spore_stims/complex_10_B_a.gif","","","","","3","complex_similar","images/stimuli/spore_stims/complex_10_B_a.gif","right","","","","",""
"","null","html-keyboard-response","66","242849","0.0-17.0-0.2","SS1613079901713","","","null","","","","","<p><img src= images/blank.png width =""200"" height = ""200"" style = ""float:right""></p><p><img src=images/blank.png width =""800"" height = ""200""></p>","","","","","","","","","","","",""
"","1956.000000005588","sequential-stimulus-presentation","67","245612","0.0-17.0-1.2","SS1613079901713","trial","","40","800","2756.000000005588","images/stimuli/spore_stims/complex_10_A_a.gif","images/stimuli/spore_stims/complex_10_B_a.gif","","","","","3","complex_similar","images/stimuli/spore_stims/complex_10_B_a.gif","right","","","","",""
"","null","html-keyboard-response","68","246421","0.0-17.0-0.3","SS1613079901713","","","null","","","","","<p><img src= images/blank.png width =""200"" height = ""200"" style = ""float:right""></p><p><img src=images/blank.png width =""800"" height = ""200""></p>","","","","","","","","","","","",""
"","8714.999999967404","sequential-stimulus-presentation","69","255963","0.0-17.0-1.3","SS1613079901713","trial","","40","800","9514.999999967404","images/stimuli/spore_stims/complex_10_A_a.gif","images/stimuli/spore_stims/complex_10_B_a.gif","","","","","3","complex_similar","images/stimuli/spore_stims/complex_10_A_a.gif","left","","","","",""
"","null","html-keyboard-response","70","256932","0.0-17.0-0.4","SS1613079901713","","","null","","","","","<p><img src= images/blank.png width =""200"" height = ""200"" style = ""float:right""></p><p><img src=images/blank.png width =""800"" height = ""200""></p>","","","","","","","","","","","",""
"","996.0000000428408","sequential-stimulus-presentation","71","258738","0.0-17.0-1.4","SS1613079901713","trial","","40","800","1796.0000000428408","images/stimuli/spore_stims/complex_10_A_a.gif","images/stimuli/spore_stims/complex_10_B_a.gif","","","","","3","complex_similar","images/stimuli/spore_stims/complex_10_B_a.gif","right","","","","",""
"","null","html-keyboard-response","72","259850","0.0-17.0-0.5","SS1613079901713","","","null","","","","","<p><img src= images/blank.png width =""200"" height = ""200"" style = ""float:right""></p><p><img src=images/blank.png width =""800"" height = ""200""></p>","","","","","","","","","","","",""
"","2103.999999933876","sequential-stimulus-presentation","73","262767","0.0-17.0-1.5","SS1613079901713","trial","","40","800","2903.999999933876","images/stimuli/spore_stims/complex_10_A_a.gif","images/stimuli/spore_stims/complex_10_B_a.gif","","","","","3","complex_similar","images/stimuli/spore_stims/complex_10_B_a.gif","right","","","","",""
"","null","html-keyboard-response","74","263946","0.0-17.0-0.6","SS1613079901713","","","null","","","","","<p><img src= images/blank.png width =""200"" height = ""200"" style = ""float:right""></p><p><img src=images/blank.png width =""800"" height = ""200""></p>","","","","","","","","","","","",""
"","2.0000000949949026","sequential-stimulus-presentation","75","264755","0.0-17.0-1.6","SS1613079901713","trial","","40","800","802.0000000949949","images/stimuli/spore_stims/complex_10_A_a.gif","images/stimuli/spore_stims/complex_10_B_a.gif","","","","","3","complex_similar","images/stimuli/spore_stims/complex_10_B_a.gif","right","","","","",""
"","null","html-keyboard-response","76","265643","0.0-17.0-0.7","SS1613079901713","","","null","","","","","<p><img src= images/blank.png width =""200"" height = ""200"" style = ""float:right""></p><p><img src=images/blank.png width =""800"" height = ""200""></p>","","","","","","","","","","","",""
"","1988.0000000121072","sequential-stimulus-presentation","77","268438","0.0-17.0-1.7","SS1613079901713","trial","","40","800","2788.000000012107","images/stimuli/spore_stims/complex_10_A_a.gif","images/stimuli/spore_stims/complex_10_B_a.gif","","","","","3","complex_similar","images/stimuli/spore_stims/complex_10_B_a.gif","right","","","","",""
"","10251.99999997858","html-keyboard-response","78","278695","0.0-18.0","SS1613079901713","pref_question","","51","","","","","<video width ='960' height = '540' style='padding-top:8%' autoplay muted><source src='images/stimuli/wall_pref.mp4' type='video/mp4'></video>","3","right","66%","3","","","","","","","",""
"","3220.0000000884756","sequential-stimulus-presentation","79","282724","0.0-19.0","SS1613079901713","pref_reveal","","40","800","4020.0000000884756","null","null","","","","","3","","","","background","","","",""
"","null","html-keyboard-response","80","283571","0.0-20.0-0.0","SS1613079901713","","","null","","","","","<p><img src= images/blank.png width =""200"" height = ""200"" style = ""float:right""></p><p><img src=images/blank.png width =""800"" height = ""200""></p>","","","","","","","","","","","",""
"","2925.000000046566","sequential-stimulus-presentation","81","287302","0.0-20.0-1.0","SS1613079901713","trial","","40","800","3725.000000046566","images/stimuli/spore_stims/complex_07_B_d.gif","images/stimuli/spore_stims/complex_06_B_c.gif","","","","","4","complex_dissimilar","images/stimuli/spore_stims/complex_06_B_c.gif","right","","","","",""
"","null","html-keyboard-response","82","288338","0.0-20.0-0.1","SS1613079901713","","","null","","","","","<p><img src= images/blank.png width =""200"" height = ""200"" style = ""float:right""></p><p><img src=images/blank.png width =""800"" height = ""200""></p>","","","","","","","","","","","",""
"","2479.0000000502914","sequential-stimulus-presentation","83","291631","0.0-20.0-1.1","SS1613079901713","trial","","40","800","3279.0000000502914","images/stimuli/spore_stims/complex_07_B_d.gif","images/stimuli/spore_stims/complex_06_B_c.gif","","","","","4","complex_dissimilar","images/stimuli/spore_stims/complex_06_B_c.gif","right","","","","",""
"","null","html-keyboard-response","84","292723","0.0-20.0-0.2","SS1613079901713","","","null","","","","","<p><img src= images/blank.png width =""200"" height = ""200"" style = ""float:right""></p><p><img src=images/blank.png width =""800"" height = ""200""></p>","","","","","","","","","","","",""
"","1965.000000083819","sequential-stimulus-presentation","85","295494","0.0-20.0-1.2","SS1613079901713","trial","","40","800","2765.000000083819","images/stimuli/spore_stims/complex_07_B_d.gif","images/stimuli/spore_stims/complex_06_B_c.gif","","","","","4","complex_dissimilar","images/stimuli/spore_stims/complex_06_B_c.gif","right","","","","",""
"","null","html-keyboard-response","86","296434","0.0-20.0-0.3","SS1613079901713","","","null","","","","","<p><img src= images/blank.png width =""200"" height = ""200"" style = ""float:right""></p><p><img src=images/blank.png width =""800"" height = ""200""></p>","","","","","","","","","","","",""
"","7339.999999967404","sequential-stimulus-presentation","87","304583","0.0-20.0-1.3","SS1613079901713","trial","","40","800","8139.999999967404","images/stimuli/spore_stims/complex_07_B_d.gif","images/stimuli/spore_stims/complex_06_B_c.gif","","","","","4","complex_dissimilar","images/stimuli/spore_stims/complex_06_B_c.gif","right","","","","",""
"","null","html-keyboard-response","88","305521","0.0-20.0-0.4","SS1613079901713","","","null","","","","","<p><img src= images/blank.png width =""200"" height = ""200"" style = ""float:right""></p><p><img src=images/blank.png width =""800"" height = ""200""></p>","","","","","","","","","","","",""
"","1709.000000031665","sequential-stimulus-presentation","89","308040","0.0-20.0-1.4","SS1613079901713","trial","","40","800","2509.000000031665","images/stimuli/spore_stims/complex_07_B_d.gif","images/stimuli/spore_stims/complex_06_B_c.gif","","","","","4","complex_dissimilar","images/stimuli/spore_stims/complex_06_B_c.gif","right","","","","",""
"","null","html-keyboard-response","90","309299","0.0-20.0-0.5","SS1613079901713","","","null","","","","","<p><img src= images/blank.png width =""200"" height = ""200"" style = ""float:right""></p><p><img src=images/blank.png width =""800"" height = ""200""></p>","","","","","","","","","","","",""
"","761.9999999878928","sequential-stimulus-presentation","91","310868","0.0-20.0-1.5","SS1613079901713","trial","","40","800","1561.9999999878928","images/stimuli/spore_stims/complex_07_B_d.gif","images/stimuli/spore_stims/complex_06_B_c.gif","","","","","4","complex_dissimilar","images/stimuli/spore_stims/complex_06_B_c.gif","right","","","","",""
"","null","html-keyboard-response","92","312106","0.0-20.0-0.6","SS1613079901713","","","null","","","","","<p><img src= images/blank.png width =""200"" height = ""200"" style = ""float:right""></p><p><img src=images/blank.png width =""800"" height = ""200""></p>","","","","","","","","","","","",""
"","1584.999999962747","sequential-stimulus-presentation","93","314509","0.0-20.0-1.6","SS1613079901713","trial","","40","800","2384.999999962747","images/stimuli/spore_stims/complex_07_B_d.gif","images/stimuli/spore_stims/complex_06_B_c.gif","","","","","4","complex_dissimilar","images/stimuli/spore_stims/complex_06_B_c.gif","right","","","","",""
"","null","html-keyboard-response","94","315398","0.0-20.0-0.7","SS1613079901713","","","null","","","","","<p><img src= images/blank.png width =""200"" height = ""200"" style = ""float:right""></p><p><img src=images/blank.png width =""800"" height = ""200""></p>","","","","","","","","","","","",""
"","1218.9999999245629","sequential-stimulus-presentation","95","317426","0.0-20.0-1.7","SS1613079901713","trial","","40","800","2018.9999999245629","images/stimuli/spore_stims/complex_07_B_d.gif","images/stimuli/spore_stims/complex_06_B_c.gif","","","","","4","complex_dissimilar","images/stimuli/spore_stims/complex_07_B_d.gif","left","","","","",""
"","2043.999999994412","html-keyboard-response","96","319476","0.0-21.0","SS1613079901713","pref_question","","50","","","","","<video width ='960' height = '540' style='padding-top:8%' autoplay muted><source src='images/stimuli/wall_pref.mp4' type='video/mp4'></video>","2","middle","45%","4","","","","","","","",""
"","3898.9999999757856","sequential-stimulus-presentation","97","324183","0.0-22.0","SS1613079901713","pref_reveal","","40","800","4698.999999975786","null","null","","","","","4","","","","novel","","","",""
"","null","html-keyboard-response","98","325131","0.0-23.0-0.0","SS1613079901713","","","null","","","","","<p><img src= images/blank.png width =""200"" height = ""200"" style = ""float:right""></p><p><img src=images/blank.png width =""800"" height = ""200""></p>","","","","","","","","","","","",""
"","1309.000000008382","sequential-stimulus-presentation","99","327267","0.0-23.0-1.0","SS1613079901713","trial","","40","800","2109.000000008382","images/stimuli/spore_stims/simple_04_B_d.gif","images/stimuli/spore_stims/simple_16_A_c.gif","","","","","5","simple_dissimilar","images/stimuli/spore_stims/simple_16_A_c.gif","right","","","","",""
"","null","html-keyboard-response","100","328224","0.0-23.0-0.1","SS1613079901713","","","null","","","","","<p><img src= images/blank.png width =""200"" height = ""200"" style = ""float:right""></p><p><img src=images/blank.png width =""800"" height = ""200""></p>","","","","","","","","","","","",""
"","971.9999999506399","sequential-stimulus-presentation","101","330009","0.0-23.0-1.1","SS1613079901713","trial","","40","800","1771.99999995064","images/stimuli/spore_stims/simple_04_B_d.gif","images/stimuli/spore_stims/simple_16_A_c.gif","","","","","5","simple_dissimilar","images/stimuli/spore_stims/simple_16_A_c.gif","right","","","","",""
"","null","html-keyboard-response","102","331110","0.0-23.0-0.2","SS1613079901713","","","null","","","","","<p><img src= images/blank.png width =""200"" height = ""200"" style = ""float:right""></p><p><img src=images/blank.png width =""800"" height = ""200""></p>","","","","","","","","","","","",""
"","832.9999999841675","sequential-stimulus-presentation","103","332750","0.0-23.0-1.2","SS1613079901713","trial","","40","800","1632.9999999841675","images/stimuli/spore_stims/simple_04_B_d.gif","images/stimuli/spore_stims/simple_16_A_c.gif","","","","","5","simple_dissimilar","images/stimuli/spore_stims/simple_04_B_d.gif","middle","","","","",""
"","null","html-keyboard-response","104","333775","0.0-23.0-0.3","SS1613079901713","","","null","","","","","<p><img src= images/blank.png width =""200"" height = ""200"" style = ""float:right""></p><p><img src=images/blank.png width =""800"" height = ""200""></p>","","","","","","","","","","","",""
"","983.0000000074506","sequential-stimulus-presentation","105","335572","0.0-23.0-1.3","SS1613079901713","trial","","40","800","1783.0000000074506","images/stimuli/spore_stims/simple_04_B_d.gif","images/stimuli/spore_stims/simple_16_A_c.gif","","","","","5","simple_dissimilar","images/stimuli/spore_stims/simple_16_A_c.gif","right","","","","",""
"","null","html-keyboard-response","106","336687","0.0-23.0-0.4","SS1613079901713","","","null","","","","","<p><img src= images/blank.png width =""200"" height = ""200"" style = ""float:right""></p><p><img src=images/blank.png width =""800"" height = ""200""></p>","","","","","","","","","","","",""
"","614.9999999906868","sequential-stimulus-presentation","107","338117","0.0-23.0-1.4","SS1613079901713","trial","","40","800","1414.9999999906868","images/stimuli/spore_stims/simple_04_B_d.gif","images/stimuli/spore_stims/simple_16_A_c.gif","","","","","5","simple_dissimilar","images/stimuli/spore_stims/simple_16_A_c.gif","right","","","","",""
"","null","html-keyboard-response","108","339061","0.0-23.0-0.5","SS1613079901713","","","null","","","","","<p><img src= images/blank.png width =""200"" height = ""200"" style = ""float:right""></p><p><img src=images/blank.png width =""800"" height = ""200""></p>","","","","","","","","","","","",""
"","3316.9999999227","sequential-stimulus-presentation","109","343193","0.0-23.0-1.5","SS1613079901713","trial","","40","800","4116.9999999227","images/stimuli/spore_stims/simple_04_B_d.gif","images/stimuli/spore_stims/simple_16_A_c.gif","","","","","5","simple_dissimilar","images/stimuli/spore_stims/simple_16_A_c.gif","right","","","","",""
"","null","html-keyboard-response","110","344161","0.0-23.0-0.6","SS1613079901713","","","null","","","","","<p><img src= images/blank.png width =""200"" height = ""200"" style = ""float:right""></p><p><img src=images/blank.png width =""800"" height = ""200""></p>","","","","","","","","","","","",""
"","1633.9999999618158","sequential-stimulus-presentation","111","346607","0.0-23.0-1.6","SS1613079901713","trial","","40","800","2433.999999961816","images/stimuli/spore_stims/simple_04_B_d.gif","images/stimuli/spore_stims/simple_16_A_c.gif","","","","","5","simple_dissimilar","images/stimuli/spore_stims/simple_16_A_c.gif","right","","","","",""
"","null","html-keyboard-response","112","347867","0.0-23.0-0.7","SS1613079901713","","","null","","","","","<p><img src= images/blank.png width =""200"" height = ""200"" style = ""float:right""></p><p><img src=images/blank.png width =""800"" height = ""200""></p>","","","","","","","","","","","",""
"","611.9999999646097","sequential-stimulus-presentation","113","349294","0.0-23.0-1.7","SS1613079901713","trial","","40","800","1411.9999999646097","images/stimuli/spore_stims/simple_04_B_d.gif","images/stimuli/spore_stims/simple_16_A_c.gif","","","","","5","simple_dissimilar","images/stimuli/spore_stims/simple_16_A_c.gif","right","","","","",""
"","1710.0000000791624","html-keyboard-response","114","351011","0.0-24.0","SS1613079901713","pref_question","","50","","","","","<video width ='960' height = '540' style='padding-top:8%' autoplay muted><source src='images/stimuli/wall_pref.mp4' type='video/mp4'></video>","2","middle","45%","5","","","","","","","",""
"","637.0000001043081","sequential-stimulus-presentation","115","352456","0.0-25.0","SS1613079901713","pref_reveal","","40","800","1437.0000001043081","null","null","","","","","5","","","","deviant","","","",""
"","null","html-keyboard-response","116","353746","0.0-26.0-0.0","SS1613079901713","","","null","","","","","<p><img src= images/blank.png width =""200"" height = ""200"" style = ""float:right""></p><p><img src=images/blank.png width =""800"" height = ""200""></p>","","","","","","","","","","","",""
"","30.000000027939677","sequential-stimulus-presentation","117","354592","0.0-26.0-1.0","SS1613079901713","trial","","40","800","830.0000000279397","images/stimuli/spore_stims/simple_20_A_a.gif","images/stimuli/spore_stims/simple_20_B_a.gif","","","","","6","simple_similar","images/stimuli/spore_stims/simple_20_B_a.gif","left","","","","",""
"","null","html-keyboard-response","118","355673","0.0-26.0-0.1","SS1613079901713","","","null","","","","","<p><img src= images/blank.png width =""200"" height = ""200"" style = ""float:right""></p><p><img src=images/blank.png width =""800"" height = ""200""></p>","","","","","","","","","","","",""
"","573.9999999059364","sequential-stimulus-presentation","119","357068","0.0-26.0-1.1","SS1613079901713","trial","","40","800","1373.9999999059364","images/stimuli/spore_stims/simple_20_A_a.gif","images/stimuli/spore_stims/simple_20_B_a.gif","","","","","6","simple_similar","images/stimuli/spore_stims/simple_20_B_a.gif","left","","","","",""
"","null","html-keyboard-response","120","358237","0.0-26.0-0.2","SS1613079901713","","","null","","","","","<p><img src= images/blank.png width =""200"" height = ""200"" style = ""float:right""></p><p><img src=images/blank.png width =""800"" height = ""200""></p>","","","","","","","","","","","",""
"","738.0000000121072","sequential-stimulus-presentation","121","359787","0.0-26.0-1.2","SS1613079901713","trial","","40","800","1538.0000000121072","images/stimuli/spore_stims/simple_20_A_a.gif","images/stimuli/spore_stims/simple_20_B_a.gif","","","","","6","simple_similar","images/stimuli/spore_stims/simple_20_A_a.gif","right","","","","",""
"","null","html-keyboard-response","122","360724","0.0-26.0-0.3","SS1613079901713","","","null","","","","","<p><img src= images/blank.png width =""200"" height = ""200"" style = ""float:right""></p><p><img src=images/blank.png width =""800"" height = ""200""></p>","","","","","","","","","","","",""
"","799.9999999301508","sequential-stimulus-presentation","123","362335","0.0-26.0-1.3","SS1613079901713","trial","","40","800","1599.9999999301508","images/stimuli/spore_stims/simple_20_A_a.gif","images/stimuli/spore_stims/simple_20_B_a.gif","","","","","6","simple_similar","images/stimuli/spore_stims/simple_20_B_a.gif","left","","","","",""
"","null","html-keyboard-response","124","363272","0.0-26.0-0.4","SS1613079901713","","","null","","","","","<p><img src= images/blank.png width =""200"" height = ""200"" style = ""float:right""></p><p><img src=images/blank.png width =""800"" height = ""200""></p>","","","","","","","","","","","",""
"","746.999999973923","sequential-stimulus-presentation","125","364830","0.0-26.0-1.4","SS1613079901713","trial","","40","800","1546.999999973923","images/stimuli/spore_stims/simple_20_A_a.gif","images/stimuli/spore_stims/simple_20_B_a.gif","","","","","6","simple_similar","images/stimuli/spore_stims/simple_20_B_a.gif","left","","","","",""
"","null","html-keyboard-response","126","365727","0.0-26.0-0.5","SS1613079901713","","","null","","","","","<p><img src= images/blank.png width =""200"" height = ""200"" style = ""float:right""></p><p><img src=images/blank.png width =""800"" height = ""200""></p>","","","","","","","","","","","",""
"","606.9999999599531","sequential-stimulus-presentation","127","367142","0.0-26.0-1.5","SS1613079901713","trial","","40","800","1406.9999999599531","images/stimuli/spore_stims/simple_20_A_a.gif","images/stimuli/spore_stims/simple_20_B_a.gif","","","","","6","simple_similar","images/stimuli/spore_stims/simple_20_B_a.gif","left","","","","",""
"","null","html-keyboard-response","128","368234","0.0-26.0-0.6","SS1613079901713","","","null","","","","","<p><img src= images/blank.png width =""200"" height = ""200"" style = ""float:right""></p><p><img src=images/blank.png width =""800"" height = ""200""></p>","","","","","","","","","","","",""
"","1147.9999999282882","sequential-stimulus-presentation","129","370198","0.0-26.0-1.6","SS1613079901713","trial","","40","800","1947.9999999282882","images/stimuli/spore_stims/simple_20_A_a.gif","images/stimuli/spore_stims/simple_20_B_a.gif","","","","","6","simple_similar","images/stimuli/spore_stims/simple_20_B_a.gif","left","","","","",""
"","null","html-keyboard-response","130","371374","0.0-26.0-0.7","SS1613079901713","","","null","","","","","<p><img src= images/blank.png width =""200"" height = ""200"" style = ""float:right""></p><p><img src=images/blank.png width =""800"" height = ""200""></p>","","","","","","","","","","","",""
"","892.9999999236315","sequential-stimulus-presentation","131","373079","0.0-26.0-1.7","SS1613079901713","trial","","40","800","1692.9999999236315","images/stimuli/spore_stims/simple_20_A_a.gif","images/stimuli/spore_stims/simple_20_B_a.gif","","","","","6","simple_similar","images/stimuli/spore_stims/simple_20_B_a.gif","left","","","","",""
"","1712.9999999888241","html-keyboard-response","132","374798","0.0-27.0","SS1613079901713","pref_question","","50","","","","","<video width ='960' height = '540' style='padding-top:8%' autoplay muted><source src='images/stimuli/wall_pref.mp4' type='video/mp4'></video>","2","middle","45%","6","","","","","","","",""
"","1756.9999999832362","sequential-stimulus-presentation","133","377375","0.0-28.0","SS1613079901713","pref_reveal","","40","800","2556.999999983236","null","null","","","","","6","","","","novel","","","",""
"","null","html-keyboard-response","134","378382","0.0-29.0-0.0","SS1613079901713","","","null","","","","","<p><img src= images/blank.png width =""200"" height = ""200"" style = ""float:right""></p><p><img src=images/blank.png width =""800"" height = ""200""></p>","","","","","","","","","","","",""
"","937.9999999655411","sequential-stimulus-presentation","135","380133","0.0-29.0-1.0","SS1613079901713","trial","","40","800","1737.999999965541","images/stimuli/spore_stims/complex_09_B_c.gif","images/stimuli/spore_stims/complex_09_A_c.gif","","","","","7","complex_similar","images/stimuli/spore_stims/complex_09_A_c.gif","left","","","","",""
"","null","html-keyboard-response","136","381130","0.0-29.0-0.1","SS1613079901713","","","null","","","","","<p><img src= images/blank.png width =""200"" height = ""200"" style = ""float:right""></p><p><img src=images/blank.png width =""800"" height = ""200""></p>","","","","","","","","","","","",""
"","633.0000000307336","sequential-stimulus-presentation","137","382587","0.0-29.0-1.1","SS1613079901713","trial","","40","800","1433.0000000307336","images/stimuli/spore_stims/complex_09_B_c.gif","images/stimuli/spore_stims/complex_09_A_c.gif","","","","","7","complex_similar","images/stimuli/spore_stims/complex_09_A_c.gif","left","","","","",""
"","null","html-keyboard-response","138","383765","0.0-29.0-0.2","SS1613079901713","","","null","","","","","<p><img src= images/blank.png width =""200"" height = ""200"" style = ""float:right""></p><p><img src=images/blank.png width =""800"" height = ""200""></p>","","","","","","","","","","","",""
"","916.9999998994172","sequential-stimulus-presentation","139","385509","0.0-29.0-1.2","SS1613079901713","trial","","40","800","1716.9999998994172","images/stimuli/spore_stims/complex_09_B_c.gif","images/stimuli/spore_stims/complex_09_A_c.gif","","","","","7","complex_similar","images/stimuli/spore_stims/complex_09_A_c.gif","left","","","","",""
"","null","html-keyboard-response","140","386430","0.0-29.0-0.3","SS1613079901713","","","null","","","","","<p><img src= images/blank.png width =""200"" height = ""200"" style = ""float:right""></p><p><img src=images/blank.png width =""800"" height = ""200""></p>","","","","","","","","","","","",""
"","692.0000000391155","sequential-stimulus-presentation","141","387935","0.0-29.0-1.3","SS1613079901713","trial","","40","800","1492.0000000391155","images/stimuli/spore_stims/complex_09_B_c.gif","images/stimuli/spore_stims/complex_09_A_c.gif","","","","","7","complex_similar","images/stimuli/spore_stims/complex_09_A_c.gif","left","","","","",""
"","null","html-keyboard-response","142","388969","0.0-29.0-0.4","SS1613079901713","","","null","","","","","<p><img src= images/blank.png width =""200"" height = ""200"" style = ""float:right""></p><p><img src=images/blank.png width =""800"" height = ""200""></p>","","","","","","","","","","","",""
"","719.0000000409782","sequential-stimulus-presentation","143","390519","0.0-29.0-1.4","SS1613079901713","trial","","40","800","1519.0000000409782","images/stimuli/spore_stims/complex_09_B_c.gif","images/stimuli/spore_stims/complex_09_A_c.gif","","","","","7","complex_similar","images/stimuli/spore_stims/complex_09_A_c.gif","left","","","","",""
"","null","html-keyboard-response","144","391818","0.0-29.0-0.5","SS1613079901713","","","null","","","","","<p><img src= images/blank.png width =""200"" height = ""200"" style = ""float:right""></p><p><img src=images/blank.png width =""800"" height = ""200""></p>","","","","","","","","","","","",""
"","680.9999999823049","sequential-stimulus-presentation","145","393310","0.0-29.0-1.5","SS1613079901713","trial","","40","800","1480.9999999823049","images/stimuli/spore_stims/complex_09_B_c.gif","images/stimuli/spore_stims/complex_09_A_c.gif","","","","","7","complex_similar","images/stimuli/spore_stims/complex_09_A_c.gif","left","","","","",""
"","null","html-keyboard-response","146","394364","0.0-29.0-0.6","SS1613079901713","","","null","","","","","<p><img src= images/blank.png width =""200"" height = ""200"" style = ""float:right""></p><p><img src=images/blank.png width =""800"" height = ""200""></p>","","","","","","","","","","","",""
"","5687.999999965541","sequential-stimulus-presentation","147","400862","0.0-29.0-1.6","SS1613079901713","trial","","40","800","6487.999999965541","images/stimuli/spore_stims/complex_09_B_c.gif","images/stimuli/spore_stims/complex_09_A_c.gif","","","","","7","complex_similar","images/stimuli/spore_stims/complex_09_B_c.gif","right","","","","",""
"","null","html-keyboard-response","148","401785","0.0-29.0-0.7","SS1613079901713","","","null","","","","","<p><img src= images/blank.png width =""200"" height = ""200"" style = ""float:right""></p><p><img src=images/blank.png width =""800"" height = ""200""></p>","","","","","","","","","","","",""
"","5697.999999974854","sequential-stimulus-presentation","149","408289","0.0-29.0-1.7","SS1613079901713","trial","","40","800","6497.999999974854","images/stimuli/spore_stims/complex_09_B_c.gif","images/stimuli/spore_stims/complex_09_A_c.gif","","","","","7","complex_similar","images/stimuli/spore_stims/complex_09_A_c.gif","left","","","","",""
"","1815.999999991618","html-keyboard-response","150","410118","0.0-30.0","SS1613079901713","pref_question","","50","","","","","<video width ='960' height = '540' style='padding-top:8%' autoplay muted><source src='images/stimuli/wall_pref.mp4' type='video/mp4'></video>","2","middle","45%","7","","","","","","","",""
"","535.0000000325963","sequential-stimulus-presentation","151","411469","0.0-31.0","SS1613079901713","pref_reveal","","40","800","1335.0000000325963","null","null","","","","","7","","","","novel","","","",""
"","null","html-keyboard-response","152","412640","0.0-32.0-0.0","SS1613079901713","","","null","","","","","<p><img src= images/blank.png width =""200"" height = ""200"" style = ""float:right""></p><p><img src=images/blank.png width =""800"" height = ""200""></p>","","","","","","","","","","","",""
"","3057.9999999608845","sequential-stimulus-presentation","153","416511","0.0-32.0-1.0","SS1613079901713","trial","","40","800","3857.9999999608845","images/stimuli/spore_stims/simple_15_A_d.gif","images/stimuli/spore_stims/simple_13_A_a.gif","","","","","8","simple_dissimilar","images/stimuli/spore_stims/simple_13_A_a.gif","middle","","","","",""
"","null","html-keyboard-response","154","417619","0.0-32.0-0.1","SS1613079901713","","","null","","","","","<p><img src= images/blank.png width =""200"" height = ""200"" style = ""float:right""></p><p><img src=images/blank.png width =""800"" height = ""200""></p>","","","","","","","","","","","",""
"","2155.999999959022","sequential-stimulus-presentation","155","420648","0.0-32.0-1.1","SS1613079901713","trial","","40","800","2955.999999959022","images/stimuli/spore_stims/simple_15_A_d.gif","images/stimuli/spore_stims/simple_13_A_a.gif","","","","","8","simple_dissimilar","images/stimuli/spore_stims/simple_13_A_a.gif","middle","","","","",""
"","null","html-keyboard-response","156","421702","0.0-32.0-0.2","SS1613079901713","","","null","","","","","<p><img src= images/blank.png width =""200"" height = ""200"" style = ""float:right""></p><p><img src=images/blank.png width =""800"" height = ""200""></p>","","","","","","","","","","","",""
"","1868.999999947846","sequential-stimulus-presentation","157","424378","0.0-32.0-1.2","SS1613079901713","trial","","40","800","2668.999999947846","images/stimuli/spore_stims/simple_15_A_d.gif","images/stimuli/spore_stims/simple_13_A_a.gif","","","","","8","simple_dissimilar","images/stimuli/spore_stims/simple_13_A_a.gif","middle","","","","",""
"","null","html-keyboard-response","158","425415","0.0-32.0-0.3","SS1613079901713","","","null","","","","","<p><img src= images/blank.png width =""200"" height = ""200"" style = ""float:right""></p><p><img src=images/blank.png width =""800"" height = ""200""></p>","","","","","","","","","","","",""
"","1903.00000004936","sequential-stimulus-presentation","159","428129","0.0-32.0-1.3","SS1613079901713","trial","","40","800","2703.00000004936","images/stimuli/spore_stims/simple_15_A_d.gif","images/stimuli/spore_stims/simple_13_A_a.gif","","","","","8","simple_dissimilar","images/stimuli/spore_stims/simple_13_A_a.gif","middle","","","","",""
"","null","html-keyboard-response","160","429311","0.0-32.0-0.4","SS1613079901713","","","null","","","","","<p><img src= images/blank.png width =""200"" height = ""200"" style = ""float:right""></p><p><img src=images/blank.png width =""800"" height = ""200""></p>","","","","","","","","","","","",""
"","847.9999999981374","sequential-stimulus-presentation","161","430975","0.0-32.0-1.4","SS1613079901713","trial","","40","800","1647.9999999981374","images/stimuli/spore_stims/simple_15_A_d.gif","images/stimuli/spore_stims/simple_13_A_a.gif","","","","","8","simple_dissimilar","images/stimuli/spore_stims/simple_13_A_a.gif","middle","","","","",""
"","null","html-keyboard-response","162","432269","0.0-32.0-0.5","SS1613079901713","","","null","","","","","<p><img src= images/blank.png width =""200"" height = ""200"" style = ""float:right""></p><p><img src=images/blank.png width =""800"" height = ""200""></p>","","","","","","","","","","","",""
"","3520.9999999497086","sequential-stimulus-presentation","163","436628","0.0-32.0-1.5","SS1613079901713","trial","","40","800","4320.999999949709","images/stimuli/spore_stims/simple_15_A_d.gif","images/stimuli/spore_stims/simple_13_A_a.gif","","","","","8","simple_dissimilar","images/stimuli/spore_stims/simple_13_A_a.gif","middle","","","","",""
"","null","html-keyboard-response","164","437913","0.0-32.0-0.6","SS1613079901713","","","null","","","","","<p><img src= images/blank.png width =""200"" height = ""200"" style = ""float:right""></p><p><img src=images/blank.png width =""800"" height = ""200""></p>","","","","","","","","","","","",""
"","854.0000000502914","sequential-stimulus-presentation","165","439576","0.0-32.0-1.6","SS1613079901713","trial","","40","800","1654.0000000502914","images/stimuli/spore_stims/simple_15_A_d.gif","images/stimuli/spore_stims/simple_13_A_a.gif","","","","","8","simple_dissimilar","images/stimuli/spore_stims/simple_15_A_d.gif","left","","","","",""
"","null","html-keyboard-response","166","440536","0.0-32.0-0.7","SS1613079901713","","","null","","","","","<p><img src= images/blank.png width =""200"" height = ""200"" style = ""float:right""></p><p><img src=images/blank.png width =""800"" height = ""200""></p>","","","","","","","","","","","",""
"","2216.000000014901","sequential-stimulus-presentation","167","443560","0.0-32.0-1.7","SS1613079901713","trial","","40","800","3016.000000014901","images/stimuli/spore_stims/simple_15_A_d.gif","images/stimuli/spore_stims/simple_13_A_a.gif","","","","","8","simple_dissimilar","images/stimuli/spore_stims/simple_13_A_a.gif","middle","","","","",""
"","2080.000000074506","html-keyboard-response","168","445647","0.0-33.0","SS1613079901713","pref_question","","50","","","","","<video width ='960' height = '540' style='padding-top:8%' autoplay muted><source src='images/stimuli/wall_pref.mp4' type='video/mp4'></video>","2","middle","45%","8","","","","","","","",""
"","2486.0000000335276","sequential-stimulus-presentation","169","448942","0.0-34.0","SS1613079901713","pref_reveal","","40","800","3286.0000000335276","null","null","","","","","8","","","","background","","","",""
"","null","html-keyboard-response","170","449770","0.0-35.0-0.0","SS1613079901713","","","null","","","","","<p><img src= images/blank.png width =""200"" height = ""200"" style = ""float:right""></p><p><img src=images/blank.png width =""800"" height = ""200""></p>","","","","","","","","","","","",""
"","1647.9999999282882","sequential-stimulus-presentation","171","452236","0.0-35.0-1.0","SS1613079901713","trial","","40","800","2447.999999928288","images/stimuli/spore_stims/simple_18_A_c.gif","images/stimuli/spore_stims/simple_18_B_c.gif","","","","","9","simple_similar","images/stimuli/spore_stims/simple_18_B_c.gif","left","","","","",""
"","null","html-keyboard-response","172","453384","0.0-35.0-0.1","SS1613079901713","","","null","","","","","<p><img src= images/blank.png width =""200"" height = ""200"" style = ""float:right""></p><p><img src=images/blank.png width =""800"" height = ""200""></p>","","","","","","","","","","","",""
"","1224.0000000456348","sequential-stimulus-presentation","173","455417","0.0-35.0-1.1","SS1613079901713","trial","","40","800","2024.0000000456348","images/stimuli/spore_stims/simple_18_A_c.gif","images/stimuli/spore_stims/simple_18_B_c.gif","","","","","9","simple_similar","images/stimuli/spore_stims/simple_18_B_c.gif","left","","","","",""
"","null","html-keyboard-response","174","456473","0.0-35.0-0.2","SS1613079901713","","","null","","","","","<p><img src= images/blank.png width =""200"" height = ""200"" style = ""float:right""></p><p><img src=images/blank.png width =""800"" height = ""200""></p>","","","","","","","","","","","",""
"","99.0000000456348","sequential-stimulus-presentation","175","457379","0.0-35.0-1.2","SS1613079901713","trial","","40","800","899.0000000456348","images/stimuli/spore_stims/simple_18_A_c.gif","images/stimuli/spore_stims/simple_18_B_c.gif","","","","","9","simple_similar","images/stimuli/spore_stims/simple_18_B_c.gif","left","","","","",""
"","null","html-keyboard-response","176","458443","0.0-35.0-0.3","SS1613079901713","","","null","","","","","<p><img src= images/blank.png width =""200"" height = ""200"" style = ""float:right""></p><p><img src=images/blank.png width =""800"" height = ""200""></p>","","","","","","","","","","","",""
"","1408.9999999850988","sequential-stimulus-presentation","177","460668","0.0-35.0-1.3","SS1613079901713","trial","","40","800","2208.999999985099","images/stimuli/spore_stims/simple_18_A_c.gif","images/stimuli/spore_stims/simple_18_B_c.gif","","","","","9","simple_similar","images/stimuli/spore_stims/simple_18_B_c.gif","left","","","","",""
"","null","html-keyboard-response","178","461650","0.0-35.0-0.4","SS1613079901713","","","null","","","","","<p><img src= images/blank.png width =""200"" height = ""200"" style = ""float:right""></p><p><img src=images/blank.png width =""800"" height = ""200""></p>","","","","","","","","","","","",""
"","1148.9999999757856","sequential-stimulus-presentation","179","463608","0.0-35.0-1.4","SS1613079901713","trial","","40","800","1948.9999999757856","images/stimuli/spore_stims/simple_18_A_c.gif","images/stimuli/spore_stims/simple_18_B_c.gif","","","","","9","simple_similar","images/stimuli/spore_stims/simple_18_B_c.gif","left","","","","",""
"","null","html-keyboard-response","180","464483","0.0-35.0-0.5","SS1613079901713","","","null","","","","","<p><img src= images/blank.png width =""200"" height = ""200"" style = ""float:right""></p><p><img src=images/blank.png width =""800"" height = ""200""></p>","","","","","","","","","","","",""
"","2074.999999953434","sequential-stimulus-presentation","181","467373","0.0-35.0-1.5","SS1613079901713","trial","","40","800","2874.999999953434","images/stimuli/spore_stims/simple_18_A_c.gif","images/stimuli/spore_stims/simple_18_B_c.gif","","","","","9","simple_similar","images/stimuli/spore_stims/simple_18_B_c.gif","left","","","","",""
"","null","html-keyboard-response","182","468311","0.0-35.0-0.6","SS1613079901713","","","null","","","","","<p><img src= images/blank.png width =""200"" height = ""200"" style = ""float:right""></p><p><img src=images/blank.png width =""800"" height = ""200""></p>","","","","","","","","","","","",""
"","514.0000000828877","sequential-stimulus-presentation","183","469646","0.0-35.0-1.6","SS1613079901713","trial","","40","800","1314.0000000828877","images/stimuli/spore_stims/simple_18_A_c.gif","images/stimuli/spore_stims/simple_18_B_c.gif","","","","","9","simple_similar","images/stimuli/spore_stims/simple_18_B_c.gif","left","","","","",""
"","null","html-keyboard-response","184","470753","0.0-35.0-0.7","SS1613079901713","","","null","","","","","<p><img src= images/blank.png width =""200"" height = ""200"" style = ""float:right""></p><p><img src=images/blank.png width =""800"" height = ""200""></p>","","","","","","","","","","","",""
"","1304.0000000037253","sequential-stimulus-presentation","185","472875","0.0-35.0-1.7","SS1613079901713","trial","","40","800","2104.0000000037253","images/stimuli/spore_stims/simple_18_A_c.gif","images/stimuli/spore_stims/simple_18_B_c.gif","","","","","9","simple_similar","images/stimuli/spore_stims/simple_18_A_c.gif","right","","","","",""
"","3013.0000000353903","html-keyboard-response","186","475899","0.0-36.0","SS1613079901713","pref_question","","49","","","","","<video width ='960' height = '540' style='padding-top:8%' autoplay muted><source src='images/stimuli/wall_pref.mp4' type='video/mp4'></video>","1","left","25%","9","","","","","","","",""
"","709.9999999627471","sequential-stimulus-presentation","187","477422","0.0-37.0","SS1613079901713","pref_reveal","","40","800","1509.999999962747","null","null","","","","","9","","","","background","","","",""
"","null","html-keyboard-response","188","478309","0.0-38.0-0.0","SS1613079901713","","","null","","","","","<p><img src= images/blank.png width =""200"" height = ""200"" style = ""float:right""></p><p><img src=images/blank.png width =""800"" height = ""200""></p>","","","","","","","","","","","",""
"","679.0000000037253","sequential-stimulus-presentation","189","479802","0.0-38.0-1.0","SS1613079901713","trial","","40","800","1479.0000000037253","images/stimuli/spore_stims/complex_17_B_c.gif","images/stimuli/spore_stims/complex_17_A_c.gif","","","","","10","complex_similar","images/stimuli/spore_stims/complex_17_A_c.gif","right","","","","",""
"","null","html-keyboard-response","190","480894","0.0-38.0-0.1","SS1613079901713","","","null","","","","","<p><img src= images/blank.png width =""200"" height = ""200"" style = ""float:right""></p><p><img src=images/blank.png width =""800"" height = ""200""></p>","","","","","","","","","","","",""
"","1033.9999999850988","sequential-stimulus-presentation","191","482747","0.0-38.0-1.1","SS1613079901713","trial","","40","800","1833.9999999850988","images/stimuli/spore_stims/complex_17_B_c.gif","images/stimuli/spore_stims/complex_17_A_c.gif","","","","","10","complex_similar","images/stimuli/spore_stims/complex_17_A_c.gif","right","","","","",""
"","null","html-keyboard-response","192","483765","0.0-38.0-0.2","SS1613079901713","","","null","","","","","<p><img src= images/blank.png width =""200"" height = ""200"" style = ""float:right""></p><p><img src=images/blank.png width =""800"" height = ""200""></p>","","","","","","","","","","","",""
"","787.0000000111759","sequential-stimulus-presentation","193","485499","0.0-38.0-1.2","SS1613079901713","trial","","40","800","1587.0000000111759","images/stimuli/spore_stims/complex_17_B_c.gif","images/stimuli/spore_stims/complex_17_A_c.gif","","","","","10","complex_similar","images/stimuli/spore_stims/complex_17_A_c.gif","right","","","","",""
"","null","html-keyboard-response","194","486496","0.0-38.0-0.3","SS1613079901713","","","null","","","","","<p><img src= images/blank.png width =""200"" height = ""200"" style = ""float:right""></p><p><img src=images/blank.png width =""800"" height = ""200""></p>","","","","","","","","","","","",""
"","782.0000000065193","sequential-stimulus-presentation","195","488089","0.0-38.0-1.3","SS1613079901713","trial","","40","800","1582.0000000065193","images/stimuli/spore_stims/complex_17_B_c.gif","images/stimuli/spore_stims/complex_17_A_c.gif","","","","","10","complex_similar","images/stimuli/spore_stims/complex_17_A_c.gif","right","","","","",""
"","null","html-keyboard-response","196","489212","0.0-38.0-0.4","SS1613079901713","","","null","","","","","<p><img src= images/blank.png width =""200"" height = ""200"" style = ""float:right""></p><p><img src=images/blank.png width =""800"" height = ""200""></p>","","","","","","","","","","","",""
"","628.000000026077","sequential-stimulus-presentation","197","490651","0.0-38.0-1.4","SS1613079901713","trial","","40","800","1428.000000026077","images/stimuli/spore_stims/complex_17_B_c.gif","images/stimuli/spore_stims/complex_17_A_c.gif","","","","","10","complex_similar","images/stimuli/spore_stims/complex_17_A_c.gif","right","","","","",""
"","null","html-keyboard-response","198","491585","0.0-38.0-0.5","SS1613079901713","","","null","","","","","<p><img src= images/blank.png width =""200"" height = ""200"" style = ""float:right""></p><p><img src=images/blank.png width =""800"" height = ""200""></p>","","","","","","","","","","","",""
"","933.0000000772998","sequential-stimulus-presentation","199","493337","0.0-38.0-1.5","SS1613079901713","trial","","40","800","1733.0000000772998","images/stimuli/spore_stims/complex_17_B_c.gif","images/stimuli/spore_stims/complex_17_A_c.gif","","","","","10","complex_similar","images/stimuli/spore_stims/complex_17_A_c.gif","right","","","","",""
"","null","html-keyboard-response","200","494228","0.0-38.0-0.6","SS1613079901713","","","null","","","","","<p><img src= images/blank.png width =""200"" height = ""200"" style = ""float:right""></p><p><img src=images/blank.png width =""800"" height = ""200""></p>","","","","","","","","","","","",""
"","898.9999999757856","sequential-stimulus-presentation","201","495947","0.0-38.0-1.6","SS1613079901713","trial","","40","800","1698.9999999757856","images/stimuli/spore_stims/complex_17_B_c.gif","images/stimuli/spore_stims/complex_17_A_c.gif","","","","","10","complex_similar","images/stimuli/spore_stims/complex_17_B_c.gif","middle","","","","",""
"","null","html-keyboard-response","202","496793","0.0-38.0-0.7","SS1613079901713","","","null","","","","","<p><img src= images/blank.png width =""200"" height = ""200"" style = ""float:right""></p><p><img src=images/blank.png width =""800"" height = ""200""></p>","","","","","","","","","","","",""
"","660.0000000325963","sequential-stimulus-presentation","203","498262","0.0-38.0-1.7","SS1613079901713","trial","","40","800","1460.0000000325963","images/stimuli/spore_stims/complex_17_B_c.gif","images/stimuli/spore_stims/complex_17_A_c.gif","","","","","10","complex_similar","images/stimuli/spore_stims/complex_17_A_c.gif","right","","","","",""
"","2347.000000067055","html-keyboard-response","204","500617","0.0-39.0","SS1613079901713","pref_question","","49","","","","","<video width ='960' height = '540' style='padding-top:8%' autoplay muted><source src='images/stimuli/wall_pref.mp4' type='video/mp4'></video>","1","left","25%","10","","","","","","","",""
"","769.9999999022111","sequential-stimulus-presentation","205","502195","0.0-40.0","SS1613079901713","pref_reveal","","40","800","1569.9999999022111","null","null","","","","","10","","","","novel","","","",""
"","null","html-keyboard-response","206","503458","0.0-41.0-0.0","SS1613079901713","","","null","","","","","<p><img src= images/blank.png width =""200"" height = ""200"" style = ""float:right""></p><p><img src=images/blank.png width =""800"" height = ""200""></p>","","","","","","","","","","","",""
"","1131.9999999832362","sequential-stimulus-presentation","207","505398","0.0-41.0-1.0","SS1613079901713","trial","","40","800","1931.9999999832362","images/stimuli/spore_stims/simple_03_B_d.gif","images/stimuli/spore_stims/simple_20_A_b.gif","","","","","11","simple_dissimilar","images/stimuli/spore_stims/simple_20_A_b.gif","left","","","","",""
"","null","html-keyboard-response","208","506255","0.0-41.0-0.1","SS1613079901713","","","null","","","","","<p><img src= images/blank.png width =""200"" height = ""200"" style = ""float:right""></p><p><img src=images/blank.png width =""800"" height = ""200""></p>","","","","","","","","","","","",""
"","2259.000000078231","sequential-stimulus-presentation","209","509331","0.0-41.0-1.1","SS1613079901713","trial","","40","800","3059.000000078231","images/stimuli/spore_stims/simple_03_B_d.gif","images/stimuli/spore_stims/simple_20_A_b.gif","","","","","11","simple_dissimilar","images/stimuli/spore_stims/simple_20_A_b.gif","left","","","","",""
"","null","html-keyboard-response","210","510572","0.0-41.0-0.2","SS1613079901713","","","null","","","","","<p><img src= images/blank.png width =""200"" height = ""200"" style = ""float:right""></p><p><img src=images/blank.png width =""800"" height = ""200""></p>","","","","","","","","","","","",""
"","1155.9999999590218","sequential-stimulus-presentation","211","512536","0.0-41.0-1.2","SS1613079901713","trial","","40","800","1955.9999999590218","images/stimuli/spore_stims/simple_03_B_d.gif","images/stimuli/spore_stims/simple_20_A_b.gif","","","","","11","simple_dissimilar","images/stimuli/spore_stims/simple_03_B_d.gif","right","","","","",""
"","null","html-keyboard-response","212","513511","0.0-41.0-0.3","SS1613079901713","","","null","","","","","<p><img src= images/blank.png width =""200"" height = ""200"" style = ""float:right""></p><p><img src=images/blank.png width =""800"" height = ""200""></p>","","","","","","","","","","","",""
"","1492.0000000856817","sequential-stimulus-presentation","213","515816","0.0-41.0-1.3","SS1613079901713","trial","","40","800","2292.0000000856817","images/stimuli/spore_stims/simple_03_B_d.gif","images/stimuli/spore_stims/simple_20_A_b.gif","","","","","11","simple_dissimilar","images/stimuli/spore_stims/simple_20_A_b.gif","left","","","","",""
"","null","html-keyboard-response","214","516886","0.0-41.0-0.4","SS1613079901713","","","null","","","","","<p><img src= images/blank.png width =""200"" height = ""200"" style = ""float:right""></p><p><img src=images/blank.png width =""800"" height = ""200""></p>","","","","","","","","","","","",""
"","1059.000000008382","sequential-stimulus-presentation","215","518757","0.0-41.0-1.4","SS1613079901713","trial","","40","800","1859.000000008382","images/stimuli/spore_stims/simple_03_B_d.gif","images/stimuli/spore_stims/simple_20_A_b.gif","","","","","11","simple_dissimilar","images/stimuli/spore_stims/simple_20_A_b.gif","left","","","","",""
"","null","html-keyboard-response","216","520035","0.0-41.0-0.5","SS1613079901713","","","null","","","","","<p><img src= images/blank.png width =""200"" height = ""200"" style = ""float:right""></p><p><img src=images/blank.png width =""800"" height = ""200""></p>","","","","","","","","","","","",""
"","883.0000000307336","sequential-stimulus-presentation","217","521731","0.0-41.0-1.5","SS1613079901713","trial","","40","800","1683.0000000307336","images/stimuli/spore_stims/simple_03_B_d.gif","images/stimuli/spore_stims/simple_20_A_b.gif","","","","","11","simple_dissimilar","images/stimuli/spore_stims/simple_20_A_b.gif","left","","","","",""
"","null","html-keyboard-response","218","522623","0.0-41.0-0.6","SS1613079901713","","","null","","","","","<p><img src= images/blank.png width =""200"" height = ""200"" style = ""float:right""></p><p><img src=images/blank.png width =""800"" height = ""200""></p>","","","","","","","","","","","",""
"","753.000000026077","sequential-stimulus-presentation","219","524188","0.0-41.0-1.6","SS1613079901713","trial","","40","800","1553.000000026077","images/stimuli/spore_stims/simple_03_B_d.gif","images/stimuli/spore_stims/simple_20_A_b.gif","","","","","11","simple_dissimilar","images/stimuli/spore_stims/simple_20_A_b.gif","left","","","","",""
"","null","html-keyboard-response","220","525296","0.0-41.0-0.7","SS1613079901713","","","null","","","","","<p><img src= images/blank.png width =""200"" height = ""200"" style = ""float:right""></p><p><img src=images/blank.png width =""800"" height = ""200""></p>","","","","","","","","","","","",""
"","2325.000000069849","sequential-stimulus-presentation","221","528427","0.0-41.0-1.7","SS1613079901713","trial","","40","800","3125.000000069849","images/stimuli/spore_stims/simple_03_B_d.gif","images/stimuli/spore_stims/simple_20_A_b.gif","","","","","11","simple_dissimilar","images/stimuli/spore_stims/simple_20_A_b.gif","left","","","","",""
"","7194.999999948777","html-keyboard-response","222","535631","0.0-42.0","SS1613079901713","pref_question","","50","","","","","<video width ='960' height = '540' style='padding-top:8%' autoplay muted><source src='images/stimuli/wall_pref.mp4' type='video/mp4'></video>","2","middle","45%","11","","","","","","","",""
"","1315.999999991618","sequential-stimulus-presentation","223","537757","0.0-43.0","SS1613079901713","pref_reveal","","40","800","2115.999999991618","null","null","","","","","11","","","","novel","","","",""
"","null","html-keyboard-response","224","538704","0.0-44.0-0.0","SS1613079901713","","","null","","","","","<p><img src= images/blank.png width =""200"" height = ""200"" style = ""float:right""></p><p><img src=images/blank.png width =""800"" height = ""200""></p>","","","","","","","","","","","",""
"","1410.0000000325963","sequential-stimulus-presentation","225","540942","0.0-44.0-1.0","SS1613079901713","trial","","40","800","2210.0000000325963","images/stimuli/spore_stims/simple_14_B_d.gif","images/stimuli/spore_stims/simple_14_A_d.gif","","","","","12","simple_similar","images/stimuli/spore_stims/simple_14_A_d.gif","right","","","","",""
"","null","html-keyboard-response","226","541986","0.0-44.0-0.1","SS1613079901713","","","null","","","","","<p><img src= images/blank.png width =""200"" height = ""200"" style = ""float:right""></p><p><img src=images/blank.png width =""800"" height = ""200""></p>","","","","","","","","","","","",""
"","199.99999995343387","sequential-stimulus-presentation","227","542998","0.0-44.0-1.1","SS1613079901713","trial","","40","800","999.9999999534339","images/stimuli/spore_stims/simple_14_B_d.gif","images/stimuli/spore_stims/simple_14_A_d.gif","","","","","12","simple_similar","images/stimuli/spore_stims/simple_14_A_d.gif","right","","","","",""
"","null","html-keyboard-response","228","543886","0.0-44.0-0.2","SS1613079901713","","","null","","","","","<p><img src= images/blank.png width =""200"" height = ""200"" style = ""float:right""></p><p><img src=images/blank.png width =""800"" height = ""200""></p>","","","","","","","","","","","",""
"","691.9999999227002","sequential-stimulus-presentation","229","545444","0.0-44.0-1.2","SS1613079901713","trial","","40","800","1491.9999999227002","images/stimuli/spore_stims/simple_14_B_d.gif","images/stimuli/spore_stims/simple_14_A_d.gif","","","","","12","simple_similar","images/stimuli/spore_stims/simple_14_A_d.gif","right","","","","",""
"","null","html-keyboard-response","230","546737","0.0-44.0-0.3","SS1613079901713","","","null","","","","","<p><img src= images/blank.png width =""200"" height = ""200"" style = ""float:right""></p><p><img src=images/blank.png width =""800"" height = ""200""></p>","","","","","","","","","","","",""
"","2728.999999933876","sequential-stimulus-presentation","231","550279","0.0-44.0-1.3","SS1613079901713","trial","","40","800","3528.999999933876","images/stimuli/spore_stims/simple_14_B_d.gif","images/stimuli/spore_stims/simple_14_A_d.gif","","","","","12","simple_similar","images/stimuli/spore_stims/simple_14_B_d.gif","middle","","","","",""
"","null","html-keyboard-response","232","551391","0.0-44.0-0.4","SS1613079901713","","","null","","","","","<p><img src= images/blank.png width =""200"" height = ""200"" style = ""float:right""></p><p><img src=images/blank.png width =""800"" height = ""200""></p>","","","","","","","","","","","",""
"","950.0000000698492","sequential-stimulus-presentation","233","553172","0.0-44.0-1.4","SS1613079901713","trial","","40","800","1750.0000000698492","images/stimuli/spore_stims/simple_14_B_d.gif","images/stimuli/spore_stims/simple_14_A_d.gif","","","","","12","simple_similar","images/stimuli/spore_stims/simple_14_A_d.gif","right","","","","",""
"","null","html-keyboard-response","234","554269","0.0-44.0-0.5","SS1613079901713","","","null","","","","","<p><img src= images/blank.png width =""200"" height = ""200"" style = ""float:right""></p><p><img src=images/blank.png width =""800"" height = ""200""></p>","","","","","","","","","","","",""
"","1255.9999999357387","sequential-stimulus-presentation","235","556345","0.0-44.0-1.5","SS1613079901713","trial","","40","800","2055.9999999357387","images/stimuli/spore_stims/simple_14_B_d.gif","images/stimuli/spore_stims/simple_14_A_d.gif","","","","","12","simple_similar","images/stimuli/spore_stims/simple_14_A_d.gif","right","","","","",""
"","null","html-keyboard-response","236","557544","0.0-44.0-0.6","SS1613079901713","","","null","","","","","<p><img src= images/blank.png width =""200"" height = ""200"" style = ""float:right""></p><p><img src=images/blank.png width =""800"" height = ""200""></p>","","","","","","","","","","","",""
"","2205.000000074506","sequential-stimulus-presentation","237","560556","0.0-44.0-1.6","SS1613079901713","trial","","40","800","3005.000000074506","images/stimuli/spore_stims/simple_14_B_d.gif","images/stimuli/spore_stims/simple_14_A_d.gif","","","","","12","simple_similar","images/stimuli/spore_stims/simple_14_A_d.gif","right","","","","",""
"","null","html-keyboard-response","238","561555","0.0-44.0-0.7","SS1613079901713","","","null","","","","","<p><img src= images/blank.png width =""200"" height = ""200"" style = ""float:right""></p><p><img src=images/blank.png width =""800"" height = ""200""></p>","","","","","","","","","","","",""
"","366.0000000381842","sequential-stimulus-presentation","239","562743","0.0-44.0-1.7","SS1613079901713","trial","","40","800","1166.0000000381842","images/stimuli/spore_stims/simple_14_B_d.gif","images/stimuli/spore_stims/simple_14_A_d.gif","","","","","12","simple_similar","images/stimuli/spore_stims/simple_14_A_d.gif","right","","","","",""
"","5424.999999930151","html-keyboard-response","240","568178","0.0-45.0","SS1613079901713","pref_question","","51","","","","","<video width ='960' height = '540' style='padding-top:8%' autoplay muted><source src='images/stimuli/wall_pref.mp4' type='video/mp4'></video>","3","right","66%","12","","","","","","","",""
"","5415.000000037253","sequential-stimulus-presentation","241","574403","0.0-46.0","SS1613079901713","pref_reveal","","40","800","6215.000000037253","null","null","","","","","12","","","","background","","","",""
"","null","html-keyboard-response","242","575356","0.0-47.0-0.0","SS1613079901713","","","null","","","","","<p><img src= images/blank.png width =""200"" height = ""200"" style = ""float:right""></p><p><img src=images/blank.png width =""800"" height = ""200""></p>","","","","","","","","","","","",""
"","1989.0000000596046","sequential-stimulus-presentation","243","578154","0.0-47.0-1.0","SS1613079901713","trial","","40","800","2789.0000000596046","images/stimuli/spore_stims/complex_19_A_b.gif","images/stimuli/spore_stims/complex_17_B_a.gif","","","","","13","complex_dissimilar","images/stimuli/spore_stims/complex_17_B_a.gif","left","","","","",""
"","null","html-keyboard-response","244","579361","0.0-47.0-0.1","SS1613079901713","","","null","","","","","<p><img src= images/blank.png width =""200"" height = ""200"" style = ""float:right""></p><p><img src=images/blank.png width =""800"" height = ""200""></p>","","","","","","","","","","","",""
"","4882.999999914318","sequential-stimulus-presentation","245","585058","0.0-47.0-1.1","SS1613079901713","trial","","40","800","5682.999999914318","images/stimuli/spore_stims/complex_19_A_b.gif","images/stimuli/spore_stims/complex_17_B_a.gif","","","","","13","complex_dissimilar","images/stimuli/spore_stims/complex_17_B_a.gif","left","","","","",""
"","null","html-keyboard-response","246","585904","0.0-47.0-0.2","SS1613079901713","","","null","","","","","<p><img src= images/blank.png width =""200"" height = ""200"" style = ""float:right""></p><p><img src=images/blank.png width =""800"" height = ""200""></p>","","","","","","","","","","","",""
"","3726.0000000242144","sequential-stimulus-presentation","247","590442","0.0-47.0-1.2","SS1613079901713","trial","","40","800","4526.000000024214","images/stimuli/spore_stims/complex_19_A_b.gif","images/stimuli/spore_stims/complex_17_B_a.gif","","","","","13","complex_dissimilar","images/stimuli/spore_stims/complex_19_A_b.gif","middle","","","","",""
"","null","html-keyboard-response","248","591768","0.0-47.0-0.3","SS1613079901713","","","null","","","","","<p><img src= images/blank.png width =""200"" height = ""200"" style = ""float:right""></p><p><img src=images/blank.png width =""800"" height = ""200""></p>","","","","","","","","","","","",""
"","1998.0000000214204","sequential-stimulus-presentation","249","594583","0.0-47.0-1.3","SS1613079901713","trial","","40","800","2798.0000000214204","images/stimuli/spore_stims/complex_19_A_b.gif","images/stimuli/spore_stims/complex_17_B_a.gif","","","","","13","complex_dissimilar","images/stimuli/spore_stims/complex_17_B_a.gif","left","","","","",""
"","null","html-keyboard-response","250","595614","0.0-47.0-0.4","SS1613079901713","","","null","","","","","<p><img src= images/blank.png width =""200"" height = ""200"" style = ""float:right""></p><p><img src=images/blank.png width =""800"" height = ""200""></p>","","","","","","","","","","","",""
"","2373.0000000214204","sequential-stimulus-presentation","251","598797","0.0-47.0-1.4","SS1613079901713","trial","","40","800","3173.0000000214204","images/stimuli/spore_stims/complex_19_A_b.gif","images/stimuli/spore_stims/complex_17_B_a.gif","","","","","13","complex_dissimilar","images/stimuli/spore_stims/complex_17_B_a.gif","left","","","","",""
"","null","html-keyboard-response","252","600029","0.0-47.0-0.5","SS1613079901713","","","null","","","","","<p><img src= images/blank.png width =""200"" height = ""200"" style = ""float:right""></p><p><img src=images/blank.png width =""800"" height = ""200""></p>","","","","","","","","","","","",""
"","3202.999999979511","sequential-stimulus-presentation","253","604046","0.0-47.0-1.5","SS1613079901713","trial","","40","800","4002.999999979511","images/stimuli/spore_stims/complex_19_A_b.gif","images/stimuli/spore_stims/complex_17_B_a.gif","","","","","13","complex_dissimilar","images/stimuli/spore_stims/complex_17_B_a.gif","left","","","","",""
"","null","html-keyboard-response","254","605257","0.0-47.0-0.6","SS1613079901713","","","null","","","","","<p><img src= images/blank.png width =""200"" height = ""200"" style = ""float:right""></p><p><img src=images/blank.png width =""800"" height = ""200""></p>","","","","","","","","","","","",""
"","918.0000000633299","sequential-stimulus-presentation","255","606990","0.0-47.0-1.6","SS1613079901713","trial","","40","800","1718.00000006333","images/stimuli/spore_stims/complex_19_A_b.gif","images/stimuli/spore_stims/complex_17_B_a.gif","","","","","13","complex_dissimilar","images/stimuli/spore_stims/complex_17_B_a.gif","left","","","","",""
"","null","html-keyboard-response","256","608143","0.0-47.0-0.7","SS1613079901713","","","null","","","","","<p><img src= images/blank.png width =""200"" height = ""200"" style = ""float:right""></p><p><img src=images/blank.png width =""800"" height = ""200""></p>","","","","","","","","","","","",""
"","3239.999999990687","sequential-stimulus-presentation","257","612203","0.0-47.0-1.7","SS1613079901713","trial","","40","800","4039.999999990687","images/stimuli/spore_stims/complex_19_A_b.gif","images/stimuli/spore_stims/complex_17_B_a.gif","","","","","13","complex_dissimilar","images/stimuli/spore_stims/complex_17_B_a.gif","left","","","","",""
"","4618.999999947846","html-keyboard-response","258","616830","0.0-48.0","SS1613079901713","pref_question","","50","","","","","<video width ='960' height = '540' style='padding-top:8%' autoplay muted><source src='images/stimuli/wall_pref.mp4' type='video/mp4'></video>","2","middle","45%","13","","","","","","","",""
"","1665.000000037253","sequential-stimulus-presentation","259","619310","0.0-49.0","SS1613079901713","pref_reveal","","40","800","2465.000000037253","null","null","","","","","13","","","","deviant","","","",""
"","null","html-keyboard-response","260","620291","0.0-50.0-0.0","SS1613079901713","","","null","","","","","<p><img src= images/blank.png width =""200"" height = ""200"" style = ""float:right""></p><p><img src=images/blank.png width =""800"" height = ""200""></p>","","","","","","","","","","","",""
"","3119.9999999953434","sequential-stimulus-presentation","261","624225","0.0-50.0-1.0","SS1613079901713","trial","","40","800","3919.9999999953434","images/stimuli/spore_stims/simple_01_B_c.gif","images/stimuli/spore_stims/simple_01_A_c.gif","","","","","14","simple_similar","images/stimuli/spore_stims/simple_01_A_c.gif","middle","","","","",""
"","null","html-keyboard-response","262","625187","0.0-50.0-0.1","SS1613079901713","","","null","","","","","<p><img src= images/blank.png width =""200"" height = ""200"" style = ""float:right""></p><p><img src=images/blank.png width =""800"" height = ""200""></p>","","","","","","","","","","","",""
"","459.00000003166497","sequential-stimulus-presentation","263","626465","0.0-50.0-1.1","SS1613079901713","trial","","40","800","1259.000000031665","images/stimuli/spore_stims/simple_01_B_c.gif","images/stimuli/spore_stims/simple_01_A_c.gif","","","","","14","simple_similar","images/stimuli/spore_stims/simple_01_A_c.gif","middle","","","","",""
"","null","html-keyboard-response","264","627735","0.0-50.0-0.2","SS1613079901713","","","null","","","","","<p><img src= images/blank.png width =""200"" height = ""200"" style = ""float:right""></p><p><img src=images/blank.png width =""800"" height = ""200""></p>","","","","","","","","","","","",""
"","900.9999999543652","sequential-stimulus-presentation","265","629466","0.0-50.0-1.2","SS1613079901713","trial","","40","800","1700.9999999543652","images/stimuli/spore_stims/simple_01_B_c.gif","images/stimuli/spore_stims/simple_01_A_c.gif","","","","","14","simple_similar","images/stimuli/spore_stims/simple_01_A_c.gif","middle","","","","",""
"","null","html-keyboard-response","266","630559","0.0-50.0-0.3","SS1613079901713","","","null","","","","","<p><img src= images/blank.png width =""200"" height = ""200"" style = ""float:right""></p><p><img src=images/blank.png width =""800"" height = ""200""></p>","","","","","","","","","","","",""
"","533.9999999850988","sequential-stimulus-presentation","267","631903","0.0-50.0-1.3","SS1613079901713","trial","","40","800","1333.9999999850988","images/stimuli/spore_stims/simple_01_B_c.gif","images/stimuli/spore_stims/simple_01_A_c.gif","","","","","14","simple_similar","images/stimuli/spore_stims/simple_01_B_c.gif","right","","","","",""
"","null","html-keyboard-response","268","632724","0.0-50.0-0.4","SS1613079901713","","","null","","","","","<p><img src= images/blank.png width =""200"" height = ""200"" style = ""float:right""></p><p><img src=images/blank.png width =""800"" height = ""200""></p>","","","","","","","","","","","",""
"","839.9999999674037","sequential-stimulus-presentation","269","634379","0.0-50.0-1.4","SS1613079901713","trial","","40","800","1639.9999999674037","images/stimuli/spore_stims/simple_01_B_c.gif","images/stimuli/spore_stims/simple_01_A_c.gif","","","","","14","simple_similar","images/stimuli/spore_stims/simple_01_A_c.gif","middle","","","","",""
"","null","html-keyboard-response","270","635190","0.0-50.0-0.5","SS1613079901713","","","null","","","","","<p><img src= images/blank.png width =""200"" height = ""200"" style = ""float:right""></p><p><img src=images/blank.png width =""800"" height = ""200""></p>","","","","","","","","","","","",""
"","4916.00000008475","sequential-stimulus-presentation","271","640936","0.0-50.0-1.5","SS1613079901713","trial","","40","800","5716.00000008475","images/stimuli/spore_stims/simple_01_B_c.gif","images/stimuli/spore_stims/simple_01_A_c.gif","","","","","14","simple_similar","images/stimuli/spore_stims/simple_01_A_c.gif","middle","","","","",""
"","null","html-keyboard-response","272","642206","0.0-50.0-0.6","SS1613079901713","","","null","","","","","<p><img src= images/blank.png width =""200"" height = ""200"" style = ""float:right""></p><p><img src=images/blank.png width =""800"" height = ""200""></p>","","","","","","","","","","","",""
"","1179.0000000037253","sequential-stimulus-presentation","273","644197","0.0-50.0-1.6","SS1613079901713","trial","","40","800","1979.0000000037253","images/stimuli/spore_stims/simple_01_B_c.gif","images/stimuli/spore_stims/simple_01_A_c.gif","","","","","14","simple_similar","images/stimuli/spore_stims/simple_01_A_c.gif","middle","","","","",""
"","null","html-keyboard-response","274","645126","0.0-50.0-0.7","SS1613079901713","","","null","","","","","<p><img src= images/blank.png width =""200"" height = ""200"" style = ""float:right""></p><p><img src=images/blank.png width =""800"" height = ""200""></p>","","","","","","","","","","","",""
"","4026.0000000707805","sequential-stimulus-presentation","275","649974","0.0-50.0-1.7","SS1613079901713","trial","","40","800","4826.0000000707805","images/stimuli/spore_stims/simple_01_B_c.gif","images/stimuli/spore_stims/simple_01_A_c.gif","","","","","14","simple_similar","images/stimuli/spore_stims/simple_01_A_c.gif","middle","","","","",""
"","5474.999999976717","html-keyboard-response","276","655459","0.0-51.0","SS1613079901713","pref_question","","51","","","","","<video width ='960' height = '540' style='padding-top:8%' autoplay muted><source src='images/stimuli/wall_pref.mp4' type='video/mp4'></video>","3","right","66%","14","","","","","","","",""
"","2233.9999999385327","sequential-stimulus-presentation","277","658525","0.0-52.0","SS1613079901713","pref_reveal","","40","800","3033.9999999385327","null","null","","","","","14","","","","deviant","","","",""
"","null","html-keyboard-response","278","659740","0.0-53.0-0.0","SS1613079901713","","","null","","","","","<p><img src= images/blank.png width =""200"" height = ""200"" style = ""float:right""></p><p><img src=images/blank.png width =""800"" height = ""200""></p>","","","","","","","","","","","",""
"","5957.9999999841675","sequential-stimulus-presentation","279","666528","0.0-53.0-1.0","SS1613079901713","trial","","40","800","6757.9999999841675","images/stimuli/spore_stims/simple_10_B_c.gif","images/stimuli/spore_stims/simple_16_B_c.gif","","","","","15","simple_dissimilar","images/stimuli/spore_stims/simple_16_B_c.gif","middle","","","","",""
"","null","html-keyboard-response","280","667344","0.0-53.0-0.1","SS1613079901713","","","null","","","","","<p><img src= images/blank.png width =""200"" height = ""200"" style = ""float:right""></p><p><img src=images/blank.png width =""800"" height = ""200""></p>","","","","","","","","","","","",""
"","1516.9999999925494","sequential-stimulus-presentation","281","669722","0.0-53.0-1.1","SS1613079901713","trial","","40","800","2316.9999999925494","images/stimuli/spore_stims/simple_10_B_c.gif","images/stimuli/spore_stims/simple_16_B_c.gif","","","","","15","simple_dissimilar","images/stimuli/spore_stims/simple_16_B_c.gif","middle","","","","",""
"","null","html-keyboard-response","282","670558","0.0-53.0-0.2","SS1613079901713","","","null","","","","","<p><img src= images/blank.png width =""200"" height = ""200"" style = ""float:right""></p><p><img src=images/blank.png width =""800"" height = ""200""></p>","","","","","","","","","","","",""
"","1165.999999968335","sequential-stimulus-presentation","283","672533","0.0-53.0-1.2","SS1613079901713","trial","","40","800","1965.999999968335","images/stimuli/spore_stims/simple_10_B_c.gif","images/stimuli/spore_stims/simple_16_B_c.gif","","","","","15","simple_dissimilar","images/stimuli/spore_stims/simple_10_B_c.gif","right","","","","",""
"","null","html-keyboard-response","284","673624","0.0-53.0-0.3","SS1613079901713","","","null","","","","","<p><img src= images/blank.png width =""200"" height = ""200"" style = ""float:right""></p><p><img src=images/blank.png width =""800"" height = ""200""></p>","","","","","","","","","","","",""
"","8207.000000053085","sequential-stimulus-presentation","285","682646","0.0-53.0-1.3","SS1613079901713","trial","","40","800","9007.000000053085","images/stimuli/spore_stims/simple_10_B_c.gif","images/stimuli/spore_stims/simple_16_B_c.gif","","","","","15","simple_dissimilar","images/stimuli/spore_stims/simple_16_B_c.gif","middle","","","","",""
"","null","html-keyboard-response","286","683554","0.0-53.0-0.4","SS1613079901713","","","null","","","","","<p><img src= images/blank.png width =""200"" height = ""200"" style = ""float:right""></p><p><img src=images/blank.png width =""800"" height = ""200""></p>","","","","","","","","","","","",""
"","1812.000000034459","sequential-stimulus-presentation","287","686178","0.0-53.0-1.4","SS1613079901713","trial","","40","800","2612.000000034459","images/stimuli/spore_stims/simple_10_B_c.gif","images/stimuli/spore_stims/simple_16_B_c.gif","","","","","15","simple_dissimilar","images/stimuli/spore_stims/simple_16_B_c.gif","middle","","","","",""
"","null","html-keyboard-response","288","687317","0.0-53.0-0.5","SS1613079901713","","","null","","","","","<p><img src= images/blank.png width =""200"" height = ""200"" style = ""float:right""></p><p><img src=images/blank.png width =""800"" height = ""200""></p>","","","","","","","","","","","",""
"","7701.000000000931","sequential-stimulus-presentation","289","695832","0.0-53.0-1.5","SS1613079901713","trial","","40","800","8501.000000000931","images/stimuli/spore_stims/simple_10_B_c.gif","images/stimuli/spore_stims/simple_16_B_c.gif","","","","","15","simple_dissimilar","images/stimuli/spore_stims/simple_16_B_c.gif","middle","","","","",""
"","null","html-keyboard-response","290","696908","0.0-53.0-0.6","SS1613079901713","","","null","","","","","<p><img src= images/blank.png width =""200"" height = ""200"" style = ""float:right""></p><p><img src=images/blank.png width =""800"" height = ""200""></p>","","","","","","","","","","","",""
"","2908.0000000540167","sequential-stimulus-presentation","291","700632","0.0-53.0-1.6","SS1613079901713","trial","","40","800","3708.0000000540167","images/stimuli/spore_stims/simple_10_B_c.gif","images/stimuli/spore_stims/simple_16_B_c.gif","","","","","15","simple_dissimilar","images/stimuli/spore_stims/simple_16_B_c.gif","middle","","","","",""
"","null","html-keyboard-response","292","701834","0.0-53.0-0.7","SS1613079901713","","","null","","","","","<p><img src= images/blank.png width =""200"" height = ""200"" style = ""float:right""></p><p><img src=images/blank.png width =""800"" height = ""200""></p>","","","","","","","","","","","",""
"","7942.999999970198","sequential-stimulus-presentation","293","710595","0.0-53.0-1.7","SS1613079901713","trial","","40","800","8742.999999970198","images/stimuli/spore_stims/simple_10_B_c.gif","images/stimuli/spore_stims/simple_16_B_c.gif","","","","","15","simple_dissimilar","images/stimuli/spore_stims/simple_16_B_c.gif","middle","","","","",""
"","3780.0000000279397","html-keyboard-response","294","714386","0.0-54.0","SS1613079901713","pref_question","","51","","","","","<video width ='960' height = '540' style='padding-top:8%' autoplay muted><source src='images/stimuli/wall_pref.mp4' type='video/mp4'></video>","3","right","66%","15","","","","","","","",""
"","6614.999999990687","sequential-stimulus-presentation","295","721818","0.0-55.0","SS1613079901713","pref_reveal","","40","800","7414.999999990687","null","null","","","","","15","","","","deviant","","","",""
"","null","html-keyboard-response","296","722860","0.0-56.0-0.0","SS1613079901713","","","null","","","","","<p><img src= images/blank.png width =""200"" height = ""200"" style = ""float:right""></p><p><img src=images/blank.png width =""800"" height = ""200""></p>","","","","","","","","","","","",""
"","861.0000000335276","sequential-stimulus-presentation","297","724539","0.0-56.0-1.0","SS1613079901713","trial","","40","800","1661.0000000335276","images/stimuli/spore_stims/simple_15_B_d.gif","images/stimuli/spore_stims/simple_11_B_d.gif","","","","","16","simple_dissimilar","images/stimuli/spore_stims/simple_11_B_d.gif","left","","","","",""
"","null","html-keyboard-response","298","725819","0.0-56.0-0.1","SS1613079901713","","","null","","","","","<p><img src= images/blank.png width =""200"" height = ""200"" style = ""float:right""></p><p><img src=images/blank.png width =""800"" height = ""200""></p>","","","","","","","","","","","",""
"","1327.999999979511","sequential-stimulus-presentation","299","727956","0.0-56.0-1.1","SS1613079901713","trial","","40","800","2127.999999979511","images/stimuli/spore_stims/simple_15_B_d.gif","images/stimuli/spore_stims/simple_11_B_d.gif","","","","","16","simple_dissimilar","images/stimuli/spore_stims/simple_11_B_d.gif","left","","","","",""
"","null","html-keyboard-response","300","728770","0.0-56.0-0.2","SS1613079901713","","","null","","","","","<p><img src= images/blank.png width =""200"" height = ""200"" style = ""float:right""></p><p><img src=images/blank.png width =""800"" height = ""200""></p>","","","","","","","","","","","",""
"","2148.9999999757856","sequential-stimulus-presentation","301","731740","0.0-56.0-1.2","SS1613079901713","trial","","40","800","2948.9999999757856","images/stimuli/spore_stims/simple_15_B_d.gif","images/stimuli/spore_stims/simple_11_B_d.gif","","","","","16","simple_dissimilar","images/stimuli/spore_stims/simple_11_B_d.gif","left","","","","",""
"","null","html-keyboard-response","302","732914","0.0-56.0-0.3","SS1613079901713","","","null","","","","","<p><img src= images/blank.png width =""200"" height = ""200"" style = ""float:right""></p><p><img src=images/blank.png width =""800"" height = ""200""></p>","","","","","","","","","","","",""
"","4057.9999999608845","sequential-stimulus-presentation","303","737847","0.0-56.0-1.3","SS1613079901713","trial","","40","800","4857.999999960884","images/stimuli/spore_stims/simple_15_B_d.gif","images/stimuli/spore_stims/simple_11_B_d.gif","","","","","16","simple_dissimilar","images/stimuli/spore_stims/simple_15_B_d.gif","middle","","","","",""
"","null","html-keyboard-response","304","738665","0.0-56.0-0.4","SS1613079901713","","","null","","","","","<p><img src= images/blank.png width =""200"" height = ""200"" style = ""float:right""></p><p><img src=images/blank.png width =""800"" height = ""200""></p>","","","","","","","","","","","",""
"","3454.0000000270084","sequential-stimulus-presentation","305","742942","0.0-56.0-1.4","SS1613079901713","trial","","40","800","4254.000000027008","images/stimuli/spore_stims/simple_15_B_d.gif","images/stimuli/spore_stims/simple_11_B_d.gif","","","","","16","simple_dissimilar","images/stimuli/spore_stims/simple_11_B_d.gif","left","","","","",""
"","null","html-keyboard-response","306","744070","0.0-56.0-0.5","SS1613079901713","","","null","","","","","<p><img src= images/blank.png width =""200"" height = ""200"" style = ""float:right""></p><p><img src=images/blank.png width =""800"" height = ""200""></p>","","","","","","","","","","","",""
"","1775.9999999543652","sequential-stimulus-presentation","307","746653","0.0-56.0-1.5","SS1613079901713","trial","","40","800","2575.999999954365","images/stimuli/spore_stims/simple_15_B_d.gif","images/stimuli/spore_stims/simple_11_B_d.gif","","","","","16","simple_dissimilar","images/stimuli/spore_stims/simple_11_B_d.gif","left","","","","",""
"","null","html-keyboard-response","308","747841","0.0-56.0-0.6","SS1613079901713","","","null","","","","","<p><img src= images/blank.png width =""200"" height = ""200"" style = ""float:right""></p><p><img src=images/blank.png width =""800"" height = ""200""></p>","","","","","","","","","","","",""
"","1022.9999999282882","sequential-stimulus-presentation","309","749676","0.0-56.0-1.6","SS1613079901713","trial","","40","800","1822.9999999282882","images/stimuli/spore_stims/simple_15_B_d.gif","images/stimuli/spore_stims/simple_11_B_d.gif","","","","","16","simple_dissimilar","images/stimuli/spore_stims/simple_11_B_d.gif","left","","","","",""
"","null","html-keyboard-response","310","750726","0.0-56.0-0.7","SS1613079901713","","","null","","","","","<p><img src= images/blank.png width =""200"" height = ""200"" style = ""float:right""></p><p><img src=images/blank.png width =""800"" height = ""200""></p>","","","","","","","","","","","",""
"","1627.000000094995","sequential-stimulus-presentation","311","753179","0.0-56.0-1.7","SS1613079901713","trial","","40","800","2427.000000094995","images/stimuli/spore_stims/simple_15_B_d.gif","images/stimuli/spore_stims/simple_11_B_d.gif","","","","","16","simple_dissimilar","images/stimuli/spore_stims/simple_11_B_d.gif","left","","","","",""
"","4714.999999967404","html-keyboard-response","312","757918","0.0-57.0","SS1613079901713","pref_question","","50","","","","","<video width ='960' height = '540' style='padding-top:8%' autoplay muted><source src='images/stimuli/wall_pref.mp4' type='video/mp4'></video>","2","middle","45%","16","","","","","","","",""
