"view_history","rt","trial_type","trial_index","time_elapsed","internal_node_id","subject","stimulus_type","trial_stimulus","key_press","minimum_viewing_duration","trial_looking_time","block_deviant","block_background","stimulus","wall_pref","location","location_percent","block_number","block_type","stimulus_displayed","position_displayed","stim_type_selected","responses","question_order","stimulus_left","stimulus_right"
"[{""page_index"":0,""viewing_time"":5764.999999999418}]","5766.00000000326","instructions","0","5767","0.0-0.0","SS1613168394880","","","","","","","","","","","","","","","","","","","",""
"[{""page_index"":0,""viewing_time"":4764.000000010128},{""page_index"":1,""viewing_time"":19913.999999989755},{""page_index"":0,""viewing_time"":446.0000000108266},{""page_index"":1,""viewing_time"":8335.999999995693}]","33460.0000000064","instructions","1","41229","0.0-1.0","SS1613168394880","instructions","","","","","","","","","","","","","","","","","","",""
"","7500","sequential-stimulus-presentation","2","49536","0.0-2.0","SS1613168394880","","","40","800","8300","null","null","","","","","","","","","","","","",""
"","6066.99999999546","sequential-stimulus-presentation","3","56407","0.0-3.0","SS1613168394880","","","40","800","6866.99999999546","null","null","","","","","","","","","","","","",""
"[{""page_index"":0,""viewing_time"":2964.9999999965075}]","2966.0000000003492","instructions","4","59374","0.0-4.0","SS1613168394880","instructions","","","","","","","","","","","","","","","","","","",""
"","21869.999999995343","html-keyboard-response","5","81247","0.0-5.0","SS1613168394880","instructions","","97","","","","","<video width ='960' height = '540' autoplay muted><source src='images/stimuli/wall_pref.mp4' type='video/mp4'></video>","1","left","25%","","","","","","","","",""
"","3658.9999999996508","sequential-stimulus-presentation","6","85711","0.0-6.0","SS1613168394880","pref_reveal","","40","800","4458.999999999651","null","null","","","","","","","","","","","","",""
"[{""page_index"":0,""viewing_time"":2622.000000003027},{""page_index"":1,""viewing_time"":1805.9999999968568},{""page_index"":2,""viewing_time"":4360.000000000582},{""page_index"":3,""viewing_time"":1961.9999999995343}]","10751.000000003842","instructions","7","96463","0.0-7.0","SS1613168394880","instructions","","","","","","","","","","","","","","","","","","",""
"","null","html-keyboard-response","8","97709","0.0-8.0-0.0","SS1613168394880","","","null","","","","","<p><img src= images/blank.png width =""200"" height = ""200"" style = ""float:right""></p><p><img src=images/blank.png width =""800"" height = ""200""></p>","","","","","","","","","","","",""
"","2720.999999990454","sequential-stimulus-presentation","9","101247","0.0-8.0-1.0","SS1613168394880","trial","","40","800","3520.999999990454","images/stimuli/spore_stims/simple_18_B_c.gif","images/stimuli/spore_stims/simple_14_B_a.gif","","","","","0","simple_dissimilar","images/stimuli/spore_stims/simple_14_B_a.gif","right","","","","",""
"","null","html-keyboard-response","10","102267","0.0-8.0-0.1","SS1613168394880","","","null","","","","","<p><img src= images/blank.png width =""200"" height = ""200"" style = ""float:right""></p><p><img src=images/blank.png width =""800"" height = ""200""></p>","","","","","","","","","","","",""
"","2139.000000010128","sequential-stimulus-presentation","11","105223","0.0-8.0-1.1","SS1613168394880","trial","","40","800","2939.000000010128","images/stimuli/spore_stims/simple_18_B_c.gif","images/stimuli/spore_stims/simple_14_B_a.gif","","","","","0","simple_dissimilar","images/stimuli/spore_stims/simple_14_B_a.gif","right","","","","",""
"","null","html-keyboard-response","12","106226","0.0-8.0-0.2","SS1613168394880","","","null","","","","","<p><img src= images/blank.png width =""200"" height = ""200"" style = ""float:right""></p><p><img src=images/blank.png width =""800"" height = ""200""></p>","","","","","","","","","","","",""
"","854.9999999959255","sequential-stimulus-presentation","13","107903","0.0-8.0-1.2","SS1613168394880","trial","","40","800","1654.9999999959255","images/stimuli/spore_stims/simple_18_B_c.gif","images/stimuli/spore_stims/simple_14_B_a.gif","","","","","0","simple_dissimilar","images/stimuli/spore_stims/simple_14_B_a.gif","right","","","","",""
"","null","html-keyboard-response","14","108753","0.0-8.0-0.3","SS1613168394880","","","null","","","","","<p><img src= images/blank.png width =""200"" height = ""200"" style = ""float:right""></p><p><img src=images/blank.png width =""800"" height = ""200""></p>","","","","","","","","","","","",""
"","1199.0000000077998","sequential-stimulus-presentation","15","110758","0.0-8.0-1.3","SS1613168394880","trial","","40","800","1999.0000000077998","images/stimuli/spore_stims/simple_18_B_c.gif","images/stimuli/spore_stims/simple_14_B_a.gif","","","","","0","simple_dissimilar","images/stimuli/spore_stims/simple_14_B_a.gif","right","","","","",""
"","null","html-keyboard-response","16","111746","0.0-8.0-0.4","SS1613168394880","","","null","","","","","<p><img src= images/blank.png width =""200"" height = ""200"" style = ""float:right""></p><p><img src=images/blank.png width =""800"" height = ""200""></p>","","","","","","","","","","","",""
"","504.0000000008149","sequential-stimulus-presentation","17","113056","0.0-8.0-1.4","SS1613168394880","trial","","40","800","1304.000000000815","images/stimuli/spore_stims/simple_18_B_c.gif","images/stimuli/spore_stims/simple_14_B_a.gif","","","","","0","simple_dissimilar","images/stimuli/spore_stims/simple_14_B_a.gif","right","","","","",""
"","null","html-keyboard-response","18","114289","0.0-8.0-0.5","SS1613168394880","","","null","","","","","<p><img src= images/blank.png width =""200"" height = ""200"" style = ""float:right""></p><p><img src=images/blank.png width =""800"" height = ""200""></p>","","","","","","","","","","","",""
"","2290.999999997439","sequential-stimulus-presentation","19","117383","0.0-8.0-1.5","SS1613168394880","trial","","40","800","3090.999999997439","images/stimuli/spore_stims/simple_18_B_c.gif","images/stimuli/spore_stims/simple_14_B_a.gif","","","","","0","simple_dissimilar","images/stimuli/spore_stims/simple_18_B_c.gif","left","","","","",""
"","null","html-keyboard-response","20","118447","0.0-8.0-0.6","SS1613168394880","","","null","","","","","<p><img src= images/blank.png width =""200"" height = ""200"" style = ""float:right""></p><p><img src=images/blank.png width =""800"" height = ""200""></p>","","","","","","","","","","","",""
"","1644.0000000002328","sequential-stimulus-presentation","21","120896","0.0-8.0-1.6","SS1613168394880","trial","","40","800","2444.000000000233","images/stimuli/spore_stims/simple_18_B_c.gif","images/stimuli/spore_stims/simple_14_B_a.gif","","","","","0","simple_dissimilar","images/stimuli/spore_stims/simple_14_B_a.gif","right","","","","",""
"","null","html-keyboard-response","22","122029","0.0-8.0-0.7","SS1613168394880","","","null","","","","","<p><img src= images/blank.png width =""200"" height = ""200"" style = ""float:right""></p><p><img src=images/blank.png width =""800"" height = ""200""></p>","","","","","","","","","","","",""
"","765.0000000139698","sequential-stimulus-presentation","23","123599","0.0-8.0-1.7","SS1613168394880","trial","","40","800","1565.0000000139698","images/stimuli/spore_stims/simple_18_B_c.gif","images/stimuli/spore_stims/simple_14_B_a.gif","","","","","0","simple_dissimilar","images/stimuli/spore_stims/simple_14_B_a.gif","right","","","","",""
"","4.000000000814907","html-keyboard-response","24","123607","0.0-9.0","SS1613168394880","pref_question","","99","","","","","<video width ='960' height = '540' style='padding-top:8%' autoplay muted><source src='images/stimuli/wall_pref.mp4' type='video/mp4'></video>","3","right","66%","0","","","","","","","",""
"","1101.9999999989523","sequential-stimulus-presentation","25","125519","0.0-10.0","SS1613168394880","pref_reveal","","40","800","1901.9999999989523","null","null","","","","","0","","","","background","","","",""
"","null","html-keyboard-response","26","126611","0.0-11.0-0.0","SS1613168394880","","","null","","","","","<p><img src= images/blank.png width =""200"" height = ""200"" style = ""float:right""></p><p><img src=images/blank.png width =""800"" height = ""200""></p>","","","","","","","","","","","",""
"","1463.000000003376","sequential-stimulus-presentation","27","128879","0.0-11.0-1.0","SS1613168394880","trial","","40","800","2263.000000003376","images/stimuli/spore_stims/complex_07_B_d.gif","images/stimuli/spore_stims/complex_07_A_d.gif","","","","","1","complex_similar","images/stimuli/spore_stims/complex_07_A_d.gif","left","","","","",""
"","null","html-keyboard-response","28","129904","0.0-11.0-0.1","SS1613168394880","","","null","","","","","<p><img src= images/blank.png width =""200"" height = ""200"" style = ""float:right""></p><p><img src=images/blank.png width =""800"" height = ""200""></p>","","","","","","","","","","","",""
"","778.0000000057044","sequential-stimulus-presentation","29","131487","0.0-11.0-1.1","SS1613168394880","trial","","40","800","1578.0000000057044","images/stimuli/spore_stims/complex_07_B_d.gif","images/stimuli/spore_stims/complex_07_A_d.gif","","","","","1","complex_similar","images/stimuli/spore_stims/complex_07_A_d.gif","left","","","","",""
"","null","html-keyboard-response","30","132764","0.0-11.0-0.2","SS1613168394880","","","null","","","","","<p><img src= images/blank.png width =""200"" height = ""200"" style = ""float:right""></p><p><img src=images/blank.png width =""800"" height = ""200""></p>","","","","","","","","","","","",""
"","1365.0000000052387","sequential-stimulus-presentation","31","134944","0.0-11.0-1.2","SS1613168394880","trial","","40","800","2165.0000000052387","images/stimuli/spore_stims/complex_07_B_d.gif","images/stimuli/spore_stims/complex_07_A_d.gif","","","","","1","complex_similar","images/stimuli/spore_stims/complex_07_B_d.gif","right","","","","",""
"","null","html-keyboard-response","32","136034","0.0-11.0-0.3","SS1613168394880","","","null","","","","","<p><img src= images/blank.png width =""200"" height = ""200"" style = ""float:right""></p><p><img src=images/blank.png width =""800"" height = ""200""></p>","","","","","","","","","","","",""
"","1105.0000000104774","sequential-stimulus-presentation","33","137944","0.0-11.0-1.3","SS1613168394880","trial","","40","800","1905.0000000104774","images/stimuli/spore_stims/complex_07_B_d.gif","images/stimuli/spore_stims/complex_07_A_d.gif","","","","","1","complex_similar","images/stimuli/spore_stims/complex_07_A_d.gif","left","","","","",""
"","null","html-keyboard-response","34","139114","0.0-11.0-0.4","SS1613168394880","","","null","","","","","<p><img src= images/blank.png width =""200"" height = ""200"" style = ""float:right""></p><p><img src=images/blank.png width =""800"" height = ""200""></p>","","","","","","","","","","","",""
"","2536.000000007334","sequential-stimulus-presentation","35","142456","0.0-11.0-1.4","SS1613168394880","trial","","40","800","3336.000000007334","images/stimuli/spore_stims/complex_07_B_d.gif","images/stimuli/spore_stims/complex_07_A_d.gif","","","","","1","complex_similar","images/stimuli/spore_stims/complex_07_A_d.gif","left","","","","",""
"","null","html-keyboard-response","36","143315","0.0-11.0-0.5","SS1613168394880","","","null","","","","","<p><img src= images/blank.png width =""200"" height = ""200"" style = ""float:right""></p><p><img src=images/blank.png width =""800"" height = ""200""></p>","","","","","","","","","","","",""
"","5240.000000005239","sequential-stimulus-presentation","37","149360","0.0-11.0-1.5","SS1613168394880","trial","","40","800","6040.000000005239","images/stimuli/spore_stims/complex_07_B_d.gif","images/stimuli/spore_stims/complex_07_A_d.gif","","","","","1","complex_similar","images/stimuli/spore_stims/complex_07_A_d.gif","left","","","","",""
"","null","html-keyboard-response","38","150519","0.0-11.0-0.6","SS1613168394880","","","null","","","","","<p><img src= images/blank.png width =""200"" height = ""200"" style = ""float:right""></p><p><img src=images/blank.png width =""800"" height = ""200""></p>","","","","","","","","","","","",""
"","236.00000000442378","sequential-stimulus-presentation","39","151560","0.0-11.0-1.6","SS1613168394880","trial","","40","800","1036.0000000044238","images/stimuli/spore_stims/complex_07_B_d.gif","images/stimuli/spore_stims/complex_07_A_d.gif","","","","","1","complex_similar","images/stimuli/spore_stims/complex_07_A_d.gif","left","","","","",""
"","null","html-keyboard-response","40","152753","0.0-11.0-0.7","SS1613168394880","","","null","","","","","<p><img src= images/blank.png width =""200"" height = ""200"" style = ""float:right""></p><p><img src=images/blank.png width =""800"" height = ""200""></p>","","","","","","","","","","","",""
"","153.99999999499414","sequential-stimulus-presentation","41","153711","0.0-11.0-1.7","SS1613168394880","trial","","40","800","953.9999999949941","images/stimuli/spore_stims/complex_07_B_d.gif","images/stimuli/spore_stims/complex_07_A_d.gif","","","","","1","complex_similar","images/stimuli/spore_stims/complex_07_A_d.gif","left","","","","",""
"","14580.999999991036","html-keyboard-response","42","168297","0.0-12.0","SS1613168394880","pref_question","","50","","","","","<video width ='960' height = '540' style='padding-top:8%' autoplay muted><source src='images/stimuli/wall_pref.mp4' type='video/mp4'></video>","2","middle","45%","1","","","","","","","",""
"","4398.000000001048","sequential-stimulus-presentation","43","173511","0.0-13.0","SS1613168394880","pref_reveal","","40","800","5198.000000001048","null","null","","","","","1","","","","novel","","","",""
"","null","html-keyboard-response","44","174369","0.0-14.0-0.0","SS1613168394880","","","null","","","","","<p><img src= images/blank.png width =""200"" height = ""200"" style = ""float:right""></p><p><img src=images/blank.png width =""800"" height = ""200""></p>","","","","","","","","","","","",""
"","1441.9999999954598","sequential-stimulus-presentation","45","176615","0.0-14.0-1.0","SS1613168394880","trial","","40","800","2241.99999999546","images/stimuli/spore_stims/simple_10_A_b.gif","images/stimuli/spore_stims/simple_13_B_c.gif","","","","","2","simple_dissimilar","images/stimuli/spore_stims/simple_13_B_c.gif","right","","","","",""
"","null","html-keyboard-response","46","177475","0.0-14.0-0.1","SS1613168394880","","","null","","","","","<p><img src= images/blank.png width =""200"" height = ""200"" style = ""float:right""></p><p><img src=images/blank.png width =""800"" height = ""200""></p>","","","","","","","","","","","",""
"","404.00000000954606","sequential-stimulus-presentation","47","178704","0.0-14.0-1.1","SS1613168394880","trial","","40","800","1204.000000009546","images/stimuli/spore_stims/simple_10_A_b.gif","images/stimuli/spore_stims/simple_13_B_c.gif","","","","","2","simple_dissimilar","images/stimuli/spore_stims/simple_13_B_c.gif","right","","","","",""
"","null","html-keyboard-response","48","179646","0.0-14.0-0.2","SS1613168394880","","","null","","","","","<p><img src= images/blank.png width =""200"" height = ""200"" style = ""float:right""></p><p><img src=images/blank.png width =""800"" height = ""200""></p>","","","","","","","","","","","",""
"","32.00000000651926","sequential-stimulus-presentation","49","180487","0.0-14.0-1.2","SS1613168394880","trial","","40","800","832.0000000065193","images/stimuli/spore_stims/simple_10_A_b.gif","images/stimuli/spore_stims/simple_13_B_c.gif","","","","","2","simple_dissimilar","images/stimuli/spore_stims/simple_13_B_c.gif","right","","","","",""
"","null","html-keyboard-response","50","181685","0.0-14.0-0.3","SS1613168394880","","","null","","","","","<p><img src= images/blank.png width =""200"" height = ""200"" style = ""float:right""></p><p><img src=images/blank.png width =""800"" height = ""200""></p>","","","","","","","","","","","",""
"","1057.9999999899883","sequential-stimulus-presentation","51","183583","0.0-14.0-1.3","SS1613168394880","trial","","40","800","1857.9999999899883","images/stimuli/spore_stims/simple_10_A_b.gif","images/stimuli/spore_stims/simple_13_B_c.gif","","","","","2","simple_dissimilar","images/stimuli/spore_stims/simple_13_B_c.gif","right","","","","",""
"","null","html-keyboard-response","52","184745","0.0-14.0-0.4","SS1613168394880","","","null","","","","","<p><img src= images/blank.png width =""200"" height = ""200"" style = ""float:right""></p><p><img src=images/blank.png width =""800"" height = ""200""></p>","","","","","","","","","","","",""
"","465.00000001105946","sequential-stimulus-presentation","53","186015","0.0-14.0-1.4","SS1613168394880","trial","","40","800","1265.0000000110595","images/stimuli/spore_stims/simple_10_A_b.gif","images/stimuli/spore_stims/simple_13_B_c.gif","","","","","2","simple_dissimilar","images/stimuli/spore_stims/simple_10_A_b.gif","left","","","","",""
"","null","html-keyboard-response","54","187066","0.0-14.0-0.5","SS1613168394880","","","null","","","","","<p><img src= images/blank.png width =""200"" height = ""200"" style = ""float:right""></p><p><img src=images/blank.png width =""800"" height = ""200""></p>","","","","","","","","","","","",""
"","184.0000000083819","sequential-stimulus-presentation","55","188055","0.0-14.0-1.5","SS1613168394880","trial","","40","800","984.0000000083819","images/stimuli/spore_stims/simple_10_A_b.gif","images/stimuli/spore_stims/simple_13_B_c.gif","","","","","2","simple_dissimilar","images/stimuli/spore_stims/simple_13_B_c.gif","right","","","","",""
"","null","html-keyboard-response","56","188922","0.0-14.0-0.6","SS1613168394880","","","null","","","","","<p><img src= images/blank.png width =""200"" height = ""200"" style = ""float:right""></p><p><img src=images/blank.png width =""800"" height = ""200""></p>","","","","","","","","","","","",""
"","328.9999999979045","sequential-stimulus-presentation","57","190055","0.0-14.0-1.6","SS1613168394880","trial","","40","800","1128.9999999979045","images/stimuli/spore_stims/simple_10_A_b.gif","images/stimuli/spore_stims/simple_13_B_c.gif","","","","","2","simple_dissimilar","images/stimuli/spore_stims/simple_13_B_c.gif","right","","","","",""
"","null","html-keyboard-response","58","191284","0.0-14.0-0.7","SS1613168394880","","","null","","","","","<p><img src= images/blank.png width =""200"" height = ""200"" style = ""float:right""></p><p><img src=images/blank.png width =""800"" height = ""200""></p>","","","","","","","","","","","",""
"","51.00000000675209","sequential-stimulus-presentation","59","192140","0.0-14.0-1.7","SS1613168394880","trial","","40","800","851.0000000067521","images/stimuli/spore_stims/simple_10_A_b.gif","images/stimuli/spore_stims/simple_13_B_c.gif","","","","","2","simple_dissimilar","images/stimuli/spore_stims/simple_13_B_c.gif","right","","","","",""
"","8895.999999993364","html-keyboard-response","60","201039","0.0-15.0","SS1613168394880","pref_question","","98","","","","","<video width ='960' height = '540' style='padding-top:8%' autoplay muted><source src='images/stimuli/wall_pref.mp4' type='video/mp4'></video>","2","middle","45%","2","","","","","","","",""
"","9096.999999994296","sequential-stimulus-presentation","61","210944","0.0-16.0","SS1613168394880","pref_reveal","","40","800","9896.999999994296","null","null","","","","","2","","","","novel","","","",""
"","null","html-keyboard-response","62","211953","0.0-17.0-0.0","SS1613168394880","","","null","","","","","<p><img src= images/blank.png width =""200"" height = ""200"" style = ""float:right""></p><p><img src=images/blank.png width =""800"" height = ""200""></p>","","","","","","","","","","","",""
"","369.0000000060536","sequential-stimulus-presentation","63","213127","0.0-17.0-1.0","SS1613168394880","trial","","40","800","1169.0000000060536","images/stimuli/spore_stims/simple_14_A_b.gif","images/stimuli/spore_stims/simple_04_A_b.gif","","","","","3","simple_dissimilar","images/stimuli/spore_stims/simple_04_A_b.gif","middle","","","","",""
"","null","html-keyboard-response","64","214277","0.0-17.0-0.1","SS1613168394880","","","null","","","","","<p><img src= images/blank.png width =""200"" height = ""200"" style = ""float:right""></p><p><img src=images/blank.png width =""800"" height = ""200""></p>","","","","","","","","","","","",""
"","168.00000000512227","sequential-stimulus-presentation","65","215273","0.0-17.0-1.1","SS1613168394880","trial","","40","800","968.0000000051223","images/stimuli/spore_stims/simple_14_A_b.gif","images/stimuli/spore_stims/simple_04_A_b.gif","","","","","3","simple_dissimilar","images/stimuli/spore_stims/simple_04_A_b.gif","middle","","","","",""
"","null","html-keyboard-response","66","216191","0.0-17.0-0.2","SS1613168394880","","","null","","","","","<p><img src= images/blank.png width =""200"" height = ""200"" style = ""float:right""></p><p><img src=images/blank.png width =""800"" height = ""200""></p>","","","","","","","","","","","",""
"","86.00000001024455","sequential-stimulus-presentation","67","217083","0.0-17.0-1.2","SS1613168394880","trial","","40","800","886.0000000102445","images/stimuli/spore_stims/simple_14_A_b.gif","images/stimuli/spore_stims/simple_04_A_b.gif","","","","","3","simple_dissimilar","images/stimuli/spore_stims/simple_04_A_b.gif","middle","","","","",""
"","null","html-keyboard-response","68","218149","0.0-17.0-0.3","SS1613168394880","","","null","","","","","<p><img src= images/blank.png width =""200"" height = ""200"" style = ""float:right""></p><p><img src=images/blank.png width =""800"" height = ""200""></p>","","","","","","","","","","","",""
"","938.9999999984866","sequential-stimulus-presentation","69","219896","0.0-17.0-1.3","SS1613168394880","trial","","40","800","1738.9999999984866","images/stimuli/spore_stims/simple_14_A_b.gif","images/stimuli/spore_stims/simple_04_A_b.gif","","","","","3","simple_dissimilar","images/stimuli/spore_stims/simple_14_A_b.gif","left","","","","",""
"","null","html-keyboard-response","70","221181","0.0-17.0-0.4","SS1613168394880","","","null","","","","","<p><img src= images/blank.png width =""200"" height = ""200"" style = ""float:right""></p><p><img src=images/blank.png width =""800"" height = ""200""></p>","","","","","","","","","","","",""
"","349.00000000197906","sequential-stimulus-presentation","71","222339","0.0-17.0-1.4","SS1613168394880","trial","","40","800","1149.000000001979","images/stimuli/spore_stims/simple_14_A_b.gif","images/stimuli/spore_stims/simple_04_A_b.gif","","","","","3","simple_dissimilar","images/stimuli/spore_stims/simple_04_A_b.gif","middle","","","","",""
"","null","html-keyboard-response","72","223167","0.0-17.0-0.5","SS1613168394880","","","null","","","","","<p><img src= images/blank.png width =""200"" height = ""200"" style = ""float:right""></p><p><img src=images/blank.png width =""800"" height = ""200""></p>","","","","","","","","","","","",""
"","167.00000000128057","sequential-stimulus-presentation","73","224138","0.0-17.0-1.5","SS1613168394880","trial","","40","800","967.0000000012806","images/stimuli/spore_stims/simple_14_A_b.gif","images/stimuli/spore_stims/simple_04_A_b.gif","","","","","3","simple_dissimilar","images/stimuli/spore_stims/simple_04_A_b.gif","middle","","","","",""
"","null","html-keyboard-response","74","225326","0.0-17.0-0.6","SS1613168394880","","","null","","","","","<p><img src= images/blank.png width =""200"" height = ""200"" style = ""float:right""></p><p><img src=images/blank.png width =""800"" height = ""200""></p>","","","","","","","","","","","",""
"","1243.000000002212","sequential-stimulus-presentation","75","227393","0.0-17.0-1.6","SS1613168394880","trial","","40","800","2043.000000002212","images/stimuli/spore_stims/simple_14_A_b.gif","images/stimuli/spore_stims/simple_04_A_b.gif","","","","","3","simple_dissimilar","images/stimuli/spore_stims/simple_04_A_b.gif","middle","","","","",""
"","null","html-keyboard-response","76","228576","0.0-17.0-0.7","SS1613168394880","","","null","","","","","<p><img src= images/blank.png width =""200"" height = ""200"" style = ""float:right""></p><p><img src=images/blank.png width =""800"" height = ""200""></p>","","","","","","","","","","","",""
"","12.999999991734512","sequential-stimulus-presentation","77","229409","0.0-17.0-1.7","SS1613168394880","trial","","40","800","812.9999999917345","images/stimuli/spore_stims/simple_14_A_b.gif","images/stimuli/spore_stims/simple_04_A_b.gif","","","","","3","simple_dissimilar","images/stimuli/spore_stims/simple_04_A_b.gif","middle","","","","",""
"","2206.9999999948777","html-keyboard-response","78","231623","0.0-18.0","SS1613168394880","pref_question","","99","","","","","<video width ='960' height = '540' style='padding-top:8%' autoplay muted><source src='images/stimuli/wall_pref.mp4' type='video/mp4'></video>","3","right","66%","3","","","","","","","",""
"","3.000000011525117","sequential-stimulus-presentation","79","232432","0.0-19.0","SS1613168394880","pref_reveal","","40","800","803.0000000115251","null","null","","","","","3","","","","novel","","","",""
"","null","html-keyboard-response","80","233656","0.0-20.0-0.0","SS1613168394880","","","null","","","","","<p><img src= images/blank.png width =""200"" height = ""200"" style = ""float:right""></p><p><img src=images/blank.png width =""800"" height = ""200""></p>","","","","","","","","","","","",""
"","823.9999999932479","sequential-stimulus-presentation","81","235296","0.0-20.0-1.0","SS1613168394880","trial","","40","800","1623.999999993248","images/stimuli/spore_stims/simple_12_B_d.gif","images/stimuli/spore_stims/simple_12_A_d.gif","","","","","4","simple_similar","images/stimuli/spore_stims/simple_12_A_d.gif","left","","","","",""
"","null","html-keyboard-response","82","236595","0.0-20.0-0.1","SS1613168394880","","","null","","","","","<p><img src= images/blank.png width =""200"" height = ""200"" style = ""float:right""></p><p><img src=images/blank.png width =""800"" height = ""200""></p>","","","","","","","","","","","",""
"","974.9999999912689","sequential-stimulus-presentation","83","238376","0.0-20.0-1.1","SS1613168394880","trial","","40","800","1774.9999999912689","images/stimuli/spore_stims/simple_12_B_d.gif","images/stimuli/spore_stims/simple_12_A_d.gif","","","","","4","simple_similar","images/stimuli/spore_stims/simple_12_A_d.gif","left","","","","",""
"","null","html-keyboard-response","84","239622","0.0-20.0-0.2","SS1613168394880","","","null","","","","","<p><img src= images/blank.png width =""200"" height = ""200"" style = ""float:right""></p><p><img src=images/blank.png width =""800"" height = ""200""></p>","","","","","","","","","","","",""
"","866.0000000090804","sequential-stimulus-presentation","85","241295","0.0-20.0-1.2","SS1613168394880","trial","","40","800","1666.0000000090804","images/stimuli/spore_stims/simple_12_B_d.gif","images/stimuli/spore_stims/simple_12_A_d.gif","","","","","4","simple_similar","images/stimuli/spore_stims/simple_12_A_d.gif","left","","","","",""
"","null","html-keyboard-response","86","242337","0.0-20.0-0.3","SS1613168394880","","","null","","","","","<p><img src= images/blank.png width =""200"" height = ""200"" style = ""float:right""></p><p><img src=images/blank.png width =""800"" height = ""200""></p>","","","","","","","","","","","",""
"","947.9999999894062","sequential-stimulus-presentation","87","244097","0.0-20.0-1.3","SS1613168394880","trial","","40","800","1747.9999999894062","images/stimuli/spore_stims/simple_12_B_d.gif","images/stimuli/spore_stims/simple_12_A_d.gif","","","","","4","simple_similar","images/stimuli/spore_stims/simple_12_B_d.gif","right","","","","",""
"","null","html-keyboard-response","88","245199","0.0-20.0-0.4","SS1613168394880","","","null","","","","","<p><img src= images/blank.png width =""200"" height = ""200"" style = ""float:right""></p><p><img src=images/blank.png width =""800"" height = ""200""></p>","","","","","","","","","","","",""
"","780.9999999881256","sequential-stimulus-presentation","89","246785","0.0-20.0-1.4","SS1613168394880","trial","","40","800","1580.9999999881256","images/stimuli/spore_stims/simple_12_B_d.gif","images/stimuli/spore_stims/simple_12_A_d.gif","","","","","4","simple_similar","images/stimuli/spore_stims/simple_12_A_d.gif","left","","","","",""
"","null","html-keyboard-response","90","247642","0.0-20.0-0.5","SS1613168394880","","","null","","","","","<p><img src= images/blank.png width =""200"" height = ""200"" style = ""float:right""></p><p><img src=images/blank.png width =""800"" height = ""200""></p>","","","","","","","","","","","",""
"","6.0000000084983185","sequential-stimulus-presentation","91","248454","0.0-20.0-1.5","SS1613168394880","trial","","40","800","806.0000000084983","images/stimuli/spore_stims/simple_12_B_d.gif","images/stimuli/spore_stims/simple_12_A_d.gif","","","","","4","simple_similar","images/stimuli/spore_stims/simple_12_A_d.gif","left","","","","",""
"","null","html-keyboard-response","92","249414","0.0-20.0-0.6","SS1613168394880","","","null","","","","","<p><img src= images/blank.png width =""200"" height = ""200"" style = ""float:right""></p><p><img src=images/blank.png width =""800"" height = ""200""></p>","","","","","","","","","","","",""
"","1029.9999999988358","sequential-stimulus-presentation","93","251249","0.0-20.0-1.6","SS1613168394880","trial","","40","800","1829.9999999988358","images/stimuli/spore_stims/simple_12_B_d.gif","images/stimuli/spore_stims/simple_12_A_d.gif","","","","","4","simple_similar","images/stimuli/spore_stims/simple_12_A_d.gif","left","","","","",""
"","null","html-keyboard-response","94","252532","0.0-20.0-0.7","SS1613168394880","","","null","","","","","<p><img src= images/blank.png width =""200"" height = ""200"" style = ""float:right""></p><p><img src=images/blank.png width =""800"" height = ""200""></p>","","","","","","","","","","","",""
"","789.0000000043074","sequential-stimulus-presentation","95","254127","0.0-20.0-1.7","SS1613168394880","trial","","40","800","1589.0000000043074","images/stimuli/spore_stims/simple_12_B_d.gif","images/stimuli/spore_stims/simple_12_A_d.gif","","","","","4","simple_similar","images/stimuli/spore_stims/simple_12_A_d.gif","left","","","","",""
"","2794.9999999982538","html-keyboard-response","96","256928","0.0-21.0","SS1613168394880","pref_question","","98","","","","","<video width ='960' height = '540' style='padding-top:8%' autoplay muted><source src='images/stimuli/wall_pref.mp4' type='video/mp4'></video>","2","middle","45%","4","","","","","","","",""
"","29.999999998835847","sequential-stimulus-presentation","97","257764","0.0-22.0","SS1613168394880","pref_reveal","","40","800","829.9999999988358","null","null","","","","","4","","","","novel","","","",""
"","null","html-keyboard-response","98","258705","0.0-23.0-0.0","SS1613168394880","","","null","","","","","<p><img src= images/blank.png width =""200"" height = ""200"" style = ""float:right""></p><p><img src=images/blank.png width =""800"" height = ""200""></p>","","","","","","","","","","","",""
"","218.99999999732245","sequential-stimulus-presentation","99","259737","0.0-23.0-1.0","SS1613168394880","trial","","40","800","1018.9999999973224","images/stimuli/spore_stims/simple_03_B_a.gif","images/stimuli/spore_stims/simple_03_A_a.gif","","","","","5","simple_similar","images/stimuli/spore_stims/simple_03_A_a.gif","right","","","","",""
"","null","html-keyboard-response","100","260996","0.0-23.0-0.1","SS1613168394880","","","null","","","","","<p><img src= images/blank.png width =""200"" height = ""200"" style = ""float:right""></p><p><img src=images/blank.png width =""800"" height = ""200""></p>","","","","","","","","","","","",""
"","8.000000001629815","sequential-stimulus-presentation","101","261808","0.0-23.0-1.1","SS1613168394880","trial","","40","800","808.0000000016298","images/stimuli/spore_stims/simple_03_B_a.gif","images/stimuli/spore_stims/simple_03_A_a.gif","","","","","5","simple_similar","images/stimuli/spore_stims/simple_03_A_a.gif","right","","","","",""
"","null","html-keyboard-response","102","263051","0.0-23.0-0.2","SS1613168394880","","","null","","","","","<p><img src= images/blank.png width =""200"" height = ""200"" style = ""float:right""></p><p><img src=images/blank.png width =""800"" height = ""200""></p>","","","","","","","","","","","",""
"","182.99999998998828","sequential-stimulus-presentation","103","264081","0.0-23.0-1.2","SS1613168394880","trial","","40","800","982.9999999899883","images/stimuli/spore_stims/simple_03_B_a.gif","images/stimuli/spore_stims/simple_03_A_a.gif","","","","","5","simple_similar","images/stimuli/spore_stims/simple_03_A_a.gif","right","","","","",""
"","null","html-keyboard-response","104","265305","0.0-23.0-0.3","SS1613168394880","","","null","","","","","<p><img src= images/blank.png width =""200"" height = ""200"" style = ""float:right""></p><p><img src=images/blank.png width =""800"" height = ""200""></p>","","","","","","","","","","","",""
"","865.0000000052387","sequential-stimulus-presentation","105","266976","0.0-23.0-1.3","SS1613168394880","trial","","40","800","1665.0000000052387","images/stimuli/spore_stims/simple_03_B_a.gif","images/stimuli/spore_stims/simple_03_A_a.gif","","","","","5","simple_similar","images/stimuli/spore_stims/simple_03_A_a.gif","right","","","","",""
"","null","html-keyboard-response","106","268133","0.0-23.0-0.4","SS1613168394880","","","null","","","","","<p><img src= images/blank.png width =""200"" height = ""200"" style = ""float:right""></p><p><img src=images/blank.png width =""800"" height = ""200""></p>","","","","","","","","","","","",""
"","764.9999999994179","sequential-stimulus-presentation","107","269720","0.0-23.0-1.4","SS1613168394880","trial","","40","800","1564.999999999418","images/stimuli/spore_stims/simple_03_B_a.gif","images/stimuli/spore_stims/simple_03_A_a.gif","","","","","5","simple_similar","images/stimuli/spore_stims/simple_03_A_a.gif","right","","","","",""
"","null","html-keyboard-response","108","270628","0.0-23.0-0.5","SS1613168394880","","","null","","","","","<p><img src= images/blank.png width =""200"" height = ""200"" style = ""float:right""></p><p><img src=images/blank.png width =""800"" height = ""200""></p>","","","","","","","","","","","",""
"","88.00000000337604","sequential-stimulus-presentation","109","271522","0.0-23.0-1.5","SS1613168394880","trial","","40","800","888.000000003376","images/stimuli/spore_stims/simple_03_B_a.gif","images/stimuli/spore_stims/simple_03_A_a.gif","","","","","5","simple_similar","images/stimuli/spore_stims/simple_03_A_a.gif","right","","","","",""
"","null","html-keyboard-response","110","272620","0.0-23.0-0.6","SS1613168394880","","","null","","","","","<p><img src= images/blank.png width =""200"" height = ""200"" style = ""float:right""></p><p><img src=images/blank.png width =""800"" height = ""200""></p>","","","","","","","","","","","",""
"","804.0000000037253","sequential-stimulus-presentation","111","274232","0.0-23.0-1.6","SS1613168394880","trial","","40","800","1604.0000000037253","images/stimuli/spore_stims/simple_03_B_a.gif","images/stimuli/spore_stims/simple_03_A_a.gif","","","","","5","simple_similar","images/stimuli/spore_stims/simple_03_A_a.gif","right","","","","",""
"","null","html-keyboard-response","112","275232","0.0-23.0-0.7","SS1613168394880","","","null","","","","","<p><img src= images/blank.png width =""200"" height = ""200"" style = ""float:right""></p><p><img src=images/blank.png width =""800"" height = ""200""></p>","","","","","","","","","","","",""
"","57.00000000069849","sequential-stimulus-presentation","113","276113","0.0-23.0-1.7","SS1613168394880","trial","","40","800","857.0000000006985","images/stimuli/spore_stims/simple_03_B_a.gif","images/stimuli/spore_stims/simple_03_A_a.gif","","","","","5","simple_similar","images/stimuli/spore_stims/simple_03_B_a.gif","middle","","","","",""
"","2855.999999999767","html-keyboard-response","114","278976","0.0-24.0","SS1613168394880","pref_question","","98","","","","","<video width ='960' height = '540' style='padding-top:8%' autoplay muted><source src='images/stimuli/wall_pref.mp4' type='video/mp4'></video>","2","middle","45%","5","","","","","","","",""
"","202.00000000477303","sequential-stimulus-presentation","115","279991","0.0-25.0","SS1613168394880","pref_reveal","","40","800","1002.000000004773","null","null","","","","","5","","","","deviant","","","",""
"","null","html-keyboard-response","116","280931","0.0-26.0-0.0","SS1613168394880","","","null","","","","","<p><img src= images/blank.png width =""200"" height = ""200"" style = ""float:right""></p><p><img src=images/blank.png width =""800"" height = ""200""></p>","","","","","","","","","","","",""
"","124.00000001071021","sequential-stimulus-presentation","117","281865","0.0-26.0-1.0","SS1613168394880","trial","","40","800","924.0000000107102","images/stimuli/spore_stims/complex_10_A_d.gif","images/stimuli/spore_stims/complex_10_B_d.gif","","","","","6","complex_similar","images/stimuli/spore_stims/complex_10_B_d.gif","middle","","","","",""
"","null","html-keyboard-response","118","282970","0.0-26.0-0.1","SS1613168394880","","","null","","","","","<p><img src= images/blank.png width =""200"" height = ""200"" style = ""float:right""></p><p><img src=images/blank.png width =""800"" height = ""200""></p>","","","","","","","","","","","",""
"","84.99999999185093","sequential-stimulus-presentation","119","283861","0.0-26.0-1.1","SS1613168394880","trial","","40","800","884.9999999918509","images/stimuli/spore_stims/complex_10_A_d.gif","images/stimuli/spore_stims/complex_10_B_d.gif","","","","","6","complex_similar","images/stimuli/spore_stims/complex_10_B_d.gif","middle","","","","",""
"","null","html-keyboard-response","120","284897","0.0-26.0-0.2","SS1613168394880","","","null","","","","","<p><img src= images/blank.png width =""200"" height = ""200"" style = ""float:right""></p><p><img src=images/blank.png width =""800"" height = ""200""></p>","","","","","","","","","","","",""
"","201.00000000093132","sequential-stimulus-presentation","121","285918","0.0-26.0-1.2","SS1613168394880","trial","","40","800","1001.0000000009313","images/stimuli/spore_stims/complex_10_A_d.gif","images/stimuli/spore_stims/complex_10_B_d.gif","","","","","6","complex_similar","images/stimuli/spore_stims/complex_10_A_d.gif","right","","","","",""
"","null","html-keyboard-response","122","287209","0.0-26.0-0.3","SS1613168394880","","","null","","","","","<p><img src= images/blank.png width =""200"" height = ""200"" style = ""float:right""></p><p><img src=images/blank.png width =""800"" height = ""200""></p>","","","","","","","","","","","",""
"","964.0000000072177","sequential-stimulus-presentation","123","288979","0.0-26.0-1.3","SS1613168394880","trial","","40","800","1764.0000000072177","images/stimuli/spore_stims/complex_10_A_d.gif","images/stimuli/spore_stims/complex_10_B_d.gif","","","","","6","complex_similar","images/stimuli/spore_stims/complex_10_B_d.gif","middle","","","","",""
"","null","html-keyboard-response","124","289912","0.0-26.0-0.4","SS1613168394880","","","null","","","","","<p><img src= images/blank.png width =""200"" height = ""200"" style = ""float:right""></p><p><img src=images/blank.png width =""800"" height = ""200""></p>","","","","","","","","","","","",""
"","32.99999999580905","sequential-stimulus-presentation","125","290752","0.0-26.0-1.4","SS1613168394880","trial","","40","800","832.999999995809","images/stimuli/spore_stims/complex_10_A_d.gif","images/stimuli/spore_stims/complex_10_B_d.gif","","","","","6","complex_similar","images/stimuli/spore_stims/complex_10_B_d.gif","middle","","","","",""
"","null","html-keyboard-response","126","291874","0.0-26.0-0.5","SS1613168394880","","","null","","","","","<p><img src= images/blank.png width =""200"" height = ""200"" style = ""float:right""></p><p><img src=images/blank.png width =""800"" height = ""200""></p>","","","","","","","","","","","",""
"","1062.999999994645","sequential-stimulus-presentation","127","293743","0.0-26.0-1.5","SS1613168394880","trial","","40","800","1862.999999994645","images/stimuli/spore_stims/complex_10_A_d.gif","images/stimuli/spore_stims/complex_10_B_d.gif","","","","","6","complex_similar","images/stimuli/spore_stims/complex_10_B_d.gif","middle","","","","",""
"","null","html-keyboard-response","128","294629","0.0-26.0-0.6","SS1613168394880","","","null","","","","","<p><img src= images/blank.png width =""200"" height = ""200"" style = ""float:right""></p><p><img src=images/blank.png width =""800"" height = ""200""></p>","","","","","","","","","","","",""
"","10.999999998603016","sequential-stimulus-presentation","129","295467","0.0-26.0-1.6","SS1613168394880","trial","","40","800","810.999999998603","images/stimuli/spore_stims/complex_10_A_d.gif","images/stimuli/spore_stims/complex_10_B_d.gif","","","","","6","complex_similar","images/stimuli/spore_stims/complex_10_B_d.gif","middle","","","","",""
"","null","html-keyboard-response","130","296403","0.0-26.0-0.7","SS1613168394880","","","null","","","","","<p><img src= images/blank.png width =""200"" height = ""200"" style = ""float:right""></p><p><img src=images/blank.png width =""800"" height = ""200""></p>","","","","","","","","","","","",""
"","1278.9999999949941","sequential-stimulus-presentation","131","298490","0.0-26.0-1.7","SS1613168394880","trial","","40","800","2078.999999994994","images/stimuli/spore_stims/complex_10_A_d.gif","images/stimuli/spore_stims/complex_10_B_d.gif","","","","","6","complex_similar","images/stimuli/spore_stims/complex_10_B_d.gif","middle","","","","",""
"","2566.99999999546","html-keyboard-response","132","301065","0.0-27.0","SS1613168394880","pref_question","","98","","","","","<video width ='960' height = '540' style='padding-top:8%' autoplay muted><source src='images/stimuli/wall_pref.mp4' type='video/mp4'></video>","2","middle","45%","6","","","","","","","",""
"","461.99999999953434","sequential-stimulus-presentation","133","302337","0.0-28.0","SS1613168394880","pref_reveal","","40","800","1261.9999999995343","null","null","","","","","6","","","","background","","","",""
"","null","html-keyboard-response","134","303249","0.0-29.0-0.0","SS1613168394880","","","null","","","","","<p><img src= images/blank.png width =""200"" height = ""200"" style = ""float:right""></p><p><img src=images/blank.png width =""800"" height = ""200""></p>","","","","","","","","","","","",""
"","968.9999999973224","sequential-stimulus-presentation","135","305025","0.0-29.0-1.0","SS1613168394880","trial","","40","800","1768.9999999973224","images/stimuli/spore_stims/complex_11_A_b.gif","images/stimuli/spore_stims/complex_19_A_d.gif","","","","","7","complex_dissimilar","images/stimuli/spore_stims/complex_19_A_d.gif","right","","","","",""
"","null","html-keyboard-response","136","306060","0.0-29.0-0.1","SS1613168394880","","","null","","","","","<p><img src= images/blank.png width =""200"" height = ""200"" style = ""float:right""></p><p><img src=images/blank.png width =""800"" height = ""200""></p>","","","","","","","","","","","",""
"","1260.0000000093132","sequential-stimulus-presentation","137","308129","0.0-29.0-1.1","SS1613168394880","trial","","40","800","2060.000000009313","images/stimuli/spore_stims/complex_11_A_b.gif","images/stimuli/spore_stims/complex_19_A_d.gif","","","","","7","complex_dissimilar","images/stimuli/spore_stims/complex_19_A_d.gif","right","","","","",""
"","null","html-keyboard-response","138","309191","0.0-29.0-0.2","SS1613168394880","","","null","","","","","<p><img src= images/blank.png width =""200"" height = ""200"" style = ""float:right""></p><p><img src=images/blank.png width =""800"" height = ""200""></p>","","","","","","","","","","","",""
"","766.9999999925494","sequential-stimulus-presentation","139","310769","0.0-29.0-1.2","SS1613168394880","trial","","40","800","1566.9999999925494","images/stimuli/spore_stims/complex_11_A_b.gif","images/stimuli/spore_stims/complex_19_A_d.gif","","","","","7","complex_dissimilar","images/stimuli/spore_stims/complex_19_A_d.gif","right","","","","",""
"","null","html-keyboard-response","140","311591","0.0-29.0-0.3","SS1613168394880","","","null","","","","","<p><img src= images/blank.png width =""200"" height = ""200"" style = ""float:right""></p><p><img src=images/blank.png width =""800"" height = ""200""></p>","","","","","","","","","","","",""
"","1506.999999997788","sequential-stimulus-presentation","141","313905","0.0-29.0-1.3","SS1613168394880","trial","","40","800","2306.999999997788","images/stimuli/spore_stims/complex_11_A_b.gif","images/stimuli/spore_stims/complex_19_A_d.gif","","","","","7","complex_dissimilar","images/stimuli/spore_stims/complex_19_A_d.gif","right","","","","",""
"","null","html-keyboard-response","142","315176","0.0-29.0-0.4","SS1613168394880","","","null","","","","","<p><img src= images/blank.png width =""200"" height = ""200"" style = ""float:right""></p><p><img src=images/blank.png width =""800"" height = ""200""></p>","","","","","","","","","","","",""
"","258.0000000016298","sequential-stimulus-presentation","143","316241","0.0-29.0-1.4","SS1613168394880","trial","","40","800","1058.0000000016298","images/stimuli/spore_stims/complex_11_A_b.gif","images/stimuli/spore_stims/complex_19_A_d.gif","","","","","7","complex_dissimilar","images/stimuli/spore_stims/complex_19_A_d.gif","right","","","","",""
"","null","html-keyboard-response","144","317238","0.0-29.0-0.5","SS1613168394880","","","null","","","","","<p><img src= images/blank.png width =""200"" height = ""200"" style = ""float:right""></p><p><img src=images/blank.png width =""800"" height = ""200""></p>","","","","","","","","","","","",""
"","51.00000000675209","sequential-stimulus-presentation","145","318113","0.0-29.0-1.5","SS1613168394880","trial","","40","800","851.0000000067521","images/stimuli/spore_stims/complex_11_A_b.gif","images/stimuli/spore_stims/complex_19_A_d.gif","","","","","7","complex_dissimilar","images/stimuli/spore_stims/complex_11_A_b.gif","left","","","","",""
"","null","html-keyboard-response","146","319221","0.0-29.0-0.6","SS1613168394880","","","null","","","","","<p><img src= images/blank.png width =""200"" height = ""200"" style = ""float:right""></p><p><img src=images/blank.png width =""800"" height = ""200""></p>","","","","","","","","","","","",""
"","178.99999998917338","sequential-stimulus-presentation","147","320208","0.0-29.0-1.6","SS1613168394880","trial","","40","800","978.9999999891734","images/stimuli/spore_stims/complex_11_A_b.gif","images/stimuli/spore_stims/complex_19_A_d.gif","","","","","7","complex_dissimilar","images/stimuli/spore_stims/complex_19_A_d.gif","right","","","","",""
"","null","html-keyboard-response","148","321066","0.0-29.0-0.7","SS1613168394880","","","null","","","","","<p><img src= images/blank.png width =""200"" height = ""200"" style = ""float:right""></p><p><img src=images/blank.png width =""800"" height = ""200""></p>","","","","","","","","","","","",""
"","1747.9999999923166","sequential-stimulus-presentation","149","323625","0.0-29.0-1.7","SS1613168394880","trial","","40","800","2547.9999999923166","images/stimuli/spore_stims/complex_11_A_b.gif","images/stimuli/spore_stims/complex_19_A_d.gif","","","","","7","complex_dissimilar","images/stimuli/spore_stims/complex_19_A_d.gif","right","","","","",""
"","22315.00000000233","html-keyboard-response","150","345945","0.0-30.0","SS1613168394880","pref_question","","99","","","","","<video width ='960' height = '540' style='padding-top:8%' autoplay muted><source src='images/stimuli/wall_pref.mp4' type='video/mp4'></video>","3","right","66%","7","","","","","","","",""
"","1865.9999999945285","sequential-stimulus-presentation","151","348617","0.0-31.0","SS1613168394880","pref_reveal","","40","800","2665.9999999945285","null","null","","","","","7","","","","background","","","",""
"","null","html-keyboard-response","152","349714","0.0-32.0-0.0","SS1613168394880","","","null","","","","","<p><img src= images/blank.png width =""200"" height = ""200"" style = ""float:right""></p><p><img src=images/blank.png width =""800"" height = ""200""></p>","","","","","","","","","","","",""
"","319.999999992433","sequential-stimulus-presentation","153","350842","0.0-32.0-1.0","SS1613168394880","trial","","40","800","1119.999999992433","images/stimuli/spore_stims/complex_20_B_a.gif","images/stimuli/spore_stims/complex_13_B_a.gif","","","","","8","complex_dissimilar","images/stimuli/spore_stims/complex_13_B_a.gif","left","","","","",""
"","null","html-keyboard-response","154","351951","0.0-32.0-0.1","SS1613168394880","","","null","","","","","<p><img src= images/blank.png width =""200"" height = ""200"" style = ""float:right""></p><p><img src=images/blank.png width =""800"" height = ""200""></p>","","","","","","","","","","","",""
"","867.99999998766","sequential-stimulus-presentation","155","353641","0.0-32.0-1.1","SS1613168394880","trial","","40","800","1667.99999998766","images/stimuli/spore_stims/complex_20_B_a.gif","images/stimuli/spore_stims/complex_13_B_a.gif","","","","","8","complex_dissimilar","images/stimuli/spore_stims/complex_13_B_a.gif","left","","","","",""
"","null","html-keyboard-response","156","354741","0.0-32.0-0.2","SS1613168394880","","","null","","","","","<p><img src= images/blank.png width =""200"" height = ""200"" style = ""float:right""></p><p><img src=images/blank.png width =""800"" height = ""200""></p>","","","","","","","","","","","",""
"","126.0000000038417","sequential-stimulus-presentation","157","355678","0.0-32.0-1.2","SS1613168394880","trial","","40","800","926.0000000038417","images/stimuli/spore_stims/complex_20_B_a.gif","images/stimuli/spore_stims/complex_13_B_a.gif","","","","","8","complex_dissimilar","images/stimuli/spore_stims/complex_13_B_a.gif","left","","","","",""
"","null","html-keyboard-response","158","356762","0.0-32.0-0.3","SS1613168394880","","","null","","","","","<p><img src= images/blank.png width =""200"" height = ""200"" style = ""float:right""></p><p><img src=images/blank.png width =""800"" height = ""200""></p>","","","","","","","","","","","",""
"","305.9999999968568","sequential-stimulus-presentation","159","357874","0.0-32.0-1.3","SS1613168394880","trial","","40","800","1105.9999999968568","images/stimuli/spore_stims/complex_20_B_a.gif","images/stimuli/spore_stims/complex_13_B_a.gif","","","","","8","complex_dissimilar","images/stimuli/spore_stims/complex_13_B_a.gif","left","","","","",""
"","null","html-keyboard-response","160","359082","0.0-32.0-0.4","SS1613168394880","","","null","","","","","<p><img src= images/blank.png width =""200"" height = ""200"" style = ""float:right""></p><p><img src=images/blank.png width =""800"" height = ""200""></p>","","","","","","","","","","","",""
"","24588.999999992666","sequential-stimulus-presentation","161","384483","0.0-32.0-1.4","SS1613168394880","trial","","40","800","25388.999999992666","images/stimuli/spore_stims/complex_20_B_a.gif","images/stimuli/spore_stims/complex_13_B_a.gif","","","","","8","complex_dissimilar","images/stimuli/spore_stims/complex_13_B_a.gif","left","","","","",""
"","null","html-keyboard-response","162","385426","0.0-32.0-0.5","SS1613168394880","","","null","","","","","<p><img src= images/blank.png width =""200"" height = ""200"" style = ""float:right""></p><p><img src=images/blank.png width =""800"" height = ""200""></p>","","","","","","","","","","","",""
"","889.9999999994179","sequential-stimulus-presentation","163","387127","0.0-32.0-1.5","SS1613168394880","trial","","40","800","1689.999999999418","images/stimuli/spore_stims/complex_20_B_a.gif","images/stimuli/spore_stims/complex_13_B_a.gif","","","","","8","complex_dissimilar","images/stimuli/spore_stims/complex_20_B_a.gif","middle","","","","",""
"","null","html-keyboard-response","164","388277","0.0-32.0-0.6","SS1613168394880","","","null","","","","","<p><img src= images/blank.png width =""200"" height = ""200"" style = ""float:right""></p><p><img src=images/blank.png width =""800"" height = ""200""></p>","","","","","","","","","","","",""
"","214.00000000721775","sequential-stimulus-presentation","165","389298","0.0-32.0-1.6","SS1613168394880","trial","","40","800","1014.0000000072177","images/stimuli/spore_stims/complex_20_B_a.gif","images/stimuli/spore_stims/complex_13_B_a.gif","","","","","8","complex_dissimilar","images/stimuli/spore_stims/complex_13_B_a.gif","left","","","","",""
"","null","html-keyboard-response","166","390590","0.0-32.0-0.7","SS1613168394880","","","null","","","","","<p><img src= images/blank.png width =""200"" height = ""200"" style = ""float:right""></p><p><img src=images/blank.png width =""800"" height = ""200""></p>","","","","","","","","","","","",""
"","432.0000000006985","sequential-stimulus-presentation","167","391835","0.0-32.0-1.7","SS1613168394880","trial","","40","800","1232.0000000006985","images/stimuli/spore_stims/complex_20_B_a.gif","images/stimuli/spore_stims/complex_13_B_a.gif","","","","","8","complex_dissimilar","images/stimuli/spore_stims/complex_13_B_a.gif","left","","","","",""
"","14313.000000009197","html-keyboard-response","168","406156","0.0-33.0","SS1613168394880","pref_question","","97","","","","","<video width ='960' height = '540' style='padding-top:8%' autoplay muted><source src='images/stimuli/wall_pref.mp4' type='video/mp4'></video>","1","left","25%","8","","","","","","","",""
"","589.9999999965075","sequential-stimulus-presentation","169","407555","0.0-34.0","SS1613168394880","pref_reveal","","40","800","1389.9999999965075","null","null","","","","","8","","","","background","","","",""
"","null","html-keyboard-response","170","408441","0.0-35.0-0.0","SS1613168394880","","","null","","","","","<p><img src= images/blank.png width =""200"" height = ""200"" style = ""float:right""></p><p><img src=images/blank.png width =""800"" height = ""200""></p>","","","","","","","","","","","",""
"","671.9999999913853","sequential-stimulus-presentation","171","409923","0.0-35.0-1.0","SS1613168394880","trial","","40","800","1471.9999999913853","images/stimuli/spore_stims/simple_07_B_d.gif","images/stimuli/spore_stims/simple_07_A_d.gif","","","","","9","simple_similar","images/stimuli/spore_stims/simple_07_A_d.gif","right","","","","",""
"","null","html-keyboard-response","172","410881","0.0-35.0-0.1","SS1613168394880","","","null","","","","","<p><img src= images/blank.png width =""200"" height = ""200"" style = ""float:right""></p><p><img src=images/blank.png width =""800"" height = ""200""></p>","","","","","","","","","","","",""
"","160.00000000349246","sequential-stimulus-presentation","173","411851","0.0-35.0-1.1","SS1613168394880","trial","","40","800","960.0000000034925","images/stimuli/spore_stims/simple_07_B_d.gif","images/stimuli/spore_stims/simple_07_A_d.gif","","","","","9","simple_similar","images/stimuli/spore_stims/simple_07_A_d.gif","right","","","","",""
"","null","html-keyboard-response","174","412921","0.0-35.0-0.2","SS1613168394880","","","null","","","","","<p><img src= images/blank.png width =""200"" height = ""200"" style = ""float:right""></p><p><img src=images/blank.png width =""800"" height = ""200""></p>","","","","","","","","","","","",""
"","368.0000000022119","sequential-stimulus-presentation","175","414098","0.0-35.0-1.2","SS1613168394880","trial","","40","800","1168.000000002212","images/stimuli/spore_stims/simple_07_B_d.gif","images/stimuli/spore_stims/simple_07_A_d.gif","","","","","9","simple_similar","images/stimuli/spore_stims/simple_07_A_d.gif","right","","","","",""
"","null","html-keyboard-response","176","414956","0.0-35.0-0.3","SS1613168394880","","","null","","","","","<p><img src= images/blank.png width =""200"" height = ""200"" style = ""float:right""></p><p><img src=images/blank.png width =""800"" height = ""200""></p>","","","","","","","","","","","",""
"","157.99999999580905","sequential-stimulus-presentation","177","415926","0.0-35.0-1.3","SS1613168394880","trial","","40","800","957.999999995809","images/stimuli/spore_stims/simple_07_B_d.gif","images/stimuli/spore_stims/simple_07_A_d.gif","","","","","9","simple_similar","images/stimuli/spore_stims/simple_07_A_d.gif","right","","","","",""
"","null","html-keyboard-response","178","416938","0.0-35.0-0.4","SS1613168394880","","","null","","","","","<p><img src= images/blank.png width =""200"" height = ""200"" style = ""float:right""></p><p><img src=images/blank.png width =""800"" height = ""200""></p>","","","","","","","","","","","",""
"","85.99999999569263","sequential-stimulus-presentation","179","417834","0.0-35.0-1.4","SS1613168394880","trial","","40","800","885.9999999956926","images/stimuli/spore_stims/simple_07_B_d.gif","images/stimuli/spore_stims/simple_07_A_d.gif","","","","","9","simple_similar","images/stimuli/spore_stims/simple_07_B_d.gif","middle","","","","",""
"","null","html-keyboard-response","180","419085","0.0-35.0-0.5","SS1613168394880","","","null","","","","","<p><img src= images/blank.png width =""200"" height = ""200"" style = ""float:right""></p><p><img src=images/blank.png width =""800"" height = ""200""></p>","","","","","","","","","","","",""
"","612.9999999975553","sequential-stimulus-presentation","181","420514","0.0-35.0-1.5","SS1613168394880","trial","","40","800","1412.9999999975553","images/stimuli/spore_stims/simple_07_B_d.gif","images/stimuli/spore_stims/simple_07_A_d.gif","","","","","9","simple_similar","images/stimuli/spore_stims/simple_07_A_d.gif","right","","","","",""
"","null","html-keyboard-response","182","421472","0.0-35.0-0.6","SS1613168394880","","","null","","","","","<p><img src= images/blank.png width =""200"" height = ""200"" style = ""float:right""></p><p><img src=images/blank.png width =""800"" height = ""200""></p>","","","","","","","","","","","",""
"","44.99999999825377","sequential-stimulus-presentation","183","422325","0.0-35.0-1.6","SS1613168394880","trial","","40","800","844.9999999982538","images/stimuli/spore_stims/simple_07_B_d.gif","images/stimuli/spore_stims/simple_07_A_d.gif","","","","","9","simple_similar","images/stimuli/spore_stims/simple_07_A_d.gif","right","","","","",""
"","null","html-keyboard-response","184","423166","0.0-35.0-0.7","SS1613168394880","","","null","","","","","<p><img src= images/blank.png width =""200"" height = ""200"" style = ""float:right""></p><p><img src=images/blank.png width =""800"" height = ""200""></p>","","","","","","","","","","","",""
"","93.99999999732245","sequential-stimulus-presentation","185","424079","0.0-35.0-1.7","SS1613168394880","trial","","40","800","893.9999999973224","images/stimuli/spore_stims/simple_07_B_d.gif","images/stimuli/spore_stims/simple_07_A_d.gif","","","","","9","simple_similar","images/stimuli/spore_stims/simple_07_A_d.gif","right","","","","",""
"","5830.000000001746","html-keyboard-response","186","429916","0.0-36.0","SS1613168394880","pref_question","","97","","","","","<video width ='960' height = '540' style='padding-top:8%' autoplay muted><source src='images/stimuli/wall_pref.mp4' type='video/mp4'></video>","1","left","25%","9","","","","","","","",""
"","144.00000000023283","sequential-stimulus-presentation","187","430874","0.0-37.0","SS1613168394880","pref_reveal","","40","800","944.0000000002328","null","null","","","","","9","","","","novel","","","",""
"","null","html-keyboard-response","188","432076","0.0-38.0-0.0","SS1613168394880","","","null","","","","","<p><img src= images/blank.png width =""200"" height = ""200"" style = ""float:right""></p><p><img src=images/blank.png width =""800"" height = ""200""></p>","","","","","","","","","","","",""
"","347.00000000884756","sequential-stimulus-presentation","189","433246","0.0-38.0-1.0","SS1613168394880","trial","","40","800","1147.0000000088476","images/stimuli/spore_stims/simple_20_B_a.gif","images/stimuli/spore_stims/simple_13_A_a.gif","","","","","10","simple_dissimilar","images/stimuli/spore_stims/simple_13_A_a.gif","middle","","","","",""
"","null","html-keyboard-response","190","434279","0.0-38.0-0.1","SS1613168394880","","","null","","","","","<p><img src= images/blank.png width =""200"" height = ""200"" style = ""float:right""></p><p><img src=images/blank.png width =""800"" height = ""200""></p>","","","","","","","","","","","",""
"","90.00000001105946","sequential-stimulus-presentation","191","435185","0.0-38.0-1.1","SS1613168394880","trial","","40","800","890.0000000110595","images/stimuli/spore_stims/simple_20_B_a.gif","images/stimuli/spore_stims/simple_13_A_a.gif","","","","","10","simple_dissimilar","images/stimuli/spore_stims/simple_13_A_a.gif","middle","","","","",""
"","null","html-keyboard-response","192","436115","0.0-38.0-0.2","SS1613168394880","","","null","","","","","<p><img src= images/blank.png width =""200"" height = ""200"" style = ""float:right""></p><p><img src=images/blank.png width =""800"" height = ""200""></p>","","","","","","","","","","","",""
"","5.000000004656613","sequential-stimulus-presentation","193","436930","0.0-38.0-1.2","SS1613168394880","trial","","40","800","805.0000000046566","images/stimuli/spore_stims/simple_20_B_a.gif","images/stimuli/spore_stims/simple_13_A_a.gif","","","","","10","simple_dissimilar","images/stimuli/spore_stims/simple_13_A_a.gif","middle","","","","",""
"","null","html-keyboard-response","194","437914","0.0-38.0-0.3","SS1613168394880","","","null","","","","","<p><img src= images/blank.png width =""200"" height = ""200"" style = ""float:right""></p><p><img src=images/blank.png width =""800"" height = ""200""></p>","","","","","","","","","","","",""
"","232.00000000360887","sequential-stimulus-presentation","195","438954","0.0-38.0-1.3","SS1613168394880","trial","","40","800","1032.0000000036089","images/stimuli/spore_stims/simple_20_B_a.gif","images/stimuli/spore_stims/simple_13_A_a.gif","","","","","10","simple_dissimilar","images/stimuli/spore_stims/simple_13_A_a.gif","middle","","","","",""
"","null","html-keyboard-response","196","439797","0.0-38.0-0.4","SS1613168394880","","","null","","","","","<p><img src= images/blank.png width =""200"" height = ""200"" style = ""float:right""></p><p><img src=images/blank.png width =""800"" height = ""200""></p>","","","","","","","","","","","",""
"","250","sequential-stimulus-presentation","197","440868","0.0-38.0-1.4","SS1613168394880","trial","","40","800","1050","images/stimuli/spore_stims/simple_20_B_a.gif","images/stimuli/spore_stims/simple_13_A_a.gif","","","","","10","simple_dissimilar","images/stimuli/spore_stims/simple_13_A_a.gif","middle","","","","",""
"","null","html-keyboard-response","198","441696","0.0-38.0-0.5","SS1613168394880","","","null","","","","","<p><img src= images/blank.png width =""200"" height = ""200"" style = ""float:right""></p><p><img src=images/blank.png width =""800"" height = ""200""></p>","","","","","","","","","","","",""
"","9.99999999476131","sequential-stimulus-presentation","199","442531","0.0-38.0-1.5","SS1613168394880","trial","","40","800","809.9999999947613","images/stimuli/spore_stims/simple_20_B_a.gif","images/stimuli/spore_stims/simple_13_A_a.gif","","","","","10","simple_dissimilar","images/stimuli/spore_stims/simple_20_B_a.gif","right","","","","",""
"","null","html-keyboard-response","200","443762","0.0-38.0-0.6","SS1613168394880","","","null","","","","","<p><img src= images/blank.png width =""200"" height = ""200"" style = ""float:right""></p><p><img src=images/blank.png width =""800"" height = ""200""></p>","","","","","","","","","","","",""
"","57.00000000069849","sequential-stimulus-presentation","201","444651","0.0-38.0-1.6","SS1613168394880","trial","","40","800","857.0000000006985","images/stimuli/spore_stims/simple_20_B_a.gif","images/stimuli/spore_stims/simple_13_A_a.gif","","","","","10","simple_dissimilar","images/stimuli/spore_stims/simple_13_A_a.gif","middle","","","","",""
"","null","html-keyboard-response","202","445943","0.0-38.0-0.7","SS1613168394880","","","null","","","","","<p><img src= images/blank.png width =""200"" height = ""200"" style = ""float:right""></p><p><img src=images/blank.png width =""800"" height = ""200""></p>","","","","","","","","","","","",""
"","101.00000000966247","sequential-stimulus-presentation","203","446852","0.0-38.0-1.7","SS1613168394880","trial","","40","800","901.0000000096625","images/stimuli/spore_stims/simple_20_B_a.gif","images/stimuli/spore_stims/simple_13_A_a.gif","","","","","10","simple_dissimilar","images/stimuli/spore_stims/simple_13_A_a.gif","middle","","","","",""
"","6.0000000084983185","html-keyboard-response","204","446867","0.0-39.0","SS1613168394880","pref_question","","97","","","","","<video width ='960' height = '540' style='padding-top:8%' autoplay muted><source src='images/stimuli/wall_pref.mp4' type='video/mp4'></video>","1","left","25%","10","","","","","","","",""
"","256.9999999977881","sequential-stimulus-presentation","205","447948","0.0-40.0","SS1613168394880","pref_reveal","","40","800","1056.999999997788","null","null","","","","","10","","","","novel","","","",""
"","null","html-keyboard-response","206","449209","0.0-41.0-0.0","SS1613168394880","","","null","","","","","<p><img src= images/blank.png width =""200"" height = ""200"" style = ""float:right""></p><p><img src=images/blank.png width =""800"" height = ""200""></p>","","","","","","","","","","","",""
"","69.999999992433","sequential-stimulus-presentation","207","450114","0.0-41.0-1.0","SS1613168394880","trial","","40","800","869.999999992433","images/stimuli/spore_stims/simple_09_A_b.gif","images/stimuli/spore_stims/simple_17_A_c.gif","","","","","11","simple_dissimilar","images/stimuli/spore_stims/simple_17_A_c.gif","right","","","","",""
"","null","html-keyboard-response","208","451073","0.0-41.0-0.1","SS1613168394880","","","null","","","","","<p><img src= images/blank.png width =""200"" height = ""200"" style = ""float:right""></p><p><img src=images/blank.png width =""800"" height = ""200""></p>","","","","","","","","","","","",""
"","66.9999999954598","sequential-stimulus-presentation","209","451952","0.0-41.0-1.1","SS1613168394880","trial","","40","800","866.9999999954598","images/stimuli/spore_stims/simple_09_A_b.gif","images/stimuli/spore_stims/simple_17_A_c.gif","","","","","11","simple_dissimilar","images/stimuli/spore_stims/simple_17_A_c.gif","right","","","","",""
"","null","html-keyboard-response","210","453217","0.0-41.0-0.2","SS1613168394880","","","null","","","","","<p><img src= images/blank.png width =""200"" height = ""200"" style = ""float:right""></p><p><img src=images/blank.png width =""800"" height = ""200""></p>","","","","","","","","","","","",""
"","209.00000000256114","sequential-stimulus-presentation","211","454235","0.0-41.0-1.2","SS1613168394880","trial","","40","800","1009.0000000025611","images/stimuli/spore_stims/simple_09_A_b.gif","images/stimuli/spore_stims/simple_17_A_c.gif","","","","","11","simple_dissimilar","images/stimuli/spore_stims/simple_17_A_c.gif","right","","","","",""
"","null","html-keyboard-response","212","455232","0.0-41.0-0.3","SS1613168394880","","","null","","","","","<p><img src= images/blank.png width =""200"" height = ""200"" style = ""float:right""></p><p><img src=images/blank.png width =""800"" height = ""200""></p>","","","","","","","","","","","",""
"","307.0000000006985","sequential-stimulus-presentation","213","456354","0.0-41.0-1.3","SS1613168394880","trial","","40","800","1107.0000000006985","images/stimuli/spore_stims/simple_09_A_b.gif","images/stimuli/spore_stims/simple_17_A_c.gif","","","","","11","simple_dissimilar","images/stimuli/spore_stims/simple_09_A_b.gif","left","","","","",""
"","null","html-keyboard-response","214","457636","0.0-41.0-0.4","SS1613168394880","","","null","","","","","<p><img src= images/blank.png width =""200"" height = ""200"" style = ""float:right""></p><p><img src=images/blank.png width =""800"" height = ""200""></p>","","","","","","","","","","","",""
"","269.00000000023283","sequential-stimulus-presentation","215","458714","0.0-41.0-1.4","SS1613168394880","trial","","40","800","1069.0000000002328","images/stimuli/spore_stims/simple_09_A_b.gif","images/stimuli/spore_stims/simple_17_A_c.gif","","","","","11","simple_dissimilar","images/stimuli/spore_stims/simple_17_A_c.gif","right","","","","",""
"","null","html-keyboard-response","216","459703","0.0-41.0-0.5","SS1613168394880","","","null","","","","","<p><img src= images/blank.png width =""200"" height = ""200"" style = ""float:right""></p><p><img src=images/blank.png width =""800"" height = ""200""></p>","","","","","","","","","","","",""
"","148.00000000104774","sequential-stimulus-presentation","217","460669","0.0-41.0-1.5","SS1613168394880","trial","","40","800","948.0000000010477","images/stimuli/spore_stims/simple_09_A_b.gif","images/stimuli/spore_stims/simple_17_A_c.gif","","","","","11","simple_dissimilar","images/stimuli/spore_stims/simple_17_A_c.gif","right","","","","",""
"","null","html-keyboard-response","218","461920","0.0-41.0-0.6","SS1613168394880","","","null","","","","","<p><img src= images/blank.png width =""200"" height = ""200"" style = ""float:right""></p><p><img src=images/blank.png width =""800"" height = ""200""></p>","","","","","","","","","","","",""
"","54.99999999301508","sequential-stimulus-presentation","219","462795","0.0-41.0-1.6","SS1613168394880","trial","","40","800","854.9999999930151","images/stimuli/spore_stims/simple_09_A_b.gif","images/stimuli/spore_stims/simple_17_A_c.gif","","","","","11","simple_dissimilar","images/stimuli/spore_stims/simple_17_A_c.gif","right","","","","",""
"","null","html-keyboard-response","220","463721","0.0-41.0-0.7","SS1613168394880","","","null","","","","","<p><img src= images/blank.png width =""200"" height = ""200"" style = ""float:right""></p><p><img src=images/blank.png width =""800"" height = ""200""></p>","","","","","","","","","","","",""
"","396.99999999720603","sequential-stimulus-presentation","221","464930","0.0-41.0-1.7","SS1613168394880","trial","","40","800","1196.999999997206","images/stimuli/spore_stims/simple_09_A_b.gif","images/stimuli/spore_stims/simple_17_A_c.gif","","","","","11","simple_dissimilar","images/stimuli/spore_stims/simple_17_A_c.gif","right","","","","",""
"","31417.00000000128","html-keyboard-response","222","496355","0.0-42.0","SS1613168394880","pref_question","","97","","","","","<video width ='960' height = '540' style='padding-top:8%' autoplay muted><source src='images/stimuli/wall_pref.mp4' type='video/mp4'></video>","1","left","25%","11","","","","","","","",""
"","36.999999996623956","sequential-stimulus-presentation","223","497202","0.0-43.0","SS1613168394880","pref_reveal","","40","800","836.999999996624","null","null","","","","","11","","","","deviant","","","",""
"","null","html-keyboard-response","224","498300","0.0-44.0-0.0","SS1613168394880","","","null","","","","","<p><img src= images/blank.png width =""200"" height = ""200"" style = ""float:right""></p><p><img src=images/blank.png width =""800"" height = ""200""></p>","","","","","","","","","","","",""
"","149.99999999417923","sequential-stimulus-presentation","225","499263","0.0-44.0-1.0","SS1613168394880","trial","","40","800","949.9999999941792","images/stimuli/spore_stims/complex_02_A_b.gif","images/stimuli/spore_stims/complex_02_B_b.gif","","","","","12","complex_similar","images/stimuli/spore_stims/complex_02_B_b.gif","right","","","","",""
"","null","html-keyboard-response","226","500281","0.0-44.0-0.1","SS1613168394880","","","null","","","","","<p><img src= images/blank.png width =""200"" height = ""200"" style = ""float:right""></p><p><img src=images/blank.png width =""800"" height = ""200""></p>","","","","","","","","","","","",""
"","203.99999999790452","sequential-stimulus-presentation","227","501294","0.0-44.0-1.1","SS1613168394880","trial","","40","800","1003.9999999979045","images/stimuli/spore_stims/complex_02_A_b.gif","images/stimuli/spore_stims/complex_02_B_b.gif","","","","","12","complex_similar","images/stimuli/spore_stims/complex_02_B_b.gif","right","","","","",""
"","null","html-keyboard-response","228","502353","0.0-44.0-0.2","SS1613168394880","","","null","","","","","<p><img src= images/blank.png width =""200"" height = ""200"" style = ""float:right""></p><p><img src=images/blank.png width =""800"" height = ""200""></p>","","","","","","","","","","","",""
"","207.00000000942964","sequential-stimulus-presentation","229","503379","0.0-44.0-1.2","SS1613168394880","trial","","40","800","1007.0000000094296","images/stimuli/spore_stims/complex_02_A_b.gif","images/stimuli/spore_stims/complex_02_B_b.gif","","","","","12","complex_similar","images/stimuli/spore_stims/complex_02_B_b.gif","right","","","","",""
"","null","html-keyboard-response","230","504292","0.0-44.0-0.3","SS1613168394880","","","null","","","","","<p><img src= images/blank.png width =""200"" height = ""200"" style = ""float:right""></p><p><img src=images/blank.png width =""800"" height = ""200""></p>","","","","","","","","","","","",""
"","179.0000000037253","sequential-stimulus-presentation","231","505279","0.0-44.0-1.3","SS1613168394880","trial","","40","800","979.0000000037253","images/stimuli/spore_stims/complex_02_A_b.gif","images/stimuli/spore_stims/complex_02_B_b.gif","","","","","12","complex_similar","images/stimuli/spore_stims/complex_02_B_b.gif","right","","","","",""
"","null","html-keyboard-response","232","506383","0.0-44.0-0.4","SS1613168394880","","","null","","","","","<p><img src= images/blank.png width =""200"" height = ""200"" style = ""float:right""></p><p><img src=images/blank.png width =""800"" height = ""200""></p>","","","","","","","","","","","",""
"","137.00000000244472","sequential-stimulus-presentation","233","507327","0.0-44.0-1.4","SS1613168394880","trial","","40","800","937.0000000024447","images/stimuli/spore_stims/complex_02_A_b.gif","images/stimuli/spore_stims/complex_02_B_b.gif","","","","","12","complex_similar","images/stimuli/spore_stims/complex_02_B_b.gif","right","","","","",""
"","null","html-keyboard-response","234","508568","0.0-44.0-0.5","SS1613168394880","","","null","","","","","<p><img src= images/blank.png width =""200"" height = ""200"" style = ""float:right""></p><p><img src=images/blank.png width =""800"" height = ""200""></p>","","","","","","","","","","","",""
"","214.00000000721775","sequential-stimulus-presentation","235","509590","0.0-44.0-1.5","SS1613168394880","trial","","40","800","1014.0000000072177","images/stimuli/spore_stims/complex_02_A_b.gif","images/stimuli/spore_stims/complex_02_B_b.gif","","","","","12","complex_similar","images/stimuli/spore_stims/complex_02_B_b.gif","right","","","","",""
"","null","html-keyboard-response","236","510554","0.0-44.0-0.6","SS1613168394880","","","null","","","","","<p><img src= images/blank.png width =""200"" height = ""200"" style = ""float:right""></p><p><img src=images/blank.png width =""800"" height = ""200""></p>","","","","","","","","","","","",""
"","4.000000000814907","sequential-stimulus-presentation","237","511371","0.0-44.0-1.6","SS1613168394880","trial","","40","800","804.0000000008149","images/stimuli/spore_stims/complex_02_A_b.gif","images/stimuli/spore_stims/complex_02_B_b.gif","","","","","12","complex_similar","images/stimuli/spore_stims/complex_02_A_b.gif","middle","","","","",""
"","null","html-keyboard-response","238","512272","0.0-44.0-0.7","SS1613168394880","","","null","","","","","<p><img src= images/blank.png width =""200"" height = ""200"" style = ""float:right""></p><p><img src=images/blank.png width =""800"" height = ""200""></p>","","","","","","","","","","","",""
"","116.0000000090804","sequential-stimulus-presentation","239","513200","0.0-44.0-1.7","SS1613168394880","trial","","40","800","916.0000000090804","images/stimuli/spore_stims/complex_02_A_b.gif","images/stimuli/spore_stims/complex_02_B_b.gif","","","","","12","complex_similar","images/stimuli/spore_stims/complex_02_B_b.gif","right","","","","",""
"","18920.000000012806","html-keyboard-response","240","532147","0.0-45.0","SS1613168394880","pref_question","","97","","","","","<video width ='960' height = '540' style='padding-top:8%' autoplay muted><source src='images/stimuli/wall_pref.mp4' type='video/mp4'></video>","1","left","25%","12","","","","","","","",""
"","96.00000000500586","sequential-stimulus-presentation","241","533051","0.0-46.0","SS1613168394880","pref_reveal","","40","800","896.0000000050059","null","null","","","","","12","","","","novel","","","",""
"","null","html-keyboard-response","242","534346","0.0-47.0-0.0","SS1613168394880","","","null","","","","","<p><img src= images/blank.png width =""200"" height = ""200"" style = ""float:right""></p><p><img src=images/blank.png width =""800"" height = ""200""></p>","","","","","","","","","","","",""
"","175.00000000291038","sequential-stimulus-presentation","243","535338","0.0-47.0-1.0","SS1613168394880","trial","","40","800","975.0000000029104","images/stimuli/spore_stims/complex_09_B_d.gif","images/stimuli/spore_stims/complex_15_A_d.gif","","","","","13","complex_dissimilar","images/stimuli/spore_stims/complex_15_A_d.gif","middle","","","","",""
"","null","html-keyboard-response","244","536211","0.0-47.0-0.1","SS1613168394880","","","null","","","","","<p><img src= images/blank.png width =""200"" height = ""200"" style = ""float:right""></p><p><img src=images/blank.png width =""800"" height = ""200""></p>","","","","","","","","","","","",""
"","210.99999999569263","sequential-stimulus-presentation","245","537232","0.0-47.0-1.1","SS1613168394880","trial","","40","800","1010.9999999956926","images/stimuli/spore_stims/complex_09_B_d.gif","images/stimuli/spore_stims/complex_15_A_d.gif","","","","","13","complex_dissimilar","images/stimuli/spore_stims/complex_15_A_d.gif","middle","","","","",""
"","null","html-keyboard-response","246","538304","0.0-47.0-0.2","SS1613168394880","","","null","","","","","<p><img src= images/blank.png width =""200"" height = ""200"" style = ""float:right""></p><p><img src=images/blank.png width =""800"" height = ""200""></p>","","","","","","","","","","","",""
"","171.00000000209548","sequential-stimulus-presentation","247","539307","0.0-47.0-1.2","SS1613168394880","trial","","40","800","971.0000000020955","images/stimuli/spore_stims/complex_09_B_d.gif","images/stimuli/spore_stims/complex_15_A_d.gif","","","","","13","complex_dissimilar","images/stimuli/spore_stims/complex_15_A_d.gif","middle","","","","",""
"","null","html-keyboard-response","248","540279","0.0-47.0-0.3","SS1613168394880","","","null","","","","","<p><img src= images/blank.png width =""200"" height = ""200"" style = ""float:right""></p><p><img src=images/blank.png width =""800"" height = ""200""></p>","","","","","","","","","","","",""
"","43.000000005122274","sequential-stimulus-presentation","249","541131","0.0-47.0-1.3","SS1613168394880","trial","","40","800","843.0000000051223","images/stimuli/spore_stims/complex_09_B_d.gif","images/stimuli/spore_stims/complex_15_A_d.gif","","","","","13","complex_dissimilar","images/stimuli/spore_stims/complex_15_A_d.gif","middle","","","","",""
"","null","html-keyboard-response","250","542268","0.0-47.0-0.4","SS1613168394880","","","null","","","","","<p><img src= images/blank.png width =""200"" height = ""200"" style = ""float:right""></p><p><img src=images/blank.png width =""800"" height = ""200""></p>","","","","","","","","","","","",""
"","99.99999999126885","sequential-stimulus-presentation","251","543179","0.0-47.0-1.4","SS1613168394880","trial","","40","800","899.9999999912689","images/stimuli/spore_stims/complex_09_B_d.gif","images/stimuli/spore_stims/complex_15_A_d.gif","","","","","13","complex_dissimilar","images/stimuli/spore_stims/complex_15_A_d.gif","middle","","","","",""
"","null","html-keyboard-response","252","544064","0.0-47.0-0.5","SS1613168394880","","","null","","","","","<p><img src= images/blank.png width =""200"" height = ""200"" style = ""float:right""></p><p><img src=images/blank.png width =""800"" height = ""200""></p>","","","","","","","","","","","",""
"","88.99999999266583","sequential-stimulus-presentation","253","544963","0.0-47.0-1.5","SS1613168394880","trial","","40","800","888.9999999926658","images/stimuli/spore_stims/complex_09_B_d.gif","images/stimuli/spore_stims/complex_15_A_d.gif","","","","","13","complex_dissimilar","images/stimuli/spore_stims/complex_09_B_d.gif","left","","","","",""
"","null","html-keyboard-response","254","546113","0.0-47.0-0.6","SS1613168394880","","","null","","","","","<p><img src= images/blank.png width =""200"" height = ""200"" style = ""float:right""></p><p><img src=images/blank.png width =""800"" height = ""200""></p>","","","","","","","","","","","",""
"","191.9999999954598","sequential-stimulus-presentation","255","547122","0.0-47.0-1.6","SS1613168394880","trial","","40","800","991.9999999954598","images/stimuli/spore_stims/complex_09_B_d.gif","images/stimuli/spore_stims/complex_15_A_d.gif","","","","","13","complex_dissimilar","images/stimuli/spore_stims/complex_15_A_d.gif","middle","","","","",""
"","null","html-keyboard-response","256","548257","0.0-47.0-0.7","SS1613168394880","","","null","","","","","<p><img src= images/blank.png width =""200"" height = ""200"" style = ""float:right""></p><p><img src=images/blank.png width =""800"" height = ""200""></p>","","","","","","","","","","","",""
"","205.00000000174623","sequential-stimulus-presentation","257","549276","0.0-47.0-1.7","SS1613168394880","trial","","40","800","1005.0000000017462","images/stimuli/spore_stims/complex_09_B_d.gif","images/stimuli/spore_stims/complex_15_A_d.gif","","","","","13","complex_dissimilar","images/stimuli/spore_stims/complex_15_A_d.gif","middle","","","","",""
"","22713.999999992666","html-keyboard-response","258","571996","0.0-48.0","SS1613168394880","pref_question","","99","","","","","<video width ='960' height = '540' style='padding-top:8%' autoplay muted><source src='images/stimuli/wall_pref.mp4' type='video/mp4'></video>","3","right","66%","13","","","","","","","",""
"","29.999999998835847","sequential-stimulus-presentation","259","572835","0.0-49.0","SS1613168394880","pref_reveal","","40","800","829.9999999988358","null","null","","","","","13","","","","novel","","","",""
"","null","html-keyboard-response","260","573726","0.0-50.0-0.0","SS1613168394880","","","null","","","","","<p><img src= images/blank.png width =""200"" height = ""200"" style = ""float:right""></p><p><img src=images/blank.png width =""800"" height = ""200""></p>","","","","","","","","","","","",""
"","66.9999999954598","sequential-stimulus-presentation","261","574620","0.0-50.0-1.0","SS1613168394880","trial","","40","800","866.9999999954598","images/stimuli/spore_stims/complex_06_A_a.gif","images/stimuli/spore_stims/complex_06_B_b.gif","","","","","14","complex_dissimilar","images/stimuli/spore_stims/complex_06_B_b.gif","left","","","","",""
"","null","html-keyboard-response","262","575442","0.0-50.0-0.1","SS1613168394880","","","null","","","","","<p><img src= images/blank.png width =""200"" height = ""200"" style = ""float:right""></p><p><img src=images/blank.png width =""800"" height = ""200""></p>","","","","","","","","","","","",""
"","118.99999999150168","sequential-stimulus-presentation","263","576372","0.0-50.0-1.1","SS1613168394880","trial","","40","800","918.9999999915017","images/stimuli/spore_stims/complex_06_A_a.gif","images/stimuli/spore_stims/complex_06_B_b.gif","","","","","14","complex_dissimilar","images/stimuli/spore_stims/complex_06_B_b.gif","left","","","","",""
"","null","html-keyboard-response","264","577595","0.0-50.0-0.2","SS1613168394880","","","null","","","","","<p><img src= images/blank.png width =""200"" height = ""200"" style = ""float:right""></p><p><img src=images/blank.png width =""800"" height = ""200""></p>","","","","","","","","","","","",""
"","119.99999999534339","sequential-stimulus-presentation","265","578524","0.0-50.0-1.2","SS1613168394880","trial","","40","800","919.9999999953434","images/stimuli/spore_stims/complex_06_A_a.gif","images/stimuli/spore_stims/complex_06_B_b.gif","","","","","14","complex_dissimilar","images/stimuli/spore_stims/complex_06_A_a.gif","right","","","","",""
"","null","html-keyboard-response","266","579542","0.0-50.0-0.3","SS1613168394880","","","null","","","","","<p><img src= images/blank.png width =""200"" height = ""200"" style = ""float:right""></p><p><img src=images/blank.png width =""800"" height = ""200""></p>","","","","","","","","","","","",""
"","229.99999999592546","sequential-stimulus-presentation","267","580588","0.0-50.0-1.3","SS1613168394880","trial","","40","800","1029.9999999959255","images/stimuli/spore_stims/complex_06_A_a.gif","images/stimuli/spore_stims/complex_06_B_b.gif","","","","","14","complex_dissimilar","images/stimuli/spore_stims/complex_06_B_b.gif","left","","","","",""
"","null","html-keyboard-response","268","581893","0.0-50.0-0.4","SS1613168394880","","","null","","","","","<p><img src= images/blank.png width =""200"" height = ""200"" style = ""float:right""></p><p><img src=images/blank.png width =""800"" height = ""200""></p>","","","","","","","","","","","",""
"","163.00000000046566","sequential-stimulus-presentation","269","582868","0.0-50.0-1.4","SS1613168394880","trial","","40","800","963.0000000004657","images/stimuli/spore_stims/complex_06_A_a.gif","images/stimuli/spore_stims/complex_06_B_b.gif","","","","","14","complex_dissimilar","images/stimuli/spore_stims/complex_06_B_b.gif","left","","","","",""
"","null","html-keyboard-response","270","584012","0.0-50.0-0.5","SS1613168394880","","","null","","","","","<p><img src= images/blank.png width =""200"" height = ""200"" style = ""float:right""></p><p><img src=images/blank.png width =""800"" height = ""200""></p>","","","","","","","","","","","",""
"","224.00000000197906","sequential-stimulus-presentation","271","585060","0.0-50.0-1.5","SS1613168394880","trial","","40","800","1024.000000001979","images/stimuli/spore_stims/complex_06_A_a.gif","images/stimuli/spore_stims/complex_06_B_b.gif","","","","","14","complex_dissimilar","images/stimuli/spore_stims/complex_06_B_b.gif","left","","","","",""
"","null","html-keyboard-response","272","586206","0.0-50.0-0.6","SS1613168394880","","","null","","","","","<p><img src= images/blank.png width =""200"" height = ""200"" style = ""float:right""></p><p><img src=images/blank.png width =""800"" height = ""200""></p>","","","","","","","","","","","",""
"","31.999999991967343","sequential-stimulus-presentation","273","587047","0.0-50.0-1.6","SS1613168394880","trial","","40","800","831.9999999919673","images/stimuli/spore_stims/complex_06_A_a.gif","images/stimuli/spore_stims/complex_06_B_b.gif","","","","","14","complex_dissimilar","images/stimuli/spore_stims/complex_06_B_b.gif","left","","","","",""
"","null","html-keyboard-response","274","587908","0.0-50.0-0.7","SS1613168394880","","","null","","","","","<p><img src= images/blank.png width =""200"" height = ""200"" style = ""float:right""></p><p><img src=images/blank.png width =""800"" height = ""200""></p>","","","","","","","","","","","",""
"","293.99999999441206","sequential-stimulus-presentation","275","589012","0.0-50.0-1.7","SS1613168394880","trial","","40","800","1093.999999994412","images/stimuli/spore_stims/complex_06_A_a.gif","images/stimuli/spore_stims/complex_06_B_b.gif","","","","","14","complex_dissimilar","images/stimuli/spore_stims/complex_06_B_b.gif","left","","","","",""
"","11086.999999999534","html-keyboard-response","276","600108","0.0-51.0","SS1613168394880","pref_question","","97","","","","","<video width ='960' height = '540' style='padding-top:8%' autoplay muted><source src='images/stimuli/wall_pref.mp4' type='video/mp4'></video>","1","left","25%","14","","","","","","","",""
"","198.00000000395812","sequential-stimulus-presentation","277","601116","0.0-52.0","SS1613168394880","pref_reveal","","40","800","998.0000000039581","null","null","","","","","14","","","","background","","","",""
"","null","html-keyboard-response","278","602016","0.0-53.0-0.0","SS1613168394880","","","null","","","","","<p><img src= images/blank.png width =""200"" height = ""200"" style = ""float:right""></p><p><img src=images/blank.png width =""800"" height = ""200""></p>","","","","","","","","","","","",""
"","86.99999999953434","sequential-stimulus-presentation","279","602924","0.0-53.0-1.0","SS1613168394880","trial","","40","800","886.9999999995343","images/stimuli/spore_stims/complex_18_B_d.gif","images/stimuli/spore_stims/complex_18_A_d.gif","","","","","15","complex_similar","images/stimuli/spore_stims/complex_18_A_d.gif","right","","","","",""
"","null","html-keyboard-response","280","603870","0.0-53.0-0.1","SS1613168394880","","","null","","","","","<p><img src= images/blank.png width =""200"" height = ""200"" style = ""float:right""></p><p><img src=images/blank.png width =""800"" height = ""200""></p>","","","","","","","","","","","",""
"","115.00000000523869","sequential-stimulus-presentation","281","604796","0.0-53.0-1.1","SS1613168394880","trial","","40","800","915.0000000052387","images/stimuli/spore_stims/complex_18_B_d.gif","images/stimuli/spore_stims/complex_18_A_d.gif","","","","","15","complex_similar","images/stimuli/spore_stims/complex_18_A_d.gif","right","","","","",""
"","null","html-keyboard-response","282","605997","0.0-53.0-0.2","SS1613168394880","","","null","","","","","<p><img src= images/blank.png width =""200"" height = ""200"" style = ""float:right""></p><p><img src=images/blank.png width =""800"" height = ""200""></p>","","","","","","","","","","","",""
"","242.0000000129221","sequential-stimulus-presentation","283","607061","0.0-53.0-1.2","SS1613168394880","trial","","40","800","1042.000000012922","images/stimuli/spore_stims/complex_18_B_d.gif","images/stimuli/spore_stims/complex_18_A_d.gif","","","","","15","complex_similar","images/stimuli/spore_stims/complex_18_B_d.gif","left","","","","",""
"","null","html-keyboard-response","284","608156","0.0-53.0-0.3","SS1613168394880","","","null","","","","","<p><img src= images/blank.png width =""200"" height = ""200"" style = ""float:right""></p><p><img src=images/blank.png width =""800"" height = ""200""></p>","","","","","","","","","","","",""
"","117288.00000000047","sequential-stimulus-presentation","285","726255","0.0-53.0-1.3","SS1613168394880","trial","","40","800","118088.00000000047","images/stimuli/spore_stims/complex_18_B_d.gif","images/stimuli/spore_stims/complex_18_A_d.gif","","","","","15","complex_similar","images/stimuli/spore_stims/complex_18_A_d.gif","right","","","","",""
"","null","html-keyboard-response","286","727331","0.0-53.0-0.4","SS1613168394880","","","null","","","","","<p><img src= images/blank.png width =""200"" height = ""200"" style = ""float:right""></p><p><img src=images/blank.png width =""800"" height = ""200""></p>","","","","","","","","","","","",""
"","76.00000000093132","sequential-stimulus-presentation","287","728214","0.0-53.0-1.4","SS1613168394880","trial","","40","800","876.0000000009313","images/stimuli/spore_stims/complex_18_B_d.gif","images/stimuli/spore_stims/complex_18_A_d.gif","","","","","15","complex_similar","images/stimuli/spore_stims/complex_18_A_d.gif","right","","","","",""
"","null","html-keyboard-response","288","729512","0.0-53.0-0.5","SS1613168394880","","","null","","","","","<p><img src= images/blank.png width =""200"" height = ""200"" style = ""float:right""></p><p><img src=images/blank.png width =""800"" height = ""200""></p>","","","","","","","","","","","",""
"","120.0000000098953","sequential-stimulus-presentation","289","730452","0.0-53.0-1.5","SS1613168394880","trial","","40","800","920.0000000098953","images/stimuli/spore_stims/complex_18_B_d.gif","images/stimuli/spore_stims/complex_18_A_d.gif","","","","","15","complex_similar","images/stimuli/spore_stims/complex_18_A_d.gif","right","","","","",""
"","null","html-keyboard-response","290","731761","0.0-53.0-0.6","SS1613168394880","","","null","","","","","<p><img src= images/blank.png width =""200"" height = ""200"" style = ""float:right""></p><p><img src=images/blank.png width =""800"" height = ""200""></p>","","","","","","","","","","","",""
"","39.99999999359716","sequential-stimulus-presentation","291","732623","0.0-53.0-1.6","SS1613168394880","trial","","40","800","839.9999999935972","images/stimuli/spore_stims/complex_18_B_d.gif","images/stimuli/spore_stims/complex_18_A_d.gif","","","","","15","complex_similar","images/stimuli/spore_stims/complex_18_A_d.gif","right","","","","",""
"","null","html-keyboard-response","292","733597","0.0-53.0-0.7","SS1613168394880","","","null","","","","","<p><img src= images/blank.png width =""200"" height = ""200"" style = ""float:right""></p><p><img src=images/blank.png width =""800"" height = ""200""></p>","","","","","","","","","","","",""
"","175.00000000291038","sequential-stimulus-presentation","293","734578","0.0-53.0-1.7","SS1613168394880","trial","","40","800","975.0000000029104","images/stimuli/spore_stims/complex_18_B_d.gif","images/stimuli/spore_stims/complex_18_A_d.gif","","","","","15","complex_similar","images/stimuli/spore_stims/complex_18_A_d.gif","right","","","","",""
"","3235.999999989872","html-keyboard-response","294","737838","0.0-54.0","SS1613168394880","pref_question","","97","","","","","<video width ='960' height = '540' style='padding-top:8%' autoplay muted><source src='images/stimuli/wall_pref.mp4' type='video/mp4'></video>","1","left","25%","15","","","","","","","",""
"","677.0000000105938","sequential-stimulus-presentation","295","739327","0.0-55.0","SS1613168394880","pref_reveal","","40","800","1477.0000000105938","null","null","","","","","15","","","","deviant","","","",""
"","null","html-keyboard-response","296","740147","0.0-56.0-0.0","SS1613168394880","","","null","","","","","<p><img src= images/blank.png width =""200"" height = ""200"" style = ""float:right""></p><p><img src=images/blank.png width =""800"" height = ""200""></p>","","","","","","","","","","","",""
"","86.99999999953434","sequential-stimulus-presentation","297","741046","0.0-56.0-1.0","SS1613168394880","trial","","40","800","886.9999999995343","images/stimuli/spore_stims/complex_12_A_a.gif","images/stimuli/spore_stims/complex_12_B_a.gif","","","","","16","complex_similar","images/stimuli/spore_stims/complex_12_B_a.gif","right","","","","",""
"","null","html-keyboard-response","298","742020","0.0-56.0-0.1","SS1613168394880","","","null","","","","","<p><img src= images/blank.png width =""200"" height = ""200"" style = ""float:right""></p><p><img src=images/blank.png width =""800"" height = ""200""></p>","","","","","","","","","","","",""
"","127.00000000768341","sequential-stimulus-presentation","299","742969","0.0-56.0-1.1","SS1613168394880","trial","","40","800","927.0000000076834","images/stimuli/spore_stims/complex_12_A_a.gif","images/stimuli/spore_stims/complex_12_B_a.gif","","","","","16","complex_similar","images/stimuli/spore_stims/complex_12_B_a.gif","right","","","","",""
"","null","html-keyboard-response","300","744080","0.0-56.0-0.2","SS1613168394880","","","null","","","","","<p><img src= images/blank.png width =""200"" height = ""200"" style = ""float:right""></p><p><img src=images/blank.png width =""800"" height = ""200""></p>","","","","","","","","","","","",""
"","100.99999999511056","sequential-stimulus-presentation","301","744999","0.0-56.0-1.2","SS1613168394880","trial","","40","800","900.9999999951106","images/stimuli/spore_stims/complex_12_A_a.gif","images/stimuli/spore_stims/complex_12_B_a.gif","","","","","16","complex_similar","images/stimuli/spore_stims/complex_12_B_a.gif","right","","","","",""
"","null","html-keyboard-response","302","745947","0.0-56.0-0.3","SS1613168394880","","","null","","","","","<p><img src= images/blank.png width =""200"" height = ""200"" style = ""float:right""></p><p><img src=images/blank.png width =""800"" height = ""200""></p>","","","","","","","","","","","",""
"","157.00000000651926","sequential-stimulus-presentation","303","746923","0.0-56.0-1.3","SS1613168394880","trial","","40","800","957.0000000065193","images/stimuli/spore_stims/complex_12_A_a.gif","images/stimuli/spore_stims/complex_12_B_a.gif","","","","","16","complex_similar","images/stimuli/spore_stims/complex_12_B_a.gif","right","","","","",""
"","null","html-keyboard-response","304","747859","0.0-56.0-0.4","SS1613168394880","","","null","","","","","<p><img src= images/blank.png width =""200"" height = ""200"" style = ""float:right""></p><p><img src=images/blank.png width =""800"" height = ""200""></p>","","","","","","","","","","","",""
"","28.99999999499414","sequential-stimulus-presentation","305","748700","0.0-56.0-1.4","SS1613168394880","trial","","40","800","828.9999999949941","images/stimuli/spore_stims/complex_12_A_a.gif","images/stimuli/spore_stims/complex_12_B_a.gif","","","","","16","complex_similar","images/stimuli/spore_stims/complex_12_B_a.gif","right","","","","",""
"","null","html-keyboard-response","306","749642","0.0-56.0-0.5","SS1613168394880","","","null","","","","","<p><img src= images/blank.png width =""200"" height = ""200"" style = ""float:right""></p><p><img src=images/blank.png width =""800"" height = ""200""></p>","","","","","","","","","","","",""
"","176.99999999604188","sequential-stimulus-presentation","307","750630","0.0-56.0-1.5","SS1613168394880","trial","","40","800","976.9999999960419","images/stimuli/spore_stims/complex_12_A_a.gif","images/stimuli/spore_stims/complex_12_B_a.gif","","","","","16","complex_similar","images/stimuli/spore_stims/complex_12_B_a.gif","right","","","","",""
"","null","html-keyboard-response","308","751713","0.0-56.0-0.6","SS1613168394880","","","null","","","","","<p><img src= images/blank.png width =""200"" height = ""200"" style = ""float:right""></p><p><img src=images/blank.png width =""800"" height = ""200""></p>","","","","","","","","","","","",""
"","38.00000000046566","sequential-stimulus-presentation","309","752576","0.0-56.0-1.6","SS1613168394880","trial","","40","800","838.0000000004657","images/stimuli/spore_stims/complex_12_A_a.gif","images/stimuli/spore_stims/complex_12_B_a.gif","","","","","16","complex_similar","images/stimuli/spore_stims/complex_12_A_a.gif","left","","","","",""
"","null","html-keyboard-response","310","753698","0.0-56.0-0.7","SS1613168394880","","","null","","","","","<p><img src= images/blank.png width =""200"" height = ""200"" style = ""float:right""></p><p><img src=images/blank.png width =""800"" height = ""200""></p>","","","","","","","","","","","",""
"","107.99999999289867","sequential-stimulus-presentation","311","754614","0.0-56.0-1.7","SS1613168394880","trial","","40","800","907.9999999928987","images/stimuli/spore_stims/complex_12_A_a.gif","images/stimuli/spore_stims/complex_12_B_a.gif","","","","","16","complex_similar","images/stimuli/spore_stims/complex_12_B_a.gif","right","","","","",""
