"view_history","rt","trial_type","trial_index","time_elapsed","internal_node_id","subject","stimulus_type","trial_stimulus","key_press","minimum_viewing_duration","trial_looking_time","block_deviant","block_background","stimulus","wall_pref","location","location_percent","block_number","block_type","stimulus_displayed","position_displayed","stim_type_selected","responses","question_order","stimulus_left","stimulus_right"
"[{""page_index"":0,""viewing_time"":39271.1249999702}]","39273.680000100285","instructions","0","39278","0.0-0.0","SS1613098655334","","","","","","","","","","","","","","","","","","","",""
"[{""page_index"":0,""viewing_time"":26389.514999929816},{""page_index"":1,""viewing_time"":14429.745000321418}]","40820.19999995828","instructions","1","82116","0.0-1.0","SS1613098655334","instructions","","","","","","","","","","","","","","","","","","",""
"","25602.574999909848","sequential-stimulus-presentation","2","108590","0.0-2.0","SS1613098655334","","","40","800","26402.574999909848","null","null","","","","","","","","","","","","",""
"","6825.035000219941","sequential-stimulus-presentation","3","116278","0.0-3.0","SS1613098655334","","","40","800","7625.035000219941","null","null","","","","","","","","","","","","",""
"[{""page_index"":0,""viewing_time"":8387.965000234544}]","8388.29500041902","instructions","4","124671","0.0-4.0","SS1613098655334","instructions","","","","","","","","","","","","","","","","","","",""
"","21867.67499987036","html-keyboard-response","5","146557","0.0-5.0","SS1613098655334","instructions","","97","","","","","<video width ='960' height = '540' autoplay muted><source src='images/stimuli/wall_pref.mp4' type='video/mp4'></video>","1","left","25%","","","","","","","","",""
"","10316.03500014171","sequential-stimulus-presentation","6","157690","0.0-6.0","SS1613098655334","pref_reveal","","40","800","11116.03500014171","null","null","","","","","","","","","","","","",""
"[{""page_index"":0,""viewing_time"":14212.5249998644},{""page_index"":1,""viewing_time"":12292.72500006482},{""page_index"":2,""viewing_time"":2682.6300001703203},{""page_index"":3,""viewing_time"":2052.1249999292195}]","31241.624999791384","instructions","7","188940","0.0-7.0","SS1613098655334","instructions","","","","","","","","","","","","","","","","","","",""
"","null","html-keyboard-response","8","189916","0.0-8.0-0.0","SS1613098655334","","","null","","","","","<p><img src= images/blank.png width =""200"" height = ""200"" style = ""float:right""></p><p><img src=images/blank.png width =""800"" height = ""200""></p>","","","","","","","","","","","",""
"","23902.364999987185","sequential-stimulus-presentation","9","214650","0.0-8.0-1.0","SS1613098655334","trial","","40","800","24702.364999987185","images/stimuli/spore_stims/complex_05_A_a.gif","images/stimuli/spore_stims/complex_02_A_d.gif","","","","","0","complex_dissimilar","images/stimuli/spore_stims/complex_02_A_d.gif","left","","","","",""
"","null","html-keyboard-response","10","215881","0.0-8.0-0.1","SS1613098655334","","","null","","","","","<p><img src= images/blank.png width =""200"" height = ""200"" style = ""float:right""></p><p><img src=images/blank.png width =""800"" height = ""200""></p>","","","","","","","","","","","",""
"","8730.849999934435","sequential-stimulus-presentation","11","225445","0.0-8.0-1.1","SS1613098655334","trial","","40","800","9530.849999934435","images/stimuli/spore_stims/complex_05_A_a.gif","images/stimuli/spore_stims/complex_02_A_d.gif","","","","","0","complex_dissimilar","images/stimuli/spore_stims/complex_02_A_d.gif","left","","","","",""
"","null","html-keyboard-response","12","226385","0.0-8.0-0.2","SS1613098655334","","","null","","","","","<p><img src= images/blank.png width =""200"" height = ""200"" style = ""float:right""></p><p><img src=images/blank.png width =""800"" height = ""200""></p>","","","","","","","","","","","",""
"","20196.26999972388","sequential-stimulus-presentation","13","247428","0.0-8.0-1.2","SS1613098655334","trial","","40","800","20996.26999972388","images/stimuli/spore_stims/complex_05_A_a.gif","images/stimuli/spore_stims/complex_02_A_d.gif","","","","","0","complex_dissimilar","images/stimuli/spore_stims/complex_02_A_d.gif","left","","","","",""
"","null","html-keyboard-response","14","248450","0.0-8.0-0.3","SS1613098655334","","","null","","","","","<p><img src= images/blank.png width =""200"" height = ""200"" style = ""float:right""></p><p><img src=images/blank.png width =""800"" height = ""200""></p>","","","","","","","","","","","",""
"","16432.909999974072","sequential-stimulus-presentation","15","265751","0.0-8.0-1.3","SS1613098655334","trial","","40","800","17232.909999974072","images/stimuli/spore_stims/complex_05_A_a.gif","images/stimuli/spore_stims/complex_02_A_d.gif","","","","","0","complex_dissimilar","images/stimuli/spore_stims/complex_05_A_a.gif","middle","","","","",""
"","null","html-keyboard-response","16","267033","0.0-8.0-0.4","SS1613098655334","","","null","","","","","<p><img src= images/blank.png width =""200"" height = ""200"" style = ""float:right""></p><p><img src=images/blank.png width =""800"" height = ""200""></p>","","","","","","","","","","","",""
"","9691.194999963045","sequential-stimulus-presentation","17","277557","0.0-8.0-1.4","SS1613098655334","trial","","40","800","10491.194999963045","images/stimuli/spore_stims/complex_05_A_a.gif","images/stimuli/spore_stims/complex_02_A_d.gif","","","","","0","complex_dissimilar","images/stimuli/spore_stims/complex_02_A_d.gif","left","","","","",""
"","null","html-keyboard-response","18","278717","0.0-8.0-0.5","SS1613098655334","","","null","","","","","<p><img src= images/blank.png width =""200"" height = ""200"" style = ""float:right""></p><p><img src=images/blank.png width =""800"" height = ""200""></p>","","","","","","","","","","","",""
"","11497.769999783486","sequential-stimulus-presentation","19","291083","0.0-8.0-1.5","SS1613098655334","trial","","40","800","12297.769999783486","images/stimuli/spore_stims/complex_05_A_a.gif","images/stimuli/spore_stims/complex_02_A_d.gif","","","","","0","complex_dissimilar","images/stimuli/spore_stims/complex_02_A_d.gif","left","","","","",""
"","null","html-keyboard-response","20","292299","0.0-8.0-0.6","SS1613098655334","","","null","","","","","<p><img src= images/blank.png width =""200"" height = ""200"" style = ""float:right""></p><p><img src=images/blank.png width =""800"" height = ""200""></p>","","","","","","","","","","","",""
"","3877.7049998752773","sequential-stimulus-presentation","21","297058","0.0-8.0-1.6","SS1613098655334","trial","","40","800","4677.704999875277","images/stimuli/spore_stims/complex_05_A_a.gif","images/stimuli/spore_stims/complex_02_A_d.gif","","","","","0","complex_dissimilar","images/stimuli/spore_stims/complex_02_A_d.gif","left","","","","",""
"","null","html-keyboard-response","22","298205","0.0-8.0-0.7","SS1613098655334","","","null","","","","","<p><img src= images/blank.png width =""200"" height = ""200"" style = ""float:right""></p><p><img src=images/blank.png width =""800"" height = ""200""></p>","","","","","","","","","","","",""
"","5131.969999987632","sequential-stimulus-presentation","23","304176","0.0-8.0-1.7","SS1613098655334","trial","","40","800","5931.969999987632","images/stimuli/spore_stims/complex_05_A_a.gif","images/stimuli/spore_stims/complex_02_A_d.gif","","","","","0","complex_dissimilar","images/stimuli/spore_stims/complex_02_A_d.gif","left","","","","",""
"","7195.959999691695","html-keyboard-response","24","311393","0.0-9.0","SS1613098655334","pref_question","","99","","","","","<video width ='960' height = '540' style='padding-top:8%' autoplay muted><source src='images/stimuli/wall_pref.mp4' type='video/mp4'></video>","3","right","66%","0","","","","","","","",""
"","18913.180000148714","sequential-stimulus-presentation","25","331142","0.0-10.0","SS1613098655334","pref_reveal","","40","800","19713.180000148714","null","null","","","","","0","","","","novel","","","",""
"","null","html-keyboard-response","26","332377","0.0-11.0-0.0","SS1613098655334","","","null","","","","","<p><img src= images/blank.png width =""200"" height = ""200"" style = ""float:right""></p><p><img src=images/blank.png width =""800"" height = ""200""></p>","","","","","","","","","","","",""
"","11342.324999626726","sequential-stimulus-presentation","27","344706","0.0-11.0-1.0","SS1613098655334","trial","","40","800","12142.324999626726","images/stimuli/spore_stims/complex_07_A_c.gif","images/stimuli/spore_stims/complex_12_B_a.gif","","","","","1","complex_dissimilar","images/stimuli/spore_stims/complex_12_B_a.gif","left","","","","",""
"","null","html-keyboard-response","28","345850","0.0-11.0-0.1","SS1613098655334","","","null","","","","","<p><img src= images/blank.png width =""200"" height = ""200"" style = ""float:right""></p><p><img src=images/blank.png width =""800"" height = ""200""></p>","","","","","","","","","","","",""
"","8013.259999919683","sequential-stimulus-presentation","29","354688","0.0-11.0-1.1","SS1613098655334","trial","","40","800","8813.259999919683","images/stimuli/spore_stims/complex_07_A_c.gif","images/stimuli/spore_stims/complex_12_B_a.gif","","","","","1","complex_dissimilar","images/stimuli/spore_stims/complex_12_B_a.gif","left","","","","",""
"","null","html-keyboard-response","30","355871","0.0-11.0-0.2","SS1613098655334","","","null","","","","","<p><img src= images/blank.png width =""200"" height = ""200"" style = ""float:right""></p><p><img src=images/blank.png width =""800"" height = ""200""></p>","","","","","","","","","","","",""
"","5913.525000214577","sequential-stimulus-presentation","31","362620","0.0-11.0-1.2","SS1613098655334","trial","","40","800","6713.525000214577","images/stimuli/spore_stims/complex_07_A_c.gif","images/stimuli/spore_stims/complex_12_B_a.gif","","","","","1","complex_dissimilar","images/stimuli/spore_stims/complex_12_B_a.gif","left","","","","",""
"","null","html-keyboard-response","32","363812","0.0-11.0-0.3","SS1613098655334","","","null","","","","","<p><img src= images/blank.png width =""200"" height = ""200"" style = ""float:right""></p><p><img src=images/blank.png width =""800"" height = ""200""></p>","","","","","","","","","","","",""
"","17618.284999858588","sequential-stimulus-presentation","33","382339","0.0-11.0-1.3","SS1613098655334","trial","","40","800","18418.284999858588","images/stimuli/spore_stims/complex_07_A_c.gif","images/stimuli/spore_stims/complex_12_B_a.gif","","","","","1","complex_dissimilar","images/stimuli/spore_stims/complex_12_B_a.gif","left","","","","",""
"","null","html-keyboard-response","34","383558","0.0-11.0-0.4","SS1613098655334","","","null","","","","","<p><img src= images/blank.png width =""200"" height = ""200"" style = ""float:right""></p><p><img src=images/blank.png width =""800"" height = ""200""></p>","","","","","","","","","","","",""
"","10480.165000073612","sequential-stimulus-presentation","35","394874","0.0-11.0-1.4","SS1613098655334","trial","","40","800","11280.165000073612","images/stimuli/spore_stims/complex_07_A_c.gif","images/stimuli/spore_stims/complex_12_B_a.gif","","","","","1","complex_dissimilar","images/stimuli/spore_stims/complex_12_B_a.gif","left","","","","",""
"","null","html-keyboard-response","36","395935","0.0-11.0-0.5","SS1613098655334","","","null","","","","","<p><img src= images/blank.png width =""200"" height = ""200"" style = ""float:right""></p><p><img src=images/blank.png width =""800"" height = ""200""></p>","","","","","","","","","","","",""
"","8532.77499973774","sequential-stimulus-presentation","37","405297","0.0-11.0-1.5","SS1613098655334","trial","","40","800","9332.77499973774","images/stimuli/spore_stims/complex_07_A_c.gif","images/stimuli/spore_stims/complex_12_B_a.gif","","","","","1","complex_dissimilar","images/stimuli/spore_stims/complex_12_B_a.gif","left","","","","",""
"","null","html-keyboard-response","38","406372","0.0-11.0-0.6","SS1613098655334","","","null","","","","","<p><img src= images/blank.png width =""200"" height = ""200"" style = ""float:right""></p><p><img src=images/blank.png width =""800"" height = ""200""></p>","","","","","","","","","","","",""
"","7367.620000150055","sequential-stimulus-presentation","39","414562","0.0-11.0-1.6","SS1613098655334","trial","","40","800","8167.620000150055","images/stimuli/spore_stims/complex_07_A_c.gif","images/stimuli/spore_stims/complex_12_B_a.gif","","","","","1","complex_dissimilar","images/stimuli/spore_stims/complex_12_B_a.gif","left","","","","",""
"","null","html-keyboard-response","40","415498","0.0-11.0-0.7","SS1613098655334","","","null","","","","","<p><img src= images/blank.png width =""200"" height = ""200"" style = ""float:right""></p><p><img src=images/blank.png width =""800"" height = ""200""></p>","","","","","","","","","","","",""
"","12534.040000289679","sequential-stimulus-presentation","41","428864","0.0-11.0-1.7","SS1613098655334","trial","","40","800","13334.040000289679","images/stimuli/spore_stims/complex_07_A_c.gif","images/stimuli/spore_stims/complex_12_B_a.gif","","","","","1","complex_dissimilar","images/stimuli/spore_stims/complex_07_A_c.gif","right","","","","",""
"","4325.66999970004","html-keyboard-response","42","433202","0.0-12.0","SS1613098655334","pref_question","","98","","","","","<video width ='960' height = '540' style='padding-top:8%' autoplay muted><source src='images/stimuli/wall_pref.mp4' type='video/mp4'></video>","2","middle","45%","1","","","","","","","",""
"","14388.329999987036","sequential-stimulus-presentation","43","448443","0.0-13.0","SS1613098655334","pref_reveal","","40","800","15188.329999987036","null","null","","","","","1","","","","novel","","","",""
"","null","html-keyboard-response","44","449392","0.0-14.0-0.0","SS1613098655334","","","null","","","","","<p><img src= images/blank.png width =""200"" height = ""200"" style = ""float:right""></p><p><img src=images/blank.png width =""800"" height = ""200""></p>","","","","","","","","","","","",""
"","17107.495000120252","sequential-stimulus-presentation","45","467356","0.0-14.0-1.0","SS1613098655334","trial","","40","800","17907.495000120252","images/stimuli/spore_stims/complex_12_A_c.gif","images/stimuli/spore_stims/complex_10_A_c.gif","","","","","2","complex_dissimilar","images/stimuli/spore_stims/complex_10_A_c.gif","right","","","","",""
"","null","html-keyboard-response","46","468450","0.0-14.0-0.1","SS1613098655334","","","null","","","","","<p><img src= images/blank.png width =""200"" height = ""200"" style = ""float:right""></p><p><img src=images/blank.png width =""800"" height = ""200""></p>","","","","","","","","","","","",""
"","9351.834999863058","sequential-stimulus-presentation","47","478671","0.0-14.0-1.1","SS1613098655334","trial","","40","800","10151.834999863058","images/stimuli/spore_stims/complex_12_A_c.gif","images/stimuli/spore_stims/complex_10_A_c.gif","","","","","2","complex_dissimilar","images/stimuli/spore_stims/complex_10_A_c.gif","right","","","","",""
"","null","html-keyboard-response","48","479607","0.0-14.0-0.2","SS1613098655334","","","null","","","","","<p><img src= images/blank.png width =""200"" height = ""200"" style = ""float:right""></p><p><img src=images/blank.png width =""800"" height = ""200""></p>","","","","","","","","","","","",""
"","6249.91500005126","sequential-stimulus-presentation","49","486737","0.0-14.0-1.2","SS1613098655334","trial","","40","800","7049.91500005126","images/stimuli/spore_stims/complex_12_A_c.gif","images/stimuli/spore_stims/complex_10_A_c.gif","","","","","2","complex_dissimilar","images/stimuli/spore_stims/complex_10_A_c.gif","right","","","","",""
"","null","html-keyboard-response","50","487754","0.0-14.0-0.3","SS1613098655334","","","null","","","","","<p><img src= images/blank.png width =""200"" height = ""200"" style = ""float:right""></p><p><img src=images/blank.png width =""800"" height = ""200""></p>","","","","","","","","","","","",""
"","7437.959999777377","sequential-stimulus-presentation","51","496039","0.0-14.0-1.3","SS1613098655334","trial","","40","800","8237.959999777377","images/stimuli/spore_stims/complex_12_A_c.gif","images/stimuli/spore_stims/complex_10_A_c.gif","","","","","2","complex_dissimilar","images/stimuli/spore_stims/complex_10_A_c.gif","right","","","","",""
"","null","html-keyboard-response","52","497054","0.0-14.0-0.4","SS1613098655334","","","null","","","","","<p><img src= images/blank.png width =""200"" height = ""200"" style = ""float:right""></p><p><img src=images/blank.png width =""800"" height = ""200""></p>","","","","","","","","","","","",""
"","6106.13500000909","sequential-stimulus-presentation","53","503991","0.0-14.0-1.4","SS1613098655334","trial","","40","800","6906.13500000909","images/stimuli/spore_stims/complex_12_A_c.gif","images/stimuli/spore_stims/complex_10_A_c.gif","","","","","2","complex_dissimilar","images/stimuli/spore_stims/complex_10_A_c.gif","right","","","","",""
"","null","html-keyboard-response","54","505176","0.0-14.0-0.5","SS1613098655334","","","null","","","","","<p><img src= images/blank.png width =""200"" height = ""200"" style = ""float:right""></p><p><img src=images/blank.png width =""800"" height = ""200""></p>","","","","","","","","","","","",""
"","14716.585000045598","sequential-stimulus-presentation","55","520725","0.0-14.0-1.5","SS1613098655334","trial","","40","800","15516.585000045598","images/stimuli/spore_stims/complex_12_A_c.gif","images/stimuli/spore_stims/complex_10_A_c.gif","","","","","2","complex_dissimilar","images/stimuli/spore_stims/complex_12_A_c.gif","middle","","","","",""
"","null","html-keyboard-response","56","521914","0.0-14.0-0.6","SS1613098655334","","","null","","","","","<p><img src= images/blank.png width =""200"" height = ""200"" style = ""float:right""></p><p><img src=images/blank.png width =""800"" height = ""200""></p>","","","","","","","","","","","",""
"","7229.259999934584","sequential-stimulus-presentation","57","530103","0.0-14.0-1.6","SS1613098655334","trial","","40","800","8029.259999934584","images/stimuli/spore_stims/complex_12_A_c.gif","images/stimuli/spore_stims/complex_10_A_c.gif","","","","","2","complex_dissimilar","images/stimuli/spore_stims/complex_10_A_c.gif","right","","","","",""
"","null","html-keyboard-response","58","531400","0.0-14.0-0.7","SS1613098655334","","","null","","","","","<p><img src= images/blank.png width =""200"" height = ""200"" style = ""float:right""></p><p><img src=images/blank.png width =""800"" height = ""200""></p>","","","","","","","","","","","",""
"","5509.295000229031","sequential-stimulus-presentation","59","537749","0.0-14.0-1.7","SS1613098655334","trial","","40","800","6309.295000229031","images/stimuli/spore_stims/complex_12_A_c.gif","images/stimuli/spore_stims/complex_10_A_c.gif","","","","","2","complex_dissimilar","images/stimuli/spore_stims/complex_10_A_c.gif","right","","","","",""
"","2737.7549996599555","html-keyboard-response","60","540501","0.0-15.0","SS1613098655334","pref_question","","97","","","","","<video width ='960' height = '540' style='padding-top:8%' autoplay muted><source src='images/stimuli/wall_pref.mp4' type='video/mp4'></video>","1","left","25%","2","","","","","","","",""
"","14753.120000008494","sequential-stimulus-presentation","61","556089","0.0-16.0","SS1613098655334","pref_reveal","","40","800","15553.120000008494","null","null","","","","","2","","","","novel","","","",""
"","null","html-keyboard-response","62","557024","0.0-17.0-0.0","SS1613098655334","","","null","","","","","<p><img src= images/blank.png width =""200"" height = ""200"" style = ""float:right""></p><p><img src=images/blank.png width =""800"" height = ""200""></p>","","","","","","","","","","","",""
"","6874.574999790639","sequential-stimulus-presentation","63","564735","0.0-17.0-1.0","SS1613098655334","trial","","40","800","7674.574999790639","images/stimuli/spore_stims/simple_12_B_b.gif","images/stimuli/spore_stims/simple_12_A_b.gif","","","","","3","simple_similar","images/stimuli/spore_stims/simple_12_A_b.gif","left","","","","",""
"","null","html-keyboard-response","64","566026","0.0-17.0-0.1","SS1613098655334","","","null","","","","","<p><img src= images/blank.png width =""200"" height = ""200"" style = ""float:right""></p><p><img src=images/blank.png width =""800"" height = ""200""></p>","","","","","","","","","","","",""
"","6651.120000053197","sequential-stimulus-presentation","65","573507","0.0-17.0-1.1","SS1613098655334","trial","","40","800","7451.120000053197","images/stimuli/spore_stims/simple_12_B_b.gif","images/stimuli/spore_stims/simple_12_A_b.gif","","","","","3","simple_similar","images/stimuli/spore_stims/simple_12_A_b.gif","left","","","","",""
"","null","html-keyboard-response","66","574537","0.0-17.0-0.2","SS1613098655334","","","null","","","","","<p><img src= images/blank.png width =""200"" height = ""200"" style = ""float:right""></p><p><img src=images/blank.png width =""800"" height = ""200""></p>","","","","","","","","","","","",""
"","8227.734999731183","sequential-stimulus-presentation","67","583607","0.0-17.0-1.2","SS1613098655334","trial","","40","800","9027.734999731183","images/stimuli/spore_stims/simple_12_B_b.gif","images/stimuli/spore_stims/simple_12_A_b.gif","","","","","3","simple_similar","images/stimuli/spore_stims/simple_12_A_b.gif","left","","","","",""
"","null","html-keyboard-response","68","584884","0.0-17.0-0.3","SS1613098655334","","","null","","","","","<p><img src= images/blank.png width =""200"" height = ""200"" style = ""float:right""></p><p><img src=images/blank.png width =""800"" height = ""200""></p>","","","","","","","","","","","",""
"","8523.174999747425","sequential-stimulus-presentation","69","594240","0.0-17.0-1.3","SS1613098655334","trial","","40","800","9323.174999747425","images/stimuli/spore_stims/simple_12_B_b.gif","images/stimuli/spore_stims/simple_12_A_b.gif","","","","","3","simple_similar","images/stimuli/spore_stims/simple_12_B_b.gif","right","","","","",""
"","null","html-keyboard-response","70","595474","0.0-17.0-0.4","SS1613098655334","","","null","","","","","<p><img src= images/blank.png width =""200"" height = ""200"" style = ""float:right""></p><p><img src=images/blank.png width =""800"" height = ""200""></p>","","","","","","","","","","","",""
"","7747.375000268221","sequential-stimulus-presentation","71","604054","0.0-17.0-1.4","SS1613098655334","trial","","40","800","8547.37500026822","images/stimuli/spore_stims/simple_12_B_b.gif","images/stimuli/spore_stims/simple_12_A_b.gif","","","","","3","simple_similar","images/stimuli/spore_stims/simple_12_A_b.gif","left","","","","",""
"","null","html-keyboard-response","72","605386","0.0-17.0-0.5","SS1613098655334","","","null","","","","","<p><img src= images/blank.png width =""200"" height = ""200"" style = ""float:right""></p><p><img src=images/blank.png width =""800"" height = ""200""></p>","","","","","","","","","","","",""
"","4497.965000104159","sequential-stimulus-presentation","73","610720","0.0-17.0-1.5","SS1613098655334","trial","","40","800","5297.965000104159","images/stimuli/spore_stims/simple_12_B_b.gif","images/stimuli/spore_stims/simple_12_A_b.gif","","","","","3","simple_similar","images/stimuli/spore_stims/simple_12_A_b.gif","left","","","","",""
"","null","html-keyboard-response","74","611831","0.0-17.0-0.6","SS1613098655334","","","null","","","","","<p><img src= images/blank.png width =""200"" height = ""200"" style = ""float:right""></p><p><img src=images/blank.png width =""800"" height = ""200""></p>","","","","","","","","","","","",""
"","6700.674999970943","sequential-stimulus-presentation","75","619360","0.0-17.0-1.6","SS1613098655334","trial","","40","800","7500.674999970943","images/stimuli/spore_stims/simple_12_B_b.gif","images/stimuli/spore_stims/simple_12_A_b.gif","","","","","3","simple_similar","images/stimuli/spore_stims/simple_12_A_b.gif","left","","","","",""
"","null","html-keyboard-response","76","620534","0.0-17.0-0.7","SS1613098655334","","","null","","","","","<p><img src= images/blank.png width =""200"" height = ""200"" style = ""float:right""></p><p><img src=images/blank.png width =""800"" height = ""200""></p>","","","","","","","","","","","",""
"","5357.365000061691","sequential-stimulus-presentation","77","626734","0.0-17.0-1.7","SS1613098655334","trial","","40","800","6157.365000061691","images/stimuli/spore_stims/simple_12_B_b.gif","images/stimuli/spore_stims/simple_12_A_b.gif","","","","","3","simple_similar","images/stimuli/spore_stims/simple_12_A_b.gif","left","","","","",""
"","3344.5049999281764","html-keyboard-response","78","630094","0.0-18.0","SS1613098655334","pref_question","","99","","","","","<video width ='960' height = '540' style='padding-top:8%' autoplay muted><source src='images/stimuli/wall_pref.mp4' type='video/mp4'></video>","3","right","66%","3","","","","","","","",""
"","5581.740000285208","sequential-stimulus-presentation","79","636516","0.0-19.0","SS1613098655334","pref_reveal","","40","800","6381.740000285208","null","null","","","","","3","","","","deviant","","","",""
"","null","html-keyboard-response","80","637511","0.0-20.0-0.0","SS1613098655334","","","null","","","","","<p><img src= images/blank.png width =""200"" height = ""200"" style = ""float:right""></p><p><img src=images/blank.png width =""800"" height = ""200""></p>","","","","","","","","","","","",""
"","9417.320000007749","sequential-stimulus-presentation","81","647764","0.0-20.0-1.0","SS1613098655334","trial","","40","800","10217.320000007749","images/stimuli/spore_stims/complex_18_B_d.gif","images/stimuli/spore_stims/complex_18_A_d.gif","","","","","4","complex_similar","images/stimuli/spore_stims/complex_18_A_d.gif","right","","","","",""
"","null","html-keyboard-response","82","648605","0.0-20.0-0.1","SS1613098655334","","","null","","","","","<p><img src= images/blank.png width =""200"" height = ""200"" style = ""float:right""></p><p><img src=images/blank.png width =""800"" height = ""200""></p>","","","","","","","","","","","",""
"","6444.91000007838","sequential-stimulus-presentation","83","655907","0.0-20.0-1.1","SS1613098655334","trial","","40","800","7244.91000007838","images/stimuli/spore_stims/complex_18_B_d.gif","images/stimuli/spore_stims/complex_18_A_d.gif","","","","","4","complex_similar","images/stimuli/spore_stims/complex_18_A_d.gif","right","","","","",""
"","null","html-keyboard-response","84","656740","0.0-20.0-0.2","SS1613098655334","","","null","","","","","<p><img src= images/blank.png width =""200"" height = ""200"" style = ""float:right""></p><p><img src=images/blank.png width =""800"" height = ""200""></p>","","","","","","","","","","","",""
"","4025.245000142604","sequential-stimulus-presentation","85","661612","0.0-20.0-1.2","SS1613098655334","trial","","40","800","4825.245000142604","images/stimuli/spore_stims/complex_18_B_d.gif","images/stimuli/spore_stims/complex_18_A_d.gif","","","","","4","complex_similar","images/stimuli/spore_stims/complex_18_A_d.gif","right","","","","",""
"","null","html-keyboard-response","86","662877","0.0-20.0-0.3","SS1613098655334","","","null","","","","","<p><img src= images/blank.png width =""200"" height = ""200"" style = ""float:right""></p><p><img src=images/blank.png width =""800"" height = ""200""></p>","","","","","","","","","","","",""
"","13602.884999942034","sequential-stimulus-presentation","87","677318","0.0-20.0-1.3","SS1613098655334","trial","","40","800","14402.884999942034","images/stimuli/spore_stims/complex_18_B_d.gif","images/stimuli/spore_stims/complex_18_A_d.gif","","","","","4","complex_similar","images/stimuli/spore_stims/complex_18_B_d.gif","middle","","","","",""
"","null","html-keyboard-response","88","678206","0.0-20.0-0.4","SS1613098655334","","","null","","","","","<p><img src= images/blank.png width =""200"" height = ""200"" style = ""float:right""></p><p><img src=images/blank.png width =""800"" height = ""200""></p>","","","","","","","","","","","",""
"","3502.390000037849","sequential-stimulus-presentation","89","682730","0.0-20.0-1.4","SS1613098655334","trial","","40","800","4302.390000037849","images/stimuli/spore_stims/complex_18_B_d.gif","images/stimuli/spore_stims/complex_18_A_d.gif","","","","","4","complex_similar","images/stimuli/spore_stims/complex_18_A_d.gif","right","","","","",""
"","null","html-keyboard-response","90","683852","0.0-20.0-0.5","SS1613098655334","","","null","","","","","<p><img src= images/blank.png width =""200"" height = ""200"" style = ""float:right""></p><p><img src=images/blank.png width =""800"" height = ""200""></p>","","","","","","","","","","","",""
"","4638.755000196397","sequential-stimulus-presentation","91","689398","0.0-20.0-1.5","SS1613098655334","trial","","40","800","5438.755000196397","images/stimuli/spore_stims/complex_18_B_d.gif","images/stimuli/spore_stims/complex_18_A_d.gif","","","","","4","complex_similar","images/stimuli/spore_stims/complex_18_A_d.gif","right","","","","",""
"","null","html-keyboard-response","92","690510","0.0-20.0-0.6","SS1613098655334","","","null","","","","","<p><img src= images/blank.png width =""200"" height = ""200"" style = ""float:right""></p><p><img src=images/blank.png width =""800"" height = ""200""></p>","","","","","","","","","","","",""
"","2320.910000242293","sequential-stimulus-presentation","93","693762","0.0-20.0-1.6","SS1613098655334","trial","","40","800","3120.910000242293","images/stimuli/spore_stims/complex_18_B_d.gif","images/stimuli/spore_stims/complex_18_A_d.gif","","","","","4","complex_similar","images/stimuli/spore_stims/complex_18_A_d.gif","right","","","","",""
"","null","html-keyboard-response","94","694729","0.0-20.0-0.7","SS1613098655334","","","null","","","","","<p><img src= images/blank.png width =""200"" height = ""200"" style = ""float:right""></p><p><img src=images/blank.png width =""800"" height = ""200""></p>","","","","","","","","","","","",""
"","2162.5449997372925","sequential-stimulus-presentation","95","697709","0.0-20.0-1.7","SS1613098655334","trial","","40","800","2962.5449997372925","images/stimuli/spore_stims/complex_18_B_d.gif","images/stimuli/spore_stims/complex_18_A_d.gif","","","","","4","complex_similar","images/stimuli/spore_stims/complex_18_A_d.gif","right","","","","",""
"","3301.699999719858","html-keyboard-response","96","701024","0.0-21.0","SS1613098655334","pref_question","","97","","","","","<video width ='960' height = '540' style='padding-top:8%' autoplay muted><source src='images/stimuli/wall_pref.mp4' type='video/mp4'></video>","1","left","25%","4","","","","","","","",""
"","13683.565000072122","sequential-stimulus-presentation","97","715532","0.0-22.0","SS1613098655334","pref_reveal","","40","800","14483.565000072122","null","null","","","","","4","","","","novel","","","",""
"","null","html-keyboard-response","98","716718","0.0-23.0-0.0","SS1613098655334","","","null","","","","","<p><img src= images/blank.png width =""200"" height = ""200"" style = ""float:right""></p><p><img src=images/blank.png width =""800"" height = ""200""></p>","","","","","","","","","","","",""
"","8953.749999869615","sequential-stimulus-presentation","99","726549","0.0-23.0-1.0","SS1613098655334","trial","","40","800","9753.749999869615","images/stimuli/spore_stims/simple_03_B_d.gif","images/stimuli/spore_stims/simple_06_A_d.gif","","","","","5","simple_dissimilar","images/stimuli/spore_stims/simple_06_A_d.gif","middle","","","","",""
"","null","html-keyboard-response","100","727847","0.0-23.0-0.1","SS1613098655334","","","null","","","","","<p><img src= images/blank.png width =""200"" height = ""200"" style = ""float:right""></p><p><img src=images/blank.png width =""800"" height = ""200""></p>","","","","","","","","","","","",""
"","5140.275000128895","sequential-stimulus-presentation","101","733821","0.0-23.0-1.1","SS1613098655334","trial","","40","800","5940.275000128895","images/stimuli/spore_stims/simple_03_B_d.gif","images/stimuli/spore_stims/simple_06_A_d.gif","","","","","5","simple_dissimilar","images/stimuli/spore_stims/simple_06_A_d.gif","middle","","","","",""
"","null","html-keyboard-response","102","735002","0.0-23.0-0.2","SS1613098655334","","","null","","","","","<p><img src= images/blank.png width =""200"" height = ""200"" style = ""float:right""></p><p><img src=images/blank.png width =""800"" height = ""200""></p>","","","","","","","","","","","",""
"","4865.1750003919005","sequential-stimulus-presentation","103","740704","0.0-23.0-1.2","SS1613098655334","trial","","40","800","5665.1750003919005","images/stimuli/spore_stims/simple_03_B_d.gif","images/stimuli/spore_stims/simple_06_A_d.gif","","","","","5","simple_dissimilar","images/stimuli/spore_stims/simple_06_A_d.gif","middle","","","","",""
"","null","html-keyboard-response","104","741603","0.0-23.0-0.3","SS1613098655334","","","null","","","","","<p><img src= images/blank.png width =""200"" height = ""200"" style = ""float:right""></p><p><img src=images/blank.png width =""800"" height = ""200""></p>","","","","","","","","","","","",""
"","6734.029999934137","sequential-stimulus-presentation","105","749210","0.0-23.0-1.3","SS1613098655334","trial","","40","800","7534.029999934137","images/stimuli/spore_stims/simple_03_B_d.gif","images/stimuli/spore_stims/simple_06_A_d.gif","","","","","5","simple_dissimilar","images/stimuli/spore_stims/simple_06_A_d.gif","middle","","","","",""
"","null","html-keyboard-response","106","750423","0.0-23.0-0.4","SS1613098655334","","","null","","","","","<p><img src= images/blank.png width =""200"" height = ""200"" style = ""float:right""></p><p><img src=images/blank.png width =""800"" height = ""200""></p>","","","","","","","","","","","",""
"","4160.680000204593","sequential-stimulus-presentation","107","755410","0.0-23.0-1.4","SS1613098655334","trial","","40","800","4960.680000204593","images/stimuli/spore_stims/simple_03_B_d.gif","images/stimuli/spore_stims/simple_06_A_d.gif","","","","","5","simple_dissimilar","images/stimuli/spore_stims/simple_06_A_d.gif","middle","","","","",""
"","null","html-keyboard-response","108","756428","0.0-23.0-0.5","SS1613098655334","","","null","","","","","<p><img src= images/blank.png width =""200"" height = ""200"" style = ""float:right""></p><p><img src=images/blank.png width =""800"" height = ""200""></p>","","","","","","","","","","","",""
"","4117.534999735653","sequential-stimulus-presentation","109","761388","0.0-23.0-1.5","SS1613098655334","trial","","40","800","4917.534999735653","images/stimuli/spore_stims/simple_03_B_d.gif","images/stimuli/spore_stims/simple_06_A_d.gif","","","","","5","simple_dissimilar","images/stimuli/spore_stims/simple_06_A_d.gif","middle","","","","",""
"","null","html-keyboard-response","110","762264","0.0-23.0-0.6","SS1613098655334","","","null","","","","","<p><img src= images/blank.png width =""200"" height = ""200"" style = ""float:right""></p><p><img src=images/blank.png width =""800"" height = ""200""></p>","","","","","","","","","","","",""
"","9603.040000423789","sequential-stimulus-presentation","111","772696","0.0-23.0-1.6","SS1613098655334","trial","","40","800","10403.040000423789","images/stimuli/spore_stims/simple_03_B_d.gif","images/stimuli/spore_stims/simple_06_A_d.gif","","","","","5","simple_dissimilar","images/stimuli/spore_stims/simple_03_B_d.gif","right","","","","",""
"","null","html-keyboard-response","112","773530","0.0-23.0-0.7","SS1613098655334","","","null","","","","","<p><img src= images/blank.png width =""200"" height = ""200"" style = ""float:right""></p><p><img src=images/blank.png width =""800"" height = ""200""></p>","","","","","","","","","","","",""
"","3155.1550002768636","sequential-stimulus-presentation","113","777530","0.0-23.0-1.7","SS1613098655334","trial","","40","800","3955.1550002768636","images/stimuli/spore_stims/simple_03_B_d.gif","images/stimuli/spore_stims/simple_06_A_d.gif","","","","","5","simple_dissimilar","images/stimuli/spore_stims/simple_06_A_d.gif","middle","","","","",""
"","2590.924999676645","html-keyboard-response","114","780155","0.0-24.0","SS1613098655334","pref_question","","97","","","","","<video width ='960' height = '540' style='padding-top:8%' autoplay muted><source src='images/stimuli/wall_pref.mp4' type='video/mp4'></video>","1","left","25%","5","","","","","","","",""
"","8731.000000145286","sequential-stimulus-presentation","115","789708","0.0-25.0","SS1613098655334","pref_reveal","","40","800","9531.000000145286","null","null","","","","","5","","","","novel","","","",""
"","null","html-keyboard-response","116","790607","0.0-26.0-0.0","SS1613098655334","","","null","","","","","<p><img src= images/blank.png width =""200"" height = ""200"" style = ""float:right""></p><p><img src=images/blank.png width =""800"" height = ""200""></p>","","","","","","","","","","","",""
"","6964.154999703169","sequential-stimulus-presentation","117","798406","0.0-26.0-1.0","SS1613098655334","trial","","40","800","7764.154999703169","images/stimuli/spore_stims/simple_13_B_b.gif","images/stimuli/spore_stims/simple_15_A_b.gif","","","","","6","simple_dissimilar","images/stimuli/spore_stims/simple_15_A_b.gif","right","","","","",""
"","null","html-keyboard-response","118","799404","0.0-26.0-0.1","SS1613098655334","","","null","","","","","<p><img src= images/blank.png width =""200"" height = ""200"" style = ""float:right""></p><p><img src=images/blank.png width =""800"" height = ""200""></p>","","","","","","","","","","","",""
"","4444.759999867529","sequential-stimulus-presentation","119","804685","0.0-26.0-1.1","SS1613098655334","trial","","40","800","5244.759999867529","images/stimuli/spore_stims/simple_13_B_b.gif","images/stimuli/spore_stims/simple_15_A_b.gif","","","","","6","simple_dissimilar","images/stimuli/spore_stims/simple_15_A_b.gif","right","","","","",""
"","null","html-keyboard-response","120","805690","0.0-26.0-0.2","SS1613098655334","","","null","","","","","<p><img src= images/blank.png width =""200"" height = ""200"" style = ""float:right""></p><p><img src=images/blank.png width =""800"" height = ""200""></p>","","","","","","","","","","","",""
"","9590.224999934435","sequential-stimulus-presentation","121","816108","0.0-26.0-1.2","SS1613098655334","trial","","40","800","10390.224999934435","images/stimuli/spore_stims/simple_13_B_b.gif","images/stimuli/spore_stims/simple_15_A_b.gif","","","","","6","simple_dissimilar","images/stimuli/spore_stims/simple_15_A_b.gif","right","","","","",""
"","null","html-keyboard-response","122","817141","0.0-26.0-0.3","SS1613098655334","","","null","","","","","<p><img src= images/blank.png width =""200"" height = ""200"" style = ""float:right""></p><p><img src=images/blank.png width =""800"" height = ""200""></p>","","","","","","","","","","","",""
"","3270.314999856055","sequential-stimulus-presentation","123","821261","0.0-26.0-1.3","SS1613098655334","trial","","40","800","4070.314999856055","images/stimuli/spore_stims/simple_13_B_b.gif","images/stimuli/spore_stims/simple_15_A_b.gif","","","","","6","simple_dissimilar","images/stimuli/spore_stims/simple_15_A_b.gif","right","","","","",""
"","null","html-keyboard-response","124","822434","0.0-26.0-0.4","SS1613098655334","","","null","","","","","<p><img src= images/blank.png width =""200"" height = ""200"" style = ""float:right""></p><p><img src=images/blank.png width =""800"" height = ""200""></p>","","","","","","","","","","","",""
"","2879.7100000083447","sequential-stimulus-presentation","125","826153","0.0-26.0-1.4","SS1613098655334","trial","","40","800","3679.7100000083447","images/stimuli/spore_stims/simple_13_B_b.gif","images/stimuli/spore_stims/simple_15_A_b.gif","","","","","6","simple_dissimilar","images/stimuli/spore_stims/simple_15_A_b.gif","right","","","","",""
"","null","html-keyboard-response","126","827465","0.0-26.0-0.5","SS1613098655334","","","null","","","","","<p><img src= images/blank.png width =""200"" height = ""200"" style = ""float:right""></p><p><img src=images/blank.png width =""800"" height = ""200""></p>","","","","","","","","","","","",""
"","2072.0150000415742","sequential-stimulus-presentation","127","830375","0.0-26.0-1.5","SS1613098655334","trial","","40","800","2872.0150000415742","images/stimuli/spore_stims/simple_13_B_b.gif","images/stimuli/spore_stims/simple_15_A_b.gif","","","","","6","simple_dissimilar","images/stimuli/spore_stims/simple_15_A_b.gif","right","","","","",""
"","null","html-keyboard-response","128","831311","0.0-26.0-0.6","SS1613098655334","","","null","","","","","<p><img src= images/blank.png width =""200"" height = ""200"" style = ""float:right""></p><p><img src=images/blank.png width =""800"" height = ""200""></p>","","","","","","","","","","","",""
"","13905.999999959022","sequential-stimulus-presentation","129","846101","0.0-26.0-1.6","SS1613098655334","trial","","40","800","14705.999999959022","images/stimuli/spore_stims/simple_13_B_b.gif","images/stimuli/spore_stims/simple_15_A_b.gif","","","","","6","simple_dissimilar","images/stimuli/spore_stims/simple_13_B_b.gif","left","","","","",""
"","null","html-keyboard-response","130","847401","0.0-26.0-0.7","SS1613098655334","","","null","","","","","<p><img src= images/blank.png width =""200"" height = ""200"" style = ""float:right""></p><p><img src=images/blank.png width =""800"" height = ""200""></p>","","","","","","","","","","","",""
"","3778.4549999050796","sequential-stimulus-presentation","131","852011","0.0-26.0-1.7","SS1613098655334","trial","","40","800","4578.45499990508","images/stimuli/spore_stims/simple_13_B_b.gif","images/stimuli/spore_stims/simple_15_A_b.gif","","","","","6","simple_dissimilar","images/stimuli/spore_stims/simple_15_A_b.gif","right","","","","",""
"","2681.8949999287724","html-keyboard-response","132","854710","0.0-27.0","SS1613098655334","pref_question","","98","","","","","<video width ='960' height = '540' style='padding-top:8%' autoplay muted><source src='images/stimuli/wall_pref.mp4' type='video/mp4'></video>","2","middle","45%","6","","","","","","","",""
"","12909.095000009984","sequential-stimulus-presentation","133","868457","0.0-28.0","SS1613098655334","pref_reveal","","40","800","13709.095000009984","null","null","","","","","6","","","","novel","","","",""
"","null","html-keyboard-response","134","869625","0.0-29.0-0.0","SS1613098655334","","","null","","","","","<p><img src= images/blank.png width =""200"" height = ""200"" style = ""float:right""></p><p><img src=images/blank.png width =""800"" height = ""200""></p>","","","","","","","","","","","",""
"","10494.059999939054","sequential-stimulus-presentation","135","880973","0.0-29.0-1.0","SS1613098655334","trial","","40","800","11294.059999939054","images/stimuli/spore_stims/simple_10_A_c.gif","images/stimuli/spore_stims/simple_10_B_c.gif","","","","","7","simple_similar","images/stimuli/spore_stims/simple_10_B_c.gif","right","","","","",""
"","null","html-keyboard-response","136","881873","0.0-29.0-0.1","SS1613098655334","","","null","","","","","<p><img src= images/blank.png width =""200"" height = ""200"" style = ""float:right""></p><p><img src=images/blank.png width =""800"" height = ""200""></p>","","","","","","","","","","","",""
"","4987.1499999426305","sequential-stimulus-presentation","137","887705","0.0-29.0-1.1","SS1613098655334","trial","","40","800","5787.1499999426305","images/stimuli/spore_stims/simple_10_A_c.gif","images/stimuli/spore_stims/simple_10_B_c.gif","","","","","7","simple_similar","images/stimuli/spore_stims/simple_10_B_c.gif","right","","","","",""
"","null","html-keyboard-response","138","888540","0.0-29.0-0.2","SS1613098655334","","","null","","","","","<p><img src= images/blank.png width =""200"" height = ""200"" style = ""float:right""></p><p><img src=images/blank.png width =""800"" height = ""200""></p>","","","","","","","","","","","",""
"","7697.6899998262525","sequential-stimulus-presentation","139","897088","0.0-29.0-1.2","SS1613098655334","trial","","40","800","8497.689999826252","images/stimuli/spore_stims/simple_10_A_c.gif","images/stimuli/spore_stims/simple_10_B_c.gif","","","","","7","simple_similar","images/stimuli/spore_stims/simple_10_B_c.gif","right","","","","",""
"","null","html-keyboard-response","140","898246","0.0-29.0-0.3","SS1613098655334","","","null","","","","","<p><img src= images/blank.png width =""200"" height = ""200"" style = ""float:right""></p><p><img src=images/blank.png width =""800"" height = ""200""></p>","","","","","","","","","","","",""
"","7836.640000343323","sequential-stimulus-presentation","141","906905","0.0-29.0-1.3","SS1613098655334","trial","","40","800","8636.640000343323","images/stimuli/spore_stims/simple_10_A_c.gif","images/stimuli/spore_stims/simple_10_B_c.gif","","","","","7","simple_similar","images/stimuli/spore_stims/simple_10_A_c.gif","middle","","","","",""
"","null","html-keyboard-response","142","908119","0.0-29.0-0.4","SS1613098655334","","","null","","","","","<p><img src= images/blank.png width =""200"" height = ""200"" style = ""float:right""></p><p><img src=images/blank.png width =""800"" height = ""200""></p>","","","","","","","","","","","",""
"","6997.650000266731","sequential-stimulus-presentation","143","915982","0.0-29.0-1.4","SS1613098655334","trial","","40","800","7797.650000266731","images/stimuli/spore_stims/simple_10_A_c.gif","images/stimuli/spore_stims/simple_10_B_c.gif","","","","","7","simple_similar","images/stimuli/spore_stims/simple_10_B_c.gif","right","","","","",""
"","null","html-keyboard-response","144","916899","0.0-29.0-0.5","SS1613098655334","","","null","","","","","<p><img src= images/blank.png width =""200"" height = ""200"" style = ""float:right""></p><p><img src=images/blank.png width =""800"" height = ""200""></p>","","","","","","","","","","","",""
"","753.885000012815","sequential-stimulus-presentation","145","918498","0.0-29.0-1.5","SS1613098655334","trial","","40","800","1553.885000012815","images/stimuli/spore_stims/simple_10_A_c.gif","images/stimuli/spore_stims/simple_10_B_c.gif","","","","","7","simple_similar","images/stimuli/spore_stims/simple_10_B_c.gif","right","","","","",""
"","null","html-keyboard-response","146","919727","0.0-29.0-0.6","SS1613098655334","","","null","","","","","<p><img src= images/blank.png width =""200"" height = ""200"" style = ""float:right""></p><p><img src=images/blank.png width =""800"" height = ""200""></p>","","","","","","","","","","","",""
"","1440.1800003834069","sequential-stimulus-presentation","147","921999","0.0-29.0-1.6","SS1613098655334","trial","","40","800","2240.180000383407","images/stimuli/spore_stims/simple_10_A_c.gif","images/stimuli/spore_stims/simple_10_B_c.gif","","","","","7","simple_similar","images/stimuli/spore_stims/simple_10_B_c.gif","right","","","","",""
"","null","html-keyboard-response","148","923290","0.0-29.0-0.7","SS1613098655334","","","null","","","","","<p><img src= images/blank.png width =""200"" height = ""200"" style = ""float:right""></p><p><img src=images/blank.png width =""800"" height = ""200""></p>","","","","","","","","","","","",""
"","2112.174999900162","sequential-stimulus-presentation","149","926246","0.0-29.0-1.7","SS1613098655334","trial","","40","800","2912.174999900162","images/stimuli/spore_stims/simple_10_A_c.gif","images/stimuli/spore_stims/simple_10_B_c.gif","","","","","7","simple_similar","images/stimuli/spore_stims/simple_10_B_c.gif","right","","","","",""
"","2249.9650004319847","html-keyboard-response","150","928516","0.0-30.0","SS1613098655334","pref_question","","97","","","","","<video width ='960' height = '540' style='padding-top:8%' autoplay muted><source src='images/stimuli/wall_pref.mp4' type='video/mp4'></video>","1","left","25%","7","","","","","","","",""
"","6653.510000091046","sequential-stimulus-presentation","151","936039","0.0-31.0","SS1613098655334","pref_reveal","","40","800","7453.510000091046","null","null","","","","","7","","","","novel","","","",""
"","null","html-keyboard-response","152","937128","0.0-32.0-0.0","SS1613098655334","","","null","","","","","<p><img src= images/blank.png width =""200"" height = ""200"" style = ""float:right""></p><p><img src=images/blank.png width =""800"" height = ""200""></p>","","","","","","","","","","","",""
"","7960.944999940693","sequential-stimulus-presentation","153","945939","0.0-32.0-1.0","SS1613098655334","trial","","40","800","8760.944999940693","images/stimuli/spore_stims/complex_09_B_a.gif","images/stimuli/spore_stims/complex_09_A_a.gif","","","","","8","complex_similar","images/stimuli/spore_stims/complex_09_A_a.gif","middle","","","","",""
"","null","html-keyboard-response","154","946804","0.0-32.0-0.1","SS1613098655334","","","null","","","","","<p><img src= images/blank.png width =""200"" height = ""200"" style = ""float:right""></p><p><img src=images/blank.png width =""800"" height = ""200""></p>","","","","","","","","","","","",""
"","4898.590000346303","sequential-stimulus-presentation","155","952546","0.0-32.0-1.1","SS1613098655334","trial","","40","800","5698.590000346303","images/stimuli/spore_stims/complex_09_B_a.gif","images/stimuli/spore_stims/complex_09_A_a.gif","","","","","8","complex_similar","images/stimuli/spore_stims/complex_09_A_a.gif","middle","","","","",""
"","null","html-keyboard-response","156","953537","0.0-32.0-0.2","SS1613098655334","","","null","","","","","<p><img src= images/blank.png width =""200"" height = ""200"" style = ""float:right""></p><p><img src=images/blank.png width =""800"" height = ""200""></p>","","","","","","","","","","","",""
"","1648.6400002613664","sequential-stimulus-presentation","157","956019","0.0-32.0-1.2","SS1613098655334","trial","","40","800","2448.6400002613664","images/stimuli/spore_stims/complex_09_B_a.gif","images/stimuli/spore_stims/complex_09_A_a.gif","","","","","8","complex_similar","images/stimuli/spore_stims/complex_09_A_a.gif","middle","","","","",""
"","null","html-keyboard-response","158","957239","0.0-32.0-0.3","SS1613098655334","","","null","","","","","<p><img src= images/blank.png width =""200"" height = ""200"" style = ""float:right""></p><p><img src=images/blank.png width =""800"" height = ""200""></p>","","","","","","","","","","","",""
"","1462.824999820441","sequential-stimulus-presentation","159","959529","0.0-32.0-1.3","SS1613098655334","trial","","40","800","2262.824999820441","images/stimuli/spore_stims/complex_09_B_a.gif","images/stimuli/spore_stims/complex_09_A_a.gif","","","","","8","complex_similar","images/stimuli/spore_stims/complex_09_A_a.gif","middle","","","","",""
"","null","html-keyboard-response","160","960490","0.0-32.0-0.4","SS1613098655334","","","null","","","","","<p><img src= images/blank.png width =""200"" height = ""200"" style = ""float:right""></p><p><img src=images/blank.png width =""800"" height = ""200""></p>","","","","","","","","","","","",""
"","8879.949999973178","sequential-stimulus-presentation","161","970213","0.0-32.0-1.4","SS1613098655334","trial","","40","800","9679.949999973178","images/stimuli/spore_stims/complex_09_B_a.gif","images/stimuli/spore_stims/complex_09_A_a.gif","","","","","8","complex_similar","images/stimuli/spore_stims/complex_09_B_a.gif","right","","","","",""
"","null","html-keyboard-response","162","971378","0.0-32.0-0.5","SS1613098655334","","","null","","","","","<p><img src= images/blank.png width =""200"" height = ""200"" style = ""float:right""></p><p><img src=images/blank.png width =""800"" height = ""200""></p>","","","","","","","","","","","",""
"","7415.444999933243","sequential-stimulus-presentation","163","979635","0.0-32.0-1.5","SS1613098655334","trial","","40","800","8215.444999933243","images/stimuli/spore_stims/complex_09_B_a.gif","images/stimuli/spore_stims/complex_09_A_a.gif","","","","","8","complex_similar","images/stimuli/spore_stims/complex_09_A_a.gif","middle","","","","",""
"","null","html-keyboard-response","164","980723","0.0-32.0-0.6","SS1613098655334","","","null","","","","","<p><img src= images/blank.png width =""200"" height = ""200"" style = ""float:right""></p><p><img src=images/blank.png width =""800"" height = ""200""></p>","","","","","","","","","","","",""
"","3563.7799999676645","sequential-stimulus-presentation","165","985182","0.0-32.0-1.6","SS1613098655334","trial","","40","800","4363.7799999676645","images/stimuli/spore_stims/complex_09_B_a.gif","images/stimuli/spore_stims/complex_09_A_a.gif","","","","","8","complex_similar","images/stimuli/spore_stims/complex_09_A_a.gif","middle","","","","",""
"","null","html-keyboard-response","166","986491","0.0-32.0-0.7","SS1613098655334","","","null","","","","","<p><img src= images/blank.png width =""200"" height = ""200"" style = ""float:right""></p><p><img src=images/blank.png width =""800"" height = ""200""></p>","","","","","","","","","","","",""
"","2478.374999947846","sequential-stimulus-presentation","167","989797","0.0-32.0-1.7","SS1613098655334","trial","","40","800","3278.374999947846","images/stimuli/spore_stims/complex_09_B_a.gif","images/stimuli/spore_stims/complex_09_A_a.gif","","","","","8","complex_similar","images/stimuli/spore_stims/complex_09_A_a.gif","middle","","","","",""
"","2720.5750001594424","html-keyboard-response","168","992538","0.0-33.0","SS1613098655334","pref_question","","97","","","","","<video width ='960' height = '540' style='padding-top:8%' autoplay muted><source src='images/stimuli/wall_pref.mp4' type='video/mp4'></video>","1","left","25%","8","","","","","","","",""
"","7496.460000053048","sequential-stimulus-presentation","169","1000880","0.0-34.0","SS1613098655334","pref_reveal","","40","800","8296.460000053048","null","null","","","","","8","","","","novel","","","",""
"","null","html-keyboard-response","170","1001896","0.0-35.0-0.0","SS1613098655334","","","null","","","","","<p><img src= images/blank.png width =""200"" height = ""200"" style = ""float:right""></p><p><img src=images/blank.png width =""800"" height = ""200""></p>","","","","","","","","","","","",""
"","8926.250000018626","sequential-stimulus-presentation","171","1011665","0.0-35.0-1.0","SS1613098655334","trial","","40","800","9726.250000018626","images/stimuli/spore_stims/complex_13_A_a.gif","images/stimuli/spore_stims/complex_19_A_a.gif","","","","","9","complex_dissimilar","images/stimuli/spore_stims/complex_19_A_a.gif","middle","","","","",""
"","null","html-keyboard-response","172","1012916","0.0-35.0-0.1","SS1613098655334","","","null","","","","","<p><img src= images/blank.png width =""200"" height = ""200"" style = ""float:right""></p><p><img src=images/blank.png width =""800"" height = ""200""></p>","","","","","","","","","","","",""
"","7877.764999866486","sequential-stimulus-presentation","173","1021627","0.0-35.0-1.1","SS1613098655334","trial","","40","800","8677.764999866486","images/stimuli/spore_stims/complex_13_A_a.gif","images/stimuli/spore_stims/complex_19_A_a.gif","","","","","9","complex_dissimilar","images/stimuli/spore_stims/complex_19_A_a.gif","middle","","","","",""
"","null","html-keyboard-response","174","1022519","0.0-35.0-0.2","SS1613098655334","","","null","","","","","<p><img src= images/blank.png width =""200"" height = ""200"" style = ""float:right""></p><p><img src=images/blank.png width =""800"" height = ""200""></p>","","","","","","","","","","","",""
"","6994.999999646097","sequential-stimulus-presentation","175","1030347","0.0-35.0-1.2","SS1613098655334","trial","","40","800","7794.999999646097","images/stimuli/spore_stims/complex_13_A_a.gif","images/stimuli/spore_stims/complex_19_A_a.gif","","","","","9","complex_dissimilar","images/stimuli/spore_stims/complex_19_A_a.gif","middle","","","","",""
"","null","html-keyboard-response","176","1031191","0.0-35.0-0.3","SS1613098655334","","","null","","","","","<p><img src= images/blank.png width =""200"" height = ""200"" style = ""float:right""></p><p><img src=images/blank.png width =""800"" height = ""200""></p>","","","","","","","","","","","",""
"","3363.1099998019636","sequential-stimulus-presentation","177","1035382","0.0-35.0-1.3","SS1613098655334","trial","","40","800","4163.109999801964","images/stimuli/spore_stims/complex_13_A_a.gif","images/stimuli/spore_stims/complex_19_A_a.gif","","","","","9","complex_dissimilar","images/stimuli/spore_stims/complex_19_A_a.gif","middle","","","","",""
"","null","html-keyboard-response","178","1036285","0.0-35.0-0.4","SS1613098655334","","","null","","","","","<p><img src= images/blank.png width =""200"" height = ""200"" style = ""float:right""></p><p><img src=images/blank.png width =""800"" height = ""200""></p>","","","","","","","","","","","",""
"","4162.394999992102","sequential-stimulus-presentation","179","1041281","0.0-35.0-1.4","SS1613098655334","trial","","40","800","4962.394999992102","images/stimuli/spore_stims/complex_13_A_a.gif","images/stimuli/spore_stims/complex_19_A_a.gif","","","","","9","complex_dissimilar","images/stimuli/spore_stims/complex_19_A_a.gif","middle","","","","",""
"","null","html-keyboard-response","180","1042597","0.0-35.0-0.5","SS1613098655334","","","null","","","","","<p><img src= images/blank.png width =""200"" height = ""200"" style = ""float:right""></p><p><img src=images/blank.png width =""800"" height = ""200""></p>","","","","","","","","","","","",""
"","3096.0000003688037","sequential-stimulus-presentation","181","1046528","0.0-35.0-1.5","SS1613098655334","trial","","40","800","3896.0000003688037","images/stimuli/spore_stims/complex_13_A_a.gif","images/stimuli/spore_stims/complex_19_A_a.gif","","","","","9","complex_dissimilar","images/stimuli/spore_stims/complex_19_A_a.gif","middle","","","","",""
"","null","html-keyboard-response","182","1047753","0.0-35.0-0.6","SS1613098655334","","","null","","","","","<p><img src= images/blank.png width =""200"" height = ""200"" style = ""float:right""></p><p><img src=images/blank.png width =""800"" height = ""200""></p>","","","","","","","","","","","",""
"","9289.374999701977","sequential-stimulus-presentation","183","1057891","0.0-35.0-1.6","SS1613098655334","trial","","40","800","10089.374999701977","images/stimuli/spore_stims/complex_13_A_a.gif","images/stimuli/spore_stims/complex_19_A_a.gif","","","","","9","complex_dissimilar","images/stimuli/spore_stims/complex_13_A_a.gif","left","","","","",""
"","null","html-keyboard-response","184","1059132","0.0-35.0-0.7","SS1613098655334","","","null","","","","","<p><img src= images/blank.png width =""200"" height = ""200"" style = ""float:right""></p><p><img src=images/blank.png width =""800"" height = ""200""></p>","","","","","","","","","","","",""
"","8381.450000219047","sequential-stimulus-presentation","185","1068377","0.0-35.0-1.7","SS1613098655334","trial","","40","800","9181.450000219047","images/stimuli/spore_stims/complex_13_A_a.gif","images/stimuli/spore_stims/complex_19_A_a.gif","","","","","9","complex_dissimilar","images/stimuli/spore_stims/complex_19_A_a.gif","middle","","","","",""
"","3068.8049998134375","html-keyboard-response","186","1071465","0.0-36.0","SS1613098655334","pref_question","","98","","","","","<video width ='960' height = '540' style='padding-top:8%' autoplay muted><source src='images/stimuli/wall_pref.mp4' type='video/mp4'></video>","2","middle","45%","9","","","","","","","",""
"","2405.264999717474","sequential-stimulus-presentation","187","1074695","0.0-37.0","SS1613098655334","pref_reveal","","40","800","3205.264999717474","null","null","","","","","9","","","","background","","","",""
"","null","html-keyboard-response","188","1075955","0.0-38.0-0.0","SS1613098655334","","","null","","","","","<p><img src= images/blank.png width =""200"" height = ""200"" style = ""float:right""></p><p><img src=images/blank.png width =""800"" height = ""200""></p>","","","","","","","","","","","",""
"","6406.979999970645","sequential-stimulus-presentation","189","1083194","0.0-38.0-1.0","SS1613098655334","trial","","40","800","7206.979999970645","images/stimuli/spore_stims/complex_01_A_d.gif","images/stimuli/spore_stims/complex_03_A_c.gif","","","","","10","complex_dissimilar","images/stimuli/spore_stims/complex_03_A_c.gif","left","","","","",""
"","null","html-keyboard-response","190","1084191","0.0-38.0-0.1","SS1613098655334","","","null","","","","","<p><img src= images/blank.png width =""200"" height = ""200"" style = ""float:right""></p><p><img src=images/blank.png width =""800"" height = ""200""></p>","","","","","","","","","","","",""
"","2926.1599997989833","sequential-stimulus-presentation","191","1087958","0.0-38.0-1.1","SS1613098655334","trial","","40","800","3726.1599997989833","images/stimuli/spore_stims/complex_01_A_d.gif","images/stimuli/spore_stims/complex_03_A_c.gif","","","","","10","complex_dissimilar","images/stimuli/spore_stims/complex_03_A_c.gif","left","","","","",""
"","null","html-keyboard-response","192","1089268","0.0-38.0-0.2","SS1613098655334","","","null","","","","","<p><img src= images/blank.png width =""200"" height = ""200"" style = ""float:right""></p><p><img src=images/blank.png width =""800"" height = ""200""></p>","","","","","","","","","","","",""
"","6241.095000412315","sequential-stimulus-presentation","193","1096356","0.0-38.0-1.2","SS1613098655334","trial","","40","800","7041.095000412315","images/stimuli/spore_stims/complex_01_A_d.gif","images/stimuli/spore_stims/complex_03_A_c.gif","","","","","10","complex_dissimilar","images/stimuli/spore_stims/complex_03_A_c.gif","left","","","","",""
"","null","html-keyboard-response","194","1097454","0.0-38.0-0.3","SS1613098655334","","","null","","","","","<p><img src= images/blank.png width =""200"" height = ""200"" style = ""float:right""></p><p><img src=images/blank.png width =""800"" height = ""200""></p>","","","","","","","","","","","",""
"","4153.969999868423","sequential-stimulus-presentation","195","1102466","0.0-38.0-1.3","SS1613098655334","trial","","40","800","4953.969999868423","images/stimuli/spore_stims/complex_01_A_d.gif","images/stimuli/spore_stims/complex_03_A_c.gif","","","","","10","complex_dissimilar","images/stimuli/spore_stims/complex_03_A_c.gif","left","","","","",""
"","null","html-keyboard-response","196","1103351","0.0-38.0-0.4","SS1613098655334","","","null","","","","","<p><img src= images/blank.png width =""200"" height = ""200"" style = ""float:right""></p><p><img src=images/blank.png width =""800"" height = ""200""></p>","","","","","","","","","","","",""
"","5788.66000007838","sequential-stimulus-presentation","197","1109976","0.0-38.0-1.4","SS1613098655334","trial","","40","800","6588.66000007838","images/stimuli/spore_stims/complex_01_A_d.gif","images/stimuli/spore_stims/complex_03_A_c.gif","","","","","10","complex_dissimilar","images/stimuli/spore_stims/complex_03_A_c.gif","left","","","","",""
"","null","html-keyboard-response","198","1111031","0.0-38.0-0.5","SS1613098655334","","","null","","","","","<p><img src= images/blank.png width =""200"" height = ""200"" style = ""float:right""></p><p><img src=images/blank.png width =""800"" height = ""200""></p>","","","","","","","","","","","",""
"","5662.924999836832","sequential-stimulus-presentation","199","1117541","0.0-38.0-1.5","SS1613098655334","trial","","40","800","6462.924999836832","images/stimuli/spore_stims/complex_01_A_d.gif","images/stimuli/spore_stims/complex_03_A_c.gif","","","","","10","complex_dissimilar","images/stimuli/spore_stims/complex_03_A_c.gif","left","","","","",""
"","null","html-keyboard-response","200","1118407","0.0-38.0-0.6","SS1613098655334","","","null","","","","","<p><img src= images/blank.png width =""200"" height = ""200"" style = ""float:right""></p><p><img src=images/blank.png width =""800"" height = ""200""></p>","","","","","","","","","","","",""
"","7331.139999907464","sequential-stimulus-presentation","201","1126582","0.0-38.0-1.6","SS1613098655334","trial","","40","800","8131.139999907464","images/stimuli/spore_stims/complex_01_A_d.gif","images/stimuli/spore_stims/complex_03_A_c.gif","","","","","10","complex_dissimilar","images/stimuli/spore_stims/complex_01_A_d.gif","middle","","","","",""
"","null","html-keyboard-response","202","1127721","0.0-38.0-0.7","SS1613098655334","","","null","","","","","<p><img src= images/blank.png width =""200"" height = ""200"" style = ""float:right""></p><p><img src=images/blank.png width =""800"" height = ""200""></p>","","","","","","","","","","","",""
"","6956.2650001607835","sequential-stimulus-presentation","203","1135506","0.0-38.0-1.7","SS1613098655334","trial","","40","800","7756.2650001607835","images/stimuli/spore_stims/complex_01_A_d.gif","images/stimuli/spore_stims/complex_03_A_c.gif","","","","","10","complex_dissimilar","images/stimuli/spore_stims/complex_03_A_c.gif","left","","","","",""
"","2693.7299999408424","html-keyboard-response","204","1138222","0.0-39.0","SS1613098655334","pref_question","","99","","","","","<video width ='960' height = '540' style='padding-top:8%' autoplay muted><source src='images/stimuli/wall_pref.mp4' type='video/mp4'></video>","3","right","66%","10","","","","","","","",""
"","8586.459999904037","sequential-stimulus-presentation","205","1147665","0.0-40.0","SS1613098655334","pref_reveal","","40","800","9386.459999904037","null","null","","","","","10","","","","novel","","","",""
"","null","html-keyboard-response","206","1148956","0.0-41.0-0.0","SS1613098655334","","","null","","","","","<p><img src= images/blank.png width =""200"" height = ""200"" style = ""float:right""></p><p><img src=images/blank.png width =""800"" height = ""200""></p>","","","","","","","","","","","",""
"","6687.615000177175","sequential-stimulus-presentation","207","1156485","0.0-41.0-1.0","SS1613098655334","trial","","40","800","7487.615000177175","images/stimuli/spore_stims/complex_16_B_d.gif","images/stimuli/spore_stims/complex_16_A_d.gif","","","","","11","complex_similar","images/stimuli/spore_stims/complex_16_A_d.gif","middle","","","","",""
"","null","html-keyboard-response","208","1157562","0.0-41.0-0.1","SS1613098655334","","","null","","","","","<p><img src= images/blank.png width =""200"" height = ""200"" style = ""float:right""></p><p><img src=images/blank.png width =""800"" height = ""200""></p>","","","","","","","","","","","",""
"","5952.750000171363","sequential-stimulus-presentation","209","1164419","0.0-41.0-1.1","SS1613098655334","trial","","40","800","6752.750000171363","images/stimuli/spore_stims/complex_16_B_d.gif","images/stimuli/spore_stims/complex_16_A_d.gif","","","","","11","complex_similar","images/stimuli/spore_stims/complex_16_A_d.gif","middle","","","","",""
"","null","html-keyboard-response","210","1165280","0.0-41.0-0.2","SS1613098655334","","","null","","","","","<p><img src= images/blank.png width =""200"" height = ""200"" style = ""float:right""></p><p><img src=images/blank.png width =""800"" height = ""200""></p>","","","","","","","","","","","",""
"","7018.61000014469","sequential-stimulus-presentation","211","1173143","0.0-41.0-1.2","SS1613098655334","trial","","40","800","7818.61000014469","images/stimuli/spore_stims/complex_16_B_d.gif","images/stimuli/spore_stims/complex_16_A_d.gif","","","","","11","complex_similar","images/stimuli/spore_stims/complex_16_B_d.gif","left","","","","",""
"","null","html-keyboard-response","212","1174420","0.0-41.0-0.3","SS1613098655334","","","null","","","","","<p><img src= images/blank.png width =""200"" height = ""200"" style = ""float:right""></p><p><img src=images/blank.png width =""800"" height = ""200""></p>","","","","","","","","","","","",""
"","4729.410000145435","sequential-stimulus-presentation","213","1179989","0.0-41.0-1.3","SS1613098655334","trial","","40","800","5529.410000145435","images/stimuli/spore_stims/complex_16_B_d.gif","images/stimuli/spore_stims/complex_16_A_d.gif","","","","","11","complex_similar","images/stimuli/spore_stims/complex_16_A_d.gif","middle","","","","",""
"","null","html-keyboard-response","214","1180969","0.0-41.0-0.4","SS1613098655334","","","null","","","","","<p><img src= images/blank.png width =""200"" height = ""200"" style = ""float:right""></p><p><img src=images/blank.png width =""800"" height = ""200""></p>","","","","","","","","","","","",""
"","6440.469999797642","sequential-stimulus-presentation","215","1188248","0.0-41.0-1.4","SS1613098655334","trial","","40","800","7240.469999797642","images/stimuli/spore_stims/complex_16_B_d.gif","images/stimuli/spore_stims/complex_16_A_d.gif","","","","","11","complex_similar","images/stimuli/spore_stims/complex_16_A_d.gif","middle","","","","",""
"","null","html-keyboard-response","216","1189311","0.0-41.0-0.5","SS1613098655334","","","null","","","","","<p><img src= images/blank.png width =""200"" height = ""200"" style = ""float:right""></p><p><img src=images/blank.png width =""800"" height = ""200""></p>","","","","","","","","","","","",""
"","1106.1700000427663","sequential-stimulus-presentation","217","1191249","0.0-41.0-1.5","SS1613098655334","trial","","40","800","1906.1700000427663","images/stimuli/spore_stims/complex_16_B_d.gif","images/stimuli/spore_stims/complex_16_A_d.gif","","","","","11","complex_similar","images/stimuli/spore_stims/complex_16_A_d.gif","middle","","","","",""
"","null","html-keyboard-response","218","1192452","0.0-41.0-0.6","SS1613098655334","","","null","","","","","<p><img src= images/blank.png width =""200"" height = ""200"" style = ""float:right""></p><p><img src=images/blank.png width =""800"" height = ""200""></p>","","","","","","","","","","","",""
"","983.9099999517202","sequential-stimulus-presentation","219","1194276","0.0-41.0-1.6","SS1613098655334","trial","","40","800","1783.9099999517202","images/stimuli/spore_stims/complex_16_B_d.gif","images/stimuli/spore_stims/complex_16_A_d.gif","","","","","11","complex_similar","images/stimuli/spore_stims/complex_16_A_d.gif","middle","","","","",""
"","null","html-keyboard-response","220","1195547","0.0-41.0-0.7","SS1613098655334","","","null","","","","","<p><img src= images/blank.png width =""200"" height = ""200"" style = ""float:right""></p><p><img src=images/blank.png width =""800"" height = ""200""></p>","","","","","","","","","","","",""
"","2117.8200002759695","sequential-stimulus-presentation","221","1198581","0.0-41.0-1.7","SS1613098655334","trial","","40","800","2917.8200002759695","images/stimuli/spore_stims/complex_16_B_d.gif","images/stimuli/spore_stims/complex_16_A_d.gif","","","","","11","complex_similar","images/stimuli/spore_stims/complex_16_A_d.gif","middle","","","","",""
"","3126.7450000159442","html-keyboard-response","222","1201751","0.0-42.0","SS1613098655334","pref_question","","99","","","","","<video width ='960' height = '540' style='padding-top:8%' autoplay muted><source src='images/stimuli/wall_pref.mp4' type='video/mp4'></video>","3","right","66%","11","","","","","","","",""
"","7678.139999974519","sequential-stimulus-presentation","223","1210260","0.0-43.0","SS1613098655334","pref_reveal","","40","800","8478.139999974519","null","null","","","","","11","","","","novel","","","",""
"","null","html-keyboard-response","224","1211561","0.0-44.0-0.0","SS1613098655334","","","null","","","","","<p><img src= images/blank.png width =""200"" height = ""200"" style = ""float:right""></p><p><img src=images/blank.png width =""800"" height = ""200""></p>","","","","","","","","","","","",""
"","8586.864999961108","sequential-stimulus-presentation","225","1220987","0.0-44.0-1.0","SS1613098655334","trial","","40","800","9386.864999961108","images/stimuli/spore_stims/simple_17_A_b.gif","images/stimuli/spore_stims/simple_17_B_b.gif","","","","","12","simple_similar","images/stimuli/spore_stims/simple_17_B_b.gif","middle","","","","",""
"","null","html-keyboard-response","226","1222248","0.0-44.0-0.1","SS1613098655334","","","null","","","","","<p><img src= images/blank.png width =""200"" height = ""200"" style = ""float:right""></p><p><img src=images/blank.png width =""800"" height = ""200""></p>","","","","","","","","","","","",""
"","3099.750000052154","sequential-stimulus-presentation","227","1226177","0.0-44.0-1.1","SS1613098655334","trial","","40","800","3899.750000052154","images/stimuli/spore_stims/simple_17_A_b.gif","images/stimuli/spore_stims/simple_17_B_b.gif","","","","","12","simple_similar","images/stimuli/spore_stims/simple_17_B_b.gif","middle","","","","",""
"","null","html-keyboard-response","228","1227040","0.0-44.0-0.2","SS1613098655334","","","null","","","","","<p><img src= images/blank.png width =""200"" height = ""200"" style = ""float:right""></p><p><img src=images/blank.png width =""800"" height = ""200""></p>","","","","","","","","","","","",""
"","5929.895000066608","sequential-stimulus-presentation","229","1233805","0.0-44.0-1.2","SS1613098655334","trial","","40","800","6729.895000066608","images/stimuli/spore_stims/simple_17_A_b.gif","images/stimuli/spore_stims/simple_17_B_b.gif","","","","","12","simple_similar","images/stimuli/spore_stims/simple_17_A_b.gif","right","","","","",""
"","null","html-keyboard-response","230","1234668","0.0-44.0-0.3","SS1613098655334","","","null","","","","","<p><img src= images/blank.png width =""200"" height = ""200"" style = ""float:right""></p><p><img src=images/blank.png width =""800"" height = ""200""></p>","","","","","","","","","","","",""
"","3101.229999680072","sequential-stimulus-presentation","231","1238639","0.0-44.0-1.3","SS1613098655334","trial","","40","800","3901.229999680072","images/stimuli/spore_stims/simple_17_A_b.gif","images/stimuli/spore_stims/simple_17_B_b.gif","","","","","12","simple_similar","images/stimuli/spore_stims/simple_17_B_b.gif","middle","","","","",""
"","null","html-keyboard-response","232","1239840","0.0-44.0-0.4","SS1613098655334","","","null","","","","","<p><img src= images/blank.png width =""200"" height = ""200"" style = ""float:right""></p><p><img src=images/blank.png width =""800"" height = ""200""></p>","","","","","","","","","","","",""
"","2827.2750000469387","sequential-stimulus-presentation","233","1243589","0.0-44.0-1.4","SS1613098655334","trial","","40","800","3627.2750000469387","images/stimuli/spore_stims/simple_17_A_b.gif","images/stimuli/spore_stims/simple_17_B_b.gif","","","","","12","simple_similar","images/stimuli/spore_stims/simple_17_B_b.gif","middle","","","","",""
"","null","html-keyboard-response","234","1244747","0.0-44.0-0.5","SS1613098655334","","","null","","","","","<p><img src= images/blank.png width =""200"" height = ""200"" style = ""float:right""></p><p><img src=images/blank.png width =""800"" height = ""200""></p>","","","","","","","","","","","",""
"","1558.2949998788536","sequential-stimulus-presentation","235","1247163","0.0-44.0-1.5","SS1613098655334","trial","","40","800","2358.2949998788536","images/stimuli/spore_stims/simple_17_A_b.gif","images/stimuli/spore_stims/simple_17_B_b.gif","","","","","12","simple_similar","images/stimuli/spore_stims/simple_17_B_b.gif","middle","","","","",""
"","null","html-keyboard-response","236","1248140","0.0-44.0-0.6","SS1613098655334","","","null","","","","","<p><img src= images/blank.png width =""200"" height = ""200"" style = ""float:right""></p><p><img src=images/blank.png width =""800"" height = ""200""></p>","","","","","","","","","","","",""
"","856.1999998055398","sequential-stimulus-presentation","237","1249838","0.0-44.0-1.6","SS1613098655334","trial","","40","800","1656.1999998055398","images/stimuli/spore_stims/simple_17_A_b.gif","images/stimuli/spore_stims/simple_17_B_b.gif","","","","","12","simple_similar","images/stimuli/spore_stims/simple_17_B_b.gif","middle","","","","",""
"","null","html-keyboard-response","238","1250822","0.0-44.0-0.7","SS1613098655334","","","null","","","","","<p><img src= images/blank.png width =""200"" height = ""200"" style = ""float:right""></p><p><img src=images/blank.png width =""800"" height = ""200""></p>","","","","","","","","","","","",""
"","2040.7149996608496","sequential-stimulus-presentation","239","1253689","0.0-44.0-1.7","SS1613098655334","trial","","40","800","2840.7149996608496","images/stimuli/spore_stims/simple_17_A_b.gif","images/stimuli/spore_stims/simple_17_B_b.gif","","","","","12","simple_similar","images/stimuli/spore_stims/simple_17_B_b.gif","middle","","","","",""
"","5594.479999970645","html-keyboard-response","240","1259325","0.0-45.0","SS1613098655334","pref_question","","97","","","","","<video width ='960' height = '540' style='padding-top:8%' autoplay muted><source src='images/stimuli/wall_pref.mp4' type='video/mp4'></video>","1","left","25%","12","","","","","","","",""
"","7203.384999651462","sequential-stimulus-presentation","241","1267367","0.0-46.0","SS1613098655334","pref_reveal","","40","800","8003.384999651462","null","null","","","","","12","","","","novel","","","",""
"","null","html-keyboard-response","242","1268229","0.0-47.0-0.0","SS1613098655334","","","null","","","","","<p><img src= images/blank.png width =""200"" height = ""200"" style = ""float:right""></p><p><img src=images/blank.png width =""800"" height = ""200""></p>","","","","","","","","","","","",""
"","14344.820000231266","sequential-stimulus-presentation","243","1283432","0.0-47.0-1.0","SS1613098655334","trial","","40","800","15144.820000231266","images/stimuli/spore_stims/complex_04_A_b.gif","images/stimuli/spore_stims/complex_04_B_b.gif","","","","","13","complex_similar","images/stimuli/spore_stims/complex_04_B_b.gif","right","","","","",""
"","null","html-keyboard-response","244","1284541","0.0-47.0-0.1","SS1613098655334","","","null","","","","","<p><img src= images/blank.png width =""200"" height = ""200"" style = ""float:right""></p><p><img src=images/blank.png width =""800"" height = ""200""></p>","","","","","","","","","","","",""
"","630.3150001913309","sequential-stimulus-presentation","245","1286018","0.0-47.0-1.1","SS1613098655334","trial","","40","800","1430.315000191331","images/stimuli/spore_stims/complex_04_A_b.gif","images/stimuli/spore_stims/complex_04_B_b.gif","","","","","13","complex_similar","images/stimuli/spore_stims/complex_04_B_b.gif","right","","","","",""
"","null","html-keyboard-response","246","1287196","0.0-47.0-0.2","SS1613098655334","","","null","","","","","<p><img src= images/blank.png width =""200"" height = ""200"" style = ""float:right""></p><p><img src=images/blank.png width =""800"" height = ""200""></p>","","","","","","","","","","","",""
"","2163.30000013113","sequential-stimulus-presentation","247","1290188","0.0-47.0-1.2","SS1613098655334","trial","","40","800","2963.30000013113","images/stimuli/spore_stims/complex_04_A_b.gif","images/stimuli/spore_stims/complex_04_B_b.gif","","","","","13","complex_similar","images/stimuli/spore_stims/complex_04_B_b.gif","right","","","","",""
"","null","html-keyboard-response","248","1291228","0.0-47.0-0.3","SS1613098655334","","","null","","","","","<p><img src= images/blank.png width =""200"" height = ""200"" style = ""float:right""></p><p><img src=images/blank.png width =""800"" height = ""200""></p>","","","","","","","","","","","",""
"","5987.280000001192","sequential-stimulus-presentation","249","1298044","0.0-47.0-1.3","SS1613098655334","trial","","40","800","6787.280000001192","images/stimuli/spore_stims/complex_04_A_b.gif","images/stimuli/spore_stims/complex_04_B_b.gif","","","","","13","complex_similar","images/stimuli/spore_stims/complex_04_A_b.gif","left","","","","",""
"","null","html-keyboard-response","250","1299274","0.0-47.0-0.4","SS1613098655334","","","null","","","","","<p><img src= images/blank.png width =""200"" height = ""200"" style = ""float:right""></p><p><img src=images/blank.png width =""800"" height = ""200""></p>","","","","","","","","","","","",""
"","2980.049999896437","sequential-stimulus-presentation","251","1303124","0.0-47.0-1.4","SS1613098655334","trial","","40","800","3780.049999896437","images/stimuli/spore_stims/complex_04_A_b.gif","images/stimuli/spore_stims/complex_04_B_b.gif","","","","","13","complex_similar","images/stimuli/spore_stims/complex_04_B_b.gif","right","","","","",""
"","null","html-keyboard-response","252","1304415","0.0-47.0-0.5","SS1613098655334","","","null","","","","","<p><img src= images/blank.png width =""200"" height = ""200"" style = ""float:right""></p><p><img src=images/blank.png width =""800"" height = ""200""></p>","","","","","","","","","","","",""
"","1528.435000218451","sequential-stimulus-presentation","253","1306791","0.0-47.0-1.5","SS1613098655334","trial","","40","800","2328.435000218451","images/stimuli/spore_stims/complex_04_A_b.gif","images/stimuli/spore_stims/complex_04_B_b.gif","","","","","13","complex_similar","images/stimuli/spore_stims/complex_04_B_b.gif","right","","","","",""
"","null","html-keyboard-response","254","1307808","0.0-47.0-0.6","SS1613098655334","","","null","","","","","<p><img src= images/blank.png width =""200"" height = ""200"" style = ""float:right""></p><p><img src=images/blank.png width =""800"" height = ""200""></p>","","","","","","","","","","","",""
"","2101.1300003156066","sequential-stimulus-presentation","255","1310755","0.0-47.0-1.6","SS1613098655334","trial","","40","800","2901.1300003156066","images/stimuli/spore_stims/complex_04_A_b.gif","images/stimuli/spore_stims/complex_04_B_b.gif","","","","","13","complex_similar","images/stimuli/spore_stims/complex_04_B_b.gif","right","","","","",""
"","null","html-keyboard-response","256","1311868","0.0-47.0-0.7","SS1613098655334","","","null","","","","","<p><img src= images/blank.png width =""200"" height = ""200"" style = ""float:right""></p><p><img src=images/blank.png width =""800"" height = ""200""></p>","","","","","","","","","","","",""
"","192.63500021770597","sequential-stimulus-presentation","257","1312928","0.0-47.0-1.7","SS1613098655334","trial","","40","800","992.635000217706","images/stimuli/spore_stims/complex_04_A_b.gif","images/stimuli/spore_stims/complex_04_B_b.gif","","","","","13","complex_similar","images/stimuli/spore_stims/complex_04_B_b.gif","right","","","","",""
"","2847.7900000289083","html-keyboard-response","258","1315802","0.0-48.0","SS1613098655334","pref_question","","98","","","","","<video width ='960' height = '540' style='padding-top:8%' autoplay muted><source src='images/stimuli/wall_pref.mp4' type='video/mp4'></video>","2","middle","45%","13","","","","","","","",""
"","8915.070000104606","sequential-stimulus-presentation","259","1325545","0.0-49.0","SS1613098655334","pref_reveal","","40","800","9715.070000104606","null","null","","","","","13","","","","novel","","","",""
"","null","html-keyboard-response","260","1326805","0.0-50.0-0.0","SS1613098655334","","","null","","","","","<p><img src= images/blank.png width =""200"" height = ""200"" style = ""float:right""></p><p><img src=images/blank.png width =""800"" height = ""200""></p>","","","","","","","","","","","",""
"","6091.220000293106","sequential-stimulus-presentation","261","1333725","0.0-50.0-1.0","SS1613098655334","trial","","40","800","6891.220000293106","images/stimuli/spore_stims/simple_14_A_c.gif","images/stimuli/spore_stims/simple_14_B_c.gif","","","","","14","simple_similar","images/stimuli/spore_stims/simple_14_B_c.gif","middle","","","","",""
"","null","html-keyboard-response","262","1335040","0.0-50.0-0.1","SS1613098655334","","","null","","","","","<p><img src= images/blank.png width =""200"" height = ""200"" style = ""float:right""></p><p><img src=images/blank.png width =""800"" height = ""200""></p>","","","","","","","","","","","",""
"","4508.349999785423","sequential-stimulus-presentation","263","1340427","0.0-50.0-1.1","SS1613098655334","trial","","40","800","5308.349999785423","images/stimuli/spore_stims/simple_14_A_c.gif","images/stimuli/spore_stims/simple_14_B_c.gif","","","","","14","simple_similar","images/stimuli/spore_stims/simple_14_B_c.gif","middle","","","","",""
"","null","html-keyboard-response","264","1341428","0.0-50.0-0.2","SS1613098655334","","","null","","","","","<p><img src= images/blank.png width =""200"" height = ""200"" style = ""float:right""></p><p><img src=images/blank.png width =""800"" height = ""200""></p>","","","","","","","","","","","",""
"","6602.885000407696","sequential-stimulus-presentation","265","1348865","0.0-50.0-1.2","SS1613098655334","trial","","40","800","7402.885000407696","images/stimuli/spore_stims/simple_14_A_c.gif","images/stimuli/spore_stims/simple_14_B_c.gif","","","","","14","simple_similar","images/stimuli/spore_stims/simple_14_B_c.gif","middle","","","","",""
"","null","html-keyboard-response","266","1349697","0.0-50.0-0.3","SS1613098655334","","","null","","","","","<p><img src= images/blank.png width =""200"" height = ""200"" style = ""float:right""></p><p><img src=images/blank.png width =""800"" height = ""200""></p>","","","","","","","","","","","",""
"","3479.9350001849234","sequential-stimulus-presentation","267","1354040","0.0-50.0-1.3","SS1613098655334","trial","","40","800","4279.935000184923","images/stimuli/spore_stims/simple_14_A_c.gif","images/stimuli/spore_stims/simple_14_B_c.gif","","","","","14","simple_similar","images/stimuli/spore_stims/simple_14_B_c.gif","middle","","","","",""
"","null","html-keyboard-response","268","1355273","0.0-50.0-0.4","SS1613098655334","","","null","","","","","<p><img src= images/blank.png width =""200"" height = ""200"" style = ""float:right""></p><p><img src=images/blank.png width =""800"" height = ""200""></p>","","","","","","","","","","","",""
"","1458.2799999043345","sequential-stimulus-presentation","269","1357565","0.0-50.0-1.4","SS1613098655334","trial","","40","800","2258.2799999043345","images/stimuli/spore_stims/simple_14_A_c.gif","images/stimuli/spore_stims/simple_14_B_c.gif","","","","","14","simple_similar","images/stimuli/spore_stims/simple_14_B_c.gif","middle","","","","",""
"","null","html-keyboard-response","270","1358507","0.0-50.0-0.5","SS1613098655334","","","null","","","","","<p><img src= images/blank.png width =""200"" height = ""200"" style = ""float:right""></p><p><img src=images/blank.png width =""800"" height = ""200""></p>","","","","","","","","","","","",""
"","4839.74999981001","sequential-stimulus-presentation","271","1364242","0.0-50.0-1.5","SS1613098655334","trial","","40","800","5639.74999981001","images/stimuli/spore_stims/simple_14_A_c.gif","images/stimuli/spore_stims/simple_14_B_c.gif","","","","","14","simple_similar","images/stimuli/spore_stims/simple_14_A_c.gif","right","","","","",""
"","null","html-keyboard-response","272","1365557","0.0-50.0-0.6","SS1613098655334","","","null","","","","","<p><img src= images/blank.png width =""200"" height = ""200"" style = ""float:right""></p><p><img src=images/blank.png width =""800"" height = ""200""></p>","","","","","","","","","","","",""
"","4994.359999895096","sequential-stimulus-presentation","273","1371398","0.0-50.0-1.6","SS1613098655334","trial","","40","800","5794.359999895096","images/stimuli/spore_stims/simple_14_A_c.gif","images/stimuli/spore_stims/simple_14_B_c.gif","","","","","14","simple_similar","images/stimuli/spore_stims/simple_14_B_c.gif","middle","","","","",""
"","null","html-keyboard-response","274","1372496","0.0-50.0-0.7","SS1613098655334","","","null","","","","","<p><img src= images/blank.png width =""200"" height = ""200"" style = ""float:right""></p><p><img src=images/blank.png width =""800"" height = ""200""></p>","","","","","","","","","","","",""
"","3633.200000040233","sequential-stimulus-presentation","275","1376968","0.0-50.0-1.7","SS1613098655334","trial","","40","800","4433.200000040233","images/stimuli/spore_stims/simple_14_A_c.gif","images/stimuli/spore_stims/simple_14_B_c.gif","","","","","14","simple_similar","images/stimuli/spore_stims/simple_14_B_c.gif","middle","","","","",""
"","2609.4500003382564","html-keyboard-response","276","1379603","0.0-51.0","SS1613098655334","pref_question","","97","","","","","<video width ='960' height = '540' style='padding-top:8%' autoplay muted><source src='images/stimuli/wall_pref.mp4' type='video/mp4'></video>","1","left","25%","14","","","","","","","",""
"","8805.815000087023","sequential-stimulus-presentation","277","1389253","0.0-52.0","SS1613098655334","pref_reveal","","40","800","9605.815000087023","null","null","","","","","14","","","","novel","","","",""
"","null","html-keyboard-response","278","1390554","0.0-53.0-0.0","SS1613098655334","","","null","","","","","<p><img src= images/blank.png width =""200"" height = ""200"" style = ""float:right""></p><p><img src=images/blank.png width =""800"" height = ""200""></p>","","","","","","","","","","","",""
"","4820.115000009537","sequential-stimulus-presentation","279","1396212","0.0-53.0-1.0","SS1613098655334","trial","","40","800","5620.115000009537","images/stimuli/spore_stims/simple_16_B_b.gif","images/stimuli/spore_stims/simple_16_A_b.gif","","","","","15","simple_similar","images/stimuli/spore_stims/simple_16_A_b.gif","left","","","","",""
"","null","html-keyboard-response","280","1397113","0.0-53.0-0.1","SS1613098655334","","","null","","","","","<p><img src= images/blank.png width =""200"" height = ""200"" style = ""float:right""></p><p><img src=images/blank.png width =""800"" height = ""200""></p>","","","","","","","","","","","",""
"","4830.340000335127","sequential-stimulus-presentation","281","1402830","0.0-53.0-1.1","SS1613098655334","trial","","40","800","5630.340000335127","images/stimuli/spore_stims/simple_16_B_b.gif","images/stimuli/spore_stims/simple_16_A_b.gif","","","","","15","simple_similar","images/stimuli/spore_stims/simple_16_A_b.gif","left","","","","",""
"","null","html-keyboard-response","282","1404103","0.0-53.0-0.2","SS1613098655334","","","null","","","","","<p><img src= images/blank.png width =""200"" height = ""200"" style = ""float:right""></p><p><img src=images/blank.png width =""800"" height = ""200""></p>","","","","","","","","","","","",""
"","5790.574999991804","sequential-stimulus-presentation","283","1410777","0.0-53.0-1.2","SS1613098655334","trial","","40","800","6590.574999991804","images/stimuli/spore_stims/simple_16_B_b.gif","images/stimuli/spore_stims/simple_16_A_b.gif","","","","","15","simple_similar","images/stimuli/spore_stims/simple_16_A_b.gif","left","","","","",""
"","null","html-keyboard-response","284","1411755","0.0-53.0-0.3","SS1613098655334","","","null","","","","","<p><img src= images/blank.png width =""200"" height = ""200"" style = ""float:right""></p><p><img src=images/blank.png width =""800"" height = ""200""></p>","","","","","","","","","","","",""
"","8788.960000034422","sequential-stimulus-presentation","285","1421381","0.0-53.0-1.3","SS1613098655334","trial","","40","800","9588.960000034422","images/stimuli/spore_stims/simple_16_B_b.gif","images/stimuli/spore_stims/simple_16_A_b.gif","","","","","15","simple_similar","images/stimuli/spore_stims/simple_16_A_b.gif","left","","","","",""
"","null","html-keyboard-response","286","1422366","0.0-53.0-0.4","SS1613098655334","","","null","","","","","<p><img src= images/blank.png width =""200"" height = ""200"" style = ""float:right""></p><p><img src=images/blank.png width =""800"" height = ""200""></p>","","","","","","","","","","","",""
"","1338.8349995948374","sequential-stimulus-presentation","287","1424556","0.0-53.0-1.4","SS1613098655334","trial","","40","800","2138.8349995948374","images/stimuli/spore_stims/simple_16_B_b.gif","images/stimuli/spore_stims/simple_16_A_b.gif","","","","","15","simple_similar","images/stimuli/spore_stims/simple_16_A_b.gif","left","","","","",""
"","null","html-keyboard-response","288","1425677","0.0-53.0-0.5","SS1613098655334","","","null","","","","","<p><img src= images/blank.png width =""200"" height = ""200"" style = ""float:right""></p><p><img src=images/blank.png width =""800"" height = ""200""></p>","","","","","","","","","","","",""
"","1674.5649999938905","sequential-stimulus-presentation","289","1428269","0.0-53.0-1.5","SS1613098655334","trial","","40","800","2474.5649999938905","images/stimuli/spore_stims/simple_16_B_b.gif","images/stimuli/spore_stims/simple_16_A_b.gif","","","","","15","simple_similar","images/stimuli/spore_stims/simple_16_A_b.gif","left","","","","",""
"","null","html-keyboard-response","290","1429172","0.0-53.0-0.6","SS1613098655334","","","null","","","","","<p><img src= images/blank.png width =""200"" height = ""200"" style = ""float:right""></p><p><img src=images/blank.png width =""800"" height = ""200""></p>","","","","","","","","","","","",""
"","2297.04499989748","sequential-stimulus-presentation","291","1432301","0.0-53.0-1.6","SS1613098655334","trial","","40","800","3097.04499989748","images/stimuli/spore_stims/simple_16_B_b.gif","images/stimuli/spore_stims/simple_16_A_b.gif","","","","","15","simple_similar","images/stimuli/spore_stims/simple_16_A_b.gif","left","","","","",""
"","null","html-keyboard-response","292","1433176","0.0-53.0-0.7","SS1613098655334","","","null","","","","","<p><img src= images/blank.png width =""200"" height = ""200"" style = ""float:right""></p><p><img src=images/blank.png width =""800"" height = ""200""></p>","","","","","","","","","","","",""
"","4394.09500034526","sequential-stimulus-presentation","293","1438411","0.0-53.0-1.7","SS1613098655334","trial","","40","800","5194.09500034526","images/stimuli/spore_stims/simple_16_B_b.gif","images/stimuli/spore_stims/simple_16_A_b.gif","","","","","15","simple_similar","images/stimuli/spore_stims/simple_16_B_b.gif","middle","","","","",""
"","2343.6749996617436","html-keyboard-response","294","1440936","0.0-54.0","SS1613098655334","pref_question","","99","","","","","<video width ='960' height = '540' style='padding-top:8%' autoplay muted><source src='images/stimuli/wall_pref.mp4' type='video/mp4'></video>","3","right","66%","15","","","","","","","",""
"","6443.604999687523","sequential-stimulus-presentation","295","1448226","0.0-55.0","SS1613098655334","pref_reveal","","40","800","7243.604999687523","null","null","","","","","15","","","","novel","","","",""
"","null","html-keyboard-response","296","1449474","0.0-56.0-0.0","SS1613098655334","","","null","","","","","<p><img src= images/blank.png width =""200"" height = ""200"" style = ""float:right""></p><p><img src=images/blank.png width =""800"" height = ""200""></p>","","","","","","","","","","","",""
"","7972.744999919087","sequential-stimulus-presentation","297","1458279","0.0-56.0-1.0","SS1613098655334","trial","","40","800","8772.744999919087","images/stimuli/spore_stims/complex_06_A_b.gif","images/stimuli/spore_stims/complex_06_B_b.gif","","","","","16","complex_similar","images/stimuli/spore_stims/complex_06_B_b.gif","right","","","","",""
"","null","html-keyboard-response","298","1459205","0.0-56.0-0.1","SS1613098655334","","","null","","","","","<p><img src= images/blank.png width =""200"" height = ""200"" style = ""float:right""></p><p><img src=images/blank.png width =""800"" height = ""200""></p>","","","","","","","","","","","",""
"","3625.1449999399483","sequential-stimulus-presentation","299","1463698","0.0-56.0-1.1","SS1613098655334","trial","","40","800","4425.144999939948","images/stimuli/spore_stims/complex_06_A_b.gif","images/stimuli/spore_stims/complex_06_B_b.gif","","","","","16","complex_similar","images/stimuli/spore_stims/complex_06_B_b.gif","right","","","","",""
"","null","html-keyboard-response","300","1464911","0.0-56.0-0.2","SS1613098655334","","","null","","","","","<p><img src= images/blank.png width =""200"" height = ""200"" style = ""float:right""></p><p><img src=images/blank.png width =""800"" height = ""200""></p>","","","","","","","","","","","",""
"","3130.709999706596","sequential-stimulus-presentation","301","1468893","0.0-56.0-1.2","SS1613098655334","trial","","40","800","3930.709999706596","images/stimuli/spore_stims/complex_06_A_b.gif","images/stimuli/spore_stims/complex_06_B_b.gif","","","","","16","complex_similar","images/stimuli/spore_stims/complex_06_B_b.gif","right","","","","",""
"","null","html-keyboard-response","302","1470117","0.0-56.0-0.3","SS1613098655334","","","null","","","","","<p><img src= images/blank.png width =""200"" height = ""200"" style = ""float:right""></p><p><img src=images/blank.png width =""800"" height = ""200""></p>","","","","","","","","","","","",""
"","2573.0149997398257","sequential-stimulus-presentation","303","1473559","0.0-56.0-1.3","SS1613098655334","trial","","40","800","3373.0149997398257","images/stimuli/spore_stims/complex_06_A_b.gif","images/stimuli/spore_stims/complex_06_B_b.gif","","","","","16","complex_similar","images/stimuli/spore_stims/complex_06_B_b.gif","right","","","","",""
"","null","html-keyboard-response","304","1474704","0.0-56.0-0.4","SS1613098655334","","","null","","","","","<p><img src= images/blank.png width =""200"" height = ""200"" style = ""float:right""></p><p><img src=images/blank.png width =""800"" height = ""200""></p>","","","","","","","","","","","",""
"","740.0499996729195","sequential-stimulus-presentation","305","1476336","0.0-56.0-1.4","SS1613098655334","trial","","40","800","1540.0499996729195","images/stimuli/spore_stims/complex_06_A_b.gif","images/stimuli/spore_stims/complex_06_B_b.gif","","","","","16","complex_similar","images/stimuli/spore_stims/complex_06_B_b.gif","right","","","","",""
"","null","html-keyboard-response","306","1477519","0.0-56.0-0.5","SS1613098655334","","","null","","","","","<p><img src= images/blank.png width =""200"" height = ""200"" style = ""float:right""></p><p><img src=images/blank.png width =""800"" height = ""200""></p>","","","","","","","","","","","",""
"","4706.260000355542","sequential-stimulus-presentation","307","1483076","0.0-56.0-1.5","SS1613098655334","trial","","40","800","5506.260000355542","images/stimuli/spore_stims/complex_06_A_b.gif","images/stimuli/spore_stims/complex_06_B_b.gif","","","","","16","complex_similar","images/stimuli/spore_stims/complex_06_A_b.gif","middle","","","","",""
"","null","html-keyboard-response","308","1483971","0.0-56.0-0.6","SS1613098655334","","","null","","","","","<p><img src= images/blank.png width =""200"" height = ""200"" style = ""float:right""></p><p><img src=images/blank.png width =""800"" height = ""200""></p>","","","","","","","","","","","",""
"","5868.215000256896","sequential-stimulus-presentation","309","1490674","0.0-56.0-1.6","SS1613098655334","trial","","40","800","6668.215000256896","images/stimuli/spore_stims/complex_06_A_b.gif","images/stimuli/spore_stims/complex_06_B_b.gif","","","","","16","complex_similar","images/stimuli/spore_stims/complex_06_B_b.gif","right","","","","",""
"","null","html-keyboard-response","310","1491716","0.0-56.0-0.7","SS1613098655334","","","null","","","","","<p><img src= images/blank.png width =""200"" height = ""200"" style = ""float:right""></p><p><img src=images/blank.png width =""800"" height = ""200""></p>","","","","","","","","","","","",""
"","6097.695000004023","sequential-stimulus-presentation","311","1498668","0.0-56.0-1.7","SS1613098655334","trial","","40","800","6897.695000004023","images/stimuli/spore_stims/complex_06_A_b.gif","images/stimuli/spore_stims/complex_06_B_b.gif","","","","","16","complex_similar","images/stimuli/spore_stims/complex_06_B_b.gif","right","","","","",""
