"view_history","rt","trial_type","trial_index","time_elapsed","internal_node_id","subject","stimulus_type","trial_stimulus","key_press","minimum_viewing_duration","trial_looking_time","block_deviant","block_background","stimulus","wall_pref","location","location_percent","block_number","block_type","stimulus_displayed","position_displayed","stim_type_selected","responses","question_order","stimulus_left","stimulus_right"
"[{""page_index"":0,""viewing_time"":20483.00000000745}]","20486.000000033528","instructions","0","20489","0.0-0.0","SS1613140003965","","","","","","","","","","","","","","","","","","","",""
"[{""page_index"":0,""viewing_time"":12095.999999903142},{""page_index"":1,""viewing_time"":32902.00000023469}]","44998.000000137836","instructions","1","67517","0.0-1.0","SS1613140003965","instructions","","","","","","","","","","","","","","","","","","",""
"","34871.99999997392","sequential-stimulus-presentation","2","103205","0.0-2.0","SS1613140003965","","","40","800","35671.99999997392","null","null","","","","","","","","","","","","",""
"","9228.99999981746","sequential-stimulus-presentation","3","113254","0.0-3.0","SS1613140003965","","","40","800","10028.99999981746","null","null","","","","","","","","","","","","",""
"[{""page_index"":0,""viewing_time"":1100.9999997913837}]","1101.9999999552965","instructions","4","114360","0.0-4.0","SS1613140003965","instructions","","","","","","","","","","","","","","","","","","",""
"","21161.999999545515","html-keyboard-response","5","135526","0.0-5.0","SS1613140003965","instructions","","51","","","","","<video width ='960' height = '540' autoplay muted><source src='images/stimuli/wall_pref.mp4' type='video/mp4'></video>","3","right","66%","","","","","","","","",""
"","5203.999999910593","sequential-stimulus-presentation","6","141539","0.0-6.0","SS1613140003965","pref_reveal","","40","800","6003.999999910593","null","null","","","","","","","","","","","","",""
"[{""page_index"":0,""viewing_time"":8947.999999858439},{""page_index"":1,""viewing_time"":6242.000000085682},{""page_index"":2,""viewing_time"":1620.0000001117587},{""page_index"":3,""viewing_time"":1558.000000193715}]","18368.000000249594","instructions","7","159912","0.0-7.0","SS1613140003965","instructions","","","","","","","","","","","","","","","","","","",""
"","null","html-keyboard-response","8","161004","0.0-8.0-0.0","SS1613140003965","","","null","","","","","<p><img src= images/blank.png width =""200"" height = ""200"" style = ""float:right""></p><p><img src=images/blank.png width =""800"" height = ""200""></p>","","","","","","","","","","","",""
"","9765.000000130385","sequential-stimulus-presentation","9","171587","0.0-8.0-1.0","SS1613140003965","trial","","40","800","10565.000000130385","images/stimuli/spore_stims/complex_10_A_d.gif","images/stimuli/spore_stims/complex_10_B_d.gif","","","","","0","complex_similar","images/stimuli/spore_stims/complex_10_B_d.gif","left","","","","",""
"","null","html-keyboard-response","10","172448","0.0-8.0-0.1","SS1613140003965","","","null","","","","","<p><img src= images/blank.png width =""200"" height = ""200"" style = ""float:right""></p><p><img src=images/blank.png width =""800"" height = ""200""></p>","","","","","","","","","","","",""
"","8322.000000160187","sequential-stimulus-presentation","11","181584","0.0-8.0-1.1","SS1613140003965","trial","","40","800","9122.000000160187","images/stimuli/spore_stims/complex_10_A_d.gif","images/stimuli/spore_stims/complex_10_B_d.gif","","","","","0","complex_similar","images/stimuli/spore_stims/complex_10_B_d.gif","left","","","","",""
"","null","html-keyboard-response","12","182725","0.0-8.0-0.2","SS1613140003965","","","null","","","","","<p><img src= images/blank.png width =""200"" height = ""200"" style = ""float:right""></p><p><img src=images/blank.png width =""800"" height = ""200""></p>","","","","","","","","","","","",""
"","4475.999999791384","sequential-stimulus-presentation","13","188131","0.0-8.0-1.2","SS1613140003965","trial","","40","800","5275.999999791384","images/stimuli/spore_stims/complex_10_A_d.gif","images/stimuli/spore_stims/complex_10_B_d.gif","","","","","0","complex_similar","images/stimuli/spore_stims/complex_10_B_d.gif","left","","","","",""
"","null","html-keyboard-response","14","189265","0.0-8.0-0.3","SS1613140003965","","","null","","","","","<p><img src= images/blank.png width =""200"" height = ""200"" style = ""float:right""></p><p><img src=images/blank.png width =""800"" height = ""200""></p>","","","","","","","","","","","",""
"","2476.000000257045","sequential-stimulus-presentation","15","192562","0.0-8.0-1.3","SS1613140003965","trial","","40","800","3276.000000257045","images/stimuli/spore_stims/complex_10_A_d.gif","images/stimuli/spore_stims/complex_10_B_d.gif","","","","","0","complex_similar","images/stimuli/spore_stims/complex_10_B_d.gif","left","","","","",""
"","null","html-keyboard-response","16","193784","0.0-8.0-0.4","SS1613140003965","","","null","","","","","<p><img src= images/blank.png width =""200"" height = ""200"" style = ""float:right""></p><p><img src=images/blank.png width =""800"" height = ""200""></p>","","","","","","","","","","","",""
"","1783.9999999850988","sequential-stimulus-presentation","17","196382","0.0-8.0-1.4","SS1613140003965","trial","","40","800","2583.999999985099","images/stimuli/spore_stims/complex_10_A_d.gif","images/stimuli/spore_stims/complex_10_B_d.gif","","","","","0","complex_similar","images/stimuli/spore_stims/complex_10_A_d.gif","right","","","","",""
"","null","html-keyboard-response","18","197457","0.0-8.0-0.5","SS1613140003965","","","null","","","","","<p><img src= images/blank.png width =""200"" height = ""200"" style = ""float:right""></p><p><img src=images/blank.png width =""800"" height = ""200""></p>","","","","","","","","","","","",""
"","1567.9999999701977","sequential-stimulus-presentation","19","199831","0.0-8.0-1.5","SS1613140003965","trial","","40","800","2367.9999999701977","images/stimuli/spore_stims/complex_10_A_d.gif","images/stimuli/spore_stims/complex_10_B_d.gif","","","","","0","complex_similar","images/stimuli/spore_stims/complex_10_B_d.gif","left","","","","",""
"","null","html-keyboard-response","20","200908","0.0-8.0-0.6","SS1613140003965","","","null","","","","","<p><img src= images/blank.png width =""200"" height = ""200"" style = ""float:right""></p><p><img src=images/blank.png width =""800"" height = ""200""></p>","","","","","","","","","","","",""
"","404.99999979510903","sequential-stimulus-presentation","21","202121","0.0-8.0-1.6","SS1613140003965","trial","","40","800","1204.999999795109","images/stimuli/spore_stims/complex_10_A_d.gif","images/stimuli/spore_stims/complex_10_B_d.gif","","","","","0","complex_similar","images/stimuli/spore_stims/complex_10_B_d.gif","left","","","","",""
"","null","html-keyboard-response","22","203384","0.0-8.0-0.7","SS1613140003965","","","null","","","","","<p><img src= images/blank.png width =""200"" height = ""200"" style = ""float:right""></p><p><img src=images/blank.png width =""800"" height = ""200""></p>","","","","","","","","","","","",""
"","523.0000000447035","sequential-stimulus-presentation","23","204713","0.0-8.0-1.7","SS1613140003965","trial","","40","800","1323.0000000447035","images/stimuli/spore_stims/complex_10_A_d.gif","images/stimuli/spore_stims/complex_10_B_d.gif","","","","","0","complex_similar","images/stimuli/spore_stims/complex_10_B_d.gif","left","","","","",""
"","4657.000000122935","html-keyboard-response","24","209379","0.0-9.0","SS1613140003965","pref_question","","49","","","","","<video width ='960' height = '540' style='padding-top:8%' autoplay muted><source src='images/stimuli/wall_pref.mp4' type='video/mp4'></video>","1","left","25%","0","","","","","","","",""
"","1219.0000000409782","sequential-stimulus-presentation","25","211412","0.0-10.0","SS1613140003965","pref_reveal","","40","800","2019.0000000409782","null","null","","","","","0","","","","background","","","",""
"","null","html-keyboard-response","26","212259","0.0-11.0-0.0","SS1613140003965","","","null","","","","","<p><img src= images/blank.png width =""200"" height = ""200"" style = ""float:right""></p><p><img src=images/blank.png width =""800"" height = ""200""></p>","","","","","","","","","","","",""
"","2384.9999997764826","sequential-stimulus-presentation","27","215529","0.0-11.0-1.0","SS1613140003965","trial","","40","800","3184.9999997764826","images/stimuli/spore_stims/simple_09_B_c.gif","images/stimuli/spore_stims/simple_13_B_c.gif","","","","","1","simple_dissimilar","images/stimuli/spore_stims/simple_13_B_c.gif","middle","","","","",""
"","null","html-keyboard-response","28","216562","0.0-11.0-0.1","SS1613140003965","","","null","","","","","<p><img src= images/blank.png width =""200"" height = ""200"" style = ""float:right""></p><p><img src=images/blank.png width =""800"" height = ""200""></p>","","","","","","","","","","","",""
"","745.9999998100102","sequential-stimulus-presentation","29","218117","0.0-11.0-1.1","SS1613140003965","trial","","40","800","1545.9999998100102","images/stimuli/spore_stims/simple_09_B_c.gif","images/stimuli/spore_stims/simple_13_B_c.gif","","","","","1","simple_dissimilar","images/stimuli/spore_stims/simple_13_B_c.gif","middle","","","","",""
"","null","html-keyboard-response","30","219231","0.0-11.0-0.2","SS1613140003965","","","null","","","","","<p><img src= images/blank.png width =""200"" height = ""200"" style = ""float:right""></p><p><img src=images/blank.png width =""800"" height = ""200""></p>","","","","","","","","","","","",""
"","319.00000013411045","sequential-stimulus-presentation","31","220356","0.0-11.0-1.2","SS1613140003965","trial","","40","800","1119.0000001341105","images/stimuli/spore_stims/simple_09_B_c.gif","images/stimuli/spore_stims/simple_13_B_c.gif","","","","","1","simple_dissimilar","images/stimuli/spore_stims/simple_13_B_c.gif","middle","","","","",""
"","null","html-keyboard-response","32","221198","0.0-11.0-0.3","SS1613140003965","","","null","","","","","<p><img src= images/blank.png width =""200"" height = ""200"" style = ""float:right""></p><p><img src=images/blank.png width =""800"" height = ""200""></p>","","","","","","","","","","","",""
"","212.99999998882413","sequential-stimulus-presentation","33","222243","0.0-11.0-1.3","SS1613140003965","trial","","40","800","1012.9999999888241","images/stimuli/spore_stims/simple_09_B_c.gif","images/stimuli/spore_stims/simple_13_B_c.gif","","","","","1","simple_dissimilar","images/stimuli/spore_stims/simple_13_B_c.gif","middle","","","","",""
"","null","html-keyboard-response","34","223357","0.0-11.0-0.4","SS1613140003965","","","null","","","","","<p><img src= images/blank.png width =""200"" height = ""200"" style = ""float:right""></p><p><img src=images/blank.png width =""800"" height = ""200""></p>","","","","","","","","","","","",""
"","1081.99999993667","sequential-stimulus-presentation","35","225306","0.0-11.0-1.4","SS1613140003965","trial","","40","800","1881.99999993667","images/stimuli/spore_stims/simple_09_B_c.gif","images/stimuli/spore_stims/simple_13_B_c.gif","","","","","1","simple_dissimilar","images/stimuli/spore_stims/simple_09_B_c.gif","right","","","","",""
"","null","html-keyboard-response","36","226502","0.0-11.0-0.5","SS1613140003965","","","null","","","","","<p><img src= images/blank.png width =""200"" height = ""200"" style = ""float:right""></p><p><img src=images/blank.png width =""800"" height = ""200""></p>","","","","","","","","","","","",""
"","351.00000025704503","sequential-stimulus-presentation","37","227662","0.0-11.0-1.5","SS1613140003965","trial","","40","800","1151.000000257045","images/stimuli/spore_stims/simple_09_B_c.gif","images/stimuli/spore_stims/simple_13_B_c.gif","","","","","1","simple_dissimilar","images/stimuli/spore_stims/simple_13_B_c.gif","middle","","","","",""
"","null","html-keyboard-response","38","228709","0.0-11.0-0.6","SS1613140003965","","","null","","","","","<p><img src= images/blank.png width =""200"" height = ""200"" style = ""float:right""></p><p><img src=images/blank.png width =""800"" height = ""200""></p>","","","","","","","","","","","",""
"","260.99999994039536","sequential-stimulus-presentation","39","229775","0.0-11.0-1.6","SS1613140003965","trial","","40","800","1060.9999999403954","images/stimuli/spore_stims/simple_09_B_c.gif","images/stimuli/spore_stims/simple_13_B_c.gif","","","","","1","simple_dissimilar","images/stimuli/spore_stims/simple_13_B_c.gif","middle","","","","",""
"","null","html-keyboard-response","40","230957","0.0-11.0-0.7","SS1613140003965","","","null","","","","","<p><img src= images/blank.png width =""200"" height = ""200"" style = ""float:right""></p><p><img src=images/blank.png width =""800"" height = ""200""></p>","","","","","","","","","","","",""
"","234.99999986961484","sequential-stimulus-presentation","41","232001","0.0-11.0-1.7","SS1613140003965","trial","","40","800","1034.9999998696148","images/stimuli/spore_stims/simple_09_B_c.gif","images/stimuli/spore_stims/simple_13_B_c.gif","","","","","1","simple_dissimilar","images/stimuli/spore_stims/simple_13_B_c.gif","middle","","","","",""
"","4328.999999910593","html-keyboard-response","42","236358","0.0-12.0","SS1613140003965","pref_question","","50","","","","","<video width ='960' height = '540' style='padding-top:8%' autoplay muted><source src='images/stimuli/wall_pref.mp4' type='video/mp4'></video>","2","middle","45%","1","","","","","","","",""
"","933.9999998919666","sequential-stimulus-presentation","43","238100","0.0-13.0","SS1613140003965","pref_reveal","","40","800","1733.9999998919666","null","null","","","","","1","","","","background","","","",""
"","null","html-keyboard-response","44","238951","0.0-14.0-0.0","SS1613140003965","","","null","","","","","<p><img src= images/blank.png width =""200"" height = ""200"" style = ""float:right""></p><p><img src=images/blank.png width =""800"" height = ""200""></p>","","","","","","","","","","","",""
"","881.9999997504056","sequential-stimulus-presentation","45","240649","0.0-14.0-1.0","SS1613140003965","trial","","40","800","1681.9999997504056","images/stimuli/spore_stims/complex_19_A_d.gif","images/stimuli/spore_stims/complex_19_B_d.gif","","","","","2","complex_similar","images/stimuli/spore_stims/complex_19_B_d.gif","right","","","","",""
"","null","html-keyboard-response","46","241654","0.0-14.0-0.1","SS1613140003965","","","null","","","","","<p><img src= images/blank.png width =""200"" height = ""200"" style = ""float:right""></p><p><img src=images/blank.png width =""800"" height = ""200""></p>","","","","","","","","","","","",""
"","452.0000000484288","sequential-stimulus-presentation","47","242912","0.0-14.0-1.1","SS1613140003965","trial","","40","800","1252.0000000484288","images/stimuli/spore_stims/complex_19_A_d.gif","images/stimuli/spore_stims/complex_19_B_d.gif","","","","","2","complex_similar","images/stimuli/spore_stims/complex_19_B_d.gif","right","","","","",""
"","null","html-keyboard-response","48","244041","0.0-14.0-0.2","SS1613140003965","","","null","","","","","<p><img src= images/blank.png width =""200"" height = ""200"" style = ""float:right""></p><p><img src=images/blank.png width =""800"" height = ""200""></p>","","","","","","","","","","","",""
"","483.0000000074506","sequential-stimulus-presentation","49","245333","0.0-14.0-1.2","SS1613140003965","trial","","40","800","1283.0000000074506","images/stimuli/spore_stims/complex_19_A_d.gif","images/stimuli/spore_stims/complex_19_B_d.gif","","","","","2","complex_similar","images/stimuli/spore_stims/complex_19_B_d.gif","right","","","","",""
"","null","html-keyboard-response","50","246362","0.0-14.0-0.3","SS1613140003965","","","null","","","","","<p><img src= images/blank.png width =""200"" height = ""200"" style = ""float:right""></p><p><img src=images/blank.png width =""800"" height = ""200""></p>","","","","","","","","","","","",""
"","342.9999998770654","sequential-stimulus-presentation","51","247523","0.0-14.0-1.3","SS1613140003965","trial","","40","800","1142.9999998770654","images/stimuli/spore_stims/complex_19_A_d.gif","images/stimuli/spore_stims/complex_19_B_d.gif","","","","","2","complex_similar","images/stimuli/spore_stims/complex_19_B_d.gif","right","","","","",""
"","null","html-keyboard-response","52","248487","0.0-14.0-0.4","SS1613140003965","","","null","","","","","<p><img src= images/blank.png width =""200"" height = ""200"" style = ""float:right""></p><p><img src=images/blank.png width =""800"" height = ""200""></p>","","","","","","","","","","","",""
"","458.9999997988343","sequential-stimulus-presentation","53","249751","0.0-14.0-1.4","SS1613140003965","trial","","40","800","1258.9999997988343","images/stimuli/spore_stims/complex_19_A_d.gif","images/stimuli/spore_stims/complex_19_B_d.gif","","","","","2","complex_similar","images/stimuli/spore_stims/complex_19_A_d.gif","middle","","","","",""
"","null","html-keyboard-response","54","250777","0.0-14.0-0.5","SS1613140003965","","","null","","","","","<p><img src= images/blank.png width =""200"" height = ""200"" style = ""float:right""></p><p><img src=images/blank.png width =""800"" height = ""200""></p>","","","","","","","","","","","",""
"","482.0000003091991","sequential-stimulus-presentation","55","252065","0.0-14.0-1.5","SS1613140003965","trial","","40","800","1282.000000309199","images/stimuli/spore_stims/complex_19_A_d.gif","images/stimuli/spore_stims/complex_19_B_d.gif","","","","","2","complex_similar","images/stimuli/spore_stims/complex_19_B_d.gif","right","","","","",""
"","null","html-keyboard-response","56","252970","0.0-14.0-0.6","SS1613140003965","","","null","","","","","<p><img src= images/blank.png width =""200"" height = ""200"" style = ""float:right""></p><p><img src=images/blank.png width =""800"" height = ""200""></p>","","","","","","","","","","","",""
"","358.0000000074506","sequential-stimulus-presentation","57","254144","0.0-14.0-1.6","SS1613140003965","trial","","40","800","1158.0000000074506","images/stimuli/spore_stims/complex_19_A_d.gif","images/stimuli/spore_stims/complex_19_B_d.gif","","","","","2","complex_similar","images/stimuli/spore_stims/complex_19_B_d.gif","right","","","","",""
"","null","html-keyboard-response","58","254979","0.0-14.0-0.7","SS1613140003965","","","null","","","","","<p><img src= images/blank.png width =""200"" height = ""200"" style = ""float:right""></p><p><img src=images/blank.png width =""800"" height = ""200""></p>","","","","","","","","","","","",""
"","143.99999985471368","sequential-stimulus-presentation","59","255928","0.0-14.0-1.7","SS1613140003965","trial","","40","800","943.9999998547137","images/stimuli/spore_stims/complex_19_A_d.gif","images/stimuli/spore_stims/complex_19_B_d.gif","","","","","2","complex_similar","images/stimuli/spore_stims/complex_19_B_d.gif","right","","","","",""
"","2354.9999999813735","html-keyboard-response","60","258288","0.0-15.0","SS1613140003965","pref_question","","51","","","","","<video width ='960' height = '540' style='padding-top:8%' autoplay muted><source src='images/stimuli/wall_pref.mp4' type='video/mp4'></video>","3","right","66%","2","","","","","","","",""
"","879.9999998882413","sequential-stimulus-presentation","61","259973","0.0-16.0","SS1613140003965","pref_reveal","","40","800","1679.9999998882413","null","null","","","","","2","","","","background","","","",""
"","null","html-keyboard-response","62","261272","0.0-17.0-0.0","SS1613140003965","","","null","","","","","<p><img src= images/blank.png width =""200"" height = ""200"" style = ""float:right""></p><p><img src=images/blank.png width =""800"" height = ""200""></p>","","","","","","","","","","","",""
"","307.0000000298023","sequential-stimulus-presentation","63","262392","0.0-17.0-1.0","SS1613140003965","trial","","40","800","1107.0000000298023","images/stimuli/spore_stims/simple_11_B_d.gif","images/stimuli/spore_stims/simple_11_A_d.gif","","","","","3","simple_similar","images/stimuli/spore_stims/simple_11_A_d.gif","middle","","","","",""
"","null","html-keyboard-response","64","263371","0.0-17.0-0.1","SS1613140003965","","","null","","","","","<p><img src= images/blank.png width =""200"" height = ""200"" style = ""float:right""></p><p><img src=images/blank.png width =""800"" height = ""200""></p>","","","","","","","","","","","",""
"","124.00000030174851","sequential-stimulus-presentation","65","264311","0.0-17.0-1.1","SS1613140003965","trial","","40","800","924.0000003017485","images/stimuli/spore_stims/simple_11_B_d.gif","images/stimuli/spore_stims/simple_11_A_d.gif","","","","","3","simple_similar","images/stimuli/spore_stims/simple_11_A_d.gif","middle","","","","",""
"","null","html-keyboard-response","66","265366","0.0-17.0-0.2","SS1613140003965","","","null","","","","","<p><img src= images/blank.png width =""200"" height = ""200"" style = ""float:right""></p><p><img src=images/blank.png width =""800"" height = ""200""></p>","","","","","","","","","","","",""
"","182.00000002980232","sequential-stimulus-presentation","67","266368","0.0-17.0-1.2","SS1613140003965","trial","","40","800","982.0000000298023","images/stimuli/spore_stims/simple_11_B_d.gif","images/stimuli/spore_stims/simple_11_A_d.gif","","","","","3","simple_similar","images/stimuli/spore_stims/simple_11_A_d.gif","middle","","","","",""
"","null","html-keyboard-response","68","267585","0.0-17.0-0.3","SS1613140003965","","","null","","","","","<p><img src= images/blank.png width =""200"" height = ""200"" style = ""float:right""></p><p><img src=images/blank.png width =""800"" height = ""200""></p>","","","","","","","","","","","",""
"","174.99999981373549","sequential-stimulus-presentation","69","268573","0.0-17.0-1.3","SS1613140003965","trial","","40","800","974.9999998137355","images/stimuli/spore_stims/simple_11_B_d.gif","images/stimuli/spore_stims/simple_11_A_d.gif","","","","","3","simple_similar","images/stimuli/spore_stims/simple_11_A_d.gif","middle","","","","",""
"","null","html-keyboard-response","70","269579","0.0-17.0-0.4","SS1613140003965","","","null","","","","","<p><img src= images/blank.png width =""200"" height = ""200"" style = ""float:right""></p><p><img src=images/blank.png width =""800"" height = ""200""></p>","","","","","","","","","","","",""
"","97429.99999970198","sequential-stimulus-presentation","71","367828","0.0-17.0-1.4","SS1613140003965","trial","","40","800","98229.99999970198","images/stimuli/spore_stims/simple_11_B_d.gif","images/stimuli/spore_stims/simple_11_A_d.gif","","","","","3","simple_similar","images/stimuli/spore_stims/simple_11_B_d.gif","right","","","","",""
"","null","html-keyboard-response","72","368696","0.0-17.0-0.5","SS1613140003965","","","null","","","","","<p><img src= images/blank.png width =""200"" height = ""200"" style = ""float:right""></p><p><img src=images/blank.png width =""800"" height = ""200""></p>","","","","","","","","","","","",""
"","964.0000001527369","sequential-stimulus-presentation","73","370471","0.0-17.0-1.5","SS1613140003965","trial","","40","800","1764.000000152737","images/stimuli/spore_stims/simple_11_B_d.gif","images/stimuli/spore_stims/simple_11_A_d.gif","","","","","3","simple_similar","images/stimuli/spore_stims/simple_11_A_d.gif","middle","","","","",""
"","null","html-keyboard-response","74","371642","0.0-17.0-0.6","SS1613140003965","","","null","","","","","<p><img src= images/blank.png width =""200"" height = ""200"" style = ""float:right""></p><p><img src=images/blank.png width =""800"" height = ""200""></p>","","","","","","","","","","","",""
"","223.99999992921948","sequential-stimulus-presentation","75","372680","0.0-17.0-1.6","SS1613140003965","trial","","40","800","1023.9999999292195","images/stimuli/spore_stims/simple_11_B_d.gif","images/stimuli/spore_stims/simple_11_A_d.gif","","","","","3","simple_similar","images/stimuli/spore_stims/simple_11_A_d.gif","middle","","","","",""
"","null","html-keyboard-response","76","373642","0.0-17.0-0.7","SS1613140003965","","","null","","","","","<p><img src= images/blank.png width =""200"" height = ""200"" style = ""float:right""></p><p><img src=images/blank.png width =""800"" height = ""200""></p>","","","","","","","","","","","",""
"","306.00000033155084","sequential-stimulus-presentation","77","374755","0.0-17.0-1.7","SS1613140003965","trial","","40","800","1106.0000003315508","images/stimuli/spore_stims/simple_11_B_d.gif","images/stimuli/spore_stims/simple_11_A_d.gif","","","","","3","simple_similar","images/stimuli/spore_stims/simple_11_A_d.gif","middle","","","","",""
"","4620.000000111759","html-keyboard-response","78","379380","0.0-18.0","SS1613140003965","pref_question","","50","","","","","<video width ='960' height = '540' style='padding-top:8%' autoplay muted><source src='images/stimuli/wall_pref.mp4' type='video/mp4'></video>","2","middle","45%","3","","","","","","","",""
"","304.0000000037253","sequential-stimulus-presentation","79","380492","0.0-19.0","SS1613140003965","pref_reveal","","40","800","1104.0000000037253","null","null","","","","","3","","","","background","","","",""
"","null","html-keyboard-response","80","381320","0.0-20.0-0.0","SS1613140003965","","","null","","","","","<p><img src= images/blank.png width =""200"" height = ""200"" style = ""float:right""></p><p><img src=images/blank.png width =""800"" height = ""200""></p>","","","","","","","","","","","",""
"","354.99999998137355","sequential-stimulus-presentation","81","382490","0.0-20.0-1.0","SS1613140003965","trial","","40","800","1154.9999999813735","images/stimuli/spore_stims/complex_02_B_b.gif","images/stimuli/spore_stims/complex_04_A_a.gif","","","","","4","complex_dissimilar","images/stimuli/spore_stims/complex_04_A_a.gif","left","","","","",""
"","null","html-keyboard-response","82","383486","0.0-20.0-0.1","SS1613140003965","","","null","","","","","<p><img src= images/blank.png width =""200"" height = ""200"" style = ""float:right""></p><p><img src=images/blank.png width =""800"" height = ""200""></p>","","","","","","","","","","","",""
"","2401.999999769032","sequential-stimulus-presentation","83","386704","0.0-20.0-1.1","SS1613140003965","trial","","40","800","3201.999999769032","images/stimuli/spore_stims/complex_02_B_b.gif","images/stimuli/spore_stims/complex_04_A_a.gif","","","","","4","complex_dissimilar","images/stimuli/spore_stims/complex_04_A_a.gif","left","","","","",""
"","null","html-keyboard-response","84","387528","0.0-20.0-0.2","SS1613140003965","","","null","","","","","<p><img src= images/blank.png width =""200"" height = ""200"" style = ""float:right""></p><p><img src=images/blank.png width =""800"" height = ""200""></p>","","","","","","","","","","","",""
"","942.9999999701977","sequential-stimulus-presentation","85","389286","0.0-20.0-1.2","SS1613140003965","trial","","40","800","1742.9999999701977","images/stimuli/spore_stims/complex_02_B_b.gif","images/stimuli/spore_stims/complex_04_A_a.gif","","","","","4","complex_dissimilar","images/stimuli/spore_stims/complex_02_B_b.gif","right","","","","",""
"","null","html-keyboard-response","86","390142","0.0-20.0-0.3","SS1613140003965","","","null","","","","","<p><img src= images/blank.png width =""200"" height = ""200"" style = ""float:right""></p><p><img src=images/blank.png width =""800"" height = ""200""></p>","","","","","","","","","","","",""
"","774.0000002086163","sequential-stimulus-presentation","87","391735","0.0-20.0-1.3","SS1613140003965","trial","","40","800","1574.0000002086163","images/stimuli/spore_stims/complex_02_B_b.gif","images/stimuli/spore_stims/complex_04_A_a.gif","","","","","4","complex_dissimilar","images/stimuli/spore_stims/complex_04_A_a.gif","left","","","","",""
"","null","html-keyboard-response","88","392686","0.0-20.0-0.4","SS1613140003965","","","null","","","","","<p><img src= images/blank.png width =""200"" height = ""200"" style = ""float:right""></p><p><img src=images/blank.png width =""800"" height = ""200""></p>","","","","","","","","","","","",""
"","242.99999978393316","sequential-stimulus-presentation","89","393740","0.0-20.0-1.4","SS1613140003965","trial","","40","800","1042.9999997839332","images/stimuli/spore_stims/complex_02_B_b.gif","images/stimuli/spore_stims/complex_04_A_a.gif","","","","","4","complex_dissimilar","images/stimuli/spore_stims/complex_04_A_a.gif","left","","","","",""
"","null","html-keyboard-response","90","394743","0.0-20.0-0.5","SS1613140003965","","","null","","","","","<p><img src= images/blank.png width =""200"" height = ""200"" style = ""float:right""></p><p><img src=images/blank.png width =""800"" height = ""200""></p>","","","","","","","","","","","",""
"","276.999999769032","sequential-stimulus-presentation","91","395841","0.0-20.0-1.5","SS1613140003965","trial","","40","800","1076.999999769032","images/stimuli/spore_stims/complex_02_B_b.gif","images/stimuli/spore_stims/complex_04_A_a.gif","","","","","4","complex_dissimilar","images/stimuli/spore_stims/complex_04_A_a.gif","left","","","","",""
"","null","html-keyboard-response","92","396672","0.0-20.0-0.6","SS1613140003965","","","null","","","","","<p><img src= images/blank.png width =""200"" height = ""200"" style = ""float:right""></p><p><img src=images/blank.png width =""800"" height = ""200""></p>","","","","","","","","","","","",""
"","436.9999999180436","sequential-stimulus-presentation","93","397920","0.0-20.0-1.6","SS1613140003965","trial","","40","800","1236.9999999180436","images/stimuli/spore_stims/complex_02_B_b.gif","images/stimuli/spore_stims/complex_04_A_a.gif","","","","","4","complex_dissimilar","images/stimuli/spore_stims/complex_04_A_a.gif","left","","","","",""
"","null","html-keyboard-response","94","399054","0.0-20.0-0.7","SS1613140003965","","","null","","","","","<p><img src= images/blank.png width =""200"" height = ""200"" style = ""float:right""></p><p><img src=images/blank.png width =""800"" height = ""200""></p>","","","","","","","","","","","",""
"","173.9999996498227","sequential-stimulus-presentation","95","400046","0.0-20.0-1.7","SS1613140003965","trial","","40","800","973.9999996498227","images/stimuli/spore_stims/complex_02_B_b.gif","images/stimuli/spore_stims/complex_04_A_a.gif","","","","","4","complex_dissimilar","images/stimuli/spore_stims/complex_04_A_a.gif","left","","","","",""
"","3024.0000002086163","html-keyboard-response","96","403077","0.0-21.0","SS1613140003965","pref_question","","49","","","","","<video width ='960' height = '540' style='padding-top:8%' autoplay muted><source src='images/stimuli/wall_pref.mp4' type='video/mp4'></video>","1","left","25%","4","","","","","","","",""
"","377.00000032782555","sequential-stimulus-presentation","97","404260","0.0-22.0","SS1613140003965","pref_reveal","","40","800","1177.0000003278255","null","null","","","","","4","","","","background","","","",""
"","null","html-keyboard-response","98","405302","0.0-23.0-0.0","SS1613140003965","","","null","","","","","<p><img src= images/blank.png width =""200"" height = ""200"" style = ""float:right""></p><p><img src=images/blank.png width =""800"" height = ""200""></p>","","","","","","","","","","","",""
"","501.0000001639128","sequential-stimulus-presentation","99","406610","0.0-23.0-1.0","SS1613140003965","trial","","40","800","1301.0000001639128","images/stimuli/spore_stims/complex_12_B_a.gif","images/stimuli/spore_stims/complex_12_A_a.gif","","","","","5","complex_similar","images/stimuli/spore_stims/complex_12_A_a.gif","right","","","","",""
"","null","html-keyboard-response","100","407558","0.0-23.0-0.1","SS1613140003965","","","null","","","","","<p><img src= images/blank.png width =""200"" height = ""200"" style = ""float:right""></p><p><img src=images/blank.png width =""800"" height = ""200""></p>","","","","","","","","","","","",""
"","618.0000002495944","sequential-stimulus-presentation","101","408985","0.0-23.0-1.1","SS1613140003965","trial","","40","800","1418.0000002495944","images/stimuli/spore_stims/complex_12_B_a.gif","images/stimuli/spore_stims/complex_12_A_a.gif","","","","","5","complex_similar","images/stimuli/spore_stims/complex_12_A_a.gif","right","","","","",""
"","null","html-keyboard-response","102","410263","0.0-23.0-0.2","SS1613140003965","","","null","","","","","<p><img src= images/blank.png width =""200"" height = ""200"" style = ""float:right""></p><p><img src=images/blank.png width =""800"" height = ""200""></p>","","","","","","","","","","","",""
"","141.00000029429793","sequential-stimulus-presentation","103","411312","0.0-23.0-1.2","SS1613140003965","trial","","40","800","941.0000002942979","images/stimuli/spore_stims/complex_12_B_a.gif","images/stimuli/spore_stims/complex_12_A_a.gif","","","","","5","complex_similar","images/stimuli/spore_stims/complex_12_A_a.gif","right","","","","",""
"","null","html-keyboard-response","104","412590","0.0-23.0-0.3","SS1613140003965","","","null","","","","","<p><img src= images/blank.png width =""200"" height = ""200"" style = ""float:right""></p><p><img src=images/blank.png width =""800"" height = ""200""></p>","","","","","","","","","","","",""
"","97.00000006705523","sequential-stimulus-presentation","105","413501","0.0-23.0-1.3","SS1613140003965","trial","","40","800","897.0000000670552","images/stimuli/spore_stims/complex_12_B_a.gif","images/stimuli/spore_stims/complex_12_A_a.gif","","","","","5","complex_similar","images/stimuli/spore_stims/complex_12_A_a.gif","right","","","","",""
"","null","html-keyboard-response","106","414699","0.0-23.0-0.4","SS1613140003965","","","null","","","","","<p><img src= images/blank.png width =""200"" height = ""200"" style = ""float:right""></p><p><img src=images/blank.png width =""800"" height = ""200""></p>","","","","","","","","","","","",""
"","26.000000070780516","sequential-stimulus-presentation","107","415534","0.0-23.0-1.4","SS1613140003965","trial","","40","800","826.0000000707805","images/stimuli/spore_stims/complex_12_B_a.gif","images/stimuli/spore_stims/complex_12_A_a.gif","","","","","5","complex_similar","images/stimuli/spore_stims/complex_12_A_a.gif","right","","","","",""
"","null","html-keyboard-response","108","416451","0.0-23.0-0.5","SS1613140003965","","","null","","","","","<p><img src= images/blank.png width =""200"" height = ""200"" style = ""float:right""></p><p><img src=images/blank.png width =""800"" height = ""200""></p>","","","","","","","","","","","",""
"","1069.999999832362","sequential-stimulus-presentation","109","418339","0.0-23.0-1.5","SS1613140003965","trial","","40","800","1869.999999832362","images/stimuli/spore_stims/complex_12_B_a.gif","images/stimuli/spore_stims/complex_12_A_a.gif","","","","","5","complex_similar","images/stimuli/spore_stims/complex_12_A_a.gif","right","","","","",""
"","null","html-keyboard-response","110","419450","0.0-23.0-0.6","SS1613140003965","","","null","","","","","<p><img src= images/blank.png width =""200"" height = ""200"" style = ""float:right""></p><p><img src=images/blank.png width =""800"" height = ""200""></p>","","","","","","","","","","","",""
"","207.99999963492155","sequential-stimulus-presentation","111","420480","0.0-23.0-1.6","SS1613140003965","trial","","40","800","1007.9999996349216","images/stimuli/spore_stims/complex_12_B_a.gif","images/stimuli/spore_stims/complex_12_A_a.gif","","","","","5","complex_similar","images/stimuli/spore_stims/complex_12_A_a.gif","right","","","","",""
"","null","html-keyboard-response","112","421766","0.0-23.0-0.7","SS1613140003965","","","null","","","","","<p><img src= images/blank.png width =""200"" height = ""200"" style = ""float:right""></p><p><img src=images/blank.png width =""800"" height = ""200""></p>","","","","","","","","","","","",""
"","558.0000001937151","sequential-stimulus-presentation","113","423133","0.0-23.0-1.7","SS1613140003965","trial","","40","800","1358.000000193715","images/stimuli/spore_stims/complex_12_B_a.gif","images/stimuli/spore_stims/complex_12_A_a.gif","","","","","5","complex_similar","images/stimuli/spore_stims/complex_12_B_a.gif","middle","","","","",""
"","6938.999999780208","html-keyboard-response","114","430082","0.0-24.0","SS1613140003965","pref_question","","50","","","","","<video width ='960' height = '540' style='padding-top:8%' autoplay muted><source src='images/stimuli/wall_pref.mp4' type='video/mp4'></video>","2","middle","45%","5","","","","","","","",""
"","520.9999997168779","sequential-stimulus-presentation","115","431422","0.0-25.0","SS1613140003965","pref_reveal","","40","800","1320.999999716878","null","null","","","","","5","","","","deviant","","","",""
"","null","html-keyboard-response","116","432487","0.0-26.0-0.0","SS1613140003965","","","null","","","","","<p><img src= images/blank.png width =""200"" height = ""200"" style = ""float:right""></p><p><img src=images/blank.png width =""800"" height = ""200""></p>","","","","","","","","","","","",""
"","200.999999884516","sequential-stimulus-presentation","117","433517","0.0-26.0-1.0","SS1613140003965","trial","","40","800","1000.999999884516","images/stimuli/spore_stims/simple_09_A_a.gif","images/stimuli/spore_stims/simple_06_B_d.gif","","","","","6","simple_dissimilar","images/stimuli/spore_stims/simple_06_B_d.gif","middle","","","","",""
"","null","html-keyboard-response","118","434741","0.0-26.0-0.1","SS1613140003965","","","null","","","","","<p><img src= images/blank.png width =""200"" height = ""200"" style = ""float:right""></p><p><img src=images/blank.png width =""800"" height = ""200""></p>","","","","","","","","","","","",""
"","169.9999999254942","sequential-stimulus-presentation","119","435722","0.0-26.0-1.1","SS1613140003965","trial","","40","800","969.9999999254942","images/stimuli/spore_stims/simple_09_A_a.gif","images/stimuli/spore_stims/simple_06_B_d.gif","","","","","6","simple_dissimilar","images/stimuli/spore_stims/simple_06_B_d.gif","middle","","","","",""
"","null","html-keyboard-response","120","436550","0.0-26.0-0.2","SS1613140003965","","","null","","","","","<p><img src= images/blank.png width =""200"" height = ""200"" style = ""float:right""></p><p><img src=images/blank.png width =""800"" height = ""200""></p>","","","","","","","","","","","",""
"","56.00000033155084","sequential-stimulus-presentation","121","437423","0.0-26.0-1.2","SS1613140003965","trial","","40","800","856.0000003315508","images/stimuli/spore_stims/simple_09_A_a.gif","images/stimuli/spore_stims/simple_06_B_d.gif","","","","","6","simple_dissimilar","images/stimuli/spore_stims/simple_06_B_d.gif","middle","","","","",""
"","null","html-keyboard-response","122","438334","0.0-26.0-0.3","SS1613140003965","","","null","","","","","<p><img src= images/blank.png width =""200"" height = ""200"" style = ""float:right""></p><p><img src=images/blank.png width =""800"" height = ""200""></p>","","","","","","","","","","","",""
"","149.99999990686774","sequential-stimulus-presentation","123","439312","0.0-26.0-1.3","SS1613140003965","trial","","40","800","949.9999999068677","images/stimuli/spore_stims/simple_09_A_a.gif","images/stimuli/spore_stims/simple_06_B_d.gif","","","","","6","simple_dissimilar","images/stimuli/spore_stims/simple_06_B_d.gif","middle","","","","",""
"","null","html-keyboard-response","124","440221","0.0-26.0-0.4","SS1613140003965","","","null","","","","","<p><img src= images/blank.png width =""200"" height = ""200"" style = ""float:right""></p><p><img src=images/blank.png width =""800"" height = ""200""></p>","","","","","","","","","","","",""
"","702.0000000484288","sequential-stimulus-presentation","125","441733","0.0-26.0-1.4","SS1613140003965","trial","","40","800","1502.0000000484288","images/stimuli/spore_stims/simple_09_A_a.gif","images/stimuli/spore_stims/simple_06_B_d.gif","","","","","6","simple_dissimilar","images/stimuli/spore_stims/simple_06_B_d.gif","middle","","","","",""
"","null","html-keyboard-response","126","442647","0.0-26.0-0.5","SS1613140003965","","","null","","","","","<p><img src= images/blank.png width =""200"" height = ""200"" style = ""float:right""></p><p><img src=images/blank.png width =""800"" height = ""200""></p>","","","","","","","","","","","",""
"","510.99999994039536","sequential-stimulus-presentation","127","443972","0.0-26.0-1.5","SS1613140003965","trial","","40","800","1310.9999999403954","images/stimuli/spore_stims/simple_09_A_a.gif","images/stimuli/spore_stims/simple_06_B_d.gif","","","","","6","simple_dissimilar","images/stimuli/spore_stims/simple_06_B_d.gif","middle","","","","",""
"","null","html-keyboard-response","128","444880","0.0-26.0-0.6","SS1613140003965","","","null","","","","","<p><img src= images/blank.png width =""200"" height = ""200"" style = ""float:right""></p><p><img src=images/blank.png width =""800"" height = ""200""></p>","","","","","","","","","","","",""
"","382.00000021606684","sequential-stimulus-presentation","129","446070","0.0-26.0-1.6","SS1613140003965","trial","","40","800","1182.0000002160668","images/stimuli/spore_stims/simple_09_A_a.gif","images/stimuli/spore_stims/simple_06_B_d.gif","","","","","6","simple_dissimilar","images/stimuli/spore_stims/simple_06_B_d.gif","middle","","","","",""
"","null","html-keyboard-response","130","447107","0.0-26.0-0.7","SS1613140003965","","","null","","","","","<p><img src= images/blank.png width =""200"" height = ""200"" style = ""float:right""></p><p><img src=images/blank.png width =""800"" height = ""200""></p>","","","","","","","","","","","",""
"","504.9999998882413","sequential-stimulus-presentation","131","448421","0.0-26.0-1.7","SS1613140003965","trial","","40","800","1304.9999998882413","images/stimuli/spore_stims/simple_09_A_a.gif","images/stimuli/spore_stims/simple_06_B_d.gif","","","","","6","simple_dissimilar","images/stimuli/spore_stims/simple_09_A_a.gif","left","","","","",""
"","2884.000000078231","html-keyboard-response","132","451309","0.0-27.0","SS1613140003965","pref_question","","50","","","","","<video width ='960' height = '540' style='padding-top:8%' autoplay muted><source src='images/stimuli/wall_pref.mp4' type='video/mp4'></video>","2","middle","45%","6","","","","","","","",""
"","2827.9999997466803","sequential-stimulus-presentation","133","454947","0.0-28.0","SS1613140003965","pref_reveal","","40","800","3627.9999997466803","null","null","","","","","6","","","","background","","","",""
"","null","html-keyboard-response","134","455766","0.0-29.0-0.0","SS1613140003965","","","null","","","","","<p><img src= images/blank.png width =""200"" height = ""200"" style = ""float:right""></p><p><img src=images/blank.png width =""800"" height = ""200""></p>","","","","","","","","","","","",""
"","306.00000033155084","sequential-stimulus-presentation","135","456881","0.0-29.0-1.0","SS1613140003965","trial","","40","800","1106.0000003315508","images/stimuli/spore_stims/complex_18_B_c.gif","images/stimuli/spore_stims/complex_14_B_d.gif","","","","","7","complex_dissimilar","images/stimuli/spore_stims/complex_14_B_d.gif","middle","","","","",""
"","null","html-keyboard-response","136","457941","0.0-29.0-0.1","SS1613140003965","","","null","","","","","<p><img src= images/blank.png width =""200"" height = ""200"" style = ""float:right""></p><p><img src=images/blank.png width =""800"" height = ""200""></p>","","","","","","","","","","","",""
"","776.0000000707805","sequential-stimulus-presentation","137","459540","0.0-29.0-1.1","SS1613140003965","trial","","40","800","1576.0000000707805","images/stimuli/spore_stims/complex_18_B_c.gif","images/stimuli/spore_stims/complex_14_B_d.gif","","","","","7","complex_dissimilar","images/stimuli/spore_stims/complex_14_B_d.gif","middle","","","","",""
"","null","html-keyboard-response","138","460760","0.0-29.0-0.2","SS1613140003965","","","null","","","","","<p><img src= images/blank.png width =""200"" height = ""200"" style = ""float:right""></p><p><img src=images/blank.png width =""800"" height = ""200""></p>","","","","","","","","","","","",""
"","739.9999997578561","sequential-stimulus-presentation","139","462313","0.0-29.0-1.2","SS1613140003965","trial","","40","800","1539.9999997578561","images/stimuli/spore_stims/complex_18_B_c.gif","images/stimuli/spore_stims/complex_14_B_d.gif","","","","","7","complex_dissimilar","images/stimuli/spore_stims/complex_14_B_d.gif","middle","","","","",""
"","null","html-keyboard-response","140","463276","0.0-29.0-0.3","SS1613140003965","","","null","","","","","<p><img src= images/blank.png width =""200"" height = ""200"" style = ""float:right""></p><p><img src=images/blank.png width =""800"" height = ""200""></p>","","","","","","","","","","","",""
"","199.99999972060323","sequential-stimulus-presentation","141","464291","0.0-29.0-1.3","SS1613140003965","trial","","40","800","999.9999997206032","images/stimuli/spore_stims/complex_18_B_c.gif","images/stimuli/spore_stims/complex_14_B_d.gif","","","","","7","complex_dissimilar","images/stimuli/spore_stims/complex_14_B_d.gif","middle","","","","",""
"","null","html-keyboard-response","142","465213","0.0-29.0-0.4","SS1613140003965","","","null","","","","","<p><img src= images/blank.png width =""200"" height = ""200"" style = ""float:right""></p><p><img src=images/blank.png width =""800"" height = ""200""></p>","","","","","","","","","","","",""
"","222.00000006705523","sequential-stimulus-presentation","143","466322","0.0-29.0-1.4","SS1613140003965","trial","","40","800","1022.0000000670552","images/stimuli/spore_stims/complex_18_B_c.gif","images/stimuli/spore_stims/complex_14_B_d.gif","","","","","7","complex_dissimilar","images/stimuli/spore_stims/complex_14_B_d.gif","middle","","","","",""
"","null","html-keyboard-response","144","467410","0.0-29.0-0.5","SS1613140003965","","","null","","","","","<p><img src= images/blank.png width =""200"" height = ""200"" style = ""float:right""></p><p><img src=images/blank.png width =""800"" height = ""200""></p>","","","","","","","","","","","",""
"","1131.9999997504056","sequential-stimulus-presentation","145","469351","0.0-29.0-1.5","SS1613140003965","trial","","40","800","1931.9999997504056","images/stimuli/spore_stims/complex_18_B_c.gif","images/stimuli/spore_stims/complex_14_B_d.gif","","","","","7","complex_dissimilar","images/stimuli/spore_stims/complex_18_B_c.gif","left","","","","",""
"","null","html-keyboard-response","146","470591","0.0-29.0-0.6","SS1613140003965","","","null","","","","","<p><img src= images/blank.png width =""200"" height = ""200"" style = ""float:right""></p><p><img src=images/blank.png width =""800"" height = ""200""></p>","","","","","","","","","","","",""
"","606.9999998435378","sequential-stimulus-presentation","147","472016","0.0-29.0-1.6","SS1613140003965","trial","","40","800","1406.9999998435378","images/stimuli/spore_stims/complex_18_B_c.gif","images/stimuli/spore_stims/complex_14_B_d.gif","","","","","7","complex_dissimilar","images/stimuli/spore_stims/complex_14_B_d.gif","middle","","","","",""
"","null","html-keyboard-response","148","473101","0.0-29.0-0.7","SS1613140003965","","","null","","","","","<p><img src= images/blank.png width =""200"" height = ""200"" style = ""float:right""></p><p><img src=images/blank.png width =""800"" height = ""200""></p>","","","","","","","","","","","",""
"","646.9999998807907","sequential-stimulus-presentation","149","474559","0.0-29.0-1.7","SS1613140003965","trial","","40","800","1446.9999998807907","images/stimuli/spore_stims/complex_18_B_c.gif","images/stimuli/spore_stims/complex_14_B_d.gif","","","","","7","complex_dissimilar","images/stimuli/spore_stims/complex_14_B_d.gif","middle","","","","",""
"","3169.0000002272427","html-keyboard-response","150","477733","0.0-30.0","SS1613140003965","pref_question","","49","","","","","<video width ='960' height = '540' style='padding-top:8%' autoplay muted><source src='images/stimuli/wall_pref.mp4' type='video/mp4'></video>","1","left","25%","7","","","","","","","",""
"","6219.000000040978","sequential-stimulus-presentation","151","484783","0.0-31.0","SS1613140003965","pref_reveal","","40","800","7019.000000040978","null","null","","","","","7","","","","deviant","","","",""
"","null","html-keyboard-response","152","485813","0.0-32.0-0.0","SS1613140003965","","","null","","","","","<p><img src= images/blank.png width =""200"" height = ""200"" style = ""float:right""></p><p><img src=images/blank.png width =""800"" height = ""200""></p>","","","","","","","","","","","",""
"","9.000000078231096","sequential-stimulus-presentation","153","486638","0.0-32.0-1.0","SS1613140003965","trial","","40","800","809.0000000782311","images/stimuli/spore_stims/simple_19_B_b.gif","images/stimuli/spore_stims/simple_19_A_b.gif","","","","","8","simple_similar","images/stimuli/spore_stims/simple_19_A_b.gif","middle","","","","",""
"","null","html-keyboard-response","154","487850","0.0-32.0-0.1","SS1613140003965","","","null","","","","","<p><img src= images/blank.png width =""200"" height = ""200"" style = ""float:right""></p><p><img src=images/blank.png width =""800"" height = ""200""></p>","","","","","","","","","","","",""
"","470.99999990314245","sequential-stimulus-presentation","155","489136","0.0-32.0-1.1","SS1613140003965","trial","","40","800","1270.9999999031425","images/stimuli/spore_stims/simple_19_B_b.gif","images/stimuli/spore_stims/simple_19_A_b.gif","","","","","8","simple_similar","images/stimuli/spore_stims/simple_19_A_b.gif","middle","","","","",""
"","null","html-keyboard-response","156","490214","0.0-32.0-0.2","SS1613140003965","","","null","","","","","<p><img src= images/blank.png width =""200"" height = ""200"" style = ""float:right""></p><p><img src=images/blank.png width =""800"" height = ""200""></p>","","","","","","","","","","","",""
"","3510.9999999403954","sequential-stimulus-presentation","157","494541","0.0-32.0-1.2","SS1613140003965","trial","","40","800","4310.999999940395","images/stimuli/spore_stims/simple_19_B_b.gif","images/stimuli/spore_stims/simple_19_A_b.gif","","","","","8","simple_similar","images/stimuli/spore_stims/simple_19_A_b.gif","middle","","","","",""
"","null","html-keyboard-response","158","495760","0.0-32.0-0.3","SS1613140003965","","","null","","","","","<p><img src= images/blank.png width =""200"" height = ""200"" style = ""float:right""></p><p><img src=images/blank.png width =""800"" height = ""200""></p>","","","","","","","","","","","",""
"","2631.000000052154","sequential-stimulus-presentation","159","499221","0.0-32.0-1.3","SS1613140003965","trial","","40","800","3431.000000052154","images/stimuli/spore_stims/simple_19_B_b.gif","images/stimuli/spore_stims/simple_19_A_b.gif","","","","","8","simple_similar","images/stimuli/spore_stims/simple_19_A_b.gif","middle","","","","",""
"","null","html-keyboard-response","160","500104","0.0-32.0-0.4","SS1613140003965","","","null","","","","","<p><img src= images/blank.png width =""200"" height = ""200"" style = ""float:right""></p><p><img src=images/blank.png width =""800"" height = ""200""></p>","","","","","","","","","","","",""
"","2149.9999999068677","sequential-stimulus-presentation","161","503066","0.0-32.0-1.4","SS1613140003965","trial","","40","800","2949.9999999068677","images/stimuli/spore_stims/simple_19_B_b.gif","images/stimuli/spore_stims/simple_19_A_b.gif","","","","","8","simple_similar","images/stimuli/spore_stims/simple_19_A_b.gif","middle","","","","",""
"","null","html-keyboard-response","162","503943","0.0-32.0-0.5","SS1613140003965","","","null","","","","","<p><img src= images/blank.png width =""200"" height = ""200"" style = ""float:right""></p><p><img src=images/blank.png width =""800"" height = ""200""></p>","","","","","","","","","","","",""
"","1191.0000001080334","sequential-stimulus-presentation","163","505963","0.0-32.0-1.5","SS1613140003965","trial","","40","800","1991.0000001080334","images/stimuli/spore_stims/simple_19_B_b.gif","images/stimuli/spore_stims/simple_19_A_b.gif","","","","","8","simple_similar","images/stimuli/spore_stims/simple_19_A_b.gif","middle","","","","",""
"","null","html-keyboard-response","164","506958","0.0-32.0-0.6","SS1613140003965","","","null","","","","","<p><img src= images/blank.png width =""200"" height = ""200"" style = ""float:right""></p><p><img src=images/blank.png width =""800"" height = ""200""></p>","","","","","","","","","","","",""
"","827.0000000484288","sequential-stimulus-presentation","165","508602","0.0-32.0-1.6","SS1613140003965","trial","","40","800","1627.0000000484288","images/stimuli/spore_stims/simple_19_B_b.gif","images/stimuli/spore_stims/simple_19_A_b.gif","","","","","8","simple_similar","images/stimuli/spore_stims/simple_19_A_b.gif","middle","","","","",""
"","null","html-keyboard-response","166","509619","0.0-32.0-0.7","SS1613140003965","","","null","","","","","<p><img src= images/blank.png width =""200"" height = ""200"" style = ""float:right""></p><p><img src=images/blank.png width =""800"" height = ""200""></p>","","","","","","","","","","","",""
"","1096.0000003688037","sequential-stimulus-presentation","167","511557","0.0-32.0-1.7","SS1613140003965","trial","","40","800","1896.0000003688037","images/stimuli/spore_stims/simple_19_B_b.gif","images/stimuli/spore_stims/simple_19_A_b.gif","","","","","8","simple_similar","images/stimuli/spore_stims/simple_19_B_b.gif","left","","","","",""
"","2344.000000040978","html-keyboard-response","168","513906","0.0-33.0","SS1613140003965","pref_question","","50","","","","","<video width ='960' height = '540' style='padding-top:8%' autoplay muted><source src='images/stimuli/wall_pref.mp4' type='video/mp4'></video>","2","middle","45%","8","","","","","","","",""
"","2016.9999999925494","sequential-stimulus-presentation","169","516735","0.0-34.0","SS1613140003965","pref_reveal","","40","800","2816.9999999925494","null","null","","","","","8","","","","background","","","",""
"","null","html-keyboard-response","170","517687","0.0-35.0-0.0","SS1613140003965","","","null","","","","","<p><img src= images/blank.png width =""200"" height = ""200"" style = ""float:right""></p><p><img src=images/blank.png width =""800"" height = ""200""></p>","","","","","","","","","","","",""
"","2242.0000000856817","sequential-stimulus-presentation","171","520737","0.0-35.0-1.0","SS1613140003965","trial","","40","800","3042.0000000856817","images/stimuli/spore_stims/simple_07_B_d.gif","images/stimuli/spore_stims/simple_15_B_b.gif","","","","","9","simple_dissimilar","images/stimuli/spore_stims/simple_15_B_b.gif","left","","","","",""
"","null","html-keyboard-response","172","521574","0.0-35.0-0.1","SS1613140003965","","","null","","","","","<p><img src= images/blank.png width =""200"" height = ""200"" style = ""float:right""></p><p><img src=images/blank.png width =""800"" height = ""200""></p>","","","","","","","","","","","",""
"","1072.999999858439","sequential-stimulus-presentation","173","523457","0.0-35.0-1.1","SS1613140003965","trial","","40","800","1872.999999858439","images/stimuli/spore_stims/simple_07_B_d.gif","images/stimuli/spore_stims/simple_15_B_b.gif","","","","","9","simple_dissimilar","images/stimuli/spore_stims/simple_15_B_b.gif","left","","","","",""
"","null","html-keyboard-response","174","524340","0.0-35.0-0.2","SS1613140003965","","","null","","","","","<p><img src= images/blank.png width =""200"" height = ""200"" style = ""float:right""></p><p><img src=images/blank.png width =""800"" height = ""200""></p>","","","","","","","","","","","",""
"","1180.9999998658895","sequential-stimulus-presentation","175","526342","0.0-35.0-1.2","SS1613140003965","trial","","40","800","1980.9999998658895","images/stimuli/spore_stims/simple_07_B_d.gif","images/stimuli/spore_stims/simple_15_B_b.gif","","","","","9","simple_dissimilar","images/stimuli/spore_stims/simple_15_B_b.gif","left","","","","",""
"","null","html-keyboard-response","176","527262","0.0-35.0-0.3","SS1613140003965","","","null","","","","","<p><img src= images/blank.png width =""200"" height = ""200"" style = ""float:right""></p><p><img src=images/blank.png width =""800"" height = ""200""></p>","","","","","","","","","","","",""
"","1842.000000178814","sequential-stimulus-presentation","177","529931","0.0-35.0-1.3","SS1613140003965","trial","","40","800","2642.000000178814","images/stimuli/spore_stims/simple_07_B_d.gif","images/stimuli/spore_stims/simple_15_B_b.gif","","","","","9","simple_dissimilar","images/stimuli/spore_stims/simple_07_B_d.gif","right","","","","",""
"","null","html-keyboard-response","178","531231","0.0-35.0-0.4","SS1613140003965","","","null","","","","","<p><img src= images/blank.png width =""200"" height = ""200"" style = ""float:right""></p><p><img src=images/blank.png width =""800"" height = ""200""></p>","","","","","","","","","","","",""
"","1018.0000001564622","sequential-stimulus-presentation","179","533059","0.0-35.0-1.4","SS1613140003965","trial","","40","800","1818.0000001564622","images/stimuli/spore_stims/simple_07_B_d.gif","images/stimuli/spore_stims/simple_15_B_b.gif","","","","","9","simple_dissimilar","images/stimuli/spore_stims/simple_15_B_b.gif","left","","","","",""
"","null","html-keyboard-response","180","534300","0.0-35.0-0.5","SS1613140003965","","","null","","","","","<p><img src= images/blank.png width =""200"" height = ""200"" style = ""float:right""></p><p><img src=images/blank.png width =""800"" height = ""200""></p>","","","","","","","","","","","",""
"","688.0000000819564","sequential-stimulus-presentation","181","535803","0.0-35.0-1.5","SS1613140003965","trial","","40","800","1488.0000000819564","images/stimuli/spore_stims/simple_07_B_d.gif","images/stimuli/spore_stims/simple_15_B_b.gif","","","","","9","simple_dissimilar","images/stimuli/spore_stims/simple_15_B_b.gif","left","","","","",""
"","null","html-keyboard-response","182","537098","0.0-35.0-0.6","SS1613140003965","","","null","","","","","<p><img src= images/blank.png width =""200"" height = ""200"" style = ""float:right""></p><p><img src=images/blank.png width =""800"" height = ""200""></p>","","","","","","","","","","","",""
"","737.0000001974404","sequential-stimulus-presentation","183","538647","0.0-35.0-1.6","SS1613140003965","trial","","40","800","1537.0000001974404","images/stimuli/spore_stims/simple_07_B_d.gif","images/stimuli/spore_stims/simple_15_B_b.gif","","","","","9","simple_dissimilar","images/stimuli/spore_stims/simple_15_B_b.gif","left","","","","",""
"","null","html-keyboard-response","184","539781","0.0-35.0-0.7","SS1613140003965","","","null","","","","","<p><img src= images/blank.png width =""200"" height = ""200"" style = ""float:right""></p><p><img src=images/blank.png width =""800"" height = ""200""></p>","","","","","","","","","","","",""
"","992.0000000856817","sequential-stimulus-presentation","185","541581","0.0-35.0-1.7","SS1613140003965","trial","","40","800","1792.0000000856817","images/stimuli/spore_stims/simple_07_B_d.gif","images/stimuli/spore_stims/simple_15_B_b.gif","","","","","9","simple_dissimilar","images/stimuli/spore_stims/simple_15_B_b.gif","left","","","","",""
"","2708.000000100583","html-keyboard-response","186","544298","0.0-36.0","SS1613140003965","pref_question","","49","","","","","<video width ='960' height = '540' style='padding-top:8%' autoplay muted><source src='images/stimuli/wall_pref.mp4' type='video/mp4'></video>","1","left","25%","9","","","","","","","",""
"","1077.9999997466803","sequential-stimulus-presentation","187","546186","0.0-37.0","SS1613140003965","pref_reveal","","40","800","1877.9999997466803","null","null","","","","","9","","","","background","","","",""
"","null","html-keyboard-response","188","547322","0.0-38.0-0.0","SS1613140003965","","","null","","","","","<p><img src= images/blank.png width =""200"" height = ""200"" style = ""float:right""></p><p><img src=images/blank.png width =""800"" height = ""200""></p>","","","","","","","","","","","",""
"","847.0000000670552","sequential-stimulus-presentation","189","548984","0.0-38.0-1.0","SS1613140003965","trial","","40","800","1647.0000000670552","images/stimuli/spore_stims/simple_18_B_d.gif","images/stimuli/spore_stims/simple_18_A_d.gif","","","","","10","simple_similar","images/stimuli/spore_stims/simple_18_A_d.gif","left","","","","",""
"","null","html-keyboard-response","190","550107","0.0-38.0-0.1","SS1613140003965","","","null","","","","","<p><img src= images/blank.png width =""200"" height = ""200"" style = ""float:right""></p><p><img src=images/blank.png width =""800"" height = ""200""></p>","","","","","","","","","","","",""
"","853.0000001192093","sequential-stimulus-presentation","191","551786","0.0-38.0-1.1","SS1613140003965","trial","","40","800","1653.0000001192093","images/stimuli/spore_stims/simple_18_B_d.gif","images/stimuli/spore_stims/simple_18_A_d.gif","","","","","10","simple_similar","images/stimuli/spore_stims/simple_18_A_d.gif","left","","","","",""
"","null","html-keyboard-response","192","552688","0.0-38.0-0.2","SS1613140003965","","","null","","","","","<p><img src= images/blank.png width =""200"" height = ""200"" style = ""float:right""></p><p><img src=images/blank.png width =""800"" height = ""200""></p>","","","","","","","","","","","",""
"","688.0000000819564","sequential-stimulus-presentation","193","554196","0.0-38.0-1.2","SS1613140003965","trial","","40","800","1488.0000000819564","images/stimuli/spore_stims/simple_18_B_d.gif","images/stimuli/spore_stims/simple_18_A_d.gif","","","","","10","simple_similar","images/stimuli/spore_stims/simple_18_A_d.gif","left","","","","",""
"","null","html-keyboard-response","194","555100","0.0-38.0-0.3","SS1613140003965","","","null","","","","","<p><img src= images/blank.png width =""200"" height = ""200"" style = ""float:right""></p><p><img src=images/blank.png width =""800"" height = ""200""></p>","","","","","","","","","","","",""
"","743.9999999478459","sequential-stimulus-presentation","195","556652","0.0-38.0-1.3","SS1613140003965","trial","","40","800","1543.999999947846","images/stimuli/spore_stims/simple_18_B_d.gif","images/stimuli/spore_stims/simple_18_A_d.gif","","","","","10","simple_similar","images/stimuli/spore_stims/simple_18_A_d.gif","left","","","","",""
"","null","html-keyboard-response","196","557875","0.0-38.0-0.4","SS1613140003965","","","null","","","","","<p><img src= images/blank.png width =""200"" height = ""200"" style = ""float:right""></p><p><img src=images/blank.png width =""800"" height = ""200""></p>","","","","","","","","","","","",""
"","938.0000000819564","sequential-stimulus-presentation","197","559627","0.0-38.0-1.4","SS1613140003965","trial","","40","800","1738.0000000819564","images/stimuli/spore_stims/simple_18_B_d.gif","images/stimuli/spore_stims/simple_18_A_d.gif","","","","","10","simple_similar","images/stimuli/spore_stims/simple_18_A_d.gif","left","","","","",""
"","null","html-keyboard-response","198","560530","0.0-38.0-0.5","SS1613140003965","","","null","","","","","<p><img src= images/blank.png width =""200"" height = ""200"" style = ""float:right""></p><p><img src=images/blank.png width =""800"" height = ""200""></p>","","","","","","","","","","","",""
"","1072.0000001601875","sequential-stimulus-presentation","199","562423","0.0-38.0-1.5","SS1613140003965","trial","","40","800","1872.0000001601875","images/stimuli/spore_stims/simple_18_B_d.gif","images/stimuli/spore_stims/simple_18_A_d.gif","","","","","10","simple_similar","images/stimuli/spore_stims/simple_18_A_d.gif","left","","","","",""
"","null","html-keyboard-response","200","563564","0.0-38.0-0.6","SS1613140003965","","","null","","","","","<p><img src= images/blank.png width =""200"" height = ""200"" style = ""float:right""></p><p><img src=images/blank.png width =""800"" height = ""200""></p>","","","","","","","","","","","",""
"","373.9999998360872","sequential-stimulus-presentation","201","564752","0.0-38.0-1.6","SS1613140003965","trial","","40","800","1173.9999998360872","images/stimuli/spore_stims/simple_18_B_d.gif","images/stimuli/spore_stims/simple_18_A_d.gif","","","","","10","simple_similar","images/stimuli/spore_stims/simple_18_A_d.gif","left","","","","",""
"","null","html-keyboard-response","202","565760","0.0-38.0-0.7","SS1613140003965","","","null","","","","","<p><img src= images/blank.png width =""200"" height = ""200"" style = ""float:right""></p><p><img src=images/blank.png width =""800"" height = ""200""></p>","","","","","","","","","","","",""
"","1930.9999998658895","sequential-stimulus-presentation","203","568503","0.0-38.0-1.7","SS1613140003965","trial","","40","800","2730.9999998658895","images/stimuli/spore_stims/simple_18_B_d.gif","images/stimuli/spore_stims/simple_18_A_d.gif","","","","","10","simple_similar","images/stimuli/spore_stims/simple_18_B_d.gif","middle","","","","",""
"","3035.999999847263","html-keyboard-response","204","571548","0.0-39.0","SS1613140003965","pref_question","","49","","","","","<video width ='960' height = '540' style='padding-top:8%' autoplay muted><source src='images/stimuli/wall_pref.mp4' type='video/mp4'></video>","1","left","25%","10","","","","","","","",""
"","169.9999999254942","sequential-stimulus-presentation","205","572579","0.0-40.0","SS1613140003965","pref_reveal","","40","800","969.9999999254942","null","null","","","","","10","","","","background","","","",""
"","null","html-keyboard-response","206","573661","0.0-41.0-0.0","SS1613140003965","","","null","","","","","<p><img src= images/blank.png width =""200"" height = ""200"" style = ""float:right""></p><p><img src=images/blank.png width =""800"" height = ""200""></p>","","","","","","","","","","","",""
"","1774.0000002086163","sequential-stimulus-presentation","207","576246","0.0-41.0-1.0","SS1613140003965","trial","","40","800","2574.0000002086163","images/stimuli/spore_stims/complex_17_A_d.gif","images/stimuli/spore_stims/complex_17_B_d.gif","","","","","11","complex_similar","images/stimuli/spore_stims/complex_17_B_d.gif","left","","","","",""
"","null","html-keyboard-response","208","577463","0.0-41.0-0.1","SS1613140003965","","","null","","","","","<p><img src= images/blank.png width =""200"" height = ""200"" style = ""float:right""></p><p><img src=images/blank.png width =""800"" height = ""200""></p>","","","","","","","","","","","",""
"","458.00000010058284","sequential-stimulus-presentation","209","578731","0.0-41.0-1.1","SS1613140003965","trial","","40","800","1258.0000001005828","images/stimuli/spore_stims/complex_17_A_d.gif","images/stimuli/spore_stims/complex_17_B_d.gif","","","","","11","complex_similar","images/stimuli/spore_stims/complex_17_B_d.gif","left","","","","",""
"","null","html-keyboard-response","210","579874","0.0-41.0-0.2","SS1613140003965","","","null","","","","","<p><img src= images/blank.png width =""200"" height = ""200"" style = ""float:right""></p><p><img src=images/blank.png width =""800"" height = ""200""></p>","","","","","","","","","","","",""
"","390.99999982863665","sequential-stimulus-presentation","211","581145","0.0-41.0-1.2","SS1613140003965","trial","","40","800","1190.9999998286366","images/stimuli/spore_stims/complex_17_A_d.gif","images/stimuli/spore_stims/complex_17_B_d.gif","","","","","11","complex_similar","images/stimuli/spore_stims/complex_17_B_d.gif","left","","","","",""
"","null","html-keyboard-response","212","582246","0.0-41.0-0.3","SS1613140003965","","","null","","","","","<p><img src= images/blank.png width =""200"" height = ""200"" style = ""float:right""></p><p><img src=images/blank.png width =""800"" height = ""200""></p>","","","","","","","","","","","",""
"","1400.000000372529","sequential-stimulus-presentation","213","584462","0.0-41.0-1.3","SS1613140003965","trial","","40","800","2200.000000372529","images/stimuli/spore_stims/complex_17_A_d.gif","images/stimuli/spore_stims/complex_17_B_d.gif","","","","","11","complex_similar","images/stimuli/spore_stims/complex_17_A_d.gif","middle","","","","",""
"","null","html-keyboard-response","214","585696","0.0-41.0-0.4","SS1613140003965","","","null","","","","","<p><img src= images/blank.png width =""200"" height = ""200"" style = ""float:right""></p><p><img src=images/blank.png width =""800"" height = ""200""></p>","","","","","","","","","","","",""
"","156.0000004246831","sequential-stimulus-presentation","215","586685","0.0-41.0-1.4","SS1613140003965","trial","","40","800","956.0000004246831","images/stimuli/spore_stims/complex_17_A_d.gif","images/stimuli/spore_stims/complex_17_B_d.gif","","","","","11","complex_similar","images/stimuli/spore_stims/complex_17_B_d.gif","left","","","","",""
"","null","html-keyboard-response","216","587841","0.0-41.0-0.5","SS1613140003965","","","null","","","","","<p><img src= images/blank.png width =""200"" height = ""200"" style = ""float:right""></p><p><img src=images/blank.png width =""800"" height = ""200""></p>","","","","","","","","","","","",""
"","1552.000000141561","sequential-stimulus-presentation","217","590232","0.0-41.0-1.5","SS1613140003965","trial","","40","800","2352.000000141561","images/stimuli/spore_stims/complex_17_A_d.gif","images/stimuli/spore_stims/complex_17_B_d.gif","","","","","11","complex_similar","images/stimuli/spore_stims/complex_17_B_d.gif","left","","","","",""
"","null","html-keyboard-response","218","591466","0.0-41.0-0.6","SS1613140003965","","","null","","","","","<p><img src= images/blank.png width =""200"" height = ""200"" style = ""float:right""></p><p><img src=images/blank.png width =""800"" height = ""200""></p>","","","","","","","","","","","",""
"","482.0000003091991","sequential-stimulus-presentation","219","592760","0.0-41.0-1.6","SS1613140003965","trial","","40","800","1282.000000309199","images/stimuli/spore_stims/complex_17_A_d.gif","images/stimuli/spore_stims/complex_17_B_d.gif","","","","","11","complex_similar","images/stimuli/spore_stims/complex_17_B_d.gif","left","","","","",""
"","null","html-keyboard-response","220","593756","0.0-41.0-0.7","SS1613140003965","","","null","","","","","<p><img src= images/blank.png width =""200"" height = ""200"" style = ""float:right""></p><p><img src=images/blank.png width =""800"" height = ""200""></p>","","","","","","","","","","","",""
"","487.0000001974404","sequential-stimulus-presentation","221","595057","0.0-41.0-1.7","SS1613140003965","trial","","40","800","1287.0000001974404","images/stimuli/spore_stims/complex_17_A_d.gif","images/stimuli/spore_stims/complex_17_B_d.gif","","","","","11","complex_similar","images/stimuli/spore_stims/complex_17_B_d.gif","left","","","","",""
"","3572.0000001601875","html-keyboard-response","222","598639","0.0-42.0","SS1613140003965","pref_question","","50","","","","","<video width ='960' height = '540' style='padding-top:8%' autoplay muted><source src='images/stimuli/wall_pref.mp4' type='video/mp4'></video>","2","middle","45%","11","","","","","","","",""
"","1697.999999858439","sequential-stimulus-presentation","223","601146","0.0-43.0","SS1613140003965","pref_reveal","","40","800","2497.999999858439","null","null","","","","","11","","","","deviant","","","",""
"","null","html-keyboard-response","224","602423","0.0-44.0-0.0","SS1613140003965","","","null","","","","","<p><img src= images/blank.png width =""200"" height = ""200"" style = ""float:right""></p><p><img src=images/blank.png width =""800"" height = ""200""></p>","","","","","","","","","","","",""
"","1186.9999999180436","sequential-stimulus-presentation","225","604466","0.0-44.0-1.0","SS1613140003965","trial","","40","800","1986.9999999180436","images/stimuli/spore_stims/simple_10_B_d.gif","images/stimuli/spore_stims/simple_10_A_d.gif","","","","","12","simple_similar","images/stimuli/spore_stims/simple_10_A_d.gif","left","","","","",""
"","null","html-keyboard-response","226","605310","0.0-44.0-0.1","SS1613140003965","","","null","","","","","<p><img src= images/blank.png width =""200"" height = ""200"" style = ""float:right""></p><p><img src=images/blank.png width =""800"" height = ""200""></p>","","","","","","","","","","","",""
"","217.00000017881393","sequential-stimulus-presentation","227","606347","0.0-44.0-1.1","SS1613140003965","trial","","40","800","1017.0000001788139","images/stimuli/spore_stims/simple_10_B_d.gif","images/stimuli/spore_stims/simple_10_A_d.gif","","","","","12","simple_similar","images/stimuli/spore_stims/simple_10_A_d.gif","left","","","","",""
"","null","html-keyboard-response","228","607346","0.0-44.0-0.2","SS1613140003965","","","null","","","","","<p><img src= images/blank.png width =""200"" height = ""200"" style = ""float:right""></p><p><img src=images/blank.png width =""800"" height = ""200""></p>","","","","","","","","","","","",""
"","552.000000141561","sequential-stimulus-presentation","229","608717","0.0-44.0-1.2","SS1613140003965","trial","","40","800","1352.000000141561","images/stimuli/spore_stims/simple_10_B_d.gif","images/stimuli/spore_stims/simple_10_A_d.gif","","","","","12","simple_similar","images/stimuli/spore_stims/simple_10_B_d.gif","middle","","","","",""
"","null","html-keyboard-response","230","609524","0.0-44.0-0.3","SS1613140003965","","","null","","","","","<p><img src= images/blank.png width =""200"" height = ""200"" style = ""float:right""></p><p><img src=images/blank.png width =""800"" height = ""200""></p>","","","","","","","","","","","",""
"","200.999999884516","sequential-stimulus-presentation","231","610543","0.0-44.0-1.3","SS1613140003965","trial","","40","800","1000.999999884516","images/stimuli/spore_stims/simple_10_B_d.gif","images/stimuli/spore_stims/simple_10_A_d.gif","","","","","12","simple_similar","images/stimuli/spore_stims/simple_10_A_d.gif","left","","","","",""
"","null","html-keyboard-response","232","611493","0.0-44.0-0.4","SS1613140003965","","","null","","","","","<p><img src= images/blank.png width =""200"" height = ""200"" style = ""float:right""></p><p><img src=images/blank.png width =""800"" height = ""200""></p>","","","","","","","","","","","",""
"","223.99999992921948","sequential-stimulus-presentation","233","612542","0.0-44.0-1.4","SS1613140003965","trial","","40","800","1023.9999999292195","images/stimuli/spore_stims/simple_10_B_d.gif","images/stimuli/spore_stims/simple_10_A_d.gif","","","","","12","simple_similar","images/stimuli/spore_stims/simple_10_A_d.gif","left","","","","",""
"","null","html-keyboard-response","234","613552","0.0-44.0-0.5","SS1613140003965","","","null","","","","","<p><img src= images/blank.png width =""200"" height = ""200"" style = ""float:right""></p><p><img src=images/blank.png width =""800"" height = ""200""></p>","","","","","","","","","","","",""
"","2028.000000398606","sequential-stimulus-presentation","235","616399","0.0-44.0-1.5","SS1613140003965","trial","","40","800","2828.000000398606","images/stimuli/spore_stims/simple_10_B_d.gif","images/stimuli/spore_stims/simple_10_A_d.gif","","","","","12","simple_similar","images/stimuli/spore_stims/simple_10_A_d.gif","left","","","","",""
"","null","html-keyboard-response","236","617650","0.0-44.0-0.6","SS1613140003965","","","null","","","","","<p><img src= images/blank.png width =""200"" height = ""200"" style = ""float:right""></p><p><img src=images/blank.png width =""800"" height = ""200""></p>","","","","","","","","","","","",""
"","73.00000032410026","sequential-stimulus-presentation","237","618547","0.0-44.0-1.6","SS1613140003965","trial","","40","800","873.0000003241003","images/stimuli/spore_stims/simple_10_B_d.gif","images/stimuli/spore_stims/simple_10_A_d.gif","","","","","12","simple_similar","images/stimuli/spore_stims/simple_10_A_d.gif","left","","","","",""
"","null","html-keyboard-response","238","619750","0.0-44.0-0.7","SS1613140003965","","","null","","","","","<p><img src= images/blank.png width =""200"" height = ""200"" style = ""float:right""></p><p><img src=images/blank.png width =""800"" height = ""200""></p>","","","","","","","","","","","",""
"","91.00000001490116","sequential-stimulus-presentation","239","620654","0.0-44.0-1.7","SS1613140003965","trial","","40","800","891.0000000149012","images/stimuli/spore_stims/simple_10_B_d.gif","images/stimuli/spore_stims/simple_10_A_d.gif","","","","","12","simple_similar","images/stimuli/spore_stims/simple_10_A_d.gif","left","","","","",""
"","2442.9999999701977","html-keyboard-response","240","623119","0.0-45.0","SS1613140003965","pref_question","","49","","","","","<video width ='960' height = '540' style='padding-top:8%' autoplay muted><source src='images/stimuli/wall_pref.mp4' type='video/mp4'></video>","1","left","25%","12","","","","","","","",""
"","1024.9999999068677","sequential-stimulus-presentation","241","624956","0.0-46.0","SS1613140003965","pref_reveal","","40","800","1824.9999999068677","null","null","","","","","12","","","","background","","","",""
"","null","html-keyboard-response","242","625781","0.0-47.0-0.0","SS1613140003965","","","null","","","","","<p><img src= images/blank.png width =""200"" height = ""200"" style = ""float:right""></p><p><img src=images/blank.png width =""800"" height = ""200""></p>","","","","","","","","","","","",""
"","214.0000001527369","sequential-stimulus-presentation","243","626812","0.0-47.0-1.0","SS1613140003965","trial","","40","800","1014.0000001527369","images/stimuli/spore_stims/complex_13_B_c.gif","images/stimuli/spore_stims/complex_11_B_c.gif","","","","","13","complex_dissimilar","images/stimuli/spore_stims/complex_11_B_c.gif","middle","","","","",""
"","null","html-keyboard-response","244","627674","0.0-47.0-0.1","SS1613140003965","","","null","","","","","<p><img src= images/blank.png width =""200"" height = ""200"" style = ""float:right""></p><p><img src=images/blank.png width =""800"" height = ""200""></p>","","","","","","","","","","","",""
"","489.99999975785613","sequential-stimulus-presentation","245","628972","0.0-47.0-1.1","SS1613140003965","trial","","40","800","1289.9999997578561","images/stimuli/spore_stims/complex_13_B_c.gif","images/stimuli/spore_stims/complex_11_B_c.gif","","","","","13","complex_dissimilar","images/stimuli/spore_stims/complex_11_B_c.gif","middle","","","","",""
"","null","html-keyboard-response","246","629831","0.0-47.0-0.2","SS1613140003965","","","null","","","","","<p><img src= images/blank.png width =""200"" height = ""200"" style = ""float:right""></p><p><img src=images/blank.png width =""800"" height = ""200""></p>","","","","","","","","","","","",""
"","179.0000000037253","sequential-stimulus-presentation","247","630827","0.0-47.0-1.2","SS1613140003965","trial","","40","800","979.0000000037253","images/stimuli/spore_stims/complex_13_B_c.gif","images/stimuli/spore_stims/complex_11_B_c.gif","","","","","13","complex_dissimilar","images/stimuli/spore_stims/complex_11_B_c.gif","middle","","","","",""
"","null","html-keyboard-response","248","631803","0.0-47.0-0.3","SS1613140003965","","","null","","","","","<p><img src= images/blank.png width =""200"" height = ""200"" style = ""float:right""></p><p><img src=images/blank.png width =""800"" height = ""200""></p>","","","","","","","","","","","",""
"","130.99999958649278","sequential-stimulus-presentation","249","632758","0.0-47.0-1.3","SS1613140003965","trial","","40","800","930.9999995864928","images/stimuli/spore_stims/complex_13_B_c.gif","images/stimuli/spore_stims/complex_11_B_c.gif","","","","","13","complex_dissimilar","images/stimuli/spore_stims/complex_11_B_c.gif","middle","","","","",""
"","null","html-keyboard-response","250","633716","0.0-47.0-0.4","SS1613140003965","","","null","","","","","<p><img src= images/blank.png width =""200"" height = ""200"" style = ""float:right""></p><p><img src=images/blank.png width =""800"" height = ""200""></p>","","","","","","","","","","","",""
"","93.00000034272671","sequential-stimulus-presentation","251","634621","0.0-47.0-1.4","SS1613140003965","trial","","40","800","893.0000003427267","images/stimuli/spore_stims/complex_13_B_c.gif","images/stimuli/spore_stims/complex_11_B_c.gif","","","","","13","complex_dissimilar","images/stimuli/spore_stims/complex_11_B_c.gif","middle","","","","",""
"","null","html-keyboard-response","252","635920","0.0-47.0-0.5","SS1613140003965","","","null","","","","","<p><img src= images/blank.png width =""200"" height = ""200"" style = ""float:right""></p><p><img src=images/blank.png width =""800"" height = ""200""></p>","","","","","","","","","","","",""
"","851.9999999552965","sequential-stimulus-presentation","253","637590","0.0-47.0-1.5","SS1613140003965","trial","","40","800","1651.9999999552965","images/stimuli/spore_stims/complex_13_B_c.gif","images/stimuli/spore_stims/complex_11_B_c.gif","","","","","13","complex_dissimilar","images/stimuli/spore_stims/complex_13_B_c.gif","right","","","","",""
"","null","html-keyboard-response","254","638650","0.0-47.0-0.6","SS1613140003965","","","null","","","","","<p><img src= images/blank.png width =""200"" height = ""200"" style = ""float:right""></p><p><img src=images/blank.png width =""800"" height = ""200""></p>","","","","","","","","","","","",""
"","283.99999998509884","sequential-stimulus-presentation","255","639753","0.0-47.0-1.6","SS1613140003965","trial","","40","800","1083.9999999850988","images/stimuli/spore_stims/complex_13_B_c.gif","images/stimuli/spore_stims/complex_11_B_c.gif","","","","","13","complex_dissimilar","images/stimuli/spore_stims/complex_11_B_c.gif","middle","","","","",""
"","null","html-keyboard-response","256","640841","0.0-47.0-0.7","SS1613140003965","","","null","","","","","<p><img src= images/blank.png width =""200"" height = ""200"" style = ""float:right""></p><p><img src=images/blank.png width =""800"" height = ""200""></p>","","","","","","","","","","","",""
"","92.00000017881393","sequential-stimulus-presentation","257","641747","0.0-47.0-1.7","SS1613140003965","trial","","40","800","892.0000001788139","images/stimuli/spore_stims/complex_13_B_c.gif","images/stimuli/spore_stims/complex_11_B_c.gif","","","","","13","complex_dissimilar","images/stimuli/spore_stims/complex_11_B_c.gif","middle","","","","",""
"","1736.999999731779","html-keyboard-response","258","643491","0.0-48.0","SS1613140003965","pref_question","","50","","","","","<video width ='960' height = '540' style='padding-top:8%' autoplay muted><source src='images/stimuli/wall_pref.mp4' type='video/mp4'></video>","2","middle","45%","13","","","","","","","",""
"","12904.000000096858","sequential-stimulus-presentation","259","657206","0.0-49.0","SS1613140003965","pref_reveal","","40","800","13704.000000096858","null","null","","","","","13","","","","background","","","",""
"","null","html-keyboard-response","260","658322","0.0-50.0-0.0","SS1613140003965","","","null","","","","","<p><img src= images/blank.png width =""200"" height = ""200"" style = ""float:right""></p><p><img src=images/blank.png width =""800"" height = ""200""></p>","","","","","","","","","","","",""
"","1325.999999884516","sequential-stimulus-presentation","261","660473","0.0-50.0-1.0","SS1613140003965","trial","","40","800","2125.999999884516","images/stimuli/spore_stims/complex_15_B_d.gif","images/stimuli/spore_stims/complex_15_A_d.gif","","","","","14","complex_similar","images/stimuli/spore_stims/complex_15_A_d.gif","middle","","","","",""
"","null","html-keyboard-response","262","661281","0.0-50.0-0.1","SS1613140003965","","","null","","","","","<p><img src= images/blank.png width =""200"" height = ""200"" style = ""float:right""></p><p><img src=images/blank.png width =""800"" height = ""200""></p>","","","","","","","","","","","",""
"","556.999999564141","sequential-stimulus-presentation","263","662650","0.0-50.0-1.1","SS1613140003965","trial","","40","800","1356.999999564141","images/stimuli/spore_stims/complex_15_B_d.gif","images/stimuli/spore_stims/complex_15_A_d.gif","","","","","14","complex_similar","images/stimuli/spore_stims/complex_15_A_d.gif","middle","","","","",""
"","null","html-keyboard-response","264","663777","0.0-50.0-0.2","SS1613140003965","","","null","","","","","<p><img src= images/blank.png width =""200"" height = ""200"" style = ""float:right""></p><p><img src=images/blank.png width =""800"" height = ""200""></p>","","","","","","","","","","","",""
"","712.9999999888241","sequential-stimulus-presentation","265","665300","0.0-50.0-1.2","SS1613140003965","trial","","40","800","1512.9999999888241","images/stimuli/spore_stims/complex_15_B_d.gif","images/stimuli/spore_stims/complex_15_A_d.gif","","","","","14","complex_similar","images/stimuli/spore_stims/complex_15_A_d.gif","middle","","","","",""
"","null","html-keyboard-response","266","666172","0.0-50.0-0.3","SS1613140003965","","","null","","","","","<p><img src= images/blank.png width =""200"" height = ""200"" style = ""float:right""></p><p><img src=images/blank.png width =""800"" height = ""200""></p>","","","","","","","","","","","",""
"","887.0000001043081","sequential-stimulus-presentation","267","667904","0.0-50.0-1.3","SS1613140003965","trial","","40","800","1687.0000001043081","images/stimuli/spore_stims/complex_15_B_d.gif","images/stimuli/spore_stims/complex_15_A_d.gif","","","","","14","complex_similar","images/stimuli/spore_stims/complex_15_A_d.gif","middle","","","","",""
"","null","html-keyboard-response","268","668927","0.0-50.0-0.4","SS1613140003965","","","null","","","","","<p><img src= images/blank.png width =""200"" height = ""200"" style = ""float:right""></p><p><img src=images/blank.png width =""800"" height = ""200""></p>","","","","","","","","","","","",""
"","694.9999998323619","sequential-stimulus-presentation","269","670438","0.0-50.0-1.4","SS1613140003965","trial","","40","800","1494.999999832362","images/stimuli/spore_stims/complex_15_B_d.gif","images/stimuli/spore_stims/complex_15_A_d.gif","","","","","14","complex_similar","images/stimuli/spore_stims/complex_15_A_d.gif","middle","","","","",""
"","null","html-keyboard-response","270","671709","0.0-50.0-0.5","SS1613140003965","","","null","","","","","<p><img src= images/blank.png width =""200"" height = ""200"" style = ""float:right""></p><p><img src=images/blank.png width =""800"" height = ""200""></p>","","","","","","","","","","","",""
"","109.00000017136335","sequential-stimulus-presentation","271","672645","0.0-50.0-1.5","SS1613140003965","trial","","40","800","909.0000001713634","images/stimuli/spore_stims/complex_15_B_d.gif","images/stimuli/spore_stims/complex_15_A_d.gif","","","","","14","complex_similar","images/stimuli/spore_stims/complex_15_A_d.gif","middle","","","","",""
"","null","html-keyboard-response","272","673684","0.0-50.0-0.6","SS1613140003965","","","null","","","","","<p><img src= images/blank.png width =""200"" height = ""200"" style = ""float:right""></p><p><img src=images/blank.png width =""800"" height = ""200""></p>","","","","","","","","","","","",""
"","5265.000000130385","sequential-stimulus-presentation","273","679760","0.0-50.0-1.6","SS1613140003965","trial","","40","800","6065.000000130385","images/stimuli/spore_stims/complex_15_B_d.gif","images/stimuli/spore_stims/complex_15_A_d.gif","","","","","14","complex_similar","images/stimuli/spore_stims/complex_15_B_d.gif","left","","","","",""
"","null","html-keyboard-response","274","680873","0.0-50.0-0.7","SS1613140003965","","","null","","","","","<p><img src= images/blank.png width =""200"" height = ""200"" style = ""float:right""></p><p><img src=images/blank.png width =""800"" height = ""200""></p>","","","","","","","","","","","",""
"","139.99999966472387","sequential-stimulus-presentation","275","681825","0.0-50.0-1.7","SS1613140003965","trial","","40","800","939.9999996647239","images/stimuli/spore_stims/complex_15_B_d.gif","images/stimuli/spore_stims/complex_15_A_d.gif","","","","","14","complex_similar","images/stimuli/spore_stims/complex_15_A_d.gif","middle","","","","",""
"","5185.000000055879","html-keyboard-response","276","687025","0.0-51.0","SS1613140003965","pref_question","","50","","","","","<video width ='960' height = '540' style='padding-top:8%' autoplay muted><source src='images/stimuli/wall_pref.mp4' type='video/mp4'></video>","2","middle","45%","14","","","","","","","",""
"","5907.000000122935","sequential-stimulus-presentation","277","693744","0.0-52.0","SS1613140003965","pref_reveal","","40","800","6707.000000122935","null","null","","","","","14","","","","background","","","",""
"","null","html-keyboard-response","278","694929","0.0-53.0-0.0","SS1613140003965","","","null","","","","","<p><img src= images/blank.png width =""200"" height = ""200"" style = ""float:right""></p><p><img src=images/blank.png width =""800"" height = ""200""></p>","","","","","","","","","","","",""
"","797.9999999515712","sequential-stimulus-presentation","279","696546","0.0-53.0-1.0","SS1613140003965","trial","","40","800","1597.9999999515712","images/stimuli/spore_stims/complex_01_A_b.gif","images/stimuli/spore_stims/complex_09_A_c.gif","","","","","15","complex_dissimilar","images/stimuli/spore_stims/complex_09_A_c.gif","right","","","","",""
"","null","html-keyboard-response","280","697624","0.0-53.0-0.1","SS1613140003965","","","null","","","","","<p><img src= images/blank.png width =""200"" height = ""200"" style = ""float:right""></p><p><img src=images/blank.png width =""800"" height = ""200""></p>","","","","","","","","","","","",""
"","2205.000000074506","sequential-stimulus-presentation","281","700652","0.0-53.0-1.1","SS1613140003965","trial","","40","800","3005.000000074506","images/stimuli/spore_stims/complex_01_A_b.gif","images/stimuli/spore_stims/complex_09_A_c.gif","","","","","15","complex_dissimilar","images/stimuli/spore_stims/complex_09_A_c.gif","right","","","","",""
"","null","html-keyboard-response","282","701750","0.0-53.0-0.2","SS1613140003965","","","null","","","","","<p><img src= images/blank.png width =""200"" height = ""200"" style = ""float:right""></p><p><img src=images/blank.png width =""800"" height = ""200""></p>","","","","","","","","","","","",""
"","156.9999996572733","sequential-stimulus-presentation","283","702721","0.0-53.0-1.2","SS1613140003965","trial","","40","800","956.9999996572733","images/stimuli/spore_stims/complex_01_A_b.gif","images/stimuli/spore_stims/complex_09_A_c.gif","","","","","15","complex_dissimilar","images/stimuli/spore_stims/complex_09_A_c.gif","right","","","","",""
"","null","html-keyboard-response","284","703889","0.0-53.0-0.3","SS1613140003965","","","null","","","","","<p><img src= images/blank.png width =""200"" height = ""200"" style = ""float:right""></p><p><img src=images/blank.png width =""800"" height = ""200""></p>","","","","","","","","","","","",""
"","35.00000014901161","sequential-stimulus-presentation","285","704737","0.0-53.0-1.3","SS1613140003965","trial","","40","800","835.0000001490116","images/stimuli/spore_stims/complex_01_A_b.gif","images/stimuli/spore_stims/complex_09_A_c.gif","","","","","15","complex_dissimilar","images/stimuli/spore_stims/complex_09_A_c.gif","right","","","","",""
"","null","html-keyboard-response","286","706031","0.0-53.0-0.4","SS1613140003965","","","null","","","","","<p><img src= images/blank.png width =""200"" height = ""200"" style = ""float:right""></p><p><img src=images/blank.png width =""800"" height = ""200""></p>","","","","","","","","","","","",""
"","830.0000000745058","sequential-stimulus-presentation","287","707676","0.0-53.0-1.4","SS1613140003965","trial","","40","800","1630.0000000745058","images/stimuli/spore_stims/complex_01_A_b.gif","images/stimuli/spore_stims/complex_09_A_c.gif","","","","","15","complex_dissimilar","images/stimuli/spore_stims/complex_09_A_c.gif","right","","","","",""
"","null","html-keyboard-response","288","708896","0.0-53.0-0.5","SS1613140003965","","","null","","","","","<p><img src= images/blank.png width =""200"" height = ""200"" style = ""float:right""></p><p><img src=images/blank.png width =""800"" height = ""200""></p>","","","","","","","","","","","",""
"","1086.9999998249114","sequential-stimulus-presentation","289","710796","0.0-53.0-1.5","SS1613140003965","trial","","40","800","1886.9999998249114","images/stimuli/spore_stims/complex_01_A_b.gif","images/stimuli/spore_stims/complex_09_A_c.gif","","","","","15","complex_dissimilar","images/stimuli/spore_stims/complex_01_A_b.gif","left","","","","",""
"","null","html-keyboard-response","290","711946","0.0-53.0-0.6","SS1613140003965","","","null","","","","","<p><img src= images/blank.png width =""200"" height = ""200"" style = ""float:right""></p><p><img src=images/blank.png width =""800"" height = ""200""></p>","","","","","","","","","","","",""
"","2384.000000078231","sequential-stimulus-presentation","291","715157","0.0-53.0-1.6","SS1613140003965","trial","","40","800","3184.000000078231","images/stimuli/spore_stims/complex_01_A_b.gif","images/stimuli/spore_stims/complex_09_A_c.gif","","","","","15","complex_dissimilar","images/stimuli/spore_stims/complex_09_A_c.gif","right","","","","",""
"","null","html-keyboard-response","292","716425","0.0-53.0-0.7","SS1613140003965","","","null","","","","","<p><img src= images/blank.png width =""200"" height = ""200"" style = ""float:right""></p><p><img src=images/blank.png width =""800"" height = ""200""></p>","","","","","","","","","","","",""
"","1625","sequential-stimulus-presentation","293","718865","0.0-53.0-1.7","SS1613140003965","trial","","40","800","2425","images/stimuli/spore_stims/complex_01_A_b.gif","images/stimuli/spore_stims/complex_09_A_c.gif","","","","","15","complex_dissimilar","images/stimuli/spore_stims/complex_09_A_c.gif","right","","","","",""
"","7527.999999932945","html-keyboard-response","294","726404","0.0-54.0","SS1613140003965","pref_question","","51","","","","","<video width ='960' height = '540' style='padding-top:8%' autoplay muted><source src='images/stimuli/wall_pref.mp4' type='video/mp4'></video>","3","right","66%","15","","","","","","","",""
"","1808.000000193715","sequential-stimulus-presentation","295","729027","0.0-55.0","SS1613140003965","pref_reveal","","40","800","2608.000000193715","null","null","","","","","15","","","","background","","","",""
"","null","html-keyboard-response","296","730260","0.0-56.0-0.0","SS1613140003965","","","null","","","","","<p><img src= images/blank.png width =""200"" height = ""200"" style = ""float:right""></p><p><img src=images/blank.png width =""800"" height = ""200""></p>","","","","","","","","","","","",""
"","1347.9999997653067","sequential-stimulus-presentation","297","732511","0.0-56.0-1.0","SS1613140003965","trial","","40","800","2147.9999997653067","images/stimuli/spore_stims/simple_17_A_c.gif","images/stimuli/spore_stims/simple_17_B_b.gif","","","","","16","simple_dissimilar","images/stimuli/spore_stims/simple_17_B_b.gif","right","","","","",""
"","null","html-keyboard-response","298","733655","0.0-56.0-0.1","SS1613140003965","","","null","","","","","<p><img src= images/blank.png width =""200"" height = ""200"" style = ""float:right""></p><p><img src=images/blank.png width =""800"" height = ""200""></p>","","","","","","","","","","","",""
"","1442.0000002719462","sequential-stimulus-presentation","299","735931","0.0-56.0-1.1","SS1613140003965","trial","","40","800","2242.000000271946","images/stimuli/spore_stims/simple_17_A_c.gif","images/stimuli/spore_stims/simple_17_B_b.gif","","","","","16","simple_dissimilar","images/stimuli/spore_stims/simple_17_B_b.gif","right","","","","",""
"","null","html-keyboard-response","300","736810","0.0-56.0-0.2","SS1613140003965","","","null","","","","","<p><img src= images/blank.png width =""200"" height = ""200"" style = ""float:right""></p><p><img src=images/blank.png width =""800"" height = ""200""></p>","","","","","","","","","","","",""
"","699.9999997206032","sequential-stimulus-presentation","301","738362","0.0-56.0-1.2","SS1613140003965","trial","","40","800","1499.9999997206032","images/stimuli/spore_stims/simple_17_A_c.gif","images/stimuli/spore_stims/simple_17_B_b.gif","","","","","16","simple_dissimilar","images/stimuli/spore_stims/simple_17_B_b.gif","right","","","","",""
"","null","html-keyboard-response","302","739589","0.0-56.0-0.3","SS1613140003965","","","null","","","","","<p><img src= images/blank.png width =""200"" height = ""200"" style = ""float:right""></p><p><img src=images/blank.png width =""800"" height = ""200""></p>","","","","","","","","","","","",""
"","291.0000002011657","sequential-stimulus-presentation","303","740692","0.0-56.0-1.3","SS1613140003965","trial","","40","800","1091.0000002011657","images/stimuli/spore_stims/simple_17_A_c.gif","images/stimuli/spore_stims/simple_17_B_b.gif","","","","","16","simple_dissimilar","images/stimuli/spore_stims/simple_17_B_b.gif","right","","","","",""
"","null","html-keyboard-response","304","741751","0.0-56.0-0.4","SS1613140003965","","","null","","","","","<p><img src= images/blank.png width =""200"" height = ""200"" style = ""float:right""></p><p><img src=images/blank.png width =""800"" height = ""200""></p>","","","","","","","","","","","",""
"","138.9999999664724","sequential-stimulus-presentation","305","742698","0.0-56.0-1.4","SS1613140003965","trial","","40","800","938.9999999664724","images/stimuli/spore_stims/simple_17_A_c.gif","images/stimuli/spore_stims/simple_17_B_b.gif","","","","","16","simple_dissimilar","images/stimuli/spore_stims/simple_17_B_b.gif","right","","","","",""
"","null","html-keyboard-response","306","743893","0.0-56.0-0.5","SS1613140003965","","","null","","","","","<p><img src= images/blank.png width =""200"" height = ""200"" style = ""float:right""></p><p><img src=images/blank.png width =""800"" height = ""200""></p>","","","","","","","","","","","",""
"","260.00000024214387","sequential-stimulus-presentation","307","744964","0.0-56.0-1.5","SS1613140003965","trial","","40","800","1060.0000002421439","images/stimuli/spore_stims/simple_17_A_c.gif","images/stimuli/spore_stims/simple_17_B_b.gif","","","","","16","simple_dissimilar","images/stimuli/spore_stims/simple_17_B_b.gif","right","","","","",""
"","null","html-keyboard-response","308","745903","0.0-56.0-0.6","SS1613140003965","","","null","","","","","<p><img src= images/blank.png width =""200"" height = ""200"" style = ""float:right""></p><p><img src=images/blank.png width =""800"" height = ""200""></p>","","","","","","","","","","","",""
"","200.999999884516","sequential-stimulus-presentation","309","746926","0.0-56.0-1.6","SS1613140003965","trial","","40","800","1000.999999884516","images/stimuli/spore_stims/simple_17_A_c.gif","images/stimuli/spore_stims/simple_17_B_b.gif","","","","","16","simple_dissimilar","images/stimuli/spore_stims/simple_17_B_b.gif","right","","","","",""
"","null","html-keyboard-response","310","747762","0.0-56.0-0.7","SS1613140003965","","","null","","","","","<p><img src= images/blank.png width =""200"" height = ""200"" style = ""float:right""></p><p><img src=images/blank.png width =""800"" height = ""200""></p>","","","","","","","","","","","",""
"","944.9999998323619","sequential-stimulus-presentation","311","749533","0.0-56.0-1.7","SS1613140003965","trial","","40","800","1744.999999832362","images/stimuli/spore_stims/simple_17_A_c.gif","images/stimuli/spore_stims/simple_17_B_b.gif","","","","","16","simple_dissimilar","images/stimuli/spore_stims/simple_17_A_c.gif","middle","","","","",""
