"view_history","rt","trial_type","trial_index","time_elapsed","internal_node_id","subject","stimulus_type","trial_stimulus","key_press","minimum_viewing_duration","trial_looking_time","block_deviant","block_background","stimulus","wall_pref","location","location_percent","block_number","block_type","stimulus_displayed","position_displayed","stim_type_selected","responses","question_order","stimulus_left","stimulus_right"
"[{""page_index"":0,""viewing_time"":13147.56000000125}]","13148.414999999659","instructions","0","13151","0.0-0.0","SS1613081941833","","","","","","","","","","","","","","","","","","","",""
"[{""page_index"":0,""viewing_time"":1487.0300000002317},{""page_index"":1,""viewing_time"":208.1499999985681}]","1695.674999999028","instructions","1","16851","0.0-1.0","SS1613081941833","instructions","","","","","","","","","","","","","","","","","","",""
"","13475.329999997484","sequential-stimulus-presentation","2","31142","0.0-2.0","SS1613081941833","","","40","800","14275.329999997484","null","null","","","","","","","","","","","","",""
"","516.459999998915","sequential-stimulus-presentation","3","32464","0.0-3.0","SS1613081941833","","","40","800","1316.459999998915","null","null","","","","","","","","","","","","",""
"[{""page_index"":0,""viewing_time"":1218.8249999999243}]","1219.34500000134","instructions","4","33685","0.0-4.0","SS1613081941833","instructions","","","","","","","","","","","","","","","","","","",""
"","3224.354999998468","html-keyboard-response","5","36942","0.0-5.0","SS1613081941833","instructions","","98","","","","","<video width ='960' height = '540' autoplay muted><source src='images/stimuli/wall_pref.mp4' type='video/mp4'></video>","2","middle","45%","","","","","","","","",""
"","154.7500000015134","sequential-stimulus-presentation","6","37909","0.0-6.0","SS1613081941833","pref_reveal","","40","800","954.7500000015134","null","null","","","","","","","","","","","","",""
"[{""page_index"":0,""viewing_time"":1237.874999998894},{""page_index"":1,""viewing_time"":671.9899999989138},{""page_index"":2,""viewing_time"":744.0050000004703},{""page_index"":3,""viewing_time"":639.9700000001758}]","3294.1499999978987","instructions","7","41204","0.0-7.0","SS1613081941833","instructions","","","","","","","","","","","","","","","","","","",""
"","null","html-keyboard-response","8","42220","0.0-8.0-0.0","SS1613081941833","","","null","","","","","<p><img src= images/blank.png width =""200"" height = ""200"" style = ""float:right""></p><p><img src=images/blank.png width =""800"" height = ""200""></p>","","","","","","","","","","","",""
"","76.57499999913853","sequential-stimulus-presentation","9","43111","0.0-8.0-1.0","SS1613081941833","trial","","40","800","876.5749999991385","images/stimuli/spore_stims/simple_05_B_b.gif","images/stimuli/spore_stims/simple_16_A_c.gif","","","","","0","simple_dissimilar","images/stimuli/spore_stims/simple_16_A_c.gif","left","","","","",""
"","null","html-keyboard-response","10","44289","0.0-8.0-0.1","SS1613081941833","","","null","","","","","<p><img src= images/blank.png width =""200"" height = ""200"" style = ""float:right""></p><p><img src=images/blank.png width =""800"" height = ""200""></p>","","","","","","","","","","","",""
"","2032.3649999991176","sequential-stimulus-presentation","11","47133","0.0-8.0-1.1","SS1613081941833","trial","","40","800","2832.3649999991176","images/stimuli/spore_stims/simple_05_B_b.gif","images/stimuli/spore_stims/simple_16_A_c.gif","","","","","0","simple_dissimilar","images/stimuli/spore_stims/simple_16_A_c.gif","left","","","","",""
"","null","html-keyboard-response","12","48391","0.0-8.0-0.2","SS1613081941833","","","null","","","","","<p><img src= images/blank.png width =""200"" height = ""200"" style = ""float:right""></p><p><img src=images/blank.png width =""800"" height = ""200""></p>","","","","","","","","","","","",""
"","777.2899999981746","sequential-stimulus-presentation","13","49981","0.0-8.0-1.2","SS1613081941833","trial","","40","800","1577.2899999981746","images/stimuli/spore_stims/simple_05_B_b.gif","images/stimuli/spore_stims/simple_16_A_c.gif","","","","","0","simple_dissimilar","images/stimuli/spore_stims/simple_16_A_c.gif","left","","","","",""
"","null","html-keyboard-response","14","51142","0.0-8.0-0.3","SS1613081941833","","","null","","","","","<p><img src= images/blank.png width =""200"" height = ""200"" style = ""float:right""></p><p><img src=images/blank.png width =""800"" height = ""200""></p>","","","","","","","","","","","",""
"","119.1499999986263","sequential-stimulus-presentation","15","52068","0.0-8.0-1.3","SS1613081941833","trial","","40","800","919.1499999986263","images/stimuli/spore_stims/simple_05_B_b.gif","images/stimuli/spore_stims/simple_16_A_c.gif","","","","","0","simple_dissimilar","images/stimuli/spore_stims/simple_16_A_c.gif","left","","","","",""
"","null","html-keyboard-response","16","53075","0.0-8.0-0.4","SS1613081941833","","","null","","","","","<p><img src= images/blank.png width =""200"" height = ""200"" style = ""float:right""></p><p><img src=images/blank.png width =""800"" height = ""200""></p>","","","","","","","","","","","",""
"","1942.6800000001094","sequential-stimulus-presentation","17","55860","0.0-8.0-1.4","SS1613081941833","trial","","40","800","2742.6800000001094","images/stimuli/spore_stims/simple_05_B_b.gif","images/stimuli/spore_stims/simple_16_A_c.gif","","","","","0","simple_dissimilar","images/stimuli/spore_stims/simple_05_B_b.gif","middle","","","","",""
"","null","html-keyboard-response","18","56995","0.0-8.0-0.5","SS1613081941833","","","null","","","","","<p><img src= images/blank.png width =""200"" height = ""200"" style = ""float:right""></p><p><img src=images/blank.png width =""800"" height = ""200""></p>","","","","","","","","","","","",""
"","340.65999999802443","sequential-stimulus-presentation","19","58149","0.0-8.0-1.5","SS1613081941833","trial","","40","800","1140.6599999980244","images/stimuli/spore_stims/simple_05_B_b.gif","images/stimuli/spore_stims/simple_16_A_c.gif","","","","","0","simple_dissimilar","images/stimuli/spore_stims/simple_16_A_c.gif","left","","","","",""
"","null","html-keyboard-response","20","58969","0.0-8.0-0.6","SS1613081941833","","","null","","","","","<p><img src= images/blank.png width =""200"" height = ""200"" style = ""float:right""></p><p><img src=images/blank.png width =""800"" height = ""200""></p>","","","","","","","","","","","",""
"","679.6549999999115","sequential-stimulus-presentation","21","60460","0.0-8.0-1.6","SS1613081941833","trial","","40","800","1479.6549999999115","images/stimuli/spore_stims/simple_05_B_b.gif","images/stimuli/spore_stims/simple_16_A_c.gif","","","","","0","simple_dissimilar","images/stimuli/spore_stims/simple_16_A_c.gif","left","","","","",""
"","null","html-keyboard-response","22","61299","0.0-8.0-0.7","SS1613081941833","","","null","","","","","<p><img src= images/blank.png width =""200"" height = ""200"" style = ""float:right""></p><p><img src=images/blank.png width =""800"" height = ""200""></p>","","","","","","","","","","","",""
"","1030.544999997801","sequential-stimulus-presentation","23","63141","0.0-8.0-1.7","SS1613081941833","trial","","40","800","1830.544999997801","images/stimuli/spore_stims/simple_05_B_b.gif","images/stimuli/spore_stims/simple_16_A_c.gif","","","","","0","simple_dissimilar","images/stimuli/spore_stims/simple_16_A_c.gif","left","","","","",""
"","1637.7549999997427","html-keyboard-response","24","64788","0.0-9.0","SS1613081941833","pref_question","","99","","","","","<video width ='960' height = '540' style='padding-top:8%' autoplay muted><source src='images/stimuli/wall_pref.mp4' type='video/mp4'></video>","3","right","66%","0","","","","","","","",""
"","611.3150000019232","sequential-stimulus-presentation","25","66212","0.0-10.0","SS1613081941833","pref_reveal","","40","800","1411.3150000019232","null","null","","","","","0","","","","novel","","","",""
"","null","html-keyboard-response","26","67463","0.0-11.0-0.0","SS1613081941833","","","null","","","","","<p><img src= images/blank.png width =""200"" height = ""200"" style = ""float:right""></p><p><img src=images/blank.png width =""800"" height = ""200""></p>","","","","","","","","","","","",""
"","464.2200000016601","sequential-stimulus-presentation","27","68740","0.0-11.0-1.0","SS1613081941833","trial","","40","800","1264.22000000166","images/stimuli/spore_stims/simple_19_B_b.gif","images/stimuli/spore_stims/simple_19_A_b.gif","","","","","1","simple_similar","images/stimuli/spore_stims/simple_19_A_b.gif","right","","","","",""
"","null","html-keyboard-response","28","69780","0.0-11.0-0.1","SS1613081941833","","","null","","","","","<p><img src= images/blank.png width =""200"" height = ""200"" style = ""float:right""></p><p><img src=images/blank.png width =""800"" height = ""200""></p>","","","","","","","","","","","",""
"","659.1150000022026","sequential-stimulus-presentation","29","71252","0.0-11.0-1.1","SS1613081941833","trial","","40","800","1459.1150000022026","images/stimuli/spore_stims/simple_19_B_b.gif","images/stimuli/spore_stims/simple_19_A_b.gif","","","","","1","simple_similar","images/stimuli/spore_stims/simple_19_A_b.gif","right","","","","",""
"","null","html-keyboard-response","30","72380","0.0-11.0-0.2","SS1613081941833","","","null","","","","","<p><img src= images/blank.png width =""200"" height = ""200"" style = ""float:right""></p><p><img src=images/blank.png width =""800"" height = ""200""></p>","","","","","","","","","","","",""
"","1907.8049999989162","sequential-stimulus-presentation","31","75101","0.0-11.0-1.2","SS1613081941833","trial","","40","800","2707.804999998916","images/stimuli/spore_stims/simple_19_B_b.gif","images/stimuli/spore_stims/simple_19_A_b.gif","","","","","1","simple_similar","images/stimuli/spore_stims/simple_19_A_b.gif","right","","","","",""
"","null","html-keyboard-response","32","75940","0.0-11.0-0.3","SS1613081941833","","","null","","","","","<p><img src= images/blank.png width =""200"" height = ""200"" style = ""float:right""></p><p><img src=images/blank.png width =""800"" height = ""200""></p>","","","","","","","","","","","",""
"","2562.535000000935","sequential-stimulus-presentation","33","79316","0.0-11.0-1.3","SS1613081941833","trial","","40","800","3362.535000000935","images/stimuli/spore_stims/simple_19_B_b.gif","images/stimuli/spore_stims/simple_19_A_b.gif","","","","","1","simple_similar","images/stimuli/spore_stims/simple_19_A_b.gif","right","","","","",""
"","null","html-keyboard-response","34","80366","0.0-11.0-0.4","SS1613081941833","","","null","","","","","<p><img src= images/blank.png width =""200"" height = ""200"" style = ""float:right""></p><p><img src=images/blank.png width =""800"" height = ""200""></p>","","","","","","","","","","","",""
"","847.4550000028103","sequential-stimulus-presentation","35","82027","0.0-11.0-1.4","SS1613081941833","trial","","40","800","1647.4550000028103","images/stimuli/spore_stims/simple_19_B_b.gif","images/stimuli/spore_stims/simple_19_A_b.gif","","","","","1","simple_similar","images/stimuli/spore_stims/simple_19_A_b.gif","right","","","","",""
"","null","html-keyboard-response","36","83133","0.0-11.0-0.5","SS1613081941833","","","null","","","","","<p><img src= images/blank.png width =""200"" height = ""200"" style = ""float:right""></p><p><img src=images/blank.png width =""800"" height = ""200""></p>","","","","","","","","","","","",""
"","8057.724999998754","sequential-stimulus-presentation","37","92005","0.0-11.0-1.5","SS1613081941833","trial","","40","800","8857.724999998754","images/stimuli/spore_stims/simple_19_B_b.gif","images/stimuli/spore_stims/simple_19_A_b.gif","","","","","1","simple_similar","images/stimuli/spore_stims/simple_19_B_b.gif","middle","","","","",""
"","null","html-keyboard-response","38","93000","0.0-11.0-0.6","SS1613081941833","","","null","","","","","<p><img src= images/blank.png width =""200"" height = ""200"" style = ""float:right""></p><p><img src=images/blank.png width =""800"" height = ""200""></p>","","","","","","","","","","","",""
"","534.7150000015972","sequential-stimulus-presentation","39","94349","0.0-11.0-1.6","SS1613081941833","trial","","40","800","1334.7150000015972","images/stimuli/spore_stims/simple_19_B_b.gif","images/stimuli/spore_stims/simple_19_A_b.gif","","","","","1","simple_similar","images/stimuli/spore_stims/simple_19_A_b.gif","right","","","","",""
"","null","html-keyboard-response","40","95373","0.0-11.0-0.7","SS1613081941833","","","null","","","","","<p><img src= images/blank.png width =""200"" height = ""200"" style = ""float:right""></p><p><img src=images/blank.png width =""800"" height = ""200""></p>","","","","","","","","","","","",""
"","419.6400000000722","sequential-stimulus-presentation","41","96605","0.0-11.0-1.7","SS1613081941833","trial","","40","800","1219.6400000000722","images/stimuli/spore_stims/simple_19_B_b.gif","images/stimuli/spore_stims/simple_19_A_b.gif","","","","","1","simple_similar","images/stimuli/spore_stims/simple_19_A_b.gif","right","","","","",""
"","2157.8450000015437","html-keyboard-response","42","98774","0.0-12.0","SS1613081941833","pref_question","","97","","","","","<video width ='960' height = '540' style='padding-top:8%' autoplay muted><source src='images/stimuli/wall_pref.mp4' type='video/mp4'></video>","1","left","25%","1","","","","","","","",""
"","18.62500000061118","sequential-stimulus-presentation","43","99605","0.0-13.0","SS1613081941833","pref_reveal","","40","800","818.6250000006112","null","null","","","","","1","","","","novel","","","",""
"","null","html-keyboard-response","44","100471","0.0-14.0-0.0","SS1613081941833","","","null","","","","","<p><img src= images/blank.png width =""200"" height = ""200"" style = ""float:right""></p><p><img src=images/blank.png width =""800"" height = ""200""></p>","","","","","","","","","","","",""
"","2487.895000002027","sequential-stimulus-presentation","45","103772","0.0-14.0-1.0","SS1613081941833","trial","","40","800","3287.895000002027","images/stimuli/spore_stims/simple_14_A_a.gif","images/stimuli/spore_stims/simple_15_A_b.gif","","","","","2","simple_dissimilar","images/stimuli/spore_stims/simple_15_A_b.gif","middle","","","","",""
"","null","html-keyboard-response","46","104947","0.0-14.0-0.1","SS1613081941833","","","null","","","","","<p><img src= images/blank.png width =""200"" height = ""200"" style = ""float:right""></p><p><img src=images/blank.png width =""800"" height = ""200""></p>","","","","","","","","","","","",""
"","3773.6900000018068","sequential-stimulus-presentation","47","109533","0.0-14.0-1.1","SS1613081941833","trial","","40","800","4573.690000001807","images/stimuli/spore_stims/simple_14_A_a.gif","images/stimuli/spore_stims/simple_15_A_b.gif","","","","","2","simple_dissimilar","images/stimuli/spore_stims/simple_15_A_b.gif","middle","","","","",""
"","null","html-keyboard-response","48","110723","0.0-14.0-0.2","SS1613081941833","","","null","","","","","<p><img src= images/blank.png width =""200"" height = ""200"" style = ""float:right""></p><p><img src=images/blank.png width =""800"" height = ""200""></p>","","","","","","","","","","","",""
"","1862.344999997731","sequential-stimulus-presentation","49","113429","0.0-14.0-1.2","SS1613081941833","trial","","40","800","2662.344999997731","images/stimuli/spore_stims/simple_14_A_a.gif","images/stimuli/spore_stims/simple_15_A_b.gif","","","","","2","simple_dissimilar","images/stimuli/spore_stims/simple_14_A_a.gif","left","","","","",""
"","null","html-keyboard-response","50","114553","0.0-14.0-0.3","SS1613081941833","","","null","","","","","<p><img src= images/blank.png width =""200"" height = ""200"" style = ""float:right""></p><p><img src=images/blank.png width =""800"" height = ""200""></p>","","","","","","","","","","","",""
"","285.00999999960186","sequential-stimulus-presentation","51","115652","0.0-14.0-1.3","SS1613081941833","trial","","40","800","1085.0099999996019","images/stimuli/spore_stims/simple_14_A_a.gif","images/stimuli/spore_stims/simple_15_A_b.gif","","","","","2","simple_dissimilar","images/stimuli/spore_stims/simple_15_A_b.gif","middle","","","","",""
"","null","html-keyboard-response","52","116657","0.0-14.0-0.4","SS1613081941833","","","null","","","","","<p><img src= images/blank.png width =""200"" height = ""200"" style = ""float:right""></p><p><img src=images/blank.png width =""800"" height = ""200""></p>","","","","","","","","","","","",""
"","222.1449999997276","sequential-stimulus-presentation","53","117692","0.0-14.0-1.4","SS1613081941833","trial","","40","800","1022.1449999997276","images/stimuli/spore_stims/simple_14_A_a.gif","images/stimuli/spore_stims/simple_15_A_b.gif","","","","","2","simple_dissimilar","images/stimuli/spore_stims/simple_15_A_b.gif","middle","","","","",""
"","null","html-keyboard-response","54","118651","0.0-14.0-0.5","SS1613081941833","","","null","","","","","<p><img src= images/blank.png width =""200"" height = ""200"" style = ""float:right""></p><p><img src=images/blank.png width =""800"" height = ""200""></p>","","","","","","","","","","","",""
"","492.45499999960884","sequential-stimulus-presentation","55","119956","0.0-14.0-1.5","SS1613081941833","trial","","40","800","1292.4549999996088","images/stimuli/spore_stims/simple_14_A_a.gif","images/stimuli/spore_stims/simple_15_A_b.gif","","","","","2","simple_dissimilar","images/stimuli/spore_stims/simple_15_A_b.gif","middle","","","","",""
"","null","html-keyboard-response","56","121058","0.0-14.0-0.6","SS1613081941833","","","null","","","","","<p><img src= images/blank.png width =""200"" height = ""200"" style = ""float:right""></p><p><img src=images/blank.png width =""800"" height = ""200""></p>","","","","","","","","","","","",""
"","1810.975000000326","sequential-stimulus-presentation","57","123699","0.0-14.0-1.6","SS1613081941833","trial","","40","800","2610.975000000326","images/stimuli/spore_stims/simple_14_A_a.gif","images/stimuli/spore_stims/simple_15_A_b.gif","","","","","2","simple_dissimilar","images/stimuli/spore_stims/simple_15_A_b.gif","middle","","","","",""
"","null","html-keyboard-response","58","124741","0.0-14.0-0.7","SS1613081941833","","","null","","","","","<p><img src= images/blank.png width =""200"" height = ""200"" style = ""float:right""></p><p><img src=images/blank.png width =""800"" height = ""200""></p>","","","","","","","","","","","",""
"","2072.5449999990815","sequential-stimulus-presentation","59","127627","0.0-14.0-1.7","SS1613081941833","trial","","40","800","2872.5449999990815","images/stimuli/spore_stims/simple_14_A_a.gif","images/stimuli/spore_stims/simple_15_A_b.gif","","","","","2","simple_dissimilar","images/stimuli/spore_stims/simple_15_A_b.gif","middle","","","","",""
"","2290.389999998297","html-keyboard-response","60","129924","0.0-15.0","SS1613081941833","pref_question","","97","","","","","<video width ='960' height = '540' style='padding-top:8%' autoplay muted><source src='images/stimuli/wall_pref.mp4' type='video/mp4'></video>","1","left","25%","2","","","","","","","",""
"","1689.7449999996752","sequential-stimulus-presentation","61","132428","0.0-16.0","SS1613081941833","pref_reveal","","40","800","2489.744999999675","null","null","","","","","2","","","","deviant","","","",""
"","null","html-keyboard-response","62","133657","0.0-17.0-0.0","SS1613081941833","","","null","","","","","<p><img src= images/blank.png width =""200"" height = ""200"" style = ""float:right""></p><p><img src=images/blank.png width =""800"" height = ""200""></p>","","","","","","","","","","","",""
"","315.16499999997905","sequential-stimulus-presentation","63","134788","0.0-17.0-1.0","SS1613081941833","trial","","40","800","1115.164999999979","images/stimuli/spore_stims/complex_09_B_a.gif","images/stimuli/spore_stims/complex_09_A_a.gif","","","","","3","complex_similar","images/stimuli/spore_stims/complex_09_A_a.gif","right","","","","",""
"","null","html-keyboard-response","64","136088","0.0-17.0-0.1","SS1613081941833","","","null","","","","","<p><img src= images/blank.png width =""200"" height = ""200"" style = ""float:right""></p><p><img src=images/blank.png width =""800"" height = ""200""></p>","","","","","","","","","","","",""
"","837.1950000000652","sequential-stimulus-presentation","65","137739","0.0-17.0-1.1","SS1613081941833","trial","","40","800","1637.1950000000652","images/stimuli/spore_stims/complex_09_B_a.gif","images/stimuli/spore_stims/complex_09_A_a.gif","","","","","3","complex_similar","images/stimuli/spore_stims/complex_09_A_a.gif","right","","","","",""
"","null","html-keyboard-response","66","138956","0.0-17.0-0.2","SS1613081941833","","","null","","","","","<p><img src= images/blank.png width =""200"" height = ""200"" style = ""float:right""></p><p><img src=images/blank.png width =""800"" height = ""200""></p>","","","","","","","","","","","",""
"","840.1899999989837","sequential-stimulus-presentation","67","140611","0.0-17.0-1.2","SS1613081941833","trial","","40","800","1640.1899999989837","images/stimuli/spore_stims/complex_09_B_a.gif","images/stimuli/spore_stims/complex_09_A_a.gif","","","","","3","complex_similar","images/stimuli/spore_stims/complex_09_A_a.gif","right","","","","",""
"","null","html-keyboard-response","68","141578","0.0-17.0-0.3","SS1613081941833","","","null","","","","","<p><img src= images/blank.png width =""200"" height = ""200"" style = ""float:right""></p><p><img src=images/blank.png width =""800"" height = ""200""></p>","","","","","","","","","","","",""
"","1048.9999999990687","sequential-stimulus-presentation","69","143438","0.0-17.0-1.3","SS1613081941833","trial","","40","800","1848.9999999990687","images/stimuli/spore_stims/complex_09_B_a.gif","images/stimuli/spore_stims/complex_09_A_a.gif","","","","","3","complex_similar","images/stimuli/spore_stims/complex_09_A_a.gif","right","","","","",""
"","null","html-keyboard-response","70","144509","0.0-17.0-0.4","SS1613081941833","","","null","","","","","<p><img src= images/blank.png width =""200"" height = ""200"" style = ""float:right""></p><p><img src=images/blank.png width =""800"" height = ""200""></p>","","","","","","","","","","","",""
"","1313.734999999724","sequential-stimulus-presentation","71","146637","0.0-17.0-1.4","SS1613081941833","trial","","40","800","2113.734999999724","images/stimuli/spore_stims/complex_09_B_a.gif","images/stimuli/spore_stims/complex_09_A_a.gif","","","","","3","complex_similar","images/stimuli/spore_stims/complex_09_A_a.gif","right","","","","",""
"","null","html-keyboard-response","72","147754","0.0-17.0-0.5","SS1613081941833","","","null","","","","","<p><img src= images/blank.png width =""200"" height = ""200"" style = ""float:right""></p><p><img src=images/blank.png width =""800"" height = ""200""></p>","","","","","","","","","","","",""
"","1861.3899999982095","sequential-stimulus-presentation","73","150429","0.0-17.0-1.5","SS1613081941833","trial","","40","800","2661.3899999982095","images/stimuli/spore_stims/complex_09_B_a.gif","images/stimuli/spore_stims/complex_09_A_a.gif","","","","","3","complex_similar","images/stimuli/spore_stims/complex_09_A_a.gif","right","","","","",""
"","null","html-keyboard-response","74","151431","0.0-17.0-0.6","SS1613081941833","","","null","","","","","<p><img src= images/blank.png width =""200"" height = ""200"" style = ""float:right""></p><p><img src=images/blank.png width =""800"" height = ""200""></p>","","","","","","","","","","","",""
"","399.4299999976647","sequential-stimulus-presentation","75","152645","0.0-17.0-1.6","SS1613081941833","trial","","40","800","1199.4299999976647","images/stimuli/spore_stims/complex_09_B_a.gif","images/stimuli/spore_stims/complex_09_A_a.gif","","","","","3","complex_similar","images/stimuli/spore_stims/complex_09_A_a.gif","right","","","","",""
"","null","html-keyboard-response","76","153707","0.0-17.0-0.7","SS1613081941833","","","null","","","","","<p><img src= images/blank.png width =""200"" height = ""200"" style = ""float:right""></p><p><img src=images/blank.png width =""800"" height = ""200""></p>","","","","","","","","","","","",""
"","453.49999999962165","sequential-stimulus-presentation","77","154980","0.0-17.0-1.7","SS1613081941833","trial","","40","800","1253.4999999996217","images/stimuli/spore_stims/complex_09_B_a.gif","images/stimuli/spore_stims/complex_09_A_a.gif","","","","","3","complex_similar","images/stimuli/spore_stims/complex_09_B_a.gif","middle","","","","",""
"","913.845000002766","html-keyboard-response","78","155901","0.0-18.0","SS1613081941833","pref_question","","98","","","","","<video width ='960' height = '540' style='padding-top:8%' autoplay muted><source src='images/stimuli/wall_pref.mp4' type='video/mp4'></video>","2","middle","45%","3","","","","","","","",""
"","828.9149999982328","sequential-stimulus-presentation","79","157540","0.0-19.0","SS1613081941833","pref_reveal","","40","800","1628.9149999982328","null","null","","","","","3","","","","deviant","","","",""
"","null","html-keyboard-response","80","158515","0.0-20.0-0.0","SS1613081941833","","","null","","","","","<p><img src= images/blank.png width =""200"" height = ""200"" style = ""float:right""></p><p><img src=images/blank.png width =""800"" height = ""200""></p>","","","","","","","","","","","",""
"","62.000000001717126","sequential-stimulus-presentation","81","159428","0.0-20.0-1.0","SS1613081941833","trial","","40","800","862.0000000017171","images/stimuli/spore_stims/complex_14_B_a.gif","images/stimuli/spore_stims/complex_14_A_a.gif","","","","","4","complex_similar","images/stimuli/spore_stims/complex_14_A_a.gif","right","","","","",""
"","null","html-keyboard-response","82","160324","0.0-20.0-0.1","SS1613081941833","","","null","","","","","<p><img src= images/blank.png width =""200"" height = ""200"" style = ""float:right""></p><p><img src=images/blank.png width =""800"" height = ""200""></p>","","","","","","","","","","","",""
"","443.0549999997311","sequential-stimulus-presentation","83","161581","0.0-20.0-1.1","SS1613081941833","trial","","40","800","1243.054999999731","images/stimuli/spore_stims/complex_14_B_a.gif","images/stimuli/spore_stims/complex_14_A_a.gif","","","","","4","complex_similar","images/stimuli/spore_stims/complex_14_A_a.gif","right","","","","",""
"","null","html-keyboard-response","84","162473","0.0-20.0-0.2","SS1613081941833","","","null","","","","","<p><img src= images/blank.png width =""200"" height = ""200"" style = ""float:right""></p><p><img src=images/blank.png width =""800"" height = ""200""></p>","","","","","","","","","","","",""
"","981.8400000003749","sequential-stimulus-presentation","85","164269","0.0-20.0-1.2","SS1613081941833","trial","","40","800","1781.8400000003749","images/stimuli/spore_stims/complex_14_B_a.gif","images/stimuli/spore_stims/complex_14_A_a.gif","","","","","4","complex_similar","images/stimuli/spore_stims/complex_14_A_a.gif","right","","","","",""
"","null","html-keyboard-response","86","165090","0.0-20.0-0.3","SS1613081941833","","","null","","","","","<p><img src= images/blank.png width =""200"" height = ""200"" style = ""float:right""></p><p><img src=images/blank.png width =""800"" height = ""200""></p>","","","","","","","","","","","",""
"","452.1899999999732","sequential-stimulus-presentation","87","166357","0.0-20.0-1.3","SS1613081941833","trial","","40","800","1252.1899999999732","images/stimuli/spore_stims/complex_14_B_a.gif","images/stimuli/spore_stims/complex_14_A_a.gif","","","","","4","complex_similar","images/stimuli/spore_stims/complex_14_A_a.gif","right","","","","",""
"","null","html-keyboard-response","88","167203","0.0-20.0-0.4","SS1613081941833","","","null","","","","","<p><img src= images/blank.png width =""200"" height = ""200"" style = ""float:right""></p><p><img src=images/blank.png width =""800"" height = ""200""></p>","","","","","","","","","","","",""
"","783.7850000032631","sequential-stimulus-presentation","89","168805","0.0-20.0-1.4","SS1613081941833","trial","","40","800","1583.7850000032631","images/stimuli/spore_stims/complex_14_B_a.gif","images/stimuli/spore_stims/complex_14_A_a.gif","","","","","4","complex_similar","images/stimuli/spore_stims/complex_14_B_a.gif","middle","","","","",""
"","null","html-keyboard-response","90","169718","0.0-20.0-0.5","SS1613081941833","","","null","","","","","<p><img src= images/blank.png width =""200"" height = ""200"" style = ""float:right""></p><p><img src=images/blank.png width =""800"" height = ""200""></p>","","","","","","","","","","","",""
"","1800.3050000006624","sequential-stimulus-presentation","91","172332","0.0-20.0-1.5","SS1613081941833","trial","","40","800","2600.3050000006624","images/stimuli/spore_stims/complex_14_B_a.gif","images/stimuli/spore_stims/complex_14_A_a.gif","","","","","4","complex_similar","images/stimuli/spore_stims/complex_14_A_a.gif","right","","","","",""
"","null","html-keyboard-response","92","173282","0.0-20.0-0.6","SS1613081941833","","","null","","","","","<p><img src= images/blank.png width =""200"" height = ""200"" style = ""float:right""></p><p><img src=images/blank.png width =""800"" height = ""200""></p>","","","","","","","","","","","",""
"","1338.4100000002945","sequential-stimulus-presentation","93","175436","0.0-20.0-1.6","SS1613081941833","trial","","40","800","2138.4100000002945","images/stimuli/spore_stims/complex_14_B_a.gif","images/stimuli/spore_stims/complex_14_A_a.gif","","","","","4","complex_similar","images/stimuli/spore_stims/complex_14_A_a.gif","right","","","","",""
"","null","html-keyboard-response","94","176543","0.0-20.0-0.7","SS1613081941833","","","null","","","","","<p><img src= images/blank.png width =""200"" height = ""200"" style = ""float:right""></p><p><img src=images/blank.png width =""800"" height = ""200""></p>","","","","","","","","","","","",""
"","540.7750000013039","sequential-stimulus-presentation","95","177900","0.0-20.0-1.7","SS1613081941833","trial","","40","800","1340.7750000013039","images/stimuli/spore_stims/complex_14_B_a.gif","images/stimuli/spore_stims/complex_14_A_a.gif","","","","","4","complex_similar","images/stimuli/spore_stims/complex_14_A_a.gif","right","","","","",""
"","1451.7099999975471","html-keyboard-response","96","179364","0.0-21.0","SS1613081941833","pref_question","","99","","","","","<video width ='960' height = '540' style='padding-top:8%' autoplay muted><source src='images/stimuli/wall_pref.mp4' type='video/mp4'></video>","3","right","66%","4","","","","","","","",""
"","635.6999999989057","sequential-stimulus-presentation","97","180812","0.0-22.0","SS1613081941833","pref_reveal","","40","800","1435.6999999989057","null","null","","","","","4","","","","background","","","",""
"","null","html-keyboard-response","98","181947","0.0-23.0-0.0","SS1613081941833","","","null","","","","","<p><img src= images/blank.png width =""200"" height = ""200"" style = ""float:right""></p><p><img src=images/blank.png width =""800"" height = ""200""></p>","","","","","","","","","","","",""
"","320.6500000014785","sequential-stimulus-presentation","99","183084","0.0-23.0-1.0","SS1613081941833","trial","","40","800","1120.6500000014785","images/stimuli/spore_stims/complex_13_A_c.gif","images/stimuli/spore_stims/complex_16_A_a.gif","","","","","5","complex_dissimilar","images/stimuli/spore_stims/complex_16_A_a.gif","right","","","","",""
"","null","html-keyboard-response","100","184189","0.0-23.0-0.1","SS1613081941833","","","null","","","","","<p><img src= images/blank.png width =""200"" height = ""200"" style = ""float:right""></p><p><img src=images/blank.png width =""800"" height = ""200""></p>","","","","","","","","","","","",""
"","351.5850000003411","sequential-stimulus-presentation","101","185355","0.0-23.0-1.1","SS1613081941833","trial","","40","800","1151.585000000341","images/stimuli/spore_stims/complex_13_A_c.gif","images/stimuli/spore_stims/complex_16_A_a.gif","","","","","5","complex_dissimilar","images/stimuli/spore_stims/complex_16_A_a.gif","right","","","","",""
"","null","html-keyboard-response","102","186193","0.0-23.0-0.2","SS1613081941833","","","null","","","","","<p><img src= images/blank.png width =""200"" height = ""200"" style = ""float:right""></p><p><img src=images/blank.png width =""800"" height = ""200""></p>","","","","","","","","","","","",""
"","1923.900000001595","sequential-stimulus-presentation","103","188932","0.0-23.0-1.2","SS1613081941833","trial","","40","800","2723.900000001595","images/stimuli/spore_stims/complex_13_A_c.gif","images/stimuli/spore_stims/complex_16_A_a.gif","","","","","5","complex_dissimilar","images/stimuli/spore_stims/complex_16_A_a.gif","right","","","","",""
"","null","html-keyboard-response","104","189770","0.0-23.0-0.3","SS1613081941833","","","null","","","","","<p><img src= images/blank.png width =""200"" height = ""200"" style = ""float:right""></p><p><img src=images/blank.png width =""800"" height = ""200""></p>","","","","","","","","","","","",""
"","827.8150000005553","sequential-stimulus-presentation","105","191459","0.0-23.0-1.3","SS1613081941833","trial","","40","800","1627.8150000005553","images/stimuli/spore_stims/complex_13_A_c.gif","images/stimuli/spore_stims/complex_16_A_a.gif","","","","","5","complex_dissimilar","images/stimuli/spore_stims/complex_16_A_a.gif","right","","","","",""
"","null","html-keyboard-response","106","192657","0.0-23.0-0.4","SS1613081941833","","","null","","","","","<p><img src= images/blank.png width =""200"" height = ""200"" style = ""float:right""></p><p><img src=images/blank.png width =""800"" height = ""200""></p>","","","","","","","","","","","",""
"","690.5000000006112","sequential-stimulus-presentation","107","194163","0.0-23.0-1.4","SS1613081941833","trial","","40","800","1490.5000000006112","images/stimuli/spore_stims/complex_13_A_c.gif","images/stimuli/spore_stims/complex_16_A_a.gif","","","","","5","complex_dissimilar","images/stimuli/spore_stims/complex_16_A_a.gif","right","","","","",""
"","null","html-keyboard-response","108","195211","0.0-23.0-0.5","SS1613081941833","","","null","","","","","<p><img src= images/blank.png width =""200"" height = ""200"" style = ""float:right""></p><p><img src=images/blank.png width =""800"" height = ""200""></p>","","","","","","","","","","","",""
"","457.5199999999313","sequential-stimulus-presentation","109","196483","0.0-23.0-1.5","SS1613081941833","trial","","40","800","1257.5199999999313","images/stimuli/spore_stims/complex_13_A_c.gif","images/stimuli/spore_stims/complex_16_A_a.gif","","","","","5","complex_dissimilar","images/stimuli/spore_stims/complex_16_A_a.gif","right","","","","",""
"","null","html-keyboard-response","110","197578","0.0-23.0-0.6","SS1613081941833","","","null","","","","","<p><img src= images/blank.png width =""200"" height = ""200"" style = ""float:right""></p><p><img src=images/blank.png width =""800"" height = ""200""></p>","","","","","","","","","","","",""
"","1106.435000001511","sequential-stimulus-presentation","111","199499","0.0-23.0-1.6","SS1613081941833","trial","","40","800","1906.435000001511","images/stimuli/spore_stims/complex_13_A_c.gif","images/stimuli/spore_stims/complex_16_A_a.gif","","","","","5","complex_dissimilar","images/stimuli/spore_stims/complex_13_A_c.gif","middle","","","","",""
"","null","html-keyboard-response","112","200747","0.0-23.0-0.7","SS1613081941833","","","null","","","","","<p><img src= images/blank.png width =""200"" height = ""200"" style = ""float:right""></p><p><img src=images/blank.png width =""800"" height = ""200""></p>","","","","","","","","","","","",""
"","416.189999999915","sequential-stimulus-presentation","113","201979","0.0-23.0-1.7","SS1613081941833","trial","","40","800","1216.189999999915","images/stimuli/spore_stims/complex_13_A_c.gif","images/stimuli/spore_stims/complex_16_A_a.gif","","","","","5","complex_dissimilar","images/stimuli/spore_stims/complex_16_A_a.gif","right","","","","",""
"","2250.3600000018196","html-keyboard-response","114","204246","0.0-24.0","SS1613081941833","pref_question","","99","","","","","<video width ='960' height = '540' style='padding-top:8%' autoplay muted><source src='images/stimuli/wall_pref.mp4' type='video/mp4'></video>","3","right","66%","5","","","","","","","",""
"","352.7649999996356","sequential-stimulus-presentation","115","205414","0.0-25.0","SS1613081941833","pref_reveal","","40","800","1152.7649999996356","null","null","","","","","5","","","","background","","","",""
"","null","html-keyboard-response","116","206608","0.0-26.0-0.0","SS1613081941833","","","null","","","","","<p><img src= images/blank.png width =""200"" height = ""200"" style = ""float:right""></p><p><img src=images/blank.png width =""800"" height = ""200""></p>","","","","","","","","","","","",""
"","626.0650000003807","sequential-stimulus-presentation","117","208053","0.0-26.0-1.0","SS1613081941833","trial","","40","800","1426.0650000003807","images/stimuli/spore_stims/complex_08_A_d.gif","images/stimuli/spore_stims/complex_08_B_d.gif","","","","","6","complex_similar","images/stimuli/spore_stims/complex_08_B_d.gif","left","","","","",""
"","null","html-keyboard-response","118","209248","0.0-26.0-0.1","SS1613081941833","","","null","","","","","<p><img src= images/blank.png width =""200"" height = ""200"" style = ""float:right""></p><p><img src=images/blank.png width =""800"" height = ""200""></p>","","","","","","","","","","","",""
"","451.5449999998964","sequential-stimulus-presentation","119","210525","0.0-26.0-1.1","SS1613081941833","trial","","40","800","1251.5449999998964","images/stimuli/spore_stims/complex_08_A_d.gif","images/stimuli/spore_stims/complex_08_B_d.gif","","","","","6","complex_similar","images/stimuli/spore_stims/complex_08_B_d.gif","left","","","","",""
"","null","html-keyboard-response","120","211725","0.0-26.0-0.2","SS1613081941833","","","null","","","","","<p><img src= images/blank.png width =""200"" height = ""200"" style = ""float:right""></p><p><img src=images/blank.png width =""800"" height = ""200""></p>","","","","","","","","","","","",""
"","232.19500000050175","sequential-stimulus-presentation","121","212773","0.0-26.0-1.2","SS1613081941833","trial","","40","800","1032.1950000005018","images/stimuli/spore_stims/complex_08_A_d.gif","images/stimuli/spore_stims/complex_08_B_d.gif","","","","","6","complex_similar","images/stimuli/spore_stims/complex_08_B_d.gif","left","","","","",""
"","null","html-keyboard-response","122","213696","0.0-26.0-0.3","SS1613081941833","","","null","","","","","<p><img src= images/blank.png width =""200"" height = ""200"" style = ""float:right""></p><p><img src=images/blank.png width =""800"" height = ""200""></p>","","","","","","","","","","","",""
"","654.4849999991129","sequential-stimulus-presentation","123","215165","0.0-26.0-1.3","SS1613081941833","trial","","40","800","1454.484999999113","images/stimuli/spore_stims/complex_08_A_d.gif","images/stimuli/spore_stims/complex_08_B_d.gif","","","","","6","complex_similar","images/stimuli/spore_stims/complex_08_B_d.gif","left","","","","",""
"","null","html-keyboard-response","124","216003","0.0-26.0-0.4","SS1613081941833","","","null","","","","","<p><img src= images/blank.png width =""200"" height = ""200"" style = ""float:right""></p><p><img src=images/blank.png width =""800"" height = ""200""></p>","","","","","","","","","","","",""
"","946.2949999979173","sequential-stimulus-presentation","125","217765","0.0-26.0-1.4","SS1613081941833","trial","","40","800","1746.2949999979173","images/stimuli/spore_stims/complex_08_A_d.gif","images/stimuli/spore_stims/complex_08_B_d.gif","","","","","6","complex_similar","images/stimuli/spore_stims/complex_08_B_d.gif","left","","","","",""
"","null","html-keyboard-response","126","218895","0.0-26.0-0.5","SS1613081941833","","","null","","","","","<p><img src= images/blank.png width =""200"" height = ""200"" style = ""float:right""></p><p><img src=images/blank.png width =""800"" height = ""200""></p>","","","","","","","","","","","",""
"","590.6950000025972","sequential-stimulus-presentation","127","220302","0.0-26.0-1.5","SS1613081941833","trial","","40","800","1390.6950000025972","images/stimuli/spore_stims/complex_08_A_d.gif","images/stimuli/spore_stims/complex_08_B_d.gif","","","","","6","complex_similar","images/stimuli/spore_stims/complex_08_A_d.gif","right","","","","",""
"","null","html-keyboard-response","128","221173","0.0-26.0-0.6","SS1613081941833","","","null","","","","","<p><img src= images/blank.png width =""200"" height = ""200"" style = ""float:right""></p><p><img src=images/blank.png width =""800"" height = ""200""></p>","","","","","","","","","","","",""
"","1152.6749999975436","sequential-stimulus-presentation","129","223141","0.0-26.0-1.6","SS1613081941833","trial","","40","800","1952.6749999975436","images/stimuli/spore_stims/complex_08_A_d.gif","images/stimuli/spore_stims/complex_08_B_d.gif","","","","","6","complex_similar","images/stimuli/spore_stims/complex_08_B_d.gif","left","","","","",""
"","null","html-keyboard-response","130","224364","0.0-26.0-0.7","SS1613081941833","","","null","","","","","<p><img src= images/blank.png width =""200"" height = ""200"" style = ""float:right""></p><p><img src=images/blank.png width =""800"" height = ""200""></p>","","","","","","","","","","","",""
"","528.9149999989604","sequential-stimulus-presentation","131","225709","0.0-26.0-1.7","SS1613081941833","trial","","40","800","1328.9149999989604","images/stimuli/spore_stims/complex_08_A_d.gif","images/stimuli/spore_stims/complex_08_B_d.gif","","","","","6","complex_similar","images/stimuli/spore_stims/complex_08_B_d.gif","left","","","","",""
"","1379.1299999975308","html-keyboard-response","132","227101","0.0-27.0","SS1613081941833","pref_question","","98","","","","","<video width ='960' height = '540' style='padding-top:8%' autoplay muted><source src='images/stimuli/wall_pref.mp4' type='video/mp4'></video>","2","middle","45%","6","","","","","","","",""
"","663.9649999997346","sequential-stimulus-presentation","133","228585","0.0-28.0","SS1613081941833","pref_reveal","","40","800","1463.9649999997346","null","null","","","","","6","","","","novel","","","",""
"","null","html-keyboard-response","134","229508","0.0-29.0-0.0","SS1613081941833","","","null","","","","","<p><img src= images/blank.png width =""200"" height = ""200"" style = ""float:right""></p><p><img src=images/blank.png width =""800"" height = ""200""></p>","","","","","","","","","","","",""
"","1870.6899999997695","sequential-stimulus-presentation","135","232197","0.0-29.0-1.0","SS1613081941833","trial","","40","800","2670.6899999997695","images/stimuli/spore_stims/complex_13_B_a.gif","images/stimuli/spore_stims/complex_15_B_d.gif","","","","","7","complex_dissimilar","images/stimuli/spore_stims/complex_15_B_d.gif","left","","","","",""
"","null","html-keyboard-response","136","233377","0.0-29.0-0.1","SS1613081941833","","","null","","","","","<p><img src= images/blank.png width =""200"" height = ""200"" style = ""float:right""></p><p><img src=images/blank.png width =""800"" height = ""200""></p>","","","","","","","","","","","",""
"","3217.310000000056","sequential-stimulus-presentation","137","237412","0.0-29.0-1.1","SS1613081941833","trial","","40","800","4017.310000000056","images/stimuli/spore_stims/complex_13_B_a.gif","images/stimuli/spore_stims/complex_15_B_d.gif","","","","","7","complex_dissimilar","images/stimuli/spore_stims/complex_15_B_d.gif","left","","","","",""
"","null","html-keyboard-response","138","238475","0.0-29.0-0.2","SS1613081941833","","","null","","","","","<p><img src= images/blank.png width =""200"" height = ""200"" style = ""float:right""></p><p><img src=images/blank.png width =""800"" height = ""200""></p>","","","","","","","","","","","",""
"","333.1450000004843","sequential-stimulus-presentation","139","239628","0.0-29.0-1.2","SS1613081941833","trial","","40","800","1133.1450000004843","images/stimuli/spore_stims/complex_13_B_a.gif","images/stimuli/spore_stims/complex_15_B_d.gif","","","","","7","complex_dissimilar","images/stimuli/spore_stims/complex_13_B_a.gif","right","","","","",""
"","null","html-keyboard-response","140","240903","0.0-29.0-0.3","SS1613081941833","","","null","","","","","<p><img src= images/blank.png width =""200"" height = ""200"" style = ""float:right""></p><p><img src=images/blank.png width =""800"" height = ""200""></p>","","","","","","","","","","","",""
"","809.5049999974435","sequential-stimulus-presentation","141","242556","0.0-29.0-1.3","SS1613081941833","trial","","40","800","1609.5049999974435","images/stimuli/spore_stims/complex_13_B_a.gif","images/stimuli/spore_stims/complex_15_B_d.gif","","","","","7","complex_dissimilar","images/stimuli/spore_stims/complex_15_B_d.gif","left","","","","",""
"","null","html-keyboard-response","142","243709","0.0-29.0-0.4","SS1613081941833","","","null","","","","","<p><img src= images/blank.png width =""200"" height = ""200"" style = ""float:right""></p><p><img src=images/blank.png width =""800"" height = ""200""></p>","","","","","","","","","","","",""
"","405.5999999982305","sequential-stimulus-presentation","143","244932","0.0-29.0-1.4","SS1613081941833","trial","","40","800","1205.5999999982305","images/stimuli/spore_stims/complex_13_B_a.gif","images/stimuli/spore_stims/complex_15_B_d.gif","","","","","7","complex_dissimilar","images/stimuli/spore_stims/complex_15_B_d.gif","left","","","","",""
"","null","html-keyboard-response","144","246019","0.0-29.0-0.5","SS1613081941833","","","null","","","","","<p><img src= images/blank.png width =""200"" height = ""200"" style = ""float:right""></p><p><img src=images/blank.png width =""800"" height = ""200""></p>","","","","","","","","","","","",""
"","216.40500000288012","sequential-stimulus-presentation","145","247051","0.0-29.0-1.5","SS1613081941833","trial","","40","800","1016.4050000028801","images/stimuli/spore_stims/complex_13_B_a.gif","images/stimuli/spore_stims/complex_15_B_d.gif","","","","","7","complex_dissimilar","images/stimuli/spore_stims/complex_15_B_d.gif","left","","","","",""
"","null","html-keyboard-response","146","248251","0.0-29.0-0.6","SS1613081941833","","","null","","","","","<p><img src= images/blank.png width =""200"" height = ""200"" style = ""float:right""></p><p><img src=images/blank.png width =""800"" height = ""200""></p>","","","","","","","","","","","",""
"","146.09500000008848","sequential-stimulus-presentation","147","249212","0.0-29.0-1.6","SS1613081941833","trial","","40","800","946.0950000000885","images/stimuli/spore_stims/complex_13_B_a.gif","images/stimuli/spore_stims/complex_15_B_d.gif","","","","","7","complex_dissimilar","images/stimuli/spore_stims/complex_15_B_d.gif","left","","","","",""
"","null","html-keyboard-response","148","250232","0.0-29.0-0.7","SS1613081941833","","","null","","","","","<p><img src= images/blank.png width =""200"" height = ""200"" style = ""float:right""></p><p><img src=images/blank.png width =""800"" height = ""200""></p>","","","","","","","","","","","",""
"","3715.829999997397","sequential-stimulus-presentation","149","254764","0.0-29.0-1.7","SS1613081941833","trial","","40","800","4515.829999997397","images/stimuli/spore_stims/complex_13_B_a.gif","images/stimuli/spore_stims/complex_15_B_d.gif","","","","","7","complex_dissimilar","images/stimuli/spore_stims/complex_15_B_d.gif","left","","","","",""
"","2312.8499999984633","html-keyboard-response","150","257092","0.0-30.0","SS1613081941833","pref_question","","97","","","","","<video width ='960' height = '540' style='padding-top:8%' autoplay muted><source src='images/stimuli/wall_pref.mp4' type='video/mp4'></video>","1","left","25%","7","","","","","","","",""
"","1272.8500000012573","sequential-stimulus-presentation","151","259187","0.0-31.0","SS1613081941833","pref_reveal","","40","800","2072.8500000012573","null","null","","","","","7","","","","background","","","",""
"","null","html-keyboard-response","152","260263","0.0-32.0-0.0","SS1613081941833","","","null","","","","","<p><img src= images/blank.png width =""200"" height = ""200"" style = ""float:right""></p><p><img src=images/blank.png width =""800"" height = ""200""></p>","","","","","","","","","","","",""
"","1074.7100000007777","sequential-stimulus-presentation","153","262195","0.0-32.0-1.0","SS1613081941833","trial","","40","800","1874.7100000007777","images/stimuli/spore_stims/simple_08_A_c.gif","images/stimuli/spore_stims/simple_03_A_c.gif","","","","","8","simple_dissimilar","images/stimuli/spore_stims/simple_03_A_c.gif","left","","","","",""
"","null","html-keyboard-response","154","263351","0.0-32.0-0.1","SS1613081941833","","","null","","","","","<p><img src= images/blank.png width =""200"" height = ""200"" style = ""float:right""></p><p><img src=images/blank.png width =""800"" height = ""200""></p>","","","","","","","","","","","",""
"","514.7149999975227","sequential-stimulus-presentation","155","264686","0.0-32.0-1.1","SS1613081941833","trial","","40","800","1314.7149999975227","images/stimuli/spore_stims/simple_08_A_c.gif","images/stimuli/spore_stims/simple_03_A_c.gif","","","","","8","simple_dissimilar","images/stimuli/spore_stims/simple_03_A_c.gif","left","","","","",""
"","null","html-keyboard-response","156","265749","0.0-32.0-0.2","SS1613081941833","","","null","","","","","<p><img src= images/blank.png width =""200"" height = ""200"" style = ""float:right""></p><p><img src=images/blank.png width =""800"" height = ""200""></p>","","","","","","","","","","","",""
"","135.5600000024424","sequential-stimulus-presentation","157","266702","0.0-32.0-1.2","SS1613081941833","trial","","40","800","935.5600000024424","images/stimuli/spore_stims/simple_08_A_c.gif","images/stimuli/spore_stims/simple_03_A_c.gif","","","","","8","simple_dissimilar","images/stimuli/spore_stims/simple_03_A_c.gif","left","","","","",""
"","null","html-keyboard-response","158","267543","0.0-32.0-0.3","SS1613081941833","","","null","","","","","<p><img src= images/blank.png width =""200"" height = ""200"" style = ""float:right""></p><p><img src=images/blank.png width =""800"" height = ""200""></p>","","","","","","","","","","","",""
"","1246.4450000007055","sequential-stimulus-presentation","159","269606","0.0-32.0-1.3","SS1613081941833","trial","","40","800","2046.4450000007055","images/stimuli/spore_stims/simple_08_A_c.gif","images/stimuli/spore_stims/simple_03_A_c.gif","","","","","8","simple_dissimilar","images/stimuli/spore_stims/simple_08_A_c.gif","right","","","","",""
"","null","html-keyboard-response","160","270477","0.0-32.0-0.4","SS1613081941833","","","null","","","","","<p><img src= images/blank.png width =""200"" height = ""200"" style = ""float:right""></p><p><img src=images/blank.png width =""800"" height = ""200""></p>","","","","","","","","","","","",""
"","1167.2850000031758","sequential-stimulus-presentation","161","272462","0.0-32.0-1.4","SS1613081941833","trial","","40","800","1967.2850000031758","images/stimuli/spore_stims/simple_08_A_c.gif","images/stimuli/spore_stims/simple_03_A_c.gif","","","","","8","simple_dissimilar","images/stimuli/spore_stims/simple_03_A_c.gif","left","","","","",""
"","null","html-keyboard-response","162","273458","0.0-32.0-0.5","SS1613081941833","","","null","","","","","<p><img src= images/blank.png width =""200"" height = ""200"" style = ""float:right""></p><p><img src=images/blank.png width =""800"" height = ""200""></p>","","","","","","","","","","","",""
"","946.0399999989313","sequential-stimulus-presentation","163","275222","0.0-32.0-1.5","SS1613081941833","trial","","40","800","1746.0399999989313","images/stimuli/spore_stims/simple_08_A_c.gif","images/stimuli/spore_stims/simple_03_A_c.gif","","","","","8","simple_dissimilar","images/stimuli/spore_stims/simple_03_A_c.gif","left","","","","",""
"","null","html-keyboard-response","164","276401","0.0-32.0-0.6","SS1613081941833","","","null","","","","","<p><img src= images/blank.png width =""200"" height = ""200"" style = ""float:right""></p><p><img src=images/blank.png width =""800"" height = ""200""></p>","","","","","","","","","","","",""
"","1250.7700000024051","sequential-stimulus-presentation","165","278469","0.0-32.0-1.6","SS1613081941833","trial","","40","800","2050.770000002405","images/stimuli/spore_stims/simple_08_A_c.gif","images/stimuli/spore_stims/simple_03_A_c.gif","","","","","8","simple_dissimilar","images/stimuli/spore_stims/simple_03_A_c.gif","left","","","","",""
"","null","html-keyboard-response","166","279324","0.0-32.0-0.7","SS1613081941833","","","null","","","","","<p><img src= images/blank.png width =""200"" height = ""200"" style = ""float:right""></p><p><img src=images/blank.png width =""800"" height = ""200""></p>","","","","","","","","","","","",""
"","574.6600000020117","sequential-stimulus-presentation","167","280717","0.0-32.0-1.7","SS1613081941833","trial","","40","800","1374.6600000020117","images/stimuli/spore_stims/simple_08_A_c.gif","images/stimuli/spore_stims/simple_03_A_c.gif","","","","","8","simple_dissimilar","images/stimuli/spore_stims/simple_03_A_c.gif","left","","","","",""
"","2017.6400000018766","html-keyboard-response","168","282750","0.0-33.0","SS1613081941833","pref_question","","98","","","","","<video width ='960' height = '540' style='padding-top:8%' autoplay muted><source src='images/stimuli/wall_pref.mp4' type='video/mp4'></video>","2","middle","45%","8","","","","","","","",""
"","1367.2499999993597","sequential-stimulus-presentation","169","284933","0.0-34.0","SS1613081941833","pref_reveal","","40","800","2167.2499999993597","null","null","","","","","8","","","","novel","","","",""
"","null","html-keyboard-response","170","285938","0.0-35.0-0.0","SS1613081941833","","","null","","","","","<p><img src= images/blank.png width =""200"" height = ""200"" style = ""float:right""></p><p><img src=images/blank.png width =""800"" height = ""200""></p>","","","","","","","","","","","",""
"","401.0449999986449","sequential-stimulus-presentation","171","287158","0.0-35.0-1.0","SS1613081941833","trial","","40","800","1201.044999998645","images/stimuli/spore_stims/simple_12_A_d.gif","images/stimuli/spore_stims/simple_12_B_d.gif","","","","","9","simple_similar","images/stimuli/spore_stims/simple_12_B_d.gif","right","","","","",""
"","null","html-keyboard-response","172","288397","0.0-35.0-0.1","SS1613081941833","","","null","","","","","<p><img src= images/blank.png width =""200"" height = ""200"" style = ""float:right""></p><p><img src=images/blank.png width =""800"" height = ""200""></p>","","","","","","","","","","","",""
"","456.14999999816064","sequential-stimulus-presentation","173","289701","0.0-35.0-1.1","SS1613081941833","trial","","40","800","1256.1499999981606","images/stimuli/spore_stims/simple_12_A_d.gif","images/stimuli/spore_stims/simple_12_B_d.gif","","","","","9","simple_similar","images/stimuli/spore_stims/simple_12_B_d.gif","right","","","","",""
"","null","html-keyboard-response","174","290767","0.0-35.0-0.2","SS1613081941833","","","null","","","","","<p><img src= images/blank.png width =""200"" height = ""200"" style = ""float:right""></p><p><img src=images/blank.png width =""800"" height = ""200""></p>","","","","","","","","","","","",""
"","338.9900000001653","sequential-stimulus-presentation","175","291925","0.0-35.0-1.2","SS1613081941833","trial","","40","800","1138.9900000001653","images/stimuli/spore_stims/simple_12_A_d.gif","images/stimuli/spore_stims/simple_12_B_d.gif","","","","","9","simple_similar","images/stimuli/spore_stims/simple_12_B_d.gif","right","","","","",""
"","null","html-keyboard-response","176","292866","0.0-35.0-0.3","SS1613081941833","","","null","","","","","<p><img src= images/blank.png width =""200"" height = ""200"" style = ""float:right""></p><p><img src=images/blank.png width =""800"" height = ""200""></p>","","","","","","","","","","","",""
"","552.9249999999302","sequential-stimulus-presentation","177","294237","0.0-35.0-1.3","SS1613081941833","trial","","40","800","1352.9249999999302","images/stimuli/spore_stims/simple_12_A_d.gif","images/stimuli/spore_stims/simple_12_B_d.gif","","","","","9","simple_similar","images/stimuli/spore_stims/simple_12_B_d.gif","right","","","","",""
"","null","html-keyboard-response","178","295387","0.0-35.0-0.4","SS1613081941833","","","null","","","","","<p><img src= images/blank.png width =""200"" height = ""200"" style = ""float:right""></p><p><img src=images/blank.png width =""800"" height = ""200""></p>","","","","","","","","","","","",""
"","120.43999999877997","sequential-stimulus-presentation","179","296324","0.0-35.0-1.4","SS1613081941833","trial","","40","800","920.43999999878","images/stimuli/spore_stims/simple_12_A_d.gif","images/stimuli/spore_stims/simple_12_B_d.gif","","","","","9","simple_similar","images/stimuli/spore_stims/simple_12_B_d.gif","right","","","","",""
"","null","html-keyboard-response","180","297216","0.0-35.0-0.5","SS1613081941833","","","null","","","","","<p><img src= images/blank.png width =""200"" height = ""200"" style = ""float:right""></p><p><img src=images/blank.png width =""800"" height = ""200""></p>","","","","","","","","","","","",""
"","659.8000000012107","sequential-stimulus-presentation","181","298692","0.0-35.0-1.5","SS1613081941833","trial","","40","800","1459.8000000012107","images/stimuli/spore_stims/simple_12_A_d.gif","images/stimuli/spore_stims/simple_12_B_d.gif","","","","","9","simple_similar","images/stimuli/spore_stims/simple_12_A_d.gif","middle","","","","",""
"","null","html-keyboard-response","182","299869","0.0-35.0-0.6","SS1613081941833","","","null","","","","","<p><img src= images/blank.png width =""200"" height = ""200"" style = ""float:right""></p><p><img src=images/blank.png width =""800"" height = ""200""></p>","","","","","","","","","","","",""
"","1534.4100000002654","sequential-stimulus-presentation","183","302220","0.0-35.0-1.6","SS1613081941833","trial","","40","800","2334.4100000002654","images/stimuli/spore_stims/simple_12_A_d.gif","images/stimuli/spore_stims/simple_12_B_d.gif","","","","","9","simple_similar","images/stimuli/spore_stims/simple_12_B_d.gif","right","","","","",""
"","null","html-keyboard-response","184","303164","0.0-35.0-0.7","SS1613081941833","","","null","","","","","<p><img src= images/blank.png width =""200"" height = ""200"" style = ""float:right""></p><p><img src=images/blank.png width =""800"" height = ""200""></p>","","","","","","","","","","","",""
"","774.4050000000861","sequential-stimulus-presentation","185","304780","0.0-35.0-1.7","SS1613081941833","trial","","40","800","1574.4050000000861","images/stimuli/spore_stims/simple_12_A_d.gif","images/stimuli/spore_stims/simple_12_B_d.gif","","","","","9","simple_similar","images/stimuli/spore_stims/simple_12_B_d.gif","right","","","","",""
"","1648.5599999977858","html-keyboard-response","186","306444","0.0-36.0","SS1613081941833","pref_question","","97","","","","","<video width ='960' height = '540' style='padding-top:8%' autoplay muted><source src='images/stimuli/wall_pref.mp4' type='video/mp4'></video>","1","left","25%","9","","","","","","","",""
"","391.2000000018743","sequential-stimulus-presentation","187","307652","0.0-37.0","SS1613081941833","pref_reveal","","40","800","1191.2000000018743","null","null","","","","","9","","","","novel","","","",""
"","null","html-keyboard-response","188","308724","0.0-38.0-0.0","SS1613081941833","","","null","","","","","<p><img src= images/blank.png width =""200"" height = ""200"" style = ""float:right""></p><p><img src=images/blank.png width =""800"" height = ""200""></p>","","","","","","","","","","","",""
"","5933.404999999737","sequential-stimulus-presentation","189","315476","0.0-38.0-1.0","SS1613081941833","trial","","40","800","6733.404999999737","images/stimuli/spore_stims/complex_16_B_b.gif","images/stimuli/spore_stims/complex_10_A_c.gif","","","","","10","complex_dissimilar","images/stimuli/spore_stims/complex_10_A_c.gif","right","","","","",""
"","null","html-keyboard-response","190","316548","0.0-38.0-0.1","SS1613081941833","","","null","","","","","<p><img src= images/blank.png width =""200"" height = ""200"" style = ""float:right""></p><p><img src=images/blank.png width =""800"" height = ""200""></p>","","","","","","","","","","","",""
"","5149.2099999996135","sequential-stimulus-presentation","191","322516","0.0-38.0-1.1","SS1613081941833","trial","","40","800","5949.2099999996135","images/stimuli/spore_stims/complex_16_B_b.gif","images/stimuli/spore_stims/complex_10_A_c.gif","","","","","10","complex_dissimilar","images/stimuli/spore_stims/complex_10_A_c.gif","right","","","","",""
"","null","html-keyboard-response","192","323375","0.0-38.0-0.2","SS1613081941833","","","null","","","","","<p><img src= images/blank.png width =""200"" height = ""200"" style = ""float:right""></p><p><img src=images/blank.png width =""800"" height = ""200""></p>","","","","","","","","","","","",""
"","1402.4349999999395","sequential-stimulus-presentation","193","325598","0.0-38.0-1.2","SS1613081941833","trial","","40","800","2202.4349999999395","images/stimuli/spore_stims/complex_16_B_b.gif","images/stimuli/spore_stims/complex_10_A_c.gif","","","","","10","complex_dissimilar","images/stimuli/spore_stims/complex_16_B_b.gif","left","","","","",""
"","null","html-keyboard-response","194","326437","0.0-38.0-0.3","SS1613081941833","","","null","","","","","<p><img src= images/blank.png width =""200"" height = ""200"" style = ""float:right""></p><p><img src=images/blank.png width =""800"" height = ""200""></p>","","","","","","","","","","","",""
"","190.68499999778578","sequential-stimulus-presentation","195","327453","0.0-38.0-1.3","SS1613081941833","trial","","40","800","990.6849999977858","images/stimuli/spore_stims/complex_16_B_b.gif","images/stimuli/spore_stims/complex_10_A_c.gif","","","","","10","complex_dissimilar","images/stimuli/spore_stims/complex_10_A_c.gif","right","","","","",""
"","null","html-keyboard-response","196","328471","0.0-38.0-0.4","SS1613081941833","","","null","","","","","<p><img src= images/blank.png width =""200"" height = ""200"" style = ""float:right""></p><p><img src=images/blank.png width =""800"" height = ""200""></p>","","","","","","","","","","","",""
"","972.6649999975343","sequential-stimulus-presentation","197","330261","0.0-38.0-1.4","SS1613081941833","trial","","40","800","1772.6649999975343","images/stimuli/spore_stims/complex_16_B_b.gif","images/stimuli/spore_stims/complex_10_A_c.gif","","","","","10","complex_dissimilar","images/stimuli/spore_stims/complex_10_A_c.gif","right","","","","",""
"","null","html-keyboard-response","198","331157","0.0-38.0-0.5","SS1613081941833","","","null","","","","","<p><img src= images/blank.png width =""200"" height = ""200"" style = ""float:right""></p><p><img src=images/blank.png width =""800"" height = ""200""></p>","","","","","","","","","","","",""
"","2293.780000000028","sequential-stimulus-presentation","199","334269","0.0-38.0-1.5","SS1613081941833","trial","","40","800","3093.780000000028","images/stimuli/spore_stims/complex_16_B_b.gif","images/stimuli/spore_stims/complex_10_A_c.gif","","","","","10","complex_dissimilar","images/stimuli/spore_stims/complex_10_A_c.gif","right","","","","",""
"","null","html-keyboard-response","200","335374","0.0-38.0-0.6","SS1613081941833","","","null","","","","","<p><img src= images/blank.png width =""200"" height = ""200"" style = ""float:right""></p><p><img src=images/blank.png width =""800"" height = ""200""></p>","","","","","","","","","","","",""
"","460.54000000003725","sequential-stimulus-presentation","201","336653","0.0-38.0-1.6","SS1613081941833","trial","","40","800","1260.5400000000373","images/stimuli/spore_stims/complex_16_B_b.gif","images/stimuli/spore_stims/complex_10_A_c.gif","","","","","10","complex_dissimilar","images/stimuli/spore_stims/complex_10_A_c.gif","right","","","","",""
"","null","html-keyboard-response","202","337719","0.0-38.0-0.7","SS1613081941833","","","null","","","","","<p><img src= images/blank.png width =""200"" height = ""200"" style = ""float:right""></p><p><img src=images/blank.png width =""800"" height = ""200""></p>","","","","","","","","","","","",""
"","581.3950000010664","sequential-stimulus-presentation","203","339121","0.0-38.0-1.7","SS1613081941833","trial","","40","800","1381.3950000010664","images/stimuli/spore_stims/complex_16_B_b.gif","images/stimuli/spore_stims/complex_10_A_c.gif","","","","","10","complex_dissimilar","images/stimuli/spore_stims/complex_10_A_c.gif","right","","","","",""
"","1478.3599999973667","html-keyboard-response","204","340621","0.0-39.0","SS1613081941833","pref_question","","97","","","","","<video width ='960' height = '540' style='padding-top:8%' autoplay muted><source src='images/stimuli/wall_pref.mp4' type='video/mp4'></video>","1","left","25%","10","","","","","","","",""
"","379.6199999997043","sequential-stimulus-presentation","205","341820","0.0-40.0","SS1613081941833","pref_reveal","","40","800","1179.6199999997043","null","null","","","","","10","","","","deviant","","","",""
"","null","html-keyboard-response","206","342914","0.0-41.0-0.0","SS1613081941833","","","null","","","","","<p><img src= images/blank.png width =""200"" height = ""200"" style = ""float:right""></p><p><img src=images/blank.png width =""800"" height = ""200""></p>","","","","","","","","","","","",""
"","1037.8750000018044","sequential-stimulus-presentation","207","344773","0.0-41.0-1.0","SS1613081941833","trial","","40","800","1837.8750000018044","images/stimuli/spore_stims/complex_03_A_a.gif","images/stimuli/spore_stims/complex_03_B_a.gif","","","","","11","complex_similar","images/stimuli/spore_stims/complex_03_B_a.gif","left","","","","",""
"","null","html-keyboard-response","208","345728","0.0-41.0-0.1","SS1613081941833","","","null","","","","","<p><img src= images/blank.png width =""200"" height = ""200"" style = ""float:right""></p><p><img src=images/blank.png width =""800"" height = ""200""></p>","","","","","","","","","","","",""
"","25.354999997885898","sequential-stimulus-presentation","209","346573","0.0-41.0-1.1","SS1613081941833","trial","","40","800","825.3549999978859","images/stimuli/spore_stims/complex_03_A_a.gif","images/stimuli/spore_stims/complex_03_B_a.gif","","","","","11","complex_similar","images/stimuli/spore_stims/complex_03_B_a.gif","left","","","","",""
"","null","html-keyboard-response","210","347481","0.0-41.0-0.2","SS1613081941833","","","null","","","","","<p><img src= images/blank.png width =""200"" height = ""200"" style = ""float:right""></p><p><img src=images/blank.png width =""800"" height = ""200""></p>","","","","","","","","","","","",""
"","440.64000000071246","sequential-stimulus-presentation","211","348740","0.0-41.0-1.2","SS1613081941833","trial","","40","800","1240.6400000007125","images/stimuli/spore_stims/complex_03_A_a.gif","images/stimuli/spore_stims/complex_03_B_a.gif","","","","","11","complex_similar","images/stimuli/spore_stims/complex_03_A_a.gif","right","","","","",""
"","null","html-keyboard-response","212","349835","0.0-41.0-0.3","SS1613081941833","","","null","","","","","<p><img src= images/blank.png width =""200"" height = ""200"" style = ""float:right""></p><p><img src=images/blank.png width =""800"" height = ""200""></p>","","","","","","","","","","","",""
"","13.190000001515727","sequential-stimulus-presentation","213","350668","0.0-41.0-1.3","SS1613081941833","trial","","40","800","813.1900000015157","images/stimuli/spore_stims/complex_03_A_a.gif","images/stimuli/spore_stims/complex_03_B_a.gif","","","","","11","complex_similar","images/stimuli/spore_stims/complex_03_B_a.gif","left","","","","",""
"","null","html-keyboard-response","214","351684","0.0-41.0-0.4","SS1613081941833","","","null","","","","","<p><img src= images/blank.png width =""200"" height = ""200"" style = ""float:right""></p><p><img src=images/blank.png width =""800"" height = ""200""></p>","","","","","","","","","","","",""
"","2013.4700000017183","sequential-stimulus-presentation","215","354541","0.0-41.0-1.4","SS1613081941833","trial","","40","800","2813.4700000017183","images/stimuli/spore_stims/complex_03_A_a.gif","images/stimuli/spore_stims/complex_03_B_a.gif","","","","","11","complex_similar","images/stimuli/spore_stims/complex_03_B_a.gif","left","","","","",""
"","null","html-keyboard-response","216","355655","0.0-41.0-0.5","SS1613081941833","","","null","","","","","<p><img src= images/blank.png width =""200"" height = ""200"" style = ""float:right""></p><p><img src=images/blank.png width =""800"" height = ""200""></p>","","","","","","","","","","","",""
"","721.7249999994528","sequential-stimulus-presentation","217","357197","0.0-41.0-1.5","SS1613081941833","trial","","40","800","1521.7249999994528","images/stimuli/spore_stims/complex_03_A_a.gif","images/stimuli/spore_stims/complex_03_B_a.gif","","","","","11","complex_similar","images/stimuli/spore_stims/complex_03_B_a.gif","left","","","","",""
"","null","html-keyboard-response","218","358456","0.0-41.0-0.6","SS1613081941833","","","null","","","","","<p><img src= images/blank.png width =""200"" height = ""200"" style = ""float:right""></p><p><img src=images/blank.png width =""800"" height = ""200""></p>","","","","","","","","","","","",""
"","376.95499999972526","sequential-stimulus-presentation","219","359652","0.0-41.0-1.6","SS1613081941833","trial","","40","800","1176.9549999997253","images/stimuli/spore_stims/complex_03_A_a.gif","images/stimuli/spore_stims/complex_03_B_a.gif","","","","","11","complex_similar","images/stimuli/spore_stims/complex_03_B_a.gif","left","","","","",""
"","null","html-keyboard-response","220","360567","0.0-41.0-0.7","SS1613081941833","","","null","","","","","<p><img src= images/blank.png width =""200"" height = ""200"" style = ""float:right""></p><p><img src=images/blank.png width =""800"" height = ""200""></p>","","","","","","","","","","","",""
"","225.63000000081956","sequential-stimulus-presentation","221","361611","0.0-41.0-1.7","SS1613081941833","trial","","40","800","1025.6300000008196","images/stimuli/spore_stims/complex_03_A_a.gif","images/stimuli/spore_stims/complex_03_B_a.gif","","","","","11","complex_similar","images/stimuli/spore_stims/complex_03_B_a.gif","left","","","","",""
"","1589.6400000019348","html-keyboard-response","222","363212","0.0-42.0","SS1613081941833","pref_question","","99","","","","","<video width ='960' height = '540' style='padding-top:8%' autoplay muted><source src='images/stimuli/wall_pref.mp4' type='video/mp4'></video>","3","right","66%","11","","","","","","","",""
"","35.52999999735039","sequential-stimulus-presentation","223","364067","0.0-43.0","SS1613081941833","pref_reveal","","40","800","835.5299999973504","null","null","","","","","11","","","","deviant","","","",""
"","null","html-keyboard-response","224","365215","0.0-44.0-0.0","SS1613081941833","","","null","","","","","<p><img src= images/blank.png width =""200"" height = ""200"" style = ""float:right""></p><p><img src=images/blank.png width =""800"" height = ""200""></p>","","","","","","","","","","","",""
"","1851.7900000006193","sequential-stimulus-presentation","225","367909","0.0-44.0-1.0","SS1613081941833","trial","","40","800","2651.7900000006193","images/stimuli/spore_stims/simple_07_A_c.gif","images/stimuli/spore_stims/simple_07_B_c.gif","","","","","12","simple_similar","images/stimuli/spore_stims/simple_07_B_c.gif","middle","","","","",""
"","null","html-keyboard-response","226","369026","0.0-44.0-0.1","SS1613081941833","","","null","","","","","<p><img src= images/blank.png width =""200"" height = ""200"" style = ""float:right""></p><p><img src=images/blank.png width =""800"" height = ""200""></p>","","","","","","","","","","","",""
"","1724.7800000004936","sequential-stimulus-presentation","227","371572","0.0-44.0-1.1","SS1613081941833","trial","","40","800","2524.7800000004936","images/stimuli/spore_stims/simple_07_A_c.gif","images/stimuli/spore_stims/simple_07_B_c.gif","","","","","12","simple_similar","images/stimuli/spore_stims/simple_07_B_c.gif","middle","","","","",""
"","null","html-keyboard-response","228","372630","0.0-44.0-0.2","SS1613081941833","","","null","","","","","<p><img src= images/blank.png width =""200"" height = ""200"" style = ""float:right""></p><p><img src=images/blank.png width =""800"" height = ""200""></p>","","","","","","","","","","","",""
"","3232.8899999993155","sequential-stimulus-presentation","229","376683","0.0-44.0-1.2","SS1613081941833","trial","","40","800","4032.8899999993155","images/stimuli/spore_stims/simple_07_A_c.gif","images/stimuli/spore_stims/simple_07_B_c.gif","","","","","12","simple_similar","images/stimuli/spore_stims/simple_07_B_c.gif","middle","","","","",""
"","null","html-keyboard-response","230","377747","0.0-44.0-0.3","SS1613081941833","","","null","","","","","<p><img src= images/blank.png width =""200"" height = ""200"" style = ""float:right""></p><p><img src=images/blank.png width =""800"" height = ""200""></p>","","","","","","","","","","","",""
"","781.1599999986356","sequential-stimulus-presentation","231","379348","0.0-44.0-1.3","SS1613081941833","trial","","40","800","1581.1599999986356","images/stimuli/spore_stims/simple_07_A_c.gif","images/stimuli/spore_stims/simple_07_B_c.gif","","","","","12","simple_similar","images/stimuli/spore_stims/simple_07_A_c.gif","left","","","","",""
"","null","html-keyboard-response","232","380166","0.0-44.0-0.4","SS1613081941833","","","null","","","","","<p><img src= images/blank.png width =""200"" height = ""200"" style = ""float:right""></p><p><img src=images/blank.png width =""800"" height = ""200""></p>","","","","","","","","","","","",""
"","251.44000000006054","sequential-stimulus-presentation","233","381234","0.0-44.0-1.4","SS1613081941833","trial","","40","800","1051.4400000000605","images/stimuli/spore_stims/simple_07_A_c.gif","images/stimuli/spore_stims/simple_07_B_c.gif","","","","","12","simple_similar","images/stimuli/spore_stims/simple_07_B_c.gif","middle","","","","",""
"","null","html-keyboard-response","234","382204","0.0-44.0-0.5","SS1613081941833","","","null","","","","","<p><img src= images/blank.png width =""200"" height = ""200"" style = ""float:right""></p><p><img src=images/blank.png width =""800"" height = ""200""></p>","","","","","","","","","","","",""
"","1746.2300000006799","sequential-stimulus-presentation","235","384773","0.0-44.0-1.5","SS1613081941833","trial","","40","800","2546.23000000068","images/stimuli/spore_stims/simple_07_A_c.gif","images/stimuli/spore_stims/simple_07_B_c.gif","","","","","12","simple_similar","images/stimuli/spore_stims/simple_07_B_c.gif","middle","","","","",""
"","null","html-keyboard-response","236","385937","0.0-44.0-0.6","SS1613081941833","","","null","","","","","<p><img src= images/blank.png width =""200"" height = ""200"" style = ""float:right""></p><p><img src=images/blank.png width =""800"" height = ""200""></p>","","","","","","","","","","","",""
"","4531.8299999999","sequential-stimulus-presentation","237","391286","0.0-44.0-1.6","SS1613081941833","trial","","40","800","5331.8299999999","images/stimuli/spore_stims/simple_07_A_c.gif","images/stimuli/spore_stims/simple_07_B_c.gif","","","","","12","simple_similar","images/stimuli/spore_stims/simple_07_B_c.gif","middle","","","","",""
"","null","html-keyboard-response","238","392438","0.0-44.0-0.7","SS1613081941833","","","null","","","","","<p><img src= images/blank.png width =""200"" height = ""200"" style = ""float:right""></p><p><img src=images/blank.png width =""800"" height = ""200""></p>","","","","","","","","","","","",""
"","1499.6799999971408","sequential-stimulus-presentation","239","394757","0.0-44.0-1.7","SS1613081941833","trial","","40","800","2299.679999997141","images/stimuli/spore_stims/simple_07_A_c.gif","images/stimuli/spore_stims/simple_07_B_c.gif","","","","","12","simple_similar","images/stimuli/spore_stims/simple_07_B_c.gif","middle","","","","",""
"","1459.7100000027567","html-keyboard-response","240","396246","0.0-45.0","SS1613081941833","pref_question","","97","","","","","<video width ='960' height = '540' style='padding-top:8%' autoplay muted><source src='images/stimuli/wall_pref.mp4' type='video/mp4'></video>","1","left","25%","12","","","","","","","",""
"","7437.09999999922","sequential-stimulus-presentation","241","404501","0.0-46.0","SS1613081941833","pref_reveal","","40","800","8237.09999999922","null","null","","","","","12","","","","deviant","","","",""
"","null","html-keyboard-response","242","405521","0.0-47.0-0.0","SS1613081941833","","","null","","","","","<p><img src= images/blank.png width =""200"" height = ""200"" style = ""float:right""></p><p><img src=images/blank.png width =""800"" height = ""200""></p>","","","","","","","","","","","",""
"","357.95499999949243","sequential-stimulus-presentation","243","406701","0.0-47.0-1.0","SS1613081941833","trial","","40","800","1157.9549999994924","images/stimuli/spore_stims/complex_04_A_d.gif","images/stimuli/spore_stims/complex_19_A_a.gif","","","","","13","complex_dissimilar","images/stimuli/spore_stims/complex_19_A_a.gif","right","","","","",""
"","null","html-keyboard-response","244","407966","0.0-47.0-0.1","SS1613081941833","","","null","","","","","<p><img src= images/blank.png width =""200"" height = ""200"" style = ""float:right""></p><p><img src=images/blank.png width =""800"" height = ""200""></p>","","","","","","","","","","","",""
"","451.20000000315486","sequential-stimulus-presentation","245","409237","0.0-47.0-1.1","SS1613081941833","trial","","40","800","1251.2000000031549","images/stimuli/spore_stims/complex_04_A_d.gif","images/stimuli/spore_stims/complex_19_A_a.gif","","","","","13","complex_dissimilar","images/stimuli/spore_stims/complex_19_A_a.gif","right","","","","",""
"","null","html-keyboard-response","246","410134","0.0-47.0-0.2","SS1613081941833","","","null","","","","","<p><img src= images/blank.png width =""200"" height = ""200"" style = ""float:right""></p><p><img src=images/blank.png width =""800"" height = ""200""></p>","","","","","","","","","","","",""
"","378.8749999985448","sequential-stimulus-presentation","247","411333","0.0-47.0-1.2","SS1613081941833","trial","","40","800","1178.8749999985448","images/stimuli/spore_stims/complex_04_A_d.gif","images/stimuli/spore_stims/complex_19_A_a.gif","","","","","13","complex_dissimilar","images/stimuli/spore_stims/complex_19_A_a.gif","right","","","","",""
"","null","html-keyboard-response","248","412210","0.0-47.0-0.3","SS1613081941833","","","null","","","","","<p><img src= images/blank.png width =""200"" height = ""200"" style = ""float:right""></p><p><img src=images/blank.png width =""800"" height = ""200""></p>","","","","","","","","","","","",""
"","170.61500000266824","sequential-stimulus-presentation","249","413204","0.0-47.0-1.3","SS1613081941833","trial","","40","800","970.6150000026682","images/stimuli/spore_stims/complex_04_A_d.gif","images/stimuli/spore_stims/complex_19_A_a.gif","","","","","13","complex_dissimilar","images/stimuli/spore_stims/complex_19_A_a.gif","right","","","","",""
"","null","html-keyboard-response","250","414366","0.0-47.0-0.4","SS1613081941833","","","null","","","","","<p><img src= images/blank.png width =""200"" height = ""200"" style = ""float:right""></p><p><img src=images/blank.png width =""800"" height = ""200""></p>","","","","","","","","","","","",""
"","388.7949999989942","sequential-stimulus-presentation","251","415573","0.0-47.0-1.4","SS1613081941833","trial","","40","800","1188.7949999989942","images/stimuli/spore_stims/complex_04_A_d.gif","images/stimuli/spore_stims/complex_19_A_a.gif","","","","","13","complex_dissimilar","images/stimuli/spore_stims/complex_19_A_a.gif","right","","","","",""
"","null","html-keyboard-response","252","416610","0.0-47.0-0.5","SS1613081941833","","","null","","","","","<p><img src= images/blank.png width =""200"" height = ""200"" style = ""float:right""></p><p><img src=images/blank.png width =""800"" height = ""200""></p>","","","","","","","","","","","",""
"","31.109999999869615","sequential-stimulus-presentation","253","417461","0.0-47.0-1.5","SS1613081941833","trial","","40","800","831.1099999998696","images/stimuli/spore_stims/complex_04_A_d.gif","images/stimuli/spore_stims/complex_19_A_a.gif","","","","","13","complex_dissimilar","images/stimuli/spore_stims/complex_19_A_a.gif","right","","","","",""
"","null","html-keyboard-response","254","418283","0.0-47.0-0.6","SS1613081941833","","","null","","","","","<p><img src= images/blank.png width =""200"" height = ""200"" style = ""float:right""></p><p><img src=images/blank.png width =""800"" height = ""200""></p>","","","","","","","","","","","",""
"","79.67500000086147","sequential-stimulus-presentation","255","419180","0.0-47.0-1.6","SS1613081941833","trial","","40","800","879.6750000008615","images/stimuli/spore_stims/complex_04_A_d.gif","images/stimuli/spore_stims/complex_19_A_a.gif","","","","","13","complex_dissimilar","images/stimuli/spore_stims/complex_19_A_a.gif","right","","","","",""
"","null","html-keyboard-response","256","420351","0.0-47.0-0.7","SS1613081941833","","","null","","","","","<p><img src= images/blank.png width =""200"" height = ""200"" style = ""float:right""></p><p><img src=images/blank.png width =""800"" height = ""200""></p>","","","","","","","","","","","",""
"","582.5299999996787","sequential-stimulus-presentation","257","421788","0.0-47.0-1.7","SS1613081941833","trial","","40","800","1382.5299999996787","images/stimuli/spore_stims/complex_04_A_d.gif","images/stimuli/spore_stims/complex_19_A_a.gif","","","","","13","complex_dissimilar","images/stimuli/spore_stims/complex_04_A_d.gif","left","","","","",""
"","2007.4100000019534","html-keyboard-response","258","423812","0.0-48.0","SS1613081941833","pref_question","","98","","","","","<video width ='960' height = '540' style='padding-top:8%' autoplay muted><source src='images/stimuli/wall_pref.mp4' type='video/mp4'></video>","2","middle","45%","13","","","","","","","",""
"","1092.3299999994924","sequential-stimulus-presentation","259","425724","0.0-49.0","SS1613081941833","pref_reveal","","40","800","1892.3299999994924","null","null","","","","","13","","","","novel","","","",""
"","null","html-keyboard-response","260","426611","0.0-50.0-0.0","SS1613081941833","","","null","","","","","<p><img src= images/blank.png width =""200"" height = ""200"" style = ""float:right""></p><p><img src=images/blank.png width =""800"" height = ""200""></p>","","","","","","","","","","","",""
"","844.8799999969197","sequential-stimulus-presentation","261","428276","0.0-50.0-1.0","SS1613081941833","trial","","40","800","1644.8799999969197","images/stimuli/spore_stims/simple_18_A_b.gif","images/stimuli/spore_stims/simple_18_B_b.gif","","","","","14","simple_similar","images/stimuli/spore_stims/simple_18_B_b.gif","right","","","","",""
"","null","html-keyboard-response","262","429119","0.0-50.0-0.1","SS1613081941833","","","null","","","","","<p><img src= images/blank.png width =""200"" height = ""200"" style = ""float:right""></p><p><img src=images/blank.png width =""800"" height = ""200""></p>","","","","","","","","","","","",""
"","3137.8700000022654","sequential-stimulus-presentation","263","433076","0.0-50.0-1.1","SS1613081941833","trial","","40","800","3937.8700000022654","images/stimuli/spore_stims/simple_18_A_b.gif","images/stimuli/spore_stims/simple_18_B_b.gif","","","","","14","simple_similar","images/stimuli/spore_stims/simple_18_B_b.gif","right","","","","",""
"","null","html-keyboard-response","264","433915","0.0-50.0-0.2","SS1613081941833","","","null","","","","","<p><img src= images/blank.png width =""200"" height = ""200"" style = ""float:right""></p><p><img src=images/blank.png width =""800"" height = ""200""></p>","","","","","","","","","","","",""
"","106.76999999850523","sequential-stimulus-presentation","265","434844","0.0-50.0-1.2","SS1613081941833","trial","","40","800","906.7699999985052","images/stimuli/spore_stims/simple_18_A_b.gif","images/stimuli/spore_stims/simple_18_B_b.gif","","","","","14","simple_similar","images/stimuli/spore_stims/simple_18_B_b.gif","right","","","","",""
"","null","html-keyboard-response","266","435745","0.0-50.0-0.3","SS1613081941833","","","null","","","","","<p><img src= images/blank.png width =""200"" height = ""200"" style = ""float:right""></p><p><img src=images/blank.png width =""800"" height = ""200""></p>","","","","","","","","","","","",""
"","3341.2850000022445","sequential-stimulus-presentation","267","439907","0.0-50.0-1.3","SS1613081941833","trial","","40","800","4141.2850000022445","images/stimuli/spore_stims/simple_18_A_b.gif","images/stimuli/spore_stims/simple_18_B_b.gif","","","","","14","simple_similar","images/stimuli/spore_stims/simple_18_A_b.gif","middle","","","","",""
"","null","html-keyboard-response","268","441187","0.0-50.0-0.4","SS1613081941833","","","null","","","","","<p><img src= images/blank.png width =""200"" height = ""200"" style = ""float:right""></p><p><img src=images/blank.png width =""800"" height = ""200""></p>","","","","","","","","","","","",""
"","211.77000000164844","sequential-stimulus-presentation","269","442243","0.0-50.0-1.4","SS1613081941833","trial","","40","800","1011.7700000016484","images/stimuli/spore_stims/simple_18_A_b.gif","images/stimuli/spore_stims/simple_18_B_b.gif","","","","","14","simple_similar","images/stimuli/spore_stims/simple_18_B_b.gif","right","","","","",""
"","null","html-keyboard-response","270","443183","0.0-50.0-0.5","SS1613081941833","","","null","","","","","<p><img src= images/blank.png width =""200"" height = ""200"" style = ""float:right""></p><p><img src=images/blank.png width =""800"" height = ""200""></p>","","","","","","","","","","","",""
"","136.8899999979185","sequential-stimulus-presentation","271","444139","0.0-50.0-1.5","SS1613081941833","trial","","40","800","936.8899999979185","images/stimuli/spore_stims/simple_18_A_b.gif","images/stimuli/spore_stims/simple_18_B_b.gif","","","","","14","simple_similar","images/stimuli/spore_stims/simple_18_B_b.gif","right","","","","",""
"","null","html-keyboard-response","272","444955","0.0-50.0-0.6","SS1613081941833","","","null","","","","","<p><img src= images/blank.png width =""200"" height = ""200"" style = ""float:right""></p><p><img src=images/blank.png width =""800"" height = ""200""></p>","","","","","","","","","","","",""
"","2078.4550000025192","sequential-stimulus-presentation","273","447854","0.0-50.0-1.6","SS1613081941833","trial","","40","800","2878.4550000025192","images/stimuli/spore_stims/simple_18_A_b.gif","images/stimuli/spore_stims/simple_18_B_b.gif","","","","","14","simple_similar","images/stimuli/spore_stims/simple_18_B_b.gif","right","","","","",""
"","null","html-keyboard-response","274","448879","0.0-50.0-0.7","SS1613081941833","","","null","","","","","<p><img src= images/blank.png width =""200"" height = ""200"" style = ""float:right""></p><p><img src=images/blank.png width =""800"" height = ""200""></p>","","","","","","","","","","","",""
"","191.45999999821652","sequential-stimulus-presentation","275","449893","0.0-50.0-1.7","SS1613081941833","trial","","40","800","991.4599999982165","images/stimuli/spore_stims/simple_18_A_b.gif","images/stimuli/spore_stims/simple_18_B_b.gif","","","","","14","simple_similar","images/stimuli/spore_stims/simple_18_B_b.gif","right","","","","",""
"","1973.7000000022817","html-keyboard-response","276","451878","0.0-51.0","SS1613081941833","pref_question","","99","","","","","<video width ='960' height = '540' style='padding-top:8%' autoplay muted><source src='images/stimuli/wall_pref.mp4' type='video/mp4'></video>","3","right","66%","14","","","","","","","",""
"","51.1049999986426","sequential-stimulus-presentation","277","452751","0.0-52.0","SS1613081941833","pref_reveal","","40","800","851.1049999986426","null","null","","","","","14","","","","background","","","",""
"","null","html-keyboard-response","278","453838","0.0-53.0-0.0","SS1613081941833","","","null","","","","","<p><img src= images/blank.png width =""200"" height = ""200"" style = ""float:right""></p><p><img src=images/blank.png width =""800"" height = ""200""></p>","","","","","","","","","","","",""
"","777.6349999984959","sequential-stimulus-presentation","279","455437","0.0-53.0-1.0","SS1613081941833","trial","","40","800","1577.634999998496","images/stimuli/spore_stims/complex_01_A_d.gif","images/stimuli/spore_stims/complex_01_B_d.gif","","","","","15","complex_similar","images/stimuli/spore_stims/complex_01_B_d.gif","left","","","","",""
"","null","html-keyboard-response","280","456274","0.0-53.0-0.1","SS1613081941833","","","null","","","","","<p><img src= images/blank.png width =""200"" height = ""200"" style = ""float:right""></p><p><img src=images/blank.png width =""800"" height = ""200""></p>","","","","","","","","","","","",""
"","1174.974999998114","sequential-stimulus-presentation","281","458270","0.0-53.0-1.1","SS1613081941833","trial","","40","800","1974.974999998114","images/stimuli/spore_stims/complex_01_A_d.gif","images/stimuli/spore_stims/complex_01_B_d.gif","","","","","15","complex_similar","images/stimuli/spore_stims/complex_01_B_d.gif","left","","","","",""
"","null","html-keyboard-response","282","459337","0.0-53.0-0.2","SS1613081941833","","","null","","","","","<p><img src= images/blank.png width =""200"" height = ""200"" style = ""float:right""></p><p><img src=images/blank.png width =""800"" height = ""200""></p>","","","","","","","","","","","",""
"","2303.8849999975646","sequential-stimulus-presentation","283","462469","0.0-53.0-1.2","SS1613081941833","trial","","40","800","3103.8849999975646","images/stimuli/spore_stims/complex_01_A_d.gif","images/stimuli/spore_stims/complex_01_B_d.gif","","","","","15","complex_similar","images/stimuli/spore_stims/complex_01_B_d.gif","left","","","","",""
"","null","html-keyboard-response","284","463784","0.0-53.0-0.3","SS1613081941833","","","null","","","","","<p><img src= images/blank.png width =""200"" height = ""200"" style = ""float:right""></p><p><img src=images/blank.png width =""800"" height = ""200""></p>","","","","","","","","","","","",""
"","326.03000000014435","sequential-stimulus-presentation","285","464933","0.0-53.0-1.3","SS1613081941833","trial","","40","800","1126.0300000001444","images/stimuli/spore_stims/complex_01_A_d.gif","images/stimuli/spore_stims/complex_01_B_d.gif","","","","","15","complex_similar","images/stimuli/spore_stims/complex_01_B_d.gif","left","","","","",""
"","null","html-keyboard-response","286","465838","0.0-53.0-0.4","SS1613081941833","","","null","","","","","<p><img src= images/blank.png width =""200"" height = ""200"" style = ""float:right""></p><p><img src=images/blank.png width =""800"" height = ""200""></p>","","","","","","","","","","","",""
"","1920.350000000326","sequential-stimulus-presentation","287","468582","0.0-53.0-1.4","SS1613081941833","trial","","40","800","2720.350000000326","images/stimuli/spore_stims/complex_01_A_d.gif","images/stimuli/spore_stims/complex_01_B_d.gif","","","","","15","complex_similar","images/stimuli/spore_stims/complex_01_A_d.gif","right","","","","",""
"","null","html-keyboard-response","288","469429","0.0-53.0-0.5","SS1613081941833","","","null","","","","","<p><img src= images/blank.png width =""200"" height = ""200"" style = ""float:right""></p><p><img src=images/blank.png width =""800"" height = ""200""></p>","","","","","","","","","","","",""
"","672.6199999975506","sequential-stimulus-presentation","289","470925","0.0-53.0-1.5","SS1613081941833","trial","","40","800","1472.6199999975506","images/stimuli/spore_stims/complex_01_A_d.gif","images/stimuli/spore_stims/complex_01_B_d.gif","","","","","15","complex_similar","images/stimuli/spore_stims/complex_01_B_d.gif","left","","","","",""
"","null","html-keyboard-response","290","472228","0.0-53.0-0.6","SS1613081941833","","","null","","","","","<p><img src= images/blank.png width =""200"" height = ""200"" style = ""float:right""></p><p><img src=images/blank.png width =""800"" height = ""200""></p>","","","","","","","","","","","",""
"","3474.38500000129","sequential-stimulus-presentation","291","476524","0.0-53.0-1.6","SS1613081941833","trial","","40","800","4274.38500000129","images/stimuli/spore_stims/complex_01_A_d.gif","images/stimuli/spore_stims/complex_01_B_d.gif","","","","","15","complex_similar","images/stimuli/spore_stims/complex_01_B_d.gif","left","","","","",""
"","null","html-keyboard-response","292","477666","0.0-53.0-0.7","SS1613081941833","","","null","","","","","<p><img src= images/blank.png width =""200"" height = ""200"" style = ""float:right""></p><p><img src=images/blank.png width =""800"" height = ""200""></p>","","","","","","","","","","","",""
"","1211.8049999990035","sequential-stimulus-presentation","293","479701","0.0-53.0-1.7","SS1613081941833","trial","","40","800","2011.8049999990035","images/stimuli/spore_stims/complex_01_A_d.gif","images/stimuli/spore_stims/complex_01_B_d.gif","","","","","15","complex_similar","images/stimuli/spore_stims/complex_01_B_d.gif","left","","","","",""
"","1602.484999999404","html-keyboard-response","294","481324","0.0-54.0","SS1613081941833","pref_question","","98","","","","","<video width ='960' height = '540' style='padding-top:8%' autoplay muted><source src='images/stimuli/wall_pref.mp4' type='video/mp4'></video>","2","middle","45%","15","","","","","","","",""
"","169.0649999981979","sequential-stimulus-presentation","295","482316","0.0-55.0","SS1613081941833","pref_reveal","","40","800","969.0649999981979","null","null","","","","","15","","","","novel","","","",""
"","null","html-keyboard-response","296","483433","0.0-56.0-0.0","SS1613081941833","","","null","","","","","<p><img src= images/blank.png width =""200"" height = ""200"" style = ""float:right""></p><p><img src=images/blank.png width =""800"" height = ""200""></p>","","","","","","","","","","","",""
"","1074.830000001355","sequential-stimulus-presentation","297","485332","0.0-56.0-1.0","SS1613081941833","trial","","40","800","1874.830000001355","images/stimuli/spore_stims/simple_10_A_b.gif","images/stimuli/spore_stims/simple_06_B_c.gif","","","","","16","simple_dissimilar","images/stimuli/spore_stims/simple_06_B_c.gif","left","","","","",""
"","null","html-keyboard-response","298","486391","0.0-56.0-0.1","SS1613081941833","","","null","","","","","<p><img src= images/blank.png width =""200"" height = ""200"" style = ""float:right""></p><p><img src=images/blank.png width =""800"" height = ""200""></p>","","","","","","","","","","","",""
"","487.9750000000349","sequential-stimulus-presentation","299","487700","0.0-56.0-1.1","SS1613081941833","trial","","40","800","1287.975000000035","images/stimuli/spore_stims/simple_10_A_b.gif","images/stimuli/spore_stims/simple_06_B_c.gif","","","","","16","simple_dissimilar","images/stimuli/spore_stims/simple_06_B_c.gif","left","","","","",""
"","null","html-keyboard-response","300","488530","0.0-56.0-0.2","SS1613081941833","","","null","","","","","<p><img src= images/blank.png width =""200"" height = ""200"" style = ""float:right""></p><p><img src=images/blank.png width =""800"" height = ""200""></p>","","","","","","","","","","","",""
"","534.2499999969732","sequential-stimulus-presentation","301","489884","0.0-56.0-1.2","SS1613081941833","trial","","40","800","1334.2499999969732","images/stimuli/spore_stims/simple_10_A_b.gif","images/stimuli/spore_stims/simple_06_B_c.gif","","","","","16","simple_dissimilar","images/stimuli/spore_stims/simple_06_B_c.gif","left","","","","",""
"","null","html-keyboard-response","302","490886","0.0-56.0-0.3","SS1613081941833","","","null","","","","","<p><img src= images/blank.png width =""200"" height = ""200"" style = ""float:right""></p><p><img src=images/blank.png width =""800"" height = ""200""></p>","","","","","","","","","","","",""
"","288.2850000023609","sequential-stimulus-presentation","303","491995","0.0-56.0-1.3","SS1613081941833","trial","","40","800","1088.285000002361","images/stimuli/spore_stims/simple_10_A_b.gif","images/stimuli/spore_stims/simple_06_B_c.gif","","","","","16","simple_dissimilar","images/stimuli/spore_stims/simple_06_B_c.gif","left","","","","",""
"","null","html-keyboard-response","304","493079","0.0-56.0-0.4","SS1613081941833","","","null","","","","","<p><img src= images/blank.png width =""200"" height = ""200"" style = ""float:right""></p><p><img src=images/blank.png width =""800"" height = ""200""></p>","","","","","","","","","","","",""
"","3001.2400000013877","sequential-stimulus-presentation","305","496908","0.0-56.0-1.4","SS1613081941833","trial","","40","800","3801.2400000013877","images/stimuli/spore_stims/simple_10_A_b.gif","images/stimuli/spore_stims/simple_06_B_c.gif","","","","","16","simple_dissimilar","images/stimuli/spore_stims/simple_06_B_c.gif","left","","","","",""
"","null","html-keyboard-response","306","498125","0.0-56.0-0.5","SS1613081941833","","","null","","","","","<p><img src= images/blank.png width =""200"" height = ""200"" style = ""float:right""></p><p><img src=images/blank.png width =""800"" height = ""200""></p>","","","","","","","","","","","",""
"","246.6350000030361","sequential-stimulus-presentation","307","499195","0.0-56.0-1.5","SS1613081941833","trial","","40","800","1046.635000003036","images/stimuli/spore_stims/simple_10_A_b.gif","images/stimuli/spore_stims/simple_06_B_c.gif","","","","","16","simple_dissimilar","images/stimuli/spore_stims/simple_10_A_b.gif","right","","","","",""
"","null","html-keyboard-response","308","500495","0.0-56.0-0.6","SS1613081941833","","","null","","","","","<p><img src= images/blank.png width =""200"" height = ""200"" style = ""float:right""></p><p><img src=images/blank.png width =""800"" height = ""200""></p>","","","","","","","","","","","",""
"","590.744999997667","sequential-stimulus-presentation","309","501907","0.0-56.0-1.6","SS1613081941833","trial","","40","800","1390.744999997667","images/stimuli/spore_stims/simple_10_A_b.gif","images/stimuli/spore_stims/simple_06_B_c.gif","","","","","16","simple_dissimilar","images/stimuli/spore_stims/simple_06_B_c.gif","left","","","","",""
"","null","html-keyboard-response","310","502852","0.0-56.0-0.7","SS1613081941833","","","null","","","","","<p><img src= images/blank.png width =""200"" height = ""200"" style = ""float:right""></p><p><img src=images/blank.png width =""800"" height = ""200""></p>","","","","","","","","","","","",""
"","452.83500000007916","sequential-stimulus-presentation","311","504131","0.0-56.0-1.7","SS1613081941833","trial","","40","800","1252.8350000000792","images/stimuli/spore_stims/simple_10_A_b.gif","images/stimuli/spore_stims/simple_06_B_c.gif","","","","","16","simple_dissimilar","images/stimuli/spore_stims/simple_06_B_c.gif","left","","","","",""
"","1386.2000000007683","html-keyboard-response","312","505543","0.0-57.0","SS1613081941833","pref_question","","99","","","","","<video width ='960' height = '540' style='padding-top:8%' autoplay muted><source src='images/stimuli/wall_pref.mp4' type='video/mp4'></video>","3","right","66%","16","","","","","","","",""
