"view_history","rt","trial_type","trial_index","time_elapsed","internal_node_id","subject","stimulus_type","trial_stimulus","key_press","minimum_viewing_duration","trial_looking_time","block_deviant","block_background","stimulus","wall_pref","location","location_percent","block_number","block_type","stimulus_displayed","position_displayed","stim_type_selected","responses","question_order","stimulus_left","stimulus_right"
"[{""page_index"":0,""viewing_time"":7590.964999995776}]","7591.7350000017905","instructions","0","7593","0.0-0.0","SS1613100435387","","","","","","","","","","","","","","","","","","","",""
"[{""page_index"":0,""viewing_time"":15555.329999995593},{""page_index"":1,""viewing_time"":10087.995000001683}]","25643.624999996973","instructions","1","35240","0.0-1.0","SS1613100435387","instructions","","","","","","","","","","","","","","","","","","",""
"","7280.429999998887","sequential-stimulus-presentation","2","43326","0.0-2.0","SS1613100435387","","","40","800","8080.429999998887","null","null","","","","","","","","","","","","",""
"","4259.765000002517","sequential-stimulus-presentation","3","48390","0.0-3.0","SS1613100435387","","","40","800","5059.765000002517","null","null","","","","","","","","","","","","",""
"[{""page_index"":0,""viewing_time"":4125.670000001264}]","4126.015000001644","instructions","4","52519","0.0-4.0","SS1613100435387","instructions","","","","","","","","","","","","","","","","","","",""
"","15659.794999999576","html-keyboard-response","5","68181","0.0-5.0","SS1613100435387","instructions","","98","","","","","<video width ='960' height = '540' autoplay muted><source src='images/stimuli/wall_pref.mp4' type='video/mp4'></video>","2","middle","45%","","","","","","","","",""
"","3106.885000001057","sequential-stimulus-presentation","6","72093","0.0-6.0","SS1613100435387","pref_reveal","","40","800","3906.885000001057","null","null","","","","","","","","","","","","",""
"[{""page_index"":0,""viewing_time"":8328.120000005583},{""page_index"":1,""viewing_time"":4519.899999999325},{""page_index"":2,""viewing_time"":1759.8499999949127},{""page_index"":3,""viewing_time"":1016.0550000000512}]","15624.200000005658","instructions","7","87718","0.0-7.0","SS1613100435387","instructions","","","","","","","","","","","","","","","","","","",""
"","null","html-keyboard-response","8","88806","0.0-8.0-0.0","SS1613100435387","","","null","","","","","<p><img src= images/blank.png width =""200"" height = ""200"" style = ""float:right""></p><p><img src=images/blank.png width =""800"" height = ""200""></p>","","","","","","","","","","","",""
"","5717.645000004268","sequential-stimulus-presentation","9","95329","0.0-8.0-1.0","SS1613100435387","trial","","40","800","6517.645000004268","images/stimuli/spore_stims/complex_07_A_c.gif","images/stimuli/spore_stims/complex_13_A_d.gif","","","","","0","complex_dissimilar","images/stimuli/spore_stims/complex_13_A_d.gif","middle","","","","",""
"","null","html-keyboard-response","10","96279","0.0-8.0-0.1","SS1613100435387","","","null","","","","","<p><img src= images/blank.png width =""200"" height = ""200"" style = ""float:right""></p><p><img src=images/blank.png width =""800"" height = ""200""></p>","","","","","","","","","","","",""
"","7869.259999999485","sequential-stimulus-presentation","11","104957","0.0-8.0-1.1","SS1613100435387","trial","","40","800","8669.259999999485","images/stimuli/spore_stims/complex_07_A_c.gif","images/stimuli/spore_stims/complex_13_A_d.gif","","","","","0","complex_dissimilar","images/stimuli/spore_stims/complex_13_A_d.gif","middle","","","","",""
"","null","html-keyboard-response","12","106150","0.0-8.0-0.2","SS1613100435387","","","null","","","","","<p><img src= images/blank.png width =""200"" height = ""200"" style = ""float:right""></p><p><img src=images/blank.png width =""800"" height = ""200""></p>","","","","","","","","","","","",""
"","4616.985000000568","sequential-stimulus-presentation","13","111573","0.0-8.0-1.2","SS1613100435387","trial","","40","800","5416.985000000568","images/stimuli/spore_stims/complex_07_A_c.gif","images/stimuli/spore_stims/complex_13_A_d.gif","","","","","0","complex_dissimilar","images/stimuli/spore_stims/complex_13_A_d.gif","middle","","","","",""
"","null","html-keyboard-response","14","112762","0.0-8.0-0.3","SS1613100435387","","","null","","","","","<p><img src= images/blank.png width =""200"" height = ""200"" style = ""float:right""></p><p><img src=images/blank.png width =""800"" height = ""200""></p>","","","","","","","","","","","",""
"","5406.109999996261","sequential-stimulus-presentation","15","118973","0.0-8.0-1.3","SS1613100435387","trial","","40","800","6206.109999996261","images/stimuli/spore_stims/complex_07_A_c.gif","images/stimuli/spore_stims/complex_13_A_d.gif","","","","","0","complex_dissimilar","images/stimuli/spore_stims/complex_13_A_d.gif","middle","","","","",""
"","null","html-keyboard-response","16","119967","0.0-8.0-0.4","SS1613100435387","","","null","","","","","<p><img src= images/blank.png width =""200"" height = ""200"" style = ""float:right""></p><p><img src=images/blank.png width =""800"" height = ""200""></p>","","","","","","","","","","","",""
"","4361.474999997881","sequential-stimulus-presentation","17","125133","0.0-8.0-1.4","SS1613100435387","trial","","40","800","5161.474999997881","images/stimuli/spore_stims/complex_07_A_c.gif","images/stimuli/spore_stims/complex_13_A_d.gif","","","","","0","complex_dissimilar","images/stimuli/spore_stims/complex_13_A_d.gif","middle","","","","",""
"","null","html-keyboard-response","18","126288","0.0-8.0-0.5","SS1613100435387","","","null","","","","","<p><img src= images/blank.png width =""200"" height = ""200"" style = ""float:right""></p><p><img src=images/blank.png width =""800"" height = ""200""></p>","","","","","","","","","","","",""
"","423.6400000008871","sequential-stimulus-presentation","19","127516","0.0-8.0-1.5","SS1613100435387","trial","","40","800","1223.640000000887","images/stimuli/spore_stims/complex_07_A_c.gif","images/stimuli/spore_stims/complex_13_A_d.gif","","","","","0","complex_dissimilar","images/stimuli/spore_stims/complex_13_A_d.gif","middle","","","","",""
"","null","html-keyboard-response","20","128374","0.0-8.0-0.6","SS1613100435387","","","null","","","","","<p><img src= images/blank.png width =""200"" height = ""200"" style = ""float:right""></p><p><img src=images/blank.png width =""800"" height = ""200""></p>","","","","","","","","","","","",""
"","2159.5700000034412","sequential-stimulus-presentation","21","131357","0.0-8.0-1.6","SS1613100435387","trial","","40","800","2959.5700000034412","images/stimuli/spore_stims/complex_07_A_c.gif","images/stimuli/spore_stims/complex_13_A_d.gif","","","","","0","complex_dissimilar","images/stimuli/spore_stims/complex_07_A_c.gif","left","","","","",""
"","null","html-keyboard-response","22","132268","0.0-8.0-0.7","SS1613100435387","","","null","","","","","<p><img src= images/blank.png width =""200"" height = ""200"" style = ""float:right""></p><p><img src=images/blank.png width =""800"" height = ""200""></p>","","","","","","","","","","","",""
"","6292.554999999993","sequential-stimulus-presentation","23","139365","0.0-8.0-1.7","SS1613100435387","trial","","40","800","7092.554999999993","images/stimuli/spore_stims/complex_07_A_c.gif","images/stimuli/spore_stims/complex_13_A_d.gif","","","","","0","complex_dissimilar","images/stimuli/spore_stims/complex_13_A_d.gif","middle","","","","",""
"","2973.2850000000326","html-keyboard-response","24","142341","0.0-9.0","SS1613100435387","pref_question","","99","","","","","<video width ='960' height = '540' style='padding-top:8%' autoplay muted><source src='images/stimuli/wall_pref.mp4' type='video/mp4'></video>","3","right","66%","0","","","","","","","",""
"","4361.154999998689","sequential-stimulus-presentation","25","147508","0.0-10.0","SS1613100435387","pref_reveal","","40","800","5161.154999998689","null","null","","","","","0","","","","novel","","","",""
"","null","html-keyboard-response","26","148566","0.0-11.0-0.0","SS1613100435387","","","null","","","","","<p><img src= images/blank.png width =""200"" height = ""200"" style = ""float:right""></p><p><img src=images/blank.png width =""800"" height = ""200""></p>","","","","","","","","","","","",""
"","5060.059999996156","sequential-stimulus-presentation","27","154430","0.0-11.0-1.0","SS1613100435387","trial","","40","800","5860.059999996156","images/stimuli/spore_stims/complex_15_A_c.gif","images/stimuli/spore_stims/complex_15_B_c.gif","","","","","1","complex_similar","images/stimuli/spore_stims/complex_15_B_c.gif","left","","","","",""
"","null","html-keyboard-response","28","155495","0.0-11.0-0.1","SS1613100435387","","","null","","","","","<p><img src= images/blank.png width =""200"" height = ""200"" style = ""float:right""></p><p><img src=images/blank.png width =""800"" height = ""200""></p>","","","","","","","","","","","",""
"","5005.72000000102","sequential-stimulus-presentation","29","161309","0.0-11.0-1.1","SS1613100435387","trial","","40","800","5805.72000000102","images/stimuli/spore_stims/complex_15_A_c.gif","images/stimuli/spore_stims/complex_15_B_c.gif","","","","","1","complex_similar","images/stimuli/spore_stims/complex_15_B_c.gif","left","","","","",""
"","null","html-keyboard-response","30","162516","0.0-11.0-0.2","SS1613100435387","","","null","","","","","<p><img src= images/blank.png width =""200"" height = ""200"" style = ""float:right""></p><p><img src=images/blank.png width =""800"" height = ""200""></p>","","","","","","","","","","","",""
"","4180.200000002515","sequential-stimulus-presentation","31","167500","0.0-11.0-1.2","SS1613100435387","trial","","40","800","4980.200000002515","images/stimuli/spore_stims/complex_15_A_c.gif","images/stimuli/spore_stims/complex_15_B_c.gif","","","","","1","complex_similar","images/stimuli/spore_stims/complex_15_B_c.gif","left","","","","",""
"","null","html-keyboard-response","32","168567","0.0-11.0-0.3","SS1613100435387","","","null","","","","","<p><img src= images/blank.png width =""200"" height = ""200"" style = ""float:right""></p><p><img src=images/blank.png width =""800"" height = ""200""></p>","","","","","","","","","","","",""
"","5289.604999998119","sequential-stimulus-presentation","33","174668","0.0-11.0-1.3","SS1613100435387","trial","","40","800","6089.604999998119","images/stimuli/spore_stims/complex_15_A_c.gif","images/stimuli/spore_stims/complex_15_B_c.gif","","","","","1","complex_similar","images/stimuli/spore_stims/complex_15_B_c.gif","left","","","","",""
"","null","html-keyboard-response","34","175552","0.0-11.0-0.4","SS1613100435387","","","null","","","","","<p><img src= images/blank.png width =""200"" height = ""200"" style = ""float:right""></p><p><img src=images/blank.png width =""800"" height = ""200""></p>","","","","","","","","","","","",""
"","4997.95499999891","sequential-stimulus-presentation","35","181357","0.0-11.0-1.4","SS1613100435387","trial","","40","800","5797.95499999891","images/stimuli/spore_stims/complex_15_A_c.gif","images/stimuli/spore_stims/complex_15_B_c.gif","","","","","1","complex_similar","images/stimuli/spore_stims/complex_15_B_c.gif","left","","","","",""
"","null","html-keyboard-response","36","182246","0.0-11.0-0.5","SS1613100435387","","","null","","","","","<p><img src= images/blank.png width =""200"" height = ""200"" style = ""float:right""></p><p><img src=images/blank.png width =""800"" height = ""200""></p>","","","","","","","","","","","",""
"","4689.449999998033","sequential-stimulus-presentation","37","187740","0.0-11.0-1.5","SS1613100435387","trial","","40","800","5489.449999998033","images/stimuli/spore_stims/complex_15_A_c.gif","images/stimuli/spore_stims/complex_15_B_c.gif","","","","","1","complex_similar","images/stimuli/spore_stims/complex_15_B_c.gif","left","","","","",""
"","null","html-keyboard-response","38","188942","0.0-11.0-0.6","SS1613100435387","","","null","","","","","<p><img src= images/blank.png width =""200"" height = ""200"" style = ""float:right""></p><p><img src=images/blank.png width =""800"" height = ""200""></p>","","","","","","","","","","","",""
"","3162.2649999990244","sequential-stimulus-presentation","39","192909","0.0-11.0-1.6","SS1613100435387","trial","","40","800","3962.2649999990244","images/stimuli/spore_stims/complex_15_A_c.gif","images/stimuli/spore_stims/complex_15_B_c.gif","","","","","1","complex_similar","images/stimuli/spore_stims/complex_15_B_c.gif","left","","","","",""
"","null","html-keyboard-response","40","193913","0.0-11.0-0.7","SS1613100435387","","","null","","","","","<p><img src= images/blank.png width =""200"" height = ""200"" style = ""float:right""></p><p><img src=images/blank.png width =""800"" height = ""200""></p>","","","","","","","","","","","",""
"","10891.804999999295","sequential-stimulus-presentation","41","205612","0.0-11.0-1.7","SS1613100435387","trial","","40","800","11691.804999999295","images/stimuli/spore_stims/complex_15_A_c.gif","images/stimuli/spore_stims/complex_15_B_c.gif","","","","","1","complex_similar","images/stimuli/spore_stims/complex_15_A_c.gif","middle","","","","",""
"","1028.5099999964586","html-keyboard-response","42","206644","0.0-12.0","SS1613100435387","pref_question","","97","","","","","<video width ='960' height = '540' style='padding-top:8%' autoplay muted><source src='images/stimuli/wall_pref.mp4' type='video/mp4'></video>","1","left","25%","1","","","","","","","",""
"","8520.240000005288","sequential-stimulus-presentation","43","215981","0.0-13.0","SS1613100435387","pref_reveal","","40","800","9320.240000005288","null","null","","","","","1","","","","background","","","",""
"","null","html-keyboard-response","44","217067","0.0-14.0-0.0","SS1613100435387","","","null","","","","","<p><img src= images/blank.png width =""200"" height = ""200"" style = ""float:right""></p><p><img src=images/blank.png width =""800"" height = ""200""></p>","","","","","","","","","","","",""
"","2963.864999997895","sequential-stimulus-presentation","45","220836","0.0-14.0-1.0","SS1613100435387","trial","","40","800","3763.864999997895","images/stimuli/spore_stims/complex_12_A_c.gif","images/stimuli/spore_stims/complex_20_B_c.gif","","","","","2","complex_dissimilar","images/stimuli/spore_stims/complex_20_B_c.gif","middle","","","","",""
"","null","html-keyboard-response","46","221868","0.0-14.0-0.1","SS1613100435387","","","null","","","","","<p><img src= images/blank.png width =""200"" height = ""200"" style = ""float:right""></p><p><img src=images/blank.png width =""800"" height = ""200""></p>","","","","","","","","","","","",""
"","2627.0950000034645","sequential-stimulus-presentation","47","225299","0.0-14.0-1.1","SS1613100435387","trial","","40","800","3427.0950000034645","images/stimuli/spore_stims/complex_12_A_c.gif","images/stimuli/spore_stims/complex_20_B_c.gif","","","","","2","complex_dissimilar","images/stimuli/spore_stims/complex_20_B_c.gif","middle","","","","",""
"","null","html-keyboard-response","48","226548","0.0-14.0-0.2","SS1613100435387","","","null","","","","","<p><img src= images/blank.png width =""200"" height = ""200"" style = ""float:right""></p><p><img src=images/blank.png width =""800"" height = ""200""></p>","","","","","","","","","","","",""
"","6843.144999998913","sequential-stimulus-presentation","49","234195","0.0-14.0-1.2","SS1613100435387","trial","","40","800","7643.144999998913","images/stimuli/spore_stims/complex_12_A_c.gif","images/stimuli/spore_stims/complex_20_B_c.gif","","","","","2","complex_dissimilar","images/stimuli/spore_stims/complex_12_A_c.gif","left","","","","",""
"","null","html-keyboard-response","50","235394","0.0-14.0-0.3","SS1613100435387","","","null","","","","","<p><img src= images/blank.png width =""200"" height = ""200"" style = ""float:right""></p><p><img src=images/blank.png width =""800"" height = ""200""></p>","","","","","","","","","","","",""
"","5867.769999997108","sequential-stimulus-presentation","51","242067","0.0-14.0-1.3","SS1613100435387","trial","","40","800","6667.769999997108","images/stimuli/spore_stims/complex_12_A_c.gif","images/stimuli/spore_stims/complex_20_B_c.gif","","","","","2","complex_dissimilar","images/stimuli/spore_stims/complex_20_B_c.gif","middle","","","","",""
"","null","html-keyboard-response","52","243012","0.0-14.0-0.4","SS1613100435387","","","null","","","","","<p><img src= images/blank.png width =""200"" height = ""200"" style = ""float:right""></p><p><img src=images/blank.png width =""800"" height = ""200""></p>","","","","","","","","","","","",""
"","531.0199999948964","sequential-stimulus-presentation","53","244347","0.0-14.0-1.4","SS1613100435387","trial","","40","800","1331.0199999948964","images/stimuli/spore_stims/complex_12_A_c.gif","images/stimuli/spore_stims/complex_20_B_c.gif","","","","","2","complex_dissimilar","images/stimuli/spore_stims/complex_20_B_c.gif","middle","","","","",""
"","null","html-keyboard-response","54","245461","0.0-14.0-0.5","SS1613100435387","","","null","","","","","<p><img src= images/blank.png width =""200"" height = ""200"" style = ""float:right""></p><p><img src=images/blank.png width =""800"" height = ""200""></p>","","","","","","","","","","","",""
"","888.2549999980256","sequential-stimulus-presentation","55","247155","0.0-14.0-1.5","SS1613100435387","trial","","40","800","1688.2549999980256","images/stimuli/spore_stims/complex_12_A_c.gif","images/stimuli/spore_stims/complex_20_B_c.gif","","","","","2","complex_dissimilar","images/stimuli/spore_stims/complex_20_B_c.gif","middle","","","","",""
"","null","html-keyboard-response","56","248060","0.0-14.0-0.6","SS1613100435387","","","null","","","","","<p><img src= images/blank.png width =""200"" height = ""200"" style = ""float:right""></p><p><img src=images/blank.png width =""800"" height = ""200""></p>","","","","","","","","","","","",""
"","2775.9599999990314","sequential-stimulus-presentation","57","251643","0.0-14.0-1.6","SS1613100435387","trial","","40","800","3575.9599999990314","images/stimuli/spore_stims/complex_12_A_c.gif","images/stimuli/spore_stims/complex_20_B_c.gif","","","","","2","complex_dissimilar","images/stimuli/spore_stims/complex_20_B_c.gif","middle","","","","",""
"","null","html-keyboard-response","58","252941","0.0-14.0-0.7","SS1613100435387","","","null","","","","","<p><img src= images/blank.png width =""200"" height = ""200"" style = ""float:right""></p><p><img src=images/blank.png width =""800"" height = ""200""></p>","","","","","","","","","","","",""
"","4288.530000005267","sequential-stimulus-presentation","59","258035","0.0-14.0-1.7","SS1613100435387","trial","","40","800","5088.530000005267","images/stimuli/spore_stims/complex_12_A_c.gif","images/stimuli/spore_stims/complex_20_B_c.gif","","","","","2","complex_dissimilar","images/stimuli/spore_stims/complex_20_B_c.gif","middle","","","","",""
"","1172.7300000056857","html-keyboard-response","60","259211","0.0-15.0","SS1613100435387","pref_question","","99","","","","","<video width ='960' height = '540' style='padding-top:8%' autoplay muted><source src='images/stimuli/wall_pref.mp4' type='video/mp4'></video>","3","right","66%","2","","","","","","","",""
"","26170.9800000026","sequential-stimulus-presentation","61","286188","0.0-16.0","SS1613100435387","pref_reveal","","40","800","26970.9800000026","null","null","","","","","2","","","","novel","","","",""
"","null","html-keyboard-response","62","287339","0.0-17.0-0.0","SS1613100435387","","","null","","","","","<p><img src= images/blank.png width =""200"" height = ""200"" style = ""float:right""></p><p><img src=images/blank.png width =""800"" height = ""200""></p>","","","","","","","","","","","",""
"","6753.12500000291","sequential-stimulus-presentation","63","294899","0.0-17.0-1.0","SS1613100435387","trial","","40","800","7553.12500000291","images/stimuli/spore_stims/complex_04_A_c.gif","images/stimuli/spore_stims/complex_04_B_c.gif","","","","","3","complex_similar","images/stimuli/spore_stims/complex_04_B_c.gif","middle","","","","",""
"","null","html-keyboard-response","64","296052","0.0-17.0-0.1","SS1613100435387","","","null","","","","","<p><img src= images/blank.png width =""200"" height = ""200"" style = ""float:right""></p><p><img src=images/blank.png width =""800"" height = ""200""></p>","","","","","","","","","","","",""
"","5670.044999998936","sequential-stimulus-presentation","65","302531","0.0-17.0-1.1","SS1613100435387","trial","","40","800","6470.044999998936","images/stimuli/spore_stims/complex_04_A_c.gif","images/stimuli/spore_stims/complex_04_B_c.gif","","","","","3","complex_similar","images/stimuli/spore_stims/complex_04_B_c.gif","middle","","","","",""
"","null","html-keyboard-response","66","303631","0.0-17.0-0.2","SS1613100435387","","","null","","","","","<p><img src= images/blank.png width =""200"" height = ""200"" style = ""float:right""></p><p><img src=images/blank.png width =""800"" height = ""200""></p>","","","","","","","","","","","",""
"","1239.6200000002864","sequential-stimulus-presentation","67","305675","0.0-17.0-1.2","SS1613100435387","trial","","40","800","2039.6200000002864","images/stimuli/spore_stims/complex_04_A_c.gif","images/stimuli/spore_stims/complex_04_B_c.gif","","","","","3","complex_similar","images/stimuli/spore_stims/complex_04_B_c.gif","middle","","","","",""
"","null","html-keyboard-response","68","306737","0.0-17.0-0.3","SS1613100435387","","","null","","","","","<p><img src= images/blank.png width =""200"" height = ""200"" style = ""float:right""></p><p><img src=images/blank.png width =""800"" height = ""200""></p>","","","","","","","","","","","",""
"","685.925000005227","sequential-stimulus-presentation","69","308228","0.0-17.0-1.3","SS1613100435387","trial","","40","800","1485.925000005227","images/stimuli/spore_stims/complex_04_A_c.gif","images/stimuli/spore_stims/complex_04_B_c.gif","","","","","3","complex_similar","images/stimuli/spore_stims/complex_04_B_c.gif","middle","","","","",""
"","null","html-keyboard-response","70","309198","0.0-17.0-0.4","SS1613100435387","","","null","","","","","<p><img src= images/blank.png width =""200"" height = ""200"" style = ""float:right""></p><p><img src=images/blank.png width =""800"" height = ""200""></p>","","","","","","","","","","","",""
"","7630.679999994754","sequential-stimulus-presentation","71","317635","0.0-17.0-1.4","SS1613100435387","trial","","40","800","8430.679999994754","images/stimuli/spore_stims/complex_04_A_c.gif","images/stimuli/spore_stims/complex_04_B_c.gif","","","","","3","complex_similar","images/stimuli/spore_stims/complex_04_A_c.gif","right","","","","",""
"","null","html-keyboard-response","72","318478","0.0-17.0-0.5","SS1613100435387","","","null","","","","","<p><img src= images/blank.png width =""200"" height = ""200"" style = ""float:right""></p><p><img src=images/blank.png width =""800"" height = ""200""></p>","","","","","","","","","","","",""
"","2280.095000001893","sequential-stimulus-presentation","73","321563","0.0-17.0-1.5","SS1613100435387","trial","","40","800","3080.095000001893","images/stimuli/spore_stims/complex_04_A_c.gif","images/stimuli/spore_stims/complex_04_B_c.gif","","","","","3","complex_similar","images/stimuli/spore_stims/complex_04_B_c.gif","middle","","","","",""
"","null","html-keyboard-response","74","322821","0.0-17.0-0.6","SS1613100435387","","","null","","","","","<p><img src= images/blank.png width =""200"" height = ""200"" style = ""float:right""></p><p><img src=images/blank.png width =""800"" height = ""200""></p>","","","","","","","","","","","",""
"","841.0949999961304","sequential-stimulus-presentation","75","324468","0.0-17.0-1.6","SS1613100435387","trial","","40","800","1641.0949999961304","images/stimuli/spore_stims/complex_04_A_c.gif","images/stimuli/spore_stims/complex_04_B_c.gif","","","","","3","complex_similar","images/stimuli/spore_stims/complex_04_B_c.gif","middle","","","","",""
"","null","html-keyboard-response","76","325692","0.0-17.0-0.7","SS1613100435387","","","null","","","","","<p><img src= images/blank.png width =""200"" height = ""200"" style = ""float:right""></p><p><img src=images/blank.png width =""800"" height = ""200""></p>","","","","","","","","","","","",""
"","841.8400000009569","sequential-stimulus-presentation","77","327338","0.0-17.0-1.7","SS1613100435387","trial","","40","800","1641.840000000957","images/stimuli/spore_stims/complex_04_A_c.gif","images/stimuli/spore_stims/complex_04_B_c.gif","","","","","3","complex_similar","images/stimuli/spore_stims/complex_04_B_c.gif","middle","","","","",""
"","1068.3199999984936","html-keyboard-response","78","328410","0.0-18.0","SS1613100435387","pref_question","","99","","","","","<video width ='960' height = '540' style='padding-top:8%' autoplay muted><source src='images/stimuli/wall_pref.mp4' type='video/mp4'></video>","3","right","66%","3","","","","","","","",""
"","8162.299999996321","sequential-stimulus-presentation","79","337377","0.0-19.0","SS1613100435387","pref_reveal","","40","800","8962.299999996321","null","null","","","","","3","","","","deviant","","","",""
"","null","html-keyboard-response","80","338374","0.0-20.0-0.0","SS1613100435387","","","null","","","","","<p><img src= images/blank.png width =""200"" height = ""200"" style = ""float:right""></p><p><img src=images/blank.png width =""800"" height = ""200""></p>","","","","","","","","","","","",""
"","9353.774999995949","sequential-stimulus-presentation","81","348538","0.0-20.0-1.0","SS1613100435387","trial","","40","800","10153.774999995949","images/stimuli/spore_stims/simple_13_A_a.gif","images/stimuli/spore_stims/simple_13_B_a.gif","","","","","4","simple_similar","images/stimuli/spore_stims/simple_13_B_a.gif","middle","","","","",""
"","null","html-keyboard-response","82","349822","0.0-20.0-0.1","SS1613100435387","","","null","","","","","<p><img src= images/blank.png width =""200"" height = ""200"" style = ""float:right""></p><p><img src=images/blank.png width =""800"" height = ""200""></p>","","","","","","","","","","","",""
"","5790.119999997842","sequential-stimulus-presentation","83","356417","0.0-20.0-1.1","SS1613100435387","trial","","40","800","6590.119999997842","images/stimuli/spore_stims/simple_13_A_a.gif","images/stimuli/spore_stims/simple_13_B_a.gif","","","","","4","simple_similar","images/stimuli/spore_stims/simple_13_B_a.gif","middle","","","","",""
"","null","html-keyboard-response","84","357686","0.0-20.0-0.2","SS1613100435387","","","null","","","","","<p><img src= images/blank.png width =""200"" height = ""200"" style = ""float:right""></p><p><img src=images/blank.png width =""800"" height = ""200""></p>","","","","","","","","","","","",""
"","5387.684999994235","sequential-stimulus-presentation","85","363882","0.0-20.0-1.2","SS1613100435387","trial","","40","800","6187.684999994235","images/stimuli/spore_stims/simple_13_A_a.gif","images/stimuli/spore_stims/simple_13_B_a.gif","","","","","4","simple_similar","images/stimuli/spore_stims/simple_13_B_a.gif","middle","","","","",""
"","null","html-keyboard-response","86","364770","0.0-20.0-0.3","SS1613100435387","","","null","","","","","<p><img src= images/blank.png width =""200"" height = ""200"" style = ""float:right""></p><p><img src=images/blank.png width =""800"" height = ""200""></p>","","","","","","","","","","","",""
"","4394.119999997201","sequential-stimulus-presentation","87","369969","0.0-20.0-1.3","SS1613100435387","trial","","40","800","5194.119999997201","images/stimuli/spore_stims/simple_13_A_a.gif","images/stimuli/spore_stims/simple_13_B_a.gif","","","","","4","simple_similar","images/stimuli/spore_stims/simple_13_B_a.gif","middle","","","","",""
"","null","html-keyboard-response","88","370829","0.0-20.0-0.4","SS1613100435387","","","null","","","","","<p><img src= images/blank.png width =""200"" height = ""200"" style = ""float:right""></p><p><img src=images/blank.png width =""800"" height = ""200""></p>","","","","","","","","","","","",""
"","4262.970000003406","sequential-stimulus-presentation","89","375897","0.0-20.0-1.4","SS1613100435387","trial","","40","800","5062.970000003406","images/stimuli/spore_stims/simple_13_A_a.gif","images/stimuli/spore_stims/simple_13_B_a.gif","","","","","4","simple_similar","images/stimuli/spore_stims/simple_13_B_a.gif","middle","","","","",""
"","null","html-keyboard-response","90","376982","0.0-20.0-0.5","SS1613100435387","","","null","","","","","<p><img src= images/blank.png width =""200"" height = ""200"" style = ""float:right""></p><p><img src=images/blank.png width =""800"" height = ""200""></p>","","","","","","","","","","","",""
"","3588.6199999949895","sequential-stimulus-presentation","91","381378","0.0-20.0-1.5","SS1613100435387","trial","","40","800","4388.6199999949895","images/stimuli/spore_stims/simple_13_A_a.gif","images/stimuli/spore_stims/simple_13_B_a.gif","","","","","4","simple_similar","images/stimuli/spore_stims/simple_13_B_a.gif","middle","","","","",""
"","null","html-keyboard-response","92","382516","0.0-20.0-0.6","SS1613100435387","","","null","","","","","<p><img src= images/blank.png width =""200"" height = ""200"" style = ""float:right""></p><p><img src=images/blank.png width =""800"" height = ""200""></p>","","","","","","","","","","","",""
"","10719.989999997779","sequential-stimulus-presentation","93","394041","0.0-20.0-1.6","SS1613100435387","trial","","40","800","11519.989999997779","images/stimuli/spore_stims/simple_13_A_a.gif","images/stimuli/spore_stims/simple_13_B_a.gif","","","","","4","simple_similar","images/stimuli/spore_stims/simple_13_A_a.gif","left","","","","",""
"","null","html-keyboard-response","94","394887","0.0-20.0-0.7","SS1613100435387","","","null","","","","","<p><img src= images/blank.png width =""200"" height = ""200"" style = ""float:right""></p><p><img src=images/blank.png width =""800"" height = ""200""></p>","","","","","","","","","","","",""
"","3180.4600000032224","sequential-stimulus-presentation","95","398874","0.0-20.0-1.7","SS1613100435387","trial","","40","800","3980.4600000032224","images/stimuli/spore_stims/simple_13_A_a.gif","images/stimuli/spore_stims/simple_13_B_a.gif","","","","","4","simple_similar","images/stimuli/spore_stims/simple_13_B_a.gif","middle","","","","",""
"","1242.7049999969313","html-keyboard-response","96","400121","0.0-21.0","SS1613100435387","pref_question","","97","","","","","<video width ='960' height = '540' style='padding-top:8%' autoplay muted><source src='images/stimuli/wall_pref.mp4' type='video/mp4'></video>","1","left","25%","4","","","","","","","",""
"","9779.81500000169","sequential-stimulus-presentation","97","410707","0.0-22.0","SS1613100435387","pref_reveal","","40","800","10579.81500000169","null","null","","","","","4","","","","deviant","","","",""
"","null","html-keyboard-response","98","411919","0.0-23.0-0.0","SS1613100435387","","","null","","","","","<p><img src= images/blank.png width =""200"" height = ""200"" style = ""float:right""></p><p><img src=images/blank.png width =""800"" height = ""200""></p>","","","","","","","","","","","",""
"","8163.860000000568","sequential-stimulus-presentation","99","420889","0.0-23.0-1.0","SS1613100435387","trial","","40","800","8963.860000000568","images/stimuli/spore_stims/complex_03_B_c.gif","images/stimuli/spore_stims/complex_03_A_c.gif","","","","","5","complex_similar","images/stimuli/spore_stims/complex_03_A_c.gif","right","","","","",""
"","null","html-keyboard-response","100","422126","0.0-23.0-0.1","SS1613100435387","","","null","","","","","<p><img src= images/blank.png width =""200"" height = ""200"" style = ""float:right""></p><p><img src=images/blank.png width =""800"" height = ""200""></p>","","","","","","","","","","","",""
"","6446.015000001353","sequential-stimulus-presentation","101","429377","0.0-23.0-1.1","SS1613100435387","trial","","40","800","7246.015000001353","images/stimuli/spore_stims/complex_03_B_c.gif","images/stimuli/spore_stims/complex_03_A_c.gif","","","","","5","complex_similar","images/stimuli/spore_stims/complex_03_A_c.gif","right","","","","",""
"","null","html-keyboard-response","102","430517","0.0-23.0-0.2","SS1613100435387","","","null","","","","","<p><img src= images/blank.png width =""200"" height = ""200"" style = ""float:right""></p><p><img src=images/blank.png width =""800"" height = ""200""></p>","","","","","","","","","","","",""
"","3742.2000000005937","sequential-stimulus-presentation","103","435065","0.0-23.0-1.2","SS1613100435387","trial","","40","800","4542.200000000594","images/stimuli/spore_stims/complex_03_B_c.gif","images/stimuli/spore_stims/complex_03_A_c.gif","","","","","5","complex_similar","images/stimuli/spore_stims/complex_03_A_c.gif","right","","","","",""
"","null","html-keyboard-response","104","435919","0.0-23.0-0.3","SS1613100435387","","","null","","","","","<p><img src= images/blank.png width =""200"" height = ""200"" style = ""float:right""></p><p><img src=images/blank.png width =""800"" height = ""200""></p>","","","","","","","","","","","",""
"","4331.8750000034925","sequential-stimulus-presentation","105","441057","0.0-23.0-1.3","SS1613100435387","trial","","40","800","5131.8750000034925","images/stimuli/spore_stims/complex_03_B_c.gif","images/stimuli/spore_stims/complex_03_A_c.gif","","","","","5","complex_similar","images/stimuli/spore_stims/complex_03_A_c.gif","right","","","","",""
"","null","html-keyboard-response","106","442283","0.0-23.0-0.4","SS1613100435387","","","null","","","","","<p><img src= images/blank.png width =""200"" height = ""200"" style = ""float:right""></p><p><img src=images/blank.png width =""800"" height = ""200""></p>","","","","","","","","","","","",""
"","4137.314999999944","sequential-stimulus-presentation","107","447225","0.0-23.0-1.4","SS1613100435387","trial","","40","800","4937.314999999944","images/stimuli/spore_stims/complex_03_B_c.gif","images/stimuli/spore_stims/complex_03_A_c.gif","","","","","5","complex_similar","images/stimuli/spore_stims/complex_03_A_c.gif","right","","","","",""
"","null","html-keyboard-response","108","448386","0.0-23.0-0.5","SS1613100435387","","","null","","","","","<p><img src= images/blank.png width =""200"" height = ""200"" style = ""float:right""></p><p><img src=images/blank.png width =""800"" height = ""200""></p>","","","","","","","","","","","",""
"","12753.355000000738","sequential-stimulus-presentation","109","461944","0.0-23.0-1.5","SS1613100435387","trial","","40","800","13553.355000000738","images/stimuli/spore_stims/complex_03_B_c.gif","images/stimuli/spore_stims/complex_03_A_c.gif","","","","","5","complex_similar","images/stimuli/spore_stims/complex_03_B_c.gif","middle","","","","",""
"","null","html-keyboard-response","110","463154","0.0-23.0-0.6","SS1613100435387","","","null","","","","","<p><img src= images/blank.png width =""200"" height = ""200"" style = ""float:right""></p><p><img src=images/blank.png width =""800"" height = ""200""></p>","","","","","","","","","","","",""
"","5432.335000004969","sequential-stimulus-presentation","111","469392","0.0-23.0-1.6","SS1613100435387","trial","","40","800","6232.335000004969","images/stimuli/spore_stims/complex_03_B_c.gif","images/stimuli/spore_stims/complex_03_A_c.gif","","","","","5","complex_similar","images/stimuli/spore_stims/complex_03_A_c.gif","right","","","","",""
"","null","html-keyboard-response","112","470630","0.0-23.0-0.7","SS1613100435387","","","null","","","","","<p><img src= images/blank.png width =""200"" height = ""200"" style = ""float:right""></p><p><img src=images/blank.png width =""800"" height = ""200""></p>","","","","","","","","","","","",""
"","2715.9299999984796","sequential-stimulus-presentation","113","474152","0.0-23.0-1.7","SS1613100435387","trial","","40","800","3515.9299999984796","images/stimuli/spore_stims/complex_03_B_c.gif","images/stimuli/spore_stims/complex_03_A_c.gif","","","","","5","complex_similar","images/stimuli/spore_stims/complex_03_A_c.gif","right","","","","",""
"","1123.955000002752","html-keyboard-response","114","475280","0.0-24.0","SS1613100435387","pref_question","","98","","","","","<video width ='960' height = '540' style='padding-top:8%' autoplay muted><source src='images/stimuli/wall_pref.mp4' type='video/mp4'></video>","2","middle","45%","5","","","","","","","",""
"","11714.585000001534","sequential-stimulus-presentation","115","487800","0.0-25.0","SS1613100435387","pref_reveal","","40","800","12514.585000001534","null","null","","","","","5","","","","deviant","","","",""
"","null","html-keyboard-response","116","488606","0.0-26.0-0.0","SS1613100435387","","","null","","","","","<p><img src= images/blank.png width =""200"" height = ""200"" style = ""float:right""></p><p><img src=images/blank.png width =""800"" height = ""200""></p>","","","","","","","","","","","",""
"","4811.799999995856","sequential-stimulus-presentation","117","494224","0.0-26.0-1.0","SS1613100435387","trial","","40","800","5611.799999995856","images/stimuli/spore_stims/simple_17_A_d.gif","images/stimuli/spore_stims/simple_18_B_d.gif","","","","","6","simple_dissimilar","images/stimuli/spore_stims/simple_18_B_d.gif","right","","","","",""
"","null","html-keyboard-response","118","495493","0.0-26.0-0.1","SS1613100435387","","","null","","","","","<p><img src= images/blank.png width =""200"" height = ""200"" style = ""float:right""></p><p><img src=images/blank.png width =""800"" height = ""200""></p>","","","","","","","","","","","",""
"","813.4199999985867","sequential-stimulus-presentation","119","497112","0.0-26.0-1.1","SS1613100435387","trial","","40","800","1613.4199999985867","images/stimuli/spore_stims/simple_17_A_d.gif","images/stimuli/spore_stims/simple_18_B_d.gif","","","","","6","simple_dissimilar","images/stimuli/spore_stims/simple_18_B_d.gif","right","","","","",""
"","null","html-keyboard-response","120","497991","0.0-26.0-0.2","SS1613100435387","","","null","","","","","<p><img src= images/blank.png width =""200"" height = ""200"" style = ""float:right""></p><p><img src=images/blank.png width =""800"" height = ""200""></p>","","","","","","","","","","","",""
"","987.5099999990198","sequential-stimulus-presentation","121","499784","0.0-26.0-1.2","SS1613100435387","trial","","40","800","1787.5099999990198","images/stimuli/spore_stims/simple_17_A_d.gif","images/stimuli/spore_stims/simple_18_B_d.gif","","","","","6","simple_dissimilar","images/stimuli/spore_stims/simple_18_B_d.gif","right","","","","",""
"","null","html-keyboard-response","122","500610","0.0-26.0-0.3","SS1613100435387","","","null","","","","","<p><img src= images/blank.png width =""200"" height = ""200"" style = ""float:right""></p><p><img src=images/blank.png width =""800"" height = ""200""></p>","","","","","","","","","","","",""
"","7024.165000002482","sequential-stimulus-presentation","123","508439","0.0-26.0-1.3","SS1613100435387","trial","","40","800","7824.165000002482","images/stimuli/spore_stims/simple_17_A_d.gif","images/stimuli/spore_stims/simple_18_B_d.gif","","","","","6","simple_dissimilar","images/stimuli/spore_stims/simple_17_A_d.gif","middle","","","","",""
"","null","html-keyboard-response","124","509453","0.0-26.0-0.4","SS1613100435387","","","null","","","","","<p><img src= images/blank.png width =""200"" height = ""200"" style = ""float:right""></p><p><img src=images/blank.png width =""800"" height = ""200""></p>","","","","","","","","","","","",""
"","373.71499999426305","sequential-stimulus-presentation","125","510632","0.0-26.0-1.4","SS1613100435387","trial","","40","800","1173.714999994263","images/stimuli/spore_stims/simple_17_A_d.gif","images/stimuli/spore_stims/simple_18_B_d.gif","","","","","6","simple_dissimilar","images/stimuli/spore_stims/simple_18_B_d.gif","right","","","","",""
"","null","html-keyboard-response","126","511928","0.0-26.0-0.5","SS1613100435387","","","null","","","","","<p><img src= images/blank.png width =""200"" height = ""200"" style = ""float:right""></p><p><img src=images/blank.png width =""800"" height = ""200""></p>","","","","","","","","","","","",""
"","322.4100000006147","sequential-stimulus-presentation","127","513055","0.0-26.0-1.5","SS1613100435387","trial","","40","800","1122.4100000006147","images/stimuli/spore_stims/simple_17_A_d.gif","images/stimuli/spore_stims/simple_18_B_d.gif","","","","","6","simple_dissimilar","images/stimuli/spore_stims/simple_18_B_d.gif","right","","","","",""
"","null","html-keyboard-response","128","513914","0.0-26.0-0.6","SS1613100435387","","","null","","","","","<p><img src= images/blank.png width =""200"" height = ""200"" style = ""float:right""></p><p><img src=images/blank.png width =""800"" height = ""200""></p>","","","","","","","","","","","",""
"","441.0850000057835","sequential-stimulus-presentation","129","515159","0.0-26.0-1.6","SS1613100435387","trial","","40","800","1241.0850000057835","images/stimuli/spore_stims/simple_17_A_d.gif","images/stimuli/spore_stims/simple_18_B_d.gif","","","","","6","simple_dissimilar","images/stimuli/spore_stims/simple_18_B_d.gif","right","","","","",""
"","null","html-keyboard-response","130","516031","0.0-26.0-0.7","SS1613100435387","","","null","","","","","<p><img src= images/blank.png width =""200"" height = ""200"" style = ""float:right""></p><p><img src=images/blank.png width =""800"" height = ""200""></p>","","","","","","","","","","","",""
"","627.2499999976717","sequential-stimulus-presentation","131","517463","0.0-26.0-1.7","SS1613100435387","trial","","40","800","1427.2499999976717","images/stimuli/spore_stims/simple_17_A_d.gif","images/stimuli/spore_stims/simple_18_B_d.gif","","","","","6","simple_dissimilar","images/stimuli/spore_stims/simple_18_B_d.gif","right","","","","",""
"","1004.505000004312","html-keyboard-response","132","518472","0.0-27.0","SS1613100435387","pref_question","","97","","","","","<video width ='960' height = '540' style='padding-top:8%' autoplay muted><source src='images/stimuli/wall_pref.mp4' type='video/mp4'></video>","1","left","25%","6","","","","","","","",""
"","6273.67000000237","sequential-stimulus-presentation","133","525552","0.0-28.0","SS1613100435387","pref_reveal","","40","800","7073.67000000237","null","null","","","","","6","","","","novel","","","",""
"","null","html-keyboard-response","134","526575","0.0-29.0-0.0","SS1613100435387","","","null","","","","","<p><img src= images/blank.png width =""200"" height = ""200"" style = ""float:right""></p><p><img src=images/blank.png width =""800"" height = ""200""></p>","","","","","","","","","","","",""
"","10290.979999997886","sequential-stimulus-presentation","135","537671","0.0-29.0-1.0","SS1613100435387","trial","","40","800","11090.979999997886","images/stimuli/spore_stims/complex_10_A_d.gif","images/stimuli/spore_stims/complex_10_B_d.gif","","","","","7","complex_similar","images/stimuli/spore_stims/complex_10_B_d.gif","left","","","","",""
"","null","html-keyboard-response","136","538924","0.0-29.0-0.1","SS1613100435387","","","null","","","","","<p><img src= images/blank.png width =""200"" height = ""200"" style = ""float:right""></p><p><img src=images/blank.png width =""800"" height = ""200""></p>","","","","","","","","","","","",""
"","4380.359999995562","sequential-stimulus-presentation","137","544111","0.0-29.0-1.1","SS1613100435387","trial","","40","800","5180.359999995562","images/stimuli/spore_stims/complex_10_A_d.gif","images/stimuli/spore_stims/complex_10_B_d.gif","","","","","7","complex_similar","images/stimuli/spore_stims/complex_10_B_d.gif","left","","","","",""
"","null","html-keyboard-response","138","545038","0.0-29.0-0.2","SS1613100435387","","","null","","","","","<p><img src= images/blank.png width =""200"" height = ""200"" style = ""float:right""></p><p><img src=images/blank.png width =""800"" height = ""200""></p>","","","","","","","","","","","",""
"","4140.180000002147","sequential-stimulus-presentation","139","549983","0.0-29.0-1.2","SS1613100435387","trial","","40","800","4940.180000002147","images/stimuli/spore_stims/complex_10_A_d.gif","images/stimuli/spore_stims/complex_10_B_d.gif","","","","","7","complex_similar","images/stimuli/spore_stims/complex_10_B_d.gif","left","","","","",""
"","null","html-keyboard-response","140","550945","0.0-29.0-0.3","SS1613100435387","","","null","","","","","<p><img src= images/blank.png width =""200"" height = ""200"" style = ""float:right""></p><p><img src=images/blank.png width =""800"" height = ""200""></p>","","","","","","","","","","","",""
"","7311.860000001616","sequential-stimulus-presentation","141","559063","0.0-29.0-1.3","SS1613100435387","trial","","40","800","8111.860000001616","images/stimuli/spore_stims/complex_10_A_d.gif","images/stimuli/spore_stims/complex_10_B_d.gif","","","","","7","complex_similar","images/stimuli/spore_stims/complex_10_A_d.gif","middle","","","","",""
"","null","html-keyboard-response","142","560228","0.0-29.0-0.4","SS1613100435387","","","null","","","","","<p><img src= images/blank.png width =""200"" height = ""200"" style = ""float:right""></p><p><img src=images/blank.png width =""800"" height = ""200""></p>","","","","","","","","","","","",""
"","1896.025000001886","sequential-stimulus-presentation","143","562943","0.0-29.0-1.4","SS1613100435387","trial","","40","800","2696.025000001886","images/stimuli/spore_stims/complex_10_A_d.gif","images/stimuli/spore_stims/complex_10_B_d.gif","","","","","7","complex_similar","images/stimuli/spore_stims/complex_10_B_d.gif","left","","","","",""
"","null","html-keyboard-response","144","563870","0.0-29.0-0.5","SS1613100435387","","","null","","","","","<p><img src= images/blank.png width =""200"" height = ""200"" style = ""float:right""></p><p><img src=images/blank.png width =""800"" height = ""200""></p>","","","","","","","","","","","",""
"","2858.524999996065","sequential-stimulus-presentation","145","567535","0.0-29.0-1.5","SS1613100435387","trial","","40","800","3658.524999996065","images/stimuli/spore_stims/complex_10_A_d.gif","images/stimuli/spore_stims/complex_10_B_d.gif","","","","","7","complex_similar","images/stimuli/spore_stims/complex_10_B_d.gif","left","","","","",""
"","null","html-keyboard-response","146","568741","0.0-29.0-0.6","SS1613100435387","","","null","","","","","<p><img src= images/blank.png width =""200"" height = ""200"" style = ""float:right""></p><p><img src=images/blank.png width =""800"" height = ""200""></p>","","","","","","","","","","","",""
"","812.6550000015413","sequential-stimulus-presentation","147","570359","0.0-29.0-1.6","SS1613100435387","trial","","40","800","1612.6550000015413","images/stimuli/spore_stims/complex_10_A_d.gif","images/stimuli/spore_stims/complex_10_B_d.gif","","","","","7","complex_similar","images/stimuli/spore_stims/complex_10_B_d.gif","left","","","","",""
"","null","html-keyboard-response","148","571583","0.0-29.0-0.7","SS1613100435387","","","null","","","","","<p><img src= images/blank.png width =""200"" height = ""200"" style = ""float:right""></p><p><img src=images/blank.png width =""800"" height = ""200""></p>","","","","","","","","","","","",""
"","731.6499999943189","sequential-stimulus-presentation","149","573120","0.0-29.0-1.7","SS1613100435387","trial","","40","800","1531.649999994319","images/stimuli/spore_stims/complex_10_A_d.gif","images/stimuli/spore_stims/complex_10_B_d.gif","","","","","7","complex_similar","images/stimuli/spore_stims/complex_10_B_d.gif","left","","","","",""
"","1058.7799999993294","html-keyboard-response","150","574183","0.0-30.0","SS1613100435387","pref_question","","99","","","","","<video width ='960' height = '540' style='padding-top:8%' autoplay muted><source src='images/stimuli/wall_pref.mp4' type='video/mp4'></video>","3","right","66%","7","","","","","","","",""
"","6217.570000000764","sequential-stimulus-presentation","151","581207","0.0-31.0","SS1613100435387","pref_reveal","","40","800","7017.570000000764","null","null","","","","","7","","","","novel","","","",""
"","null","html-keyboard-response","152","582266","0.0-32.0-0.0","SS1613100435387","","","null","","","","","<p><img src= images/blank.png width =""200"" height = ""200"" style = ""float:right""></p><p><img src=images/blank.png width =""800"" height = ""200""></p>","","","","","","","","","","","",""
"","6254.83499999973","sequential-stimulus-presentation","153","589328","0.0-32.0-1.0","SS1613100435387","trial","","40","800","7054.83499999973","images/stimuli/spore_stims/complex_06_A_c.gif","images/stimuli/spore_stims/complex_01_B_b.gif","","","","","8","complex_dissimilar","images/stimuli/spore_stims/complex_01_B_b.gif","middle","","","","",""
"","null","html-keyboard-response","154","590632","0.0-32.0-0.1","SS1613100435387","","","null","","","","","<p><img src= images/blank.png width =""200"" height = ""200"" style = ""float:right""></p><p><img src=images/blank.png width =""800"" height = ""200""></p>","","","","","","","","","","","",""
"","5544.390000002808","sequential-stimulus-presentation","155","596983","0.0-32.0-1.1","SS1613100435387","trial","","40","800","6344.390000002808","images/stimuli/spore_stims/complex_06_A_c.gif","images/stimuli/spore_stims/complex_01_B_b.gif","","","","","8","complex_dissimilar","images/stimuli/spore_stims/complex_01_B_b.gif","middle","","","","",""
"","null","html-keyboard-response","156","597912","0.0-32.0-0.2","SS1613100435387","","","null","","","","","<p><img src= images/blank.png width =""200"" height = ""200"" style = ""float:right""></p><p><img src=images/blank.png width =""800"" height = ""200""></p>","","","","","","","","","","","",""
"","2785.0800000014715","sequential-stimulus-presentation","157","601504","0.0-32.0-1.2","SS1613100435387","trial","","40","800","3585.0800000014715","images/stimuli/spore_stims/complex_06_A_c.gif","images/stimuli/spore_stims/complex_01_B_b.gif","","","","","8","complex_dissimilar","images/stimuli/spore_stims/complex_06_A_c.gif","left","","","","",""
"","null","html-keyboard-response","158","602639","0.0-32.0-0.3","SS1613100435387","","","null","","","","","<p><img src= images/blank.png width =""200"" height = ""200"" style = ""float:right""></p><p><img src=images/blank.png width =""800"" height = ""200""></p>","","","","","","","","","","","",""
"","985.1200000048848","sequential-stimulus-presentation","159","604431","0.0-32.0-1.3","SS1613100435387","trial","","40","800","1785.1200000048848","images/stimuli/spore_stims/complex_06_A_c.gif","images/stimuli/spore_stims/complex_01_B_b.gif","","","","","8","complex_dissimilar","images/stimuli/spore_stims/complex_01_B_b.gif","middle","","","","",""
"","null","html-keyboard-response","160","605490","0.0-32.0-0.4","SS1613100435387","","","null","","","","","<p><img src= images/blank.png width =""200"" height = ""200"" style = ""float:right""></p><p><img src=images/blank.png width =""800"" height = ""200""></p>","","","","","","","","","","","",""
"","6584.484999999404","sequential-stimulus-presentation","161","612879","0.0-32.0-1.4","SS1613100435387","trial","","40","800","7384.484999999404","images/stimuli/spore_stims/complex_06_A_c.gif","images/stimuli/spore_stims/complex_01_B_b.gif","","","","","8","complex_dissimilar","images/stimuli/spore_stims/complex_01_B_b.gif","middle","","","","",""
"","null","html-keyboard-response","162","613995","0.0-32.0-0.5","SS1613100435387","","","null","","","","","<p><img src= images/blank.png width =""200"" height = ""200"" style = ""float:right""></p><p><img src=images/blank.png width =""800"" height = ""200""></p>","","","","","","","","","","","",""
"","5290.300000000629","sequential-stimulus-presentation","163","620103","0.0-32.0-1.5","SS1613100435387","trial","","40","800","6090.300000000629","images/stimuli/spore_stims/complex_06_A_c.gif","images/stimuli/spore_stims/complex_01_B_b.gif","","","","","8","complex_dissimilar","images/stimuli/spore_stims/complex_01_B_b.gif","middle","","","","",""
"","null","html-keyboard-response","164","621053","0.0-32.0-0.6","SS1613100435387","","","null","","","","","<p><img src= images/blank.png width =""200"" height = ""200"" style = ""float:right""></p><p><img src=images/blank.png width =""800"" height = ""200""></p>","","","","","","","","","","","",""
"","2860.484999997425","sequential-stimulus-presentation","165","624719","0.0-32.0-1.6","SS1613100435387","trial","","40","800","3660.484999997425","images/stimuli/spore_stims/complex_06_A_c.gif","images/stimuli/spore_stims/complex_01_B_b.gif","","","","","8","complex_dissimilar","images/stimuli/spore_stims/complex_01_B_b.gif","middle","","","","",""
"","null","html-keyboard-response","166","625952","0.0-32.0-0.7","SS1613100435387","","","null","","","","","<p><img src= images/blank.png width =""200"" height = ""200"" style = ""float:right""></p><p><img src=images/blank.png width =""800"" height = ""200""></p>","","","","","","","","","","","",""
"","3481.6849999988917","sequential-stimulus-presentation","167","630240","0.0-32.0-1.7","SS1613100435387","trial","","40","800","4281.684999998892","images/stimuli/spore_stims/complex_06_A_c.gif","images/stimuli/spore_stims/complex_01_B_b.gif","","","","","8","complex_dissimilar","images/stimuli/spore_stims/complex_01_B_b.gif","middle","","","","",""
"","1194.8599999959115","html-keyboard-response","168","631439","0.0-33.0","SS1613100435387","pref_question","","98","","","","","<video width ='960' height = '540' style='padding-top:8%' autoplay muted><source src='images/stimuli/wall_pref.mp4' type='video/mp4'></video>","2","middle","45%","8","","","","","","","",""
"","4434.470000000205","sequential-stimulus-presentation","169","636679","0.0-34.0","SS1613100435387","pref_reveal","","40","800","5234.470000000205","null","null","","","","","8","","","","background","","","",""
"","null","html-keyboard-response","170","637857","0.0-35.0-0.0","SS1613100435387","","","null","","","","","<p><img src= images/blank.png width =""200"" height = ""200"" style = ""float:right""></p><p><img src=images/blank.png width =""800"" height = ""200""></p>","","","","","","","","","","","",""
"","2181.1450000022305","sequential-stimulus-presentation","171","640854","0.0-35.0-1.0","SS1613100435387","trial","","40","800","2981.1450000022305","images/stimuli/spore_stims/simple_02_A_b.gif","images/stimuli/spore_stims/simple_09_A_a.gif","","","","","9","simple_dissimilar","images/stimuli/spore_stims/simple_09_A_a.gif","left","","","","",""
"","null","html-keyboard-response","172","641816","0.0-35.0-0.1","SS1613100435387","","","null","","","","","<p><img src= images/blank.png width =""200"" height = ""200"" style = ""float:right""></p><p><img src=images/blank.png width =""800"" height = ""200""></p>","","","","","","","","","","","",""
"","3215.804999999935","sequential-stimulus-presentation","173","645838","0.0-35.0-1.1","SS1613100435387","trial","","40","800","4015.804999999935","images/stimuli/spore_stims/simple_02_A_b.gif","images/stimuli/spore_stims/simple_09_A_a.gif","","","","","9","simple_dissimilar","images/stimuli/spore_stims/simple_09_A_a.gif","left","","","","",""
"","null","html-keyboard-response","174","646734","0.0-35.0-0.2","SS1613100435387","","","null","","","","","<p><img src= images/blank.png width =""200"" height = ""200"" style = ""float:right""></p><p><img src=images/blank.png width =""800"" height = ""200""></p>","","","","","","","","","","","",""
"","675.5500000000466","sequential-stimulus-presentation","175","648214","0.0-35.0-1.2","SS1613100435387","trial","","40","800","1475.5500000000466","images/stimuli/spore_stims/simple_02_A_b.gif","images/stimuli/spore_stims/simple_09_A_a.gif","","","","","9","simple_dissimilar","images/stimuli/spore_stims/simple_09_A_a.gif","left","","","","",""
"","null","html-keyboard-response","176","649285","0.0-35.0-0.3","SS1613100435387","","","null","","","","","<p><img src= images/blank.png width =""200"" height = ""200"" style = ""float:right""></p><p><img src=images/blank.png width =""800"" height = ""200""></p>","","","","","","","","","","","",""
"","283.9850000019651","sequential-stimulus-presentation","177","650374","0.0-35.0-1.3","SS1613100435387","trial","","40","800","1083.985000001965","images/stimuli/spore_stims/simple_02_A_b.gif","images/stimuli/spore_stims/simple_09_A_a.gif","","","","","9","simple_dissimilar","images/stimuli/spore_stims/simple_09_A_a.gif","left","","","","",""
"","null","html-keyboard-response","178","651275","0.0-35.0-0.4","SS1613100435387","","","null","","","","","<p><img src= images/blank.png width =""200"" height = ""200"" style = ""float:right""></p><p><img src=images/blank.png width =""800"" height = ""200""></p>","","","","","","","","","","","",""
"","894.1550000017742","sequential-stimulus-presentation","179","652974","0.0-35.0-1.4","SS1613100435387","trial","","40","800","1694.1550000017742","images/stimuli/spore_stims/simple_02_A_b.gif","images/stimuli/spore_stims/simple_09_A_a.gif","","","","","9","simple_dissimilar","images/stimuli/spore_stims/simple_09_A_a.gif","left","","","","",""
"","null","html-keyboard-response","180","653914","0.0-35.0-0.5","SS1613100435387","","","null","","","","","<p><img src= images/blank.png width =""200"" height = ""200"" style = ""float:right""></p><p><img src=images/blank.png width =""800"" height = ""200""></p>","","","","","","","","","","","",""
"","1466.6199999991804","sequential-stimulus-presentation","181","656189","0.0-35.0-1.5","SS1613100435387","trial","","40","800","2266.6199999991804","images/stimuli/spore_stims/simple_02_A_b.gif","images/stimuli/spore_stims/simple_09_A_a.gif","","","","","9","simple_dissimilar","images/stimuli/spore_stims/simple_02_A_b.gif","middle","","","","",""
"","null","html-keyboard-response","182","657479","0.0-35.0-0.6","SS1613100435387","","","null","","","","","<p><img src= images/blank.png width =""200"" height = ""200"" style = ""float:right""></p><p><img src=images/blank.png width =""800"" height = ""200""></p>","","","","","","","","","","","",""
"","311.47499999497086","sequential-stimulus-presentation","183","658599","0.0-35.0-1.6","SS1613100435387","trial","","40","800","1111.4749999949709","images/stimuli/spore_stims/simple_02_A_b.gif","images/stimuli/spore_stims/simple_09_A_a.gif","","","","","9","simple_dissimilar","images/stimuli/spore_stims/simple_09_A_a.gif","left","","","","",""
"","null","html-keyboard-response","184","659555","0.0-35.0-0.7","SS1613100435387","","","null","","","","","<p><img src= images/blank.png width =""200"" height = ""200"" style = ""float:right""></p><p><img src=images/blank.png width =""800"" height = ""200""></p>","","","","","","","","","","","",""
"","363.4200000015553","sequential-stimulus-presentation","185","660726","0.0-35.0-1.7","SS1613100435387","trial","","40","800","1163.4200000015553","images/stimuli/spore_stims/simple_02_A_b.gif","images/stimuli/spore_stims/simple_09_A_a.gif","","","","","9","simple_dissimilar","images/stimuli/spore_stims/simple_09_A_a.gif","left","","","","",""
"","1043.3100000008708","html-keyboard-response","186","661774","0.0-36.0","SS1613100435387","pref_question","","99","","","","","<video width ='960' height = '540' style='padding-top:8%' autoplay muted><source src='images/stimuli/wall_pref.mp4' type='video/mp4'></video>","3","right","66%","9","","","","","","","",""
"","19385.635000005946","sequential-stimulus-presentation","187","681966","0.0-37.0","SS1613100435387","pref_reveal","","40","800","20185.635000005946","null","null","","","","","9","","","","novel","","","",""
"","null","html-keyboard-response","188","683033","0.0-38.0-0.0","SS1613100435387","","","null","","","","","<p><img src= images/blank.png width =""200"" height = ""200"" style = ""float:right""></p><p><img src=images/blank.png width =""800"" height = ""200""></p>","","","","","","","","","","","",""
"","5018.595000001369","sequential-stimulus-presentation","189","688861","0.0-38.0-1.0","SS1613100435387","trial","","40","800","5818.595000001369","images/stimuli/spore_stims/simple_15_B_d.gif","images/stimuli/spore_stims/simple_15_A_d.gif","","","","","10","simple_similar","images/stimuli/spore_stims/simple_15_A_d.gif","right","","","","",""
"","null","html-keyboard-response","190","689892","0.0-38.0-0.1","SS1613100435387","","","null","","","","","<p><img src= images/blank.png width =""200"" height = ""200"" style = ""float:right""></p><p><img src=images/blank.png width =""800"" height = ""200""></p>","","","","","","","","","","","",""
"","1978.3650000026682","sequential-stimulus-presentation","191","692678","0.0-38.0-1.1","SS1613100435387","trial","","40","800","2778.3650000026682","images/stimuli/spore_stims/simple_15_B_d.gif","images/stimuli/spore_stims/simple_15_A_d.gif","","","","","10","simple_similar","images/stimuli/spore_stims/simple_15_A_d.gif","right","","","","",""
"","null","html-keyboard-response","192","693773","0.0-38.0-0.2","SS1613100435387","","","null","","","","","<p><img src= images/blank.png width =""200"" height = ""200"" style = ""float:right""></p><p><img src=images/blank.png width =""800"" height = ""200""></p>","","","","","","","","","","","",""
"","1298.260000003269","sequential-stimulus-presentation","193","695877","0.0-38.0-1.2","SS1613100435387","trial","","40","800","2098.260000003269","images/stimuli/spore_stims/simple_15_B_d.gif","images/stimuli/spore_stims/simple_15_A_d.gif","","","","","10","simple_similar","images/stimuli/spore_stims/simple_15_A_d.gif","right","","","","",""
"","null","html-keyboard-response","194","696849","0.0-38.0-0.3","SS1613100435387","","","null","","","","","<p><img src= images/blank.png width =""200"" height = ""200"" style = ""float:right""></p><p><img src=images/blank.png width =""800"" height = ""200""></p>","","","","","","","","","","","",""
"","2717.935000000638","sequential-stimulus-presentation","195","700373","0.0-38.0-1.3","SS1613100435387","trial","","40","800","3517.935000000638","images/stimuli/spore_stims/simple_15_B_d.gif","images/stimuli/spore_stims/simple_15_A_d.gif","","","","","10","simple_similar","images/stimuli/spore_stims/simple_15_A_d.gif","right","","","","",""
"","null","html-keyboard-response","196","701674","0.0-38.0-0.4","SS1613100435387","","","null","","","","","<p><img src= images/blank.png width =""200"" height = ""200"" style = ""float:right""></p><p><img src=images/blank.png width =""800"" height = ""200""></p>","","","","","","","","","","","",""
"","1047.0800000039162","sequential-stimulus-presentation","197","703528","0.0-38.0-1.4","SS1613100435387","trial","","40","800","1847.0800000039162","images/stimuli/spore_stims/simple_15_B_d.gif","images/stimuli/spore_stims/simple_15_A_d.gif","","","","","10","simple_similar","images/stimuli/spore_stims/simple_15_A_d.gif","right","","","","",""
"","null","html-keyboard-response","198","704701","0.0-38.0-0.5","SS1613100435387","","","null","","","","","<p><img src= images/blank.png width =""200"" height = ""200"" style = ""float:right""></p><p><img src=images/blank.png width =""800"" height = ""200""></p>","","","","","","","","","","","",""
"","3827.0449999981793","sequential-stimulus-presentation","199","709342","0.0-38.0-1.5","SS1613100435387","trial","","40","800","4627.044999998179","images/stimuli/spore_stims/simple_15_B_d.gif","images/stimuli/spore_stims/simple_15_A_d.gif","","","","","10","simple_similar","images/stimuli/spore_stims/simple_15_B_d.gif","middle","","","","",""
"","null","html-keyboard-response","200","710585","0.0-38.0-0.6","SS1613100435387","","","null","","","","","<p><img src= images/blank.png width =""200"" height = ""200"" style = ""float:right""></p><p><img src=images/blank.png width =""800"" height = ""200""></p>","","","","","","","","","","","",""
"","548.7149999971734","sequential-stimulus-presentation","201","711942","0.0-38.0-1.6","SS1613100435387","trial","","40","800","1348.7149999971734","images/stimuli/spore_stims/simple_15_B_d.gif","images/stimuli/spore_stims/simple_15_A_d.gif","","","","","10","simple_similar","images/stimuli/spore_stims/simple_15_A_d.gif","right","","","","",""
"","null","html-keyboard-response","202","713008","0.0-38.0-0.7","SS1613100435387","","","null","","","","","<p><img src= images/blank.png width =""200"" height = ""200"" style = ""float:right""></p><p><img src=images/blank.png width =""800"" height = ""200""></p>","","","","","","","","","","","",""
"","359.465000001248","sequential-stimulus-presentation","203","714174","0.0-38.0-1.7","SS1613100435387","trial","","40","800","1159.465000001248","images/stimuli/spore_stims/simple_15_B_d.gif","images/stimuli/spore_stims/simple_15_A_d.gif","","","","","10","simple_similar","images/stimuli/spore_stims/simple_15_A_d.gif","right","","","","",""
"","1091.8300000047311","html-keyboard-response","204","715286","0.0-39.0","SS1613100435387","pref_question","","97","","","","","<video width ='960' height = '540' style='padding-top:8%' autoplay muted><source src='images/stimuli/wall_pref.mp4' type='video/mp4'></video>","1","left","25%","10","","","","","","","",""
"","2297.2999999983003","sequential-stimulus-presentation","205","718389","0.0-40.0","SS1613100435387","pref_reveal","","40","800","3097.2999999983003","null","null","","","","","10","","","","novel","","","",""
"","null","html-keyboard-response","206","719483","0.0-41.0-0.0","SS1613100435387","","","null","","","","","<p><img src= images/blank.png width =""200"" height = ""200"" style = ""float:right""></p><p><img src=images/blank.png width =""800"" height = ""200""></p>","","","","","","","","","","","",""
"","4692.065000002971","sequential-stimulus-presentation","207","724981","0.0-41.0-1.0","SS1613100435387","trial","","40","800","5492.065000002971","images/stimuli/spore_stims/simple_14_A_c.gif","images/stimuli/spore_stims/simple_14_B_c.gif","","","","","11","simple_similar","images/stimuli/spore_stims/simple_14_B_c.gif","middle","","","","",""
"","null","html-keyboard-response","208","725961","0.0-41.0-0.1","SS1613100435387","","","null","","","","","<p><img src= images/blank.png width =""200"" height = ""200"" style = ""float:right""></p><p><img src=images/blank.png width =""800"" height = ""200""></p>","","","","","","","","","","","",""
"","1198.0600000023842","sequential-stimulus-presentation","209","727965","0.0-41.0-1.1","SS1613100435387","trial","","40","800","1998.0600000023842","images/stimuli/spore_stims/simple_14_A_c.gif","images/stimuli/spore_stims/simple_14_B_c.gif","","","","","11","simple_similar","images/stimuli/spore_stims/simple_14_B_c.gif","middle","","","","",""
"","null","html-keyboard-response","210","729139","0.0-41.0-0.2","SS1613100435387","","","null","","","","","<p><img src= images/blank.png width =""200"" height = ""200"" style = ""float:right""></p><p><img src=images/blank.png width =""800"" height = ""200""></p>","","","","","","","","","","","",""
"","995.8100000004051","sequential-stimulus-presentation","211","730941","0.0-41.0-1.2","SS1613100435387","trial","","40","800","1795.8100000004051","images/stimuli/spore_stims/simple_14_A_c.gif","images/stimuli/spore_stims/simple_14_B_c.gif","","","","","11","simple_similar","images/stimuli/spore_stims/simple_14_B_c.gif","middle","","","","",""
"","null","html-keyboard-response","212","731797","0.0-41.0-0.3","SS1613100435387","","","null","","","","","<p><img src= images/blank.png width =""200"" height = ""200"" style = ""float:right""></p><p><img src=images/blank.png width =""800"" height = ""200""></p>","","","","","","","","","","","",""
"","1355.0150000009453","sequential-stimulus-presentation","213","733957","0.0-41.0-1.3","SS1613100435387","trial","","40","800","2155.0150000009453","images/stimuli/spore_stims/simple_14_A_c.gif","images/stimuli/spore_stims/simple_14_B_c.gif","","","","","11","simple_similar","images/stimuli/spore_stims/simple_14_B_c.gif","middle","","","","",""
"","null","html-keyboard-response","214","735234","0.0-41.0-0.4","SS1613100435387","","","null","","","","","<p><img src= images/blank.png width =""200"" height = ""200"" style = ""float:right""></p><p><img src=images/blank.png width =""800"" height = ""200""></p>","","","","","","","","","","","",""
"","733.1699999994598","sequential-stimulus-presentation","215","736774","0.0-41.0-1.4","SS1613100435387","trial","","40","800","1533.1699999994598","images/stimuli/spore_stims/simple_14_A_c.gif","images/stimuli/spore_stims/simple_14_B_c.gif","","","","","11","simple_similar","images/stimuli/spore_stims/simple_14_B_c.gif","middle","","","","",""
"","null","html-keyboard-response","216","737715","0.0-41.0-0.5","SS1613100435387","","","null","","","","","<p><img src= images/blank.png width =""200"" height = ""200"" style = ""float:right""></p><p><img src=images/blank.png width =""800"" height = ""200""></p>","","","","","","","","","","","",""
"","10899.924999997835","sequential-stimulus-presentation","217","749421","0.0-41.0-1.5","SS1613100435387","trial","","40","800","11699.924999997835","images/stimuli/spore_stims/simple_14_A_c.gif","images/stimuli/spore_stims/simple_14_B_c.gif","","","","","11","simple_similar","images/stimuli/spore_stims/simple_14_A_c.gif","left","","","","",""
"","null","html-keyboard-response","218","750602","0.0-41.0-0.6","SS1613100435387","","","null","","","","","<p><img src= images/blank.png width =""200"" height = ""200"" style = ""float:right""></p><p><img src=images/blank.png width =""800"" height = ""200""></p>","","","","","","","","","","","",""
"","579.2199999996228","sequential-stimulus-presentation","219","751990","0.0-41.0-1.6","SS1613100435387","trial","","40","800","1379.2199999996228","images/stimuli/spore_stims/simple_14_A_c.gif","images/stimuli/spore_stims/simple_14_B_c.gif","","","","","11","simple_similar","images/stimuli/spore_stims/simple_14_B_c.gif","middle","","","","",""
"","null","html-keyboard-response","220","753190","0.0-41.0-0.7","SS1613100435387","","","null","","","","","<p><img src= images/blank.png width =""200"" height = ""200"" style = ""float:right""></p><p><img src=images/blank.png width =""800"" height = ""200""></p>","","","","","","","","","","","",""
"","302.8100000011036","sequential-stimulus-presentation","221","754302","0.0-41.0-1.7","SS1613100435387","trial","","40","800","1102.8100000011036","images/stimuli/spore_stims/simple_14_A_c.gif","images/stimuli/spore_stims/simple_14_B_c.gif","","","","","11","simple_similar","images/stimuli/spore_stims/simple_14_B_c.gif","middle","","","","",""
"","1001.7099999967031","html-keyboard-response","222","755309","0.0-42.0","SS1613100435387","pref_question","","97","","","","","<video width ='960' height = '540' style='padding-top:8%' autoplay muted><source src='images/stimuli/wall_pref.mp4' type='video/mp4'></video>","1","left","25%","11","","","","","","","",""
"","12056.089999998221","sequential-stimulus-presentation","223","768173","0.0-43.0","SS1613100435387","pref_reveal","","40","800","12856.089999998221","null","null","","","","","11","","","","deviant","","","",""
"","null","html-keyboard-response","224","769167","0.0-44.0-0.0","SS1613100435387","","","null","","","","","<p><img src= images/blank.png width =""200"" height = ""200"" style = ""float:right""></p><p><img src=images/blank.png width =""800"" height = ""200""></p>","","","","","","","","","","","",""
"","4392.455000001122","sequential-stimulus-presentation","225","774380","0.0-44.0-1.0","SS1613100435387","trial","","40","800","5192.455000001122","images/stimuli/spore_stims/complex_14_B_a.gif","images/stimuli/spore_stims/complex_14_A_a.gif","","","","","12","complex_similar","images/stimuli/spore_stims/complex_14_A_a.gif","middle","","","","",""
"","null","html-keyboard-response","226","775199","0.0-44.0-0.1","SS1613100435387","","","null","","","","","<p><img src= images/blank.png width =""200"" height = ""200"" style = ""float:right""></p><p><img src=images/blank.png width =""800"" height = ""200""></p>","","","","","","","","","","","",""
"","807.85499999905","sequential-stimulus-presentation","227","776813","0.0-44.0-1.1","SS1613100435387","trial","","40","800","1607.85499999905","images/stimuli/spore_stims/complex_14_B_a.gif","images/stimuli/spore_stims/complex_14_A_a.gif","","","","","12","complex_similar","images/stimuli/spore_stims/complex_14_A_a.gif","middle","","","","",""
"","null","html-keyboard-response","228","777695","0.0-44.0-0.2","SS1613100435387","","","null","","","","","<p><img src= images/blank.png width =""200"" height = ""200"" style = ""float:right""></p><p><img src=images/blank.png width =""800"" height = ""200""></p>","","","","","","","","","","","",""
"","6710.844999994151","sequential-stimulus-presentation","229","785213","0.0-44.0-1.2","SS1613100435387","trial","","40","800","7510.844999994151","images/stimuli/spore_stims/complex_14_B_a.gif","images/stimuli/spore_stims/complex_14_A_a.gif","","","","","12","complex_similar","images/stimuli/spore_stims/complex_14_B_a.gif","left","","","","",""
"","null","html-keyboard-response","230","786281","0.0-44.0-0.3","SS1613100435387","","","null","","","","","<p><img src= images/blank.png width =""200"" height = ""200"" style = ""float:right""></p><p><img src=images/blank.png width =""800"" height = ""200""></p>","","","","","","","","","","","",""
"","828.800000002957","sequential-stimulus-presentation","231","787916","0.0-44.0-1.3","SS1613100435387","trial","","40","800","1628.800000002957","images/stimuli/spore_stims/complex_14_B_a.gif","images/stimuli/spore_stims/complex_14_A_a.gif","","","","","12","complex_similar","images/stimuli/spore_stims/complex_14_A_a.gif","middle","","","","",""
"","null","html-keyboard-response","232","789075","0.0-44.0-0.4","SS1613100435387","","","null","","","","","<p><img src= images/blank.png width =""200"" height = ""200"" style = ""float:right""></p><p><img src=images/blank.png width =""800"" height = ""200""></p>","","","","","","","","","","","",""
"","755.3499999993946","sequential-stimulus-presentation","233","790636","0.0-44.0-1.4","SS1613100435387","trial","","40","800","1555.3499999993946","images/stimuli/spore_stims/complex_14_B_a.gif","images/stimuli/spore_stims/complex_14_A_a.gif","","","","","12","complex_similar","images/stimuli/spore_stims/complex_14_A_a.gif","middle","","","","",""
"","null","html-keyboard-response","234","791667","0.0-44.0-0.5","SS1613100435387","","","null","","","","","<p><img src= images/blank.png width =""200"" height = ""200"" style = ""float:right""></p><p><img src=images/blank.png width =""800"" height = ""200""></p>","","","","","","","","","","","",""
"","662.7200000002049","sequential-stimulus-presentation","235","793149","0.0-44.0-1.5","SS1613100435387","trial","","40","800","1462.720000000205","images/stimuli/spore_stims/complex_14_B_a.gif","images/stimuli/spore_stims/complex_14_A_a.gif","","","","","12","complex_similar","images/stimuli/spore_stims/complex_14_A_a.gif","middle","","","","",""
"","null","html-keyboard-response","236","794390","0.0-44.0-0.6","SS1613100435387","","","null","","","","","<p><img src= images/blank.png width =""200"" height = ""200"" style = ""float:right""></p><p><img src=images/blank.png width =""800"" height = ""200""></p>","","","","","","","","","","","",""
"","502.52000000176486","sequential-stimulus-presentation","237","795700","0.0-44.0-1.6","SS1613100435387","trial","","40","800","1302.5200000017649","images/stimuli/spore_stims/complex_14_B_a.gif","images/stimuli/spore_stims/complex_14_A_a.gif","","","","","12","complex_similar","images/stimuli/spore_stims/complex_14_A_a.gif","middle","","","","",""
"","null","html-keyboard-response","238","796866","0.0-44.0-0.7","SS1613100435387","","","null","","","","","<p><img src= images/blank.png width =""200"" height = ""200"" style = ""float:right""></p><p><img src=images/blank.png width =""800"" height = ""200""></p>","","","","","","","","","","","",""
"","378.5150000038557","sequential-stimulus-presentation","239","798052","0.0-44.0-1.7","SS1613100435387","trial","","40","800","1178.5150000038557","images/stimuli/spore_stims/complex_14_B_a.gif","images/stimuli/spore_stims/complex_14_A_a.gif","","","","","12","complex_similar","images/stimuli/spore_stims/complex_14_A_a.gif","middle","","","","",""
"","963.335000000312","html-keyboard-response","240","799021","0.0-45.0","SS1613100435387","pref_question","","99","","","","","<video width ='960' height = '540' style='padding-top:8%' autoplay muted><source src='images/stimuli/wall_pref.mp4' type='video/mp4'></video>","3","right","66%","12","","","","","","","",""
"","16159.71499999438","sequential-stimulus-presentation","241","815988","0.0-46.0","SS1613100435387","pref_reveal","","40","800","16959.71499999438","null","null","","","","","12","","","","novel","","","",""
"","null","html-keyboard-response","242","816991","0.0-47.0-0.0","SS1613100435387","","","null","","","","","<p><img src= images/blank.png width =""200"" height = ""200"" style = ""float:right""></p><p><img src=images/blank.png width =""800"" height = ""200""></p>","","","","","","","","","","","",""
"","3220.8099999988917","sequential-stimulus-presentation","243","821021","0.0-47.0-1.0","SS1613100435387","trial","","40","800","4020.8099999988917","images/stimuli/spore_stims/simple_19_A_a.gif","images/stimuli/spore_stims/simple_19_B_a.gif","","","","","13","simple_similar","images/stimuli/spore_stims/simple_19_B_a.gif","right","","","","",""
"","null","html-keyboard-response","244","822293","0.0-47.0-0.1","SS1613100435387","","","null","","","","","<p><img src= images/blank.png width =""200"" height = ""200"" style = ""float:right""></p><p><img src=images/blank.png width =""800"" height = ""200""></p>","","","","","","","","","","","",""
"","3561.200000003795","sequential-stimulus-presentation","245","826661","0.0-47.0-1.1","SS1613100435387","trial","","40","800","4361.200000003795","images/stimuli/spore_stims/simple_19_A_a.gif","images/stimuli/spore_stims/simple_19_B_a.gif","","","","","13","simple_similar","images/stimuli/spore_stims/simple_19_B_a.gif","right","","","","",""
"","null","html-keyboard-response","246","827664","0.0-47.0-0.2","SS1613100435387","","","null","","","","","<p><img src= images/blank.png width =""200"" height = ""200"" style = ""float:right""></p><p><img src=images/blank.png width =""800"" height = ""200""></p>","","","","","","","","","","","",""
"","990.0199999974575","sequential-stimulus-presentation","247","829461","0.0-47.0-1.2","SS1613100435387","trial","","40","800","1790.0199999974575","images/stimuli/spore_stims/simple_19_A_a.gif","images/stimuli/spore_stims/simple_19_B_a.gif","","","","","13","simple_similar","images/stimuli/spore_stims/simple_19_B_a.gif","right","","","","",""
"","null","html-keyboard-response","248","830461","0.0-47.0-0.3","SS1613100435387","","","null","","","","","<p><img src= images/blank.png width =""200"" height = ""200"" style = ""float:right""></p><p><img src=images/blank.png width =""800"" height = ""200""></p>","","","","","","","","","","","",""
"","296.6299999970943","sequential-stimulus-presentation","249","831564","0.0-47.0-1.3","SS1613100435387","trial","","40","800","1096.6299999970943","images/stimuli/spore_stims/simple_19_A_a.gif","images/stimuli/spore_stims/simple_19_B_a.gif","","","","","13","simple_similar","images/stimuli/spore_stims/simple_19_B_a.gif","right","","","","",""
"","null","html-keyboard-response","250","832557","0.0-47.0-0.4","SS1613100435387","","","null","","","","","<p><img src= images/blank.png width =""200"" height = ""200"" style = ""float:right""></p><p><img src=images/blank.png width =""800"" height = ""200""></p>","","","","","","","","","","","",""
"","353.41499999770895","sequential-stimulus-presentation","251","833717","0.0-47.0-1.4","SS1613100435387","trial","","40","800","1153.414999997709","images/stimuli/spore_stims/simple_19_A_a.gif","images/stimuli/spore_stims/simple_19_B_a.gif","","","","","13","simple_similar","images/stimuli/spore_stims/simple_19_B_a.gif","right","","","","",""
"","null","html-keyboard-response","252","834860","0.0-47.0-0.5","SS1613100435387","","","null","","","","","<p><img src= images/blank.png width =""200"" height = ""200"" style = ""float:right""></p><p><img src=images/blank.png width =""800"" height = ""200""></p>","","","","","","","","","","","",""
"","6946.6650000031805","sequential-stimulus-presentation","253","842613","0.0-47.0-1.5","SS1613100435387","trial","","40","800","7746.6650000031805","images/stimuli/spore_stims/simple_19_A_a.gif","images/stimuli/spore_stims/simple_19_B_a.gif","","","","","13","simple_similar","images/stimuli/spore_stims/simple_19_A_a.gif","left","","","","",""
"","null","html-keyboard-response","254","843887","0.0-47.0-0.6","SS1613100435387","","","null","","","","","<p><img src= images/blank.png width =""200"" height = ""200"" style = ""float:right""></p><p><img src=images/blank.png width =""800"" height = ""200""></p>","","","","","","","","","","","",""
"","1038.410000000964","sequential-stimulus-presentation","255","845732","0.0-47.0-1.6","SS1613100435387","trial","","40","800","1838.410000000964","images/stimuli/spore_stims/simple_19_A_a.gif","images/stimuli/spore_stims/simple_19_B_a.gif","","","","","13","simple_similar","images/stimuli/spore_stims/simple_19_B_a.gif","right","","","","",""
"","null","html-keyboard-response","256","846661","0.0-47.0-0.7","SS1613100435387","","","null","","","","","<p><img src= images/blank.png width =""200"" height = ""200"" style = ""float:right""></p><p><img src=images/blank.png width =""800"" height = ""200""></p>","","","","","","","","","","","",""
"","449.1100000012666","sequential-stimulus-presentation","257","847917","0.0-47.0-1.7","SS1613100435387","trial","","40","800","1249.1100000012666","images/stimuli/spore_stims/simple_19_A_a.gif","images/stimuli/spore_stims/simple_19_B_a.gif","","","","","13","simple_similar","images/stimuli/spore_stims/simple_19_B_a.gif","right","","","","",""
"","986.4700000034645","html-keyboard-response","258","848909","0.0-48.0","SS1613100435387","pref_question","","97","","","","","<video width ='960' height = '540' style='padding-top:8%' autoplay muted><source src='images/stimuli/wall_pref.mp4' type='video/mp4'></video>","1","left","25%","13","","","","","","","",""
"","7000.634999996633","sequential-stimulus-presentation","259","856717","0.0-49.0","SS1613100435387","pref_reveal","","40","800","7800.634999996633","null","null","","","","","13","","","","deviant","","","",""
"","null","html-keyboard-response","260","857847","0.0-50.0-0.0","SS1613100435387","","","null","","","","","<p><img src= images/blank.png width =""200"" height = ""200"" style = ""float:right""></p><p><img src=images/blank.png width =""800"" height = ""200""></p>","","","","","","","","","","","",""
"","3659.1750000006286","sequential-stimulus-presentation","261","862324","0.0-50.0-1.0","SS1613100435387","trial","","40","800","4459.175000000629","images/stimuli/spore_stims/simple_11_B_a.gif","images/stimuli/spore_stims/simple_11_A_b.gif","","","","","14","simple_dissimilar","images/stimuli/spore_stims/simple_11_A_b.gif","right","","","","",""
"","null","html-keyboard-response","262","863265","0.0-50.0-0.1","SS1613100435387","","","null","","","","","<p><img src= images/blank.png width =""200"" height = ""200"" style = ""float:right""></p><p><img src=images/blank.png width =""800"" height = ""200""></p>","","","","","","","","","","","",""
"","1251.0499999988824","sequential-stimulus-presentation","263","865324","0.0-50.0-1.1","SS1613100435387","trial","","40","800","2051.0499999988824","images/stimuli/spore_stims/simple_11_B_a.gif","images/stimuli/spore_stims/simple_11_A_b.gif","","","","","14","simple_dissimilar","images/stimuli/spore_stims/simple_11_A_b.gif","right","","","","",""
"","null","html-keyboard-response","264","866596","0.0-50.0-0.2","SS1613100435387","","","null","","","","","<p><img src= images/blank.png width =""200"" height = ""200"" style = ""float:right""></p><p><img src=images/blank.png width =""800"" height = ""200""></p>","","","","","","","","","","","",""
"","1152.4850000060396","sequential-stimulus-presentation","265","868556","0.0-50.0-1.2","SS1613100435387","trial","","40","800","1952.4850000060396","images/stimuli/spore_stims/simple_11_B_a.gif","images/stimuli/spore_stims/simple_11_A_b.gif","","","","","14","simple_dissimilar","images/stimuli/spore_stims/simple_11_A_b.gif","right","","","","",""
"","null","html-keyboard-response","266","869746","0.0-50.0-0.3","SS1613100435387","","","null","","","","","<p><img src= images/blank.png width =""200"" height = ""200"" style = ""float:right""></p><p><img src=images/blank.png width =""800"" height = ""200""></p>","","","","","","","","","","","",""
"","707.5200000035111","sequential-stimulus-presentation","267","871260","0.0-50.0-1.3","SS1613100435387","trial","","40","800","1507.520000003511","images/stimuli/spore_stims/simple_11_B_a.gif","images/stimuli/spore_stims/simple_11_A_b.gif","","","","","14","simple_dissimilar","images/stimuli/spore_stims/simple_11_A_b.gif","right","","","","",""
"","null","html-keyboard-response","268","872157","0.0-50.0-0.4","SS1613100435387","","","null","","","","","<p><img src= images/blank.png width =""200"" height = ""200"" style = ""float:right""></p><p><img src=images/blank.png width =""800"" height = ""200""></p>","","","","","","","","","","","",""
"","728.3450000031153","sequential-stimulus-presentation","269","873692","0.0-50.0-1.4","SS1613100435387","trial","","40","800","1528.3450000031153","images/stimuli/spore_stims/simple_11_B_a.gif","images/stimuli/spore_stims/simple_11_A_b.gif","","","","","14","simple_dissimilar","images/stimuli/spore_stims/simple_11_A_b.gif","right","","","","",""
"","null","html-keyboard-response","270","874904","0.0-50.0-0.5","SS1613100435387","","","null","","","","","<p><img src= images/blank.png width =""200"" height = ""200"" style = ""float:right""></p><p><img src=images/blank.png width =""800"" height = ""200""></p>","","","","","","","","","","","",""
"","4317.299999995157","sequential-stimulus-presentation","271","880029","0.0-50.0-1.5","SS1613100435387","trial","","40","800","5117.299999995157","images/stimuli/spore_stims/simple_11_B_a.gif","images/stimuli/spore_stims/simple_11_A_b.gif","","","","","14","simple_dissimilar","images/stimuli/spore_stims/simple_11_B_a.gif","middle","","","","",""
"","null","html-keyboard-response","272","881250","0.0-50.0-0.6","SS1613100435387","","","null","","","","","<p><img src= images/blank.png width =""200"" height = ""200"" style = ""float:right""></p><p><img src=images/blank.png width =""800"" height = ""200""></p>","","","","","","","","","","","",""
"","314.7300000054529","sequential-stimulus-presentation","273","882372","0.0-50.0-1.6","SS1613100435387","trial","","40","800","1114.730000005453","images/stimuli/spore_stims/simple_11_B_a.gif","images/stimuli/spore_stims/simple_11_A_b.gif","","","","","14","simple_dissimilar","images/stimuli/spore_stims/simple_11_A_b.gif","right","","","","",""
"","null","html-keyboard-response","274","883409","0.0-50.0-0.7","SS1613100435387","","","null","","","","","<p><img src= images/blank.png width =""200"" height = ""200"" style = ""float:right""></p><p><img src=images/blank.png width =""800"" height = ""200""></p>","","","","","","","","","","","",""
"","205.63000000396278","sequential-stimulus-presentation","275","884427","0.0-50.0-1.7","SS1613100435387","trial","","40","800","1005.6300000039628","images/stimuli/spore_stims/simple_11_B_a.gif","images/stimuli/spore_stims/simple_11_A_b.gif","","","","","14","simple_dissimilar","images/stimuli/spore_stims/simple_11_A_b.gif","right","","","","",""
"","1106.2500000043074","html-keyboard-response","276","885539","0.0-51.0","SS1613100435387","pref_question","","98","","","","","<video width ='960' height = '540' style='padding-top:8%' autoplay muted><source src='images/stimuli/wall_pref.mp4' type='video/mp4'></video>","2","middle","45%","14","","","","","","","",""
"","8032.374999995343","sequential-stimulus-presentation","277","894380","0.0-52.0","SS1613100435387","pref_reveal","","40","800","8832.374999995343","null","null","","","","","14","","","","deviant","","","",""
"","null","html-keyboard-response","278","895376","0.0-53.0-0.0","SS1613100435387","","","null","","","","","<p><img src= images/blank.png width =""200"" height = ""200"" style = ""float:right""></p><p><img src=images/blank.png width =""800"" height = ""200""></p>","","","","","","","","","","","",""
"","1938.564999996801","sequential-stimulus-presentation","279","898124","0.0-53.0-1.0","SS1613100435387","trial","","40","800","2738.564999996801","images/stimuli/spore_stims/complex_08_B_c.gif","images/stimuli/spore_stims/complex_19_B_d.gif","","","","","15","complex_dissimilar","images/stimuli/spore_stims/complex_19_B_d.gif","right","","","","",""
"","null","html-keyboard-response","280","899326","0.0-53.0-0.1","SS1613100435387","","","null","","","","","<p><img src= images/blank.png width =""200"" height = ""200"" style = ""float:right""></p><p><img src=images/blank.png width =""800"" height = ""200""></p>","","","","","","","","","","","",""
"","445.98499999847263","sequential-stimulus-presentation","281","900579","0.0-53.0-1.1","SS1613100435387","trial","","40","800","1245.9849999984726","images/stimuli/spore_stims/complex_08_B_c.gif","images/stimuli/spore_stims/complex_19_B_d.gif","","","","","15","complex_dissimilar","images/stimuli/spore_stims/complex_19_B_d.gif","right","","","","",""
"","null","html-keyboard-response","282","901534","0.0-53.0-0.2","SS1613100435387","","","null","","","","","<p><img src= images/blank.png width =""200"" height = ""200"" style = ""float:right""></p><p><img src=images/blank.png width =""800"" height = ""200""></p>","","","","","","","","","","","",""
"","446.57500000169966","sequential-stimulus-presentation","283","902788","0.0-53.0-1.2","SS1613100435387","trial","","40","800","1246.5750000016997","images/stimuli/spore_stims/complex_08_B_c.gif","images/stimuli/spore_stims/complex_19_B_d.gif","","","","","15","complex_dissimilar","images/stimuli/spore_stims/complex_19_B_d.gif","right","","","","",""
"","null","html-keyboard-response","284","903984","0.0-53.0-0.3","SS1613100435387","","","null","","","","","<p><img src= images/blank.png width =""200"" height = ""200"" style = ""float:right""></p><p><img src=images/blank.png width =""800"" height = ""200""></p>","","","","","","","","","","","",""
"","940.310000005411","sequential-stimulus-presentation","285","905732","0.0-53.0-1.3","SS1613100435387","trial","","40","800","1740.310000005411","images/stimuli/spore_stims/complex_08_B_c.gif","images/stimuli/spore_stims/complex_19_B_d.gif","","","","","15","complex_dissimilar","images/stimuli/spore_stims/complex_08_B_c.gif","middle","","","","",""
"","null","html-keyboard-response","286","906857","0.0-53.0-0.4","SS1613100435387","","","null","","","","","<p><img src= images/blank.png width =""200"" height = ""200"" style = ""float:right""></p><p><img src=images/blank.png width =""800"" height = ""200""></p>","","","","","","","","","","","",""
"","1386.7650000029244","sequential-stimulus-presentation","287","909052","0.0-53.0-1.4","SS1613100435387","trial","","40","800","2186.7650000029244","images/stimuli/spore_stims/complex_08_B_c.gif","images/stimuli/spore_stims/complex_19_B_d.gif","","","","","15","complex_dissimilar","images/stimuli/spore_stims/complex_19_B_d.gif","right","","","","",""
"","null","html-keyboard-response","288","910198","0.0-53.0-0.5","SS1613100435387","","","null","","","","","<p><img src= images/blank.png width =""200"" height = ""200"" style = ""float:right""></p><p><img src=images/blank.png width =""800"" height = ""200""></p>","","","","","","","","","","","",""
"","364.6200000003446","sequential-stimulus-presentation","289","911372","0.0-53.0-1.5","SS1613100435387","trial","","40","800","1164.6200000003446","images/stimuli/spore_stims/complex_08_B_c.gif","images/stimuli/spore_stims/complex_19_B_d.gif","","","","","15","complex_dissimilar","images/stimuli/spore_stims/complex_19_B_d.gif","right","","","","",""
"","null","html-keyboard-response","290","912279","0.0-53.0-0.6","SS1613100435387","","","null","","","","","<p><img src= images/blank.png width =""200"" height = ""200"" style = ""float:right""></p><p><img src=images/blank.png width =""800"" height = ""200""></p>","","","","","","","","","","","",""
"","333.8900000017602","sequential-stimulus-presentation","291","913420","0.0-53.0-1.6","SS1613100435387","trial","","40","800","1133.8900000017602","images/stimuli/spore_stims/complex_08_B_c.gif","images/stimuli/spore_stims/complex_19_B_d.gif","","","","","15","complex_dissimilar","images/stimuli/spore_stims/complex_19_B_d.gif","right","","","","",""
"","null","html-keyboard-response","292","914515","0.0-53.0-0.7","SS1613100435387","","","null","","","","","<p><img src= images/blank.png width =""200"" height = ""200"" style = ""float:right""></p><p><img src=images/blank.png width =""800"" height = ""200""></p>","","","","","","","","","","","",""
"","280.34000000485685","sequential-stimulus-presentation","293","915603","0.0-53.0-1.7","SS1613100435387","trial","","40","800","1080.3400000048568","images/stimuli/spore_stims/complex_08_B_c.gif","images/stimuli/spore_stims/complex_19_B_d.gif","","","","","15","complex_dissimilar","images/stimuli/spore_stims/complex_19_B_d.gif","right","","","","",""
"","891.3449999963632","html-keyboard-response","294","916500","0.0-54.0","SS1613100435387","pref_question","","99","","","","","<video width ='960' height = '540' style='padding-top:8%' autoplay muted><source src='images/stimuli/wall_pref.mp4' type='video/mp4'></video>","3","right","66%","15","","","","","","","",""
"","3397.7049999956507","sequential-stimulus-presentation","295","920724","0.0-55.0","SS1613100435387","pref_reveal","","40","800","4197.704999995651","null","null","","","","","15","","","","background","","","",""
"","null","html-keyboard-response","296","921868","0.0-56.0-0.0","SS1613100435387","","","null","","","","","<p><img src= images/blank.png width =""200"" height = ""200"" style = ""float:right""></p><p><img src=images/blank.png width =""800"" height = ""200""></p>","","","","","","","","","","","",""
"","1311.6850000005215","sequential-stimulus-presentation","297","923987","0.0-56.0-1.0","SS1613100435387","trial","","40","800","2111.6850000005215","images/stimuli/spore_stims/simple_20_B_b.gif","images/stimuli/spore_stims/simple_17_B_c.gif","","","","","16","simple_dissimilar","images/stimuli/spore_stims/simple_17_B_c.gif","middle","","","","",""
"","null","html-keyboard-response","298","925019","0.0-56.0-0.1","SS1613100435387","","","null","","","","","<p><img src= images/blank.png width =""200"" height = ""200"" style = ""float:right""></p><p><img src=images/blank.png width =""800"" height = ""200""></p>","","","","","","","","","","","",""
"","871.2250000025379","sequential-stimulus-presentation","299","926700","0.0-56.0-1.1","SS1613100435387","trial","","40","800","1671.2250000025379","images/stimuli/spore_stims/simple_20_B_b.gif","images/stimuli/spore_stims/simple_17_B_c.gif","","","","","16","simple_dissimilar","images/stimuli/spore_stims/simple_17_B_c.gif","middle","","","","",""
"","null","html-keyboard-response","300","927815","0.0-56.0-0.2","SS1613100435387","","","null","","","","","<p><img src= images/blank.png width =""200"" height = ""200"" style = ""float:right""></p><p><img src=images/blank.png width =""800"" height = ""200""></p>","","","","","","","","","","","",""
"","278.0200000052573","sequential-stimulus-presentation","301","928902","0.0-56.0-1.2","SS1613100435387","trial","","40","800","1078.0200000052573","images/stimuli/spore_stims/simple_20_B_b.gif","images/stimuli/spore_stims/simple_17_B_c.gif","","","","","16","simple_dissimilar","images/stimuli/spore_stims/simple_17_B_c.gif","middle","","","","",""
"","null","html-keyboard-response","302","929992","0.0-56.0-0.3","SS1613100435387","","","null","","","","","<p><img src= images/blank.png width =""200"" height = ""200"" style = ""float:right""></p><p><img src=images/blank.png width =""800"" height = ""200""></p>","","","","","","","","","","","",""
"","311.50500000524335","sequential-stimulus-presentation","303","931116","0.0-56.0-1.3","SS1613100435387","trial","","40","800","1111.5050000052433","images/stimuli/spore_stims/simple_20_B_b.gif","images/stimuli/spore_stims/simple_17_B_c.gif","","","","","16","simple_dissimilar","images/stimuli/spore_stims/simple_17_B_c.gif","middle","","","","",""
"","null","html-keyboard-response","304","931984","0.0-56.0-0.4","SS1613100435387","","","null","","","","","<p><img src= images/blank.png width =""200"" height = ""200"" style = ""float:right""></p><p><img src=images/blank.png width =""800"" height = ""200""></p>","","","","","","","","","","","",""
"","570.6149999968475","sequential-stimulus-presentation","305","933364","0.0-56.0-1.4","SS1613100435387","trial","","40","800","1370.6149999968475","images/stimuli/spore_stims/simple_20_B_b.gif","images/stimuli/spore_stims/simple_17_B_c.gif","","","","","16","simple_dissimilar","images/stimuli/spore_stims/simple_20_B_b.gif","right","","","","",""
"","null","html-keyboard-response","306","934407","0.0-56.0-0.5","SS1613100435387","","","null","","","","","<p><img src= images/blank.png width =""200"" height = ""200"" style = ""float:right""></p><p><img src=images/blank.png width =""800"" height = ""200""></p>","","","","","","","","","","","",""
"","325.33999999577645","sequential-stimulus-presentation","307","935539","0.0-56.0-1.5","SS1613100435387","trial","","40","800","1125.3399999957765","images/stimuli/spore_stims/simple_20_B_b.gif","images/stimuli/spore_stims/simple_17_B_c.gif","","","","","16","simple_dissimilar","images/stimuli/spore_stims/simple_17_B_c.gif","middle","","","","",""
"","null","html-keyboard-response","308","936537","0.0-56.0-0.6","SS1613100435387","","","null","","","","","<p><img src= images/blank.png width =""200"" height = ""200"" style = ""float:right""></p><p><img src=images/blank.png width =""800"" height = ""200""></p>","","","","","","","","","","","",""
"","283.25000000034925","sequential-stimulus-presentation","309","937628","0.0-56.0-1.6","SS1613100435387","trial","","40","800","1083.2500000003492","images/stimuli/spore_stims/simple_20_B_b.gif","images/stimuli/spore_stims/simple_17_B_c.gif","","","","","16","simple_dissimilar","images/stimuli/spore_stims/simple_17_B_c.gif","middle","","","","",""
"","null","html-keyboard-response","310","938577","0.0-56.0-0.7","SS1613100435387","","","null","","","","","<p><img src= images/blank.png width =""200"" height = ""200"" style = ""float:right""></p><p><img src=images/blank.png width =""800"" height = ""200""></p>","","","","","","","","","","","",""
"","264.8849999968661","sequential-stimulus-presentation","311","939651","0.0-56.0-1.7","SS1613100435387","trial","","40","800","1064.884999996866","images/stimuli/spore_stims/simple_20_B_b.gif","images/stimuli/spore_stims/simple_17_B_c.gif","","","","","16","simple_dissimilar","images/stimuli/spore_stims/simple_17_B_c.gif","middle","","","","",""
"","1153.9200000043493","html-keyboard-response","312","940810","0.0-57.0","SS1613100435387","pref_question","","99","","","","","<video width ='960' height = '540' style='padding-top:8%' autoplay muted><source src='images/stimuli/wall_pref.mp4' type='video/mp4'></video>","3","right","66%","16","","","","","","","",""
