"view_history","rt","trial_type","trial_index","time_elapsed","internal_node_id","subject","stimulus_type","trial_stimulus","key_press","minimum_viewing_duration","trial_looking_time","block_deviant","block_background","stimulus","wall_pref","location","location_percent","block_number","block_type","stimulus_displayed","position_displayed","stim_type_selected","responses","question_order","stimulus_left","stimulus_right"
"[{""page_index"":0,""viewing_time"":10307.999999960884}]","10312.000000150874","instructions","0","10320","0.0-0.0","SS1613169638106","","","","","","","","","","","","","","","","","","","",""
"[{""page_index"":0,""viewing_time"":4250},{""page_index"":1,""viewing_time"":8200.000000186265}]","12451.000000117347","instructions","1","24787","0.0-1.0","SS1613169638106","instructions","","","","","","","","","","","","","","","","","","",""
"","42512.99999980256","sequential-stimulus-presentation","2","68191","0.0-2.0","SS1613169638106","","","40","800","43312.99999980256","null","null","","","","","","","","","","","","",""
"","6238.999999826774","sequential-stimulus-presentation","3","75236","0.0-3.0","SS1613169638106","","","40","800","7038.999999826774","null","null","","","","","","","","","","","","",""
"[{""page_index"":0,""viewing_time"":1971.9999998342246}]","1973.9999999292195","instructions","4","77213","0.0-4.0","SS1613169638106","instructions","","","","","","","","","","","","","","","","","","",""
"","19083.999999798834","html-keyboard-response","5","96325","0.0-5.0","SS1613169638106","instructions","","97","","","","","<video width ='960' height = '540' autoplay muted><source src='images/stimuli/wall_pref.mp4' type='video/mp4'></video>","1","left","25%","","","","","","","","",""
"","3001.9999998621643","sequential-stimulus-presentation","6","100150","0.0-6.0","SS1613169638106","pref_reveal","","40","800","3801.9999998621643","null","null","","","","","","","","","","","","",""
"[{""page_index"":0,""viewing_time"":3689.0000000130385},{""page_index"":1,""viewing_time"":3840.000000083819},{""page_index"":2,""viewing_time"":3358.9999999385327},{""page_index"":3,""viewing_time"":2753.000000026077}]","13641.99999999255","instructions","7","113795","0.0-7.0","SS1613169638106","instructions","","","","","","","","","","","","","","","","","","",""
"","null","html-keyboard-response","8","114989","0.0-8.0-0.0","SS1613169638106","","","null","","","","","<p><img src= images/blank.png width =""200"" height = ""200"" style = ""float:right""></p><p><img src=images/blank.png width =""800"" height = ""200""></p>","","","","","","","","","","","",""
"","2263.9999999664724","sequential-stimulus-presentation","9","118080","0.0-8.0-1.0","SS1613169638106","trial","","40","800","3063.9999999664724","images/stimuli/spore_stims/complex_18_A_d.gif","images/stimuli/spore_stims/complex_18_B_d.gif","","","","","0","complex_similar","images/stimuli/spore_stims/complex_18_B_d.gif","middle","","","","",""
"","null","html-keyboard-response","10","119161","0.0-8.0-0.1","SS1613169638106","","","null","","","","","<p><img src= images/blank.png width =""200"" height = ""200"" style = ""float:right""></p><p><img src=images/blank.png width =""800"" height = ""200""></p>","","","","","","","","","","","",""
"","5919.999999925494","sequential-stimulus-presentation","11","125908","0.0-8.0-1.1","SS1613169638106","trial","","40","800","6719.999999925494","images/stimuli/spore_stims/complex_18_A_d.gif","images/stimuli/spore_stims/complex_18_B_d.gif","","","","","0","complex_similar","images/stimuli/spore_stims/complex_18_B_d.gif","middle","","","","",""
"","null","html-keyboard-response","12","126880","0.0-8.0-0.2","SS1613169638106","","","null","","","","","<p><img src= images/blank.png width =""200"" height = ""200"" style = ""float:right""></p><p><img src=images/blank.png width =""800"" height = ""200""></p>","","","","","","","","","","","",""
"","949.9999999534339","sequential-stimulus-presentation","13","128661","0.0-8.0-1.2","SS1613169638106","trial","","40","800","1749.9999999534339","images/stimuli/spore_stims/complex_18_A_d.gif","images/stimuli/spore_stims/complex_18_B_d.gif","","","","","0","complex_similar","images/stimuli/spore_stims/complex_18_B_d.gif","middle","","","","",""
"","null","html-keyboard-response","14","129551","0.0-8.0-0.3","SS1613169638106","","","null","","","","","<p><img src= images/blank.png width =""200"" height = ""200"" style = ""float:right""></p><p><img src=images/blank.png width =""800"" height = ""200""></p>","","","","","","","","","","","",""
"","686.9999999180436","sequential-stimulus-presentation","15","131058","0.0-8.0-1.3","SS1613169638106","trial","","40","800","1486.9999999180436","images/stimuli/spore_stims/complex_18_A_d.gif","images/stimuli/spore_stims/complex_18_B_d.gif","","","","","0","complex_similar","images/stimuli/spore_stims/complex_18_B_d.gif","middle","","","","",""
"","null","html-keyboard-response","16","131912","0.0-8.0-0.4","SS1613169638106","","","null","","","","","<p><img src= images/blank.png width =""200"" height = ""200"" style = ""float:right""></p><p><img src=images/blank.png width =""800"" height = ""200""></p>","","","","","","","","","","","",""
"","1031.999999890104","sequential-stimulus-presentation","17","133790","0.0-8.0-1.4","SS1613169638106","trial","","40","800","1831.999999890104","images/stimuli/spore_stims/complex_18_A_d.gif","images/stimuli/spore_stims/complex_18_B_d.gif","","","","","0","complex_similar","images/stimuli/spore_stims/complex_18_B_d.gif","middle","","","","",""
"","null","html-keyboard-response","18","135082","0.0-8.0-0.5","SS1613169638106","","","null","","","","","<p><img src= images/blank.png width =""200"" height = ""200"" style = ""float:right""></p><p><img src=images/blank.png width =""800"" height = ""200""></p>","","","","","","","","","","","",""
"","2940.999999875203","sequential-stimulus-presentation","19","138871","0.0-8.0-1.5","SS1613169638106","trial","","40","800","3740.999999875203","images/stimuli/spore_stims/complex_18_A_d.gif","images/stimuli/spore_stims/complex_18_B_d.gif","","","","","0","complex_similar","images/stimuli/spore_stims/complex_18_B_d.gif","middle","","","","",""
"","null","html-keyboard-response","20","140114","0.0-8.0-0.6","SS1613169638106","","","null","","","","","<p><img src= images/blank.png width =""200"" height = ""200"" style = ""float:right""></p><p><img src=images/blank.png width =""800"" height = ""200""></p>","","","","","","","","","","","",""
"","1512.0000001043081","sequential-stimulus-presentation","21","142484","0.0-8.0-1.6","SS1613169638106","trial","","40","800","2312.000000104308","images/stimuli/spore_stims/complex_18_A_d.gif","images/stimuli/spore_stims/complex_18_B_d.gif","","","","","0","complex_similar","images/stimuli/spore_stims/complex_18_A_d.gif","right","","","","",""
"","null","html-keyboard-response","22","143349","0.0-8.0-0.7","SS1613169638106","","","null","","","","","<p><img src= images/blank.png width =""200"" height = ""200"" style = ""float:right""></p><p><img src=images/blank.png width =""800"" height = ""200""></p>","","","","","","","","","","","",""
"","1210.9999998938292","sequential-stimulus-presentation","23","145373","0.0-8.0-1.7","SS1613169638106","trial","","40","800","2010.9999998938292","images/stimuli/spore_stims/complex_18_A_d.gif","images/stimuli/spore_stims/complex_18_B_d.gif","","","","","0","complex_similar","images/stimuli/spore_stims/complex_18_B_d.gif","middle","","","","",""
"","2242.0000000856817","html-keyboard-response","24","147686","0.0-9.0","SS1613169638106","pref_question","","98","","","","","<video width ='960' height = '540' style='padding-top:8%' autoplay muted><source src='images/stimuli/wall_pref.mp4' type='video/mp4'></video>","2","middle","45%","0","","","","","","","",""
"","1307.9999999608845","sequential-stimulus-presentation","25","149813","0.0-10.0","SS1613169638106","pref_reveal","","40","800","2107.9999999608845","null","null","","","","","0","","","","background","","","",""
"","null","html-keyboard-response","26","150630","0.0-11.0-0.0","SS1613169638106","","","null","","","","","<p><img src= images/blank.png width =""200"" height = ""200"" style = ""float:right""></p><p><img src=images/blank.png width =""800"" height = ""200""></p>","","","","","","","","","","","",""
"","1906.999999890104","sequential-stimulus-presentation","27","153394","0.0-11.0-1.0","SS1613169638106","trial","","40","800","2706.999999890104","images/stimuli/spore_stims/simple_18_A_a.gif","images/stimuli/spore_stims/simple_18_B_a.gif","","","","","1","simple_similar","images/stimuli/spore_stims/simple_18_B_a.gif","left","","","","",""
"","null","html-keyboard-response","28","154564","0.0-11.0-0.1","SS1613169638106","","","null","","","","","<p><img src= images/blank.png width =""200"" height = ""200"" style = ""float:right""></p><p><img src=images/blank.png width =""800"" height = ""200""></p>","","","","","","","","","","","",""
"","949.9999999534339","sequential-stimulus-presentation","29","156356","0.0-11.0-1.1","SS1613169638106","trial","","40","800","1749.9999999534339","images/stimuli/spore_stims/simple_18_A_a.gif","images/stimuli/spore_stims/simple_18_B_a.gif","","","","","1","simple_similar","images/stimuli/spore_stims/simple_18_B_a.gif","left","","","","",""
"","null","html-keyboard-response","30","157482","0.0-11.0-0.2","SS1613169638106","","","null","","","","","<p><img src= images/blank.png width =""200"" height = ""200"" style = ""float:right""></p><p><img src=images/blank.png width =""800"" height = ""200""></p>","","","","","","","","","","","",""
"","146.00000018253922","sequential-stimulus-presentation","31","158457","0.0-11.0-1.2","SS1613169638106","trial","","40","800","946.0000001825392","images/stimuli/spore_stims/simple_18_A_a.gif","images/stimuli/spore_stims/simple_18_B_a.gif","","","","","1","simple_similar","images/stimuli/spore_stims/simple_18_B_a.gif","left","","","","",""
"","null","html-keyboard-response","32","159725","0.0-11.0-0.3","SS1613169638106","","","null","","","","","<p><img src= images/blank.png width =""200"" height = ""200"" style = ""float:right""></p><p><img src=images/blank.png width =""800"" height = ""200""></p>","","","","","","","","","","","",""
"","1981.9999998435378","sequential-stimulus-presentation","33","162534","0.0-11.0-1.3","SS1613169638106","trial","","40","800","2781.999999843538","images/stimuli/spore_stims/simple_18_A_a.gif","images/stimuli/spore_stims/simple_18_B_a.gif","","","","","1","simple_similar","images/stimuli/spore_stims/simple_18_B_a.gif","left","","","","",""
"","null","html-keyboard-response","34","163442","0.0-11.0-0.4","SS1613169638106","","","null","","","","","<p><img src= images/blank.png width =""200"" height = ""200"" style = ""float:right""></p><p><img src=images/blank.png width =""800"" height = ""200""></p>","","","","","","","","","","","",""
"","131.9999999832362","sequential-stimulus-presentation","35","164403","0.0-11.0-1.4","SS1613169638106","trial","","40","800","931.9999999832362","images/stimuli/spore_stims/simple_18_A_a.gif","images/stimuli/spore_stims/simple_18_B_a.gif","","","","","1","simple_similar","images/stimuli/spore_stims/simple_18_B_a.gif","left","","","","",""
"","null","html-keyboard-response","36","165552","0.0-11.0-0.5","SS1613169638106","","","null","","","","","<p><img src= images/blank.png width =""200"" height = ""200"" style = ""float:right""></p><p><img src=images/blank.png width =""800"" height = ""200""></p>","","","","","","","","","","","",""
"","1506.9999999832362","sequential-stimulus-presentation","37","167910","0.0-11.0-1.5","SS1613169638106","trial","","40","800","2306.999999983236","images/stimuli/spore_stims/simple_18_A_a.gif","images/stimuli/spore_stims/simple_18_B_a.gif","","","","","1","simple_similar","images/stimuli/spore_stims/simple_18_B_a.gif","left","","","","",""
"","null","html-keyboard-response","38","169021","0.0-11.0-0.6","SS1613169638106","","","null","","","","","<p><img src= images/blank.png width =""200"" height = ""200"" style = ""float:right""></p><p><img src=images/blank.png width =""800"" height = ""200""></p>","","","","","","","","","","","",""
"","181.0000000987202","sequential-stimulus-presentation","39","170056","0.0-11.0-1.6","SS1613169638106","trial","","40","800","981.0000000987202","images/stimuli/spore_stims/simple_18_A_a.gif","images/stimuli/spore_stims/simple_18_B_a.gif","","","","","1","simple_similar","images/stimuli/spore_stims/simple_18_B_a.gif","left","","","","",""
"","null","html-keyboard-response","40","171042","0.0-11.0-0.7","SS1613169638106","","","null","","","","","<p><img src= images/blank.png width =""200"" height = ""200"" style = ""float:right""></p><p><img src=images/blank.png width =""800"" height = ""200""></p>","","","","","","","","","","","",""
"","1143.9999998547137","sequential-stimulus-presentation","41","173035","0.0-11.0-1.7","SS1613169638106","trial","","40","800","1943.9999998547137","images/stimuli/spore_stims/simple_18_A_a.gif","images/stimuli/spore_stims/simple_18_B_a.gif","","","","","1","simple_similar","images/stimuli/spore_stims/simple_18_A_a.gif","right","","","","",""
"","5433.000000193715","html-keyboard-response","42","178486","0.0-12.0","SS1613169638106","pref_question","","97","","","","","<video width ='960' height = '540' style='padding-top:8%' autoplay muted><source src='images/stimuli/wall_pref.mp4' type='video/mp4'></video>","1","left","25%","1","","","","","","","",""
"","746.0000000428408","sequential-stimulus-presentation","43","180054","0.0-13.0","SS1613169638106","pref_reveal","","40","800","1546.0000000428408","null","null","","","","","1","","","","background","","","",""
"","null","html-keyboard-response","44","181209","0.0-14.0-0.0","SS1613169638106","","","null","","","","","<p><img src= images/blank.png width =""200"" height = ""200"" style = ""float:right""></p><p><img src=images/blank.png width =""800"" height = ""200""></p>","","","","","","","","","","","",""
"","2246.999999973923","sequential-stimulus-presentation","45","184306","0.0-14.0-1.0","SS1613169638106","trial","","40","800","3046.999999973923","images/stimuli/spore_stims/complex_04_A_a.gif","images/stimuli/spore_stims/complex_16_B_d.gif","","","","","2","complex_dissimilar","images/stimuli/spore_stims/complex_16_B_d.gif","middle","","","","",""
"","null","html-keyboard-response","46","185287","0.0-14.0-0.1","SS1613169638106","","","null","","","","","<p><img src= images/blank.png width =""200"" height = ""200"" style = ""float:right""></p><p><img src=images/blank.png width =""800"" height = ""200""></p>","","","","","","","","","","","",""
"","182.99999996088445","sequential-stimulus-presentation","47","186308","0.0-14.0-1.1","SS1613169638106","trial","","40","800","982.9999999608845","images/stimuli/spore_stims/complex_04_A_a.gif","images/stimuli/spore_stims/complex_16_B_d.gif","","","","","2","complex_dissimilar","images/stimuli/spore_stims/complex_16_B_d.gif","middle","","","","",""
"","null","html-keyboard-response","48","187224","0.0-14.0-0.2","SS1613169638106","","","null","","","","","<p><img src= images/blank.png width =""200"" height = ""200"" style = ""float:right""></p><p><img src=images/blank.png width =""800"" height = ""200""></p>","","","","","","","","","","","",""
"","750.9999999310821","sequential-stimulus-presentation","49","188802","0.0-14.0-1.2","SS1613169638106","trial","","40","800","1550.9999999310821","images/stimuli/spore_stims/complex_04_A_a.gif","images/stimuli/spore_stims/complex_16_B_d.gif","","","","","2","complex_dissimilar","images/stimuli/spore_stims/complex_16_B_d.gif","middle","","","","",""
"","null","html-keyboard-response","50","189862","0.0-14.0-0.3","SS1613169638106","","","null","","","","","<p><img src= images/blank.png width =""200"" height = ""200"" style = ""float:right""></p><p><img src=images/blank.png width =""800"" height = ""200""></p>","","","","","","","","","","","",""
"","785.0000001490116","sequential-stimulus-presentation","51","191511","0.0-14.0-1.3","SS1613169638106","trial","","40","800","1585.0000001490116","images/stimuli/spore_stims/complex_04_A_a.gif","images/stimuli/spore_stims/complex_16_B_d.gif","","","","","2","complex_dissimilar","images/stimuli/spore_stims/complex_04_A_a.gif","left","","","","",""
"","null","html-keyboard-response","52","192397","0.0-14.0-0.4","SS1613169638106","","","null","","","","","<p><img src= images/blank.png width =""200"" height = ""200"" style = ""float:right""></p><p><img src=images/blank.png width =""800"" height = ""200""></p>","","","","","","","","","","","",""
"","763.0000000353903","sequential-stimulus-presentation","53","194006","0.0-14.0-1.4","SS1613169638106","trial","","40","800","1563.0000000353903","images/stimuli/spore_stims/complex_04_A_a.gif","images/stimuli/spore_stims/complex_16_B_d.gif","","","","","2","complex_dissimilar","images/stimuli/spore_stims/complex_16_B_d.gif","middle","","","","",""
"","null","html-keyboard-response","54","194846","0.0-14.0-0.5","SS1613169638106","","","null","","","","","<p><img src= images/blank.png width =""200"" height = ""200"" style = ""float:right""></p><p><img src=images/blank.png width =""800"" height = ""200""></p>","","","","","","","","","","","",""
"","219.99999997206032","sequential-stimulus-presentation","55","195910","0.0-14.0-1.5","SS1613169638106","trial","","40","800","1019.9999999720603","images/stimuli/spore_stims/complex_04_A_a.gif","images/stimuli/spore_stims/complex_16_B_d.gif","","","","","2","complex_dissimilar","images/stimuli/spore_stims/complex_16_B_d.gif","middle","","","","",""
"","null","html-keyboard-response","56","197146","0.0-14.0-0.6","SS1613169638106","","","null","","","","","<p><img src= images/blank.png width =""200"" height = ""200"" style = ""float:right""></p><p><img src=images/blank.png width =""800"" height = ""200""></p>","","","","","","","","","","","",""
"","60.000000055879354","sequential-stimulus-presentation","57","198038","0.0-14.0-1.6","SS1613169638106","trial","","40","800","860.0000000558794","images/stimuli/spore_stims/complex_04_A_a.gif","images/stimuli/spore_stims/complex_16_B_d.gif","","","","","2","complex_dissimilar","images/stimuli/spore_stims/complex_16_B_d.gif","middle","","","","",""
"","null","html-keyboard-response","58","199324","0.0-14.0-0.7","SS1613169638106","","","null","","","","","<p><img src= images/blank.png width =""200"" height = ""200"" style = ""float:right""></p><p><img src=images/blank.png width =""800"" height = ""200""></p>","","","","","","","","","","","",""
"","32.00000012293458","sequential-stimulus-presentation","59","200187","0.0-14.0-1.7","SS1613169638106","trial","","40","800","832.0000001229346","images/stimuli/spore_stims/complex_04_A_a.gif","images/stimuli/spore_stims/complex_16_B_d.gif","","","","","2","complex_dissimilar","images/stimuli/spore_stims/complex_16_B_d.gif","middle","","","","",""
"","1362.9999998956919","html-keyboard-response","60","201559","0.0-15.0","SS1613169638106","pref_question","","97","","","","","<video width ='960' height = '540' style='padding-top:8%' autoplay muted><source src='images/stimuli/wall_pref.mp4' type='video/mp4'></video>","1","left","25%","2","","","","","","","",""
"","753.9999999571592","sequential-stimulus-presentation","61","203125","0.0-16.0","SS1613169638106","pref_reveal","","40","800","1553.9999999571592","null","null","","","","","2","","","","deviant","","","",""
"","null","html-keyboard-response","62","204144","0.0-17.0-0.0","SS1613169638106","","","null","","","","","<p><img src= images/blank.png width =""200"" height = ""200"" style = ""float:right""></p><p><img src=images/blank.png width =""800"" height = ""200""></p>","","","","","","","","","","","",""
"","121.99999997392297","sequential-stimulus-presentation","63","205120","0.0-17.0-1.0","SS1613169638106","trial","","40","800","921.999999973923","images/stimuli/spore_stims/complex_14_A_c.gif","images/stimuli/spore_stims/complex_06_A_c.gif","","","","","3","complex_dissimilar","images/stimuli/spore_stims/complex_06_A_c.gif","middle","","","","",""
"","null","html-keyboard-response","64","206323","0.0-17.0-0.1","SS1613169638106","","","null","","","","","<p><img src= images/blank.png width =""200"" height = ""200"" style = ""float:right""></p><p><img src=images/blank.png width =""800"" height = ""200""></p>","","","","","","","","","","","",""
"","1912.0000000111759","sequential-stimulus-presentation","65","209062","0.0-17.0-1.1","SS1613169638106","trial","","40","800","2712.000000011176","images/stimuli/spore_stims/complex_14_A_c.gif","images/stimuli/spore_stims/complex_06_A_c.gif","","","","","3","complex_dissimilar","images/stimuli/spore_stims/complex_06_A_c.gif","middle","","","","",""
"","null","html-keyboard-response","66","210120","0.0-17.0-0.2","SS1613169638106","","","null","","","","","<p><img src= images/blank.png width =""200"" height = ""200"" style = ""float:right""></p><p><img src=images/blank.png width =""800"" height = ""200""></p>","","","","","","","","","","","",""
"","754.9999998882413","sequential-stimulus-presentation","67","211720","0.0-17.0-1.2","SS1613169638106","trial","","40","800","1554.9999998882413","images/stimuli/spore_stims/complex_14_A_c.gif","images/stimuli/spore_stims/complex_06_A_c.gif","","","","","3","complex_dissimilar","images/stimuli/spore_stims/complex_06_A_c.gif","middle","","","","",""
"","null","html-keyboard-response","68","212724","0.0-17.0-0.3","SS1613169638106","","","null","","","","","<p><img src= images/blank.png width =""200"" height = ""200"" style = ""float:right""></p><p><img src=images/blank.png width =""800"" height = ""200""></p>","","","","","","","","","","","",""
"","23.999999975785613","sequential-stimulus-presentation","69","213590","0.0-17.0-1.3","SS1613169638106","trial","","40","800","823.9999999757856","images/stimuli/spore_stims/complex_14_A_c.gif","images/stimuli/spore_stims/complex_06_A_c.gif","","","","","3","complex_dissimilar","images/stimuli/spore_stims/complex_06_A_c.gif","middle","","","","",""
"","null","html-keyboard-response","70","214490","0.0-17.0-0.4","SS1613169638106","","","null","","","","","<p><img src= images/blank.png width =""200"" height = ""200"" style = ""float:right""></p><p><img src=images/blank.png width =""800"" height = ""200""></p>","","","","","","","","","","","",""
"","273.0000000447035","sequential-stimulus-presentation","71","215610","0.0-17.0-1.4","SS1613169638106","trial","","40","800","1073.0000000447035","images/stimuli/spore_stims/complex_14_A_c.gif","images/stimuli/spore_stims/complex_06_A_c.gif","","","","","3","complex_dissimilar","images/stimuli/spore_stims/complex_14_A_c.gif","right","","","","",""
"","null","html-keyboard-response","72","216887","0.0-17.0-0.5","SS1613169638106","","","null","","","","","<p><img src= images/blank.png width =""200"" height = ""200"" style = ""float:right""></p><p><img src=images/blank.png width =""800"" height = ""200""></p>","","","","","","","","","","","",""
"","1743.0000000167638","sequential-stimulus-presentation","73","219527","0.0-17.0-1.5","SS1613169638106","trial","","40","800","2543.000000016764","images/stimuli/spore_stims/complex_14_A_c.gif","images/stimuli/spore_stims/complex_06_A_c.gif","","","","","3","complex_dissimilar","images/stimuli/spore_stims/complex_06_A_c.gif","middle","","","","",""
"","null","html-keyboard-response","74","220427","0.0-17.0-0.6","SS1613169638106","","","null","","","","","<p><img src= images/blank.png width =""200"" height = ""200"" style = ""float:right""></p><p><img src=images/blank.png width =""800"" height = ""200""></p>","","","","","","","","","","","",""
"","70.99999999627471","sequential-stimulus-presentation","75","221351","0.0-17.0-1.6","SS1613169638106","trial","","40","800","870.9999999962747","images/stimuli/spore_stims/complex_14_A_c.gif","images/stimuli/spore_stims/complex_06_A_c.gif","","","","","3","complex_dissimilar","images/stimuli/spore_stims/complex_06_A_c.gif","middle","","","","",""
"","null","html-keyboard-response","76","222521","0.0-17.0-0.7","SS1613169638106","","","null","","","","","<p><img src= images/blank.png width =""200"" height = ""200"" style = ""float:right""></p><p><img src=images/blank.png width =""800"" height = ""200""></p>","","","","","","","","","","","",""
"","957.9999998677522","sequential-stimulus-presentation","77","224307","0.0-17.0-1.7","SS1613169638106","trial","","40","800","1757.9999998677522","images/stimuli/spore_stims/complex_14_A_c.gif","images/stimuli/spore_stims/complex_06_A_c.gif","","","","","3","complex_dissimilar","images/stimuli/spore_stims/complex_06_A_c.gif","middle","","","","",""
"","1183.000000193715","html-keyboard-response","78","225498","0.0-18.0","SS1613169638106","pref_question","","98","","","","","<video width ='960' height = '540' style='padding-top:8%' autoplay muted><source src='images/stimuli/wall_pref.mp4' type='video/mp4'></video>","2","middle","45%","3","","","","","","","",""
"","652.9999999329448","sequential-stimulus-presentation","79","226993","0.0-19.0","SS1613169638106","pref_reveal","","40","800","1452.9999999329448","null","null","","","","","3","","","","background","","","",""
"","null","html-keyboard-response","80","228114","0.0-20.0-0.0","SS1613169638106","","","null","","","","","<p><img src= images/blank.png width =""200"" height = ""200"" style = ""float:right""></p><p><img src=images/blank.png width =""800"" height = ""200""></p>","","","","","","","","","","","",""
"","247.9999999050051","sequential-stimulus-presentation","81","229217","0.0-20.0-1.0","SS1613169638106","trial","","40","800","1047.999999905005","images/stimuli/spore_stims/simple_10_B_d.gif","images/stimuli/spore_stims/simple_10_A_d.gif","","","","","4","simple_similar","images/stimuli/spore_stims/simple_10_A_d.gif","right","","","","",""
"","null","html-keyboard-response","82","230192","0.0-20.0-0.1","SS1613169638106","","","null","","","","","<p><img src= images/blank.png width =""200"" height = ""200"" style = ""float:right""></p><p><img src=images/blank.png width =""800"" height = ""200""></p>","","","","","","","","","","","",""
"","449.99999995343387","sequential-stimulus-presentation","83","231477","0.0-20.0-1.1","SS1613169638106","trial","","40","800","1249.9999999534339","images/stimuli/spore_stims/simple_10_B_d.gif","images/stimuli/spore_stims/simple_10_A_d.gif","","","","","4","simple_similar","images/stimuli/spore_stims/simple_10_A_d.gif","right","","","","",""
"","null","html-keyboard-response","84","232587","0.0-20.0-0.2","SS1613169638106","","","null","","","","","<p><img src= images/blank.png width =""200"" height = ""200"" style = ""float:right""></p><p><img src=images/blank.png width =""800"" height = ""200""></p>","","","","","","","","","","","",""
"","236.0000000335276","sequential-stimulus-presentation","85","233677","0.0-20.0-1.2","SS1613169638106","trial","","40","800","1036.0000000335276","images/stimuli/spore_stims/simple_10_B_d.gif","images/stimuli/spore_stims/simple_10_A_d.gif","","","","","4","simple_similar","images/stimuli/spore_stims/simple_10_A_d.gif","right","","","","",""
"","null","html-keyboard-response","86","234848","0.0-20.0-0.3","SS1613169638106","","","null","","","","","<p><img src= images/blank.png width =""200"" height = ""200"" style = ""float:right""></p><p><img src=images/blank.png width =""800"" height = ""200""></p>","","","","","","","","","","","",""
"","265.00000013038516","sequential-stimulus-presentation","87","235973","0.0-20.0-1.3","SS1613169638106","trial","","40","800","1065.0000001303852","images/stimuli/spore_stims/simple_10_B_d.gif","images/stimuli/spore_stims/simple_10_A_d.gif","","","","","4","simple_similar","images/stimuli/spore_stims/simple_10_A_d.gif","right","","","","",""
"","null","html-keyboard-response","88","236864","0.0-20.0-0.4","SS1613169638106","","","null","","","","","<p><img src= images/blank.png width =""200"" height = ""200"" style = ""float:right""></p><p><img src=images/blank.png width =""800"" height = ""200""></p>","","","","","","","","","","","",""
"","297.9999999515712","sequential-stimulus-presentation","89","237987","0.0-20.0-1.4","SS1613169638106","trial","","40","800","1097.9999999515712","images/stimuli/spore_stims/simple_10_B_d.gif","images/stimuli/spore_stims/simple_10_A_d.gif","","","","","4","simple_similar","images/stimuli/spore_stims/simple_10_A_d.gif","right","","","","",""
"","null","html-keyboard-response","90","239256","0.0-20.0-0.5","SS1613169638106","","","null","","","","","<p><img src= images/blank.png width =""200"" height = ""200"" style = ""float:right""></p><p><img src=images/blank.png width =""800"" height = ""200""></p>","","","","","","","","","","","",""
"","282.0000001229346","sequential-stimulus-presentation","91","240365","0.0-20.0-1.5","SS1613169638106","trial","","40","800","1082.0000001229346","images/stimuli/spore_stims/simple_10_B_d.gif","images/stimuli/spore_stims/simple_10_A_d.gif","","","","","4","simple_similar","images/stimuli/spore_stims/simple_10_A_d.gif","right","","","","",""
"","null","html-keyboard-response","92","241333","0.0-20.0-0.6","SS1613169638106","","","null","","","","","<p><img src= images/blank.png width =""200"" height = ""200"" style = ""float:right""></p><p><img src=images/blank.png width =""800"" height = ""200""></p>","","","","","","","","","","","",""
"","280.9999999590218","sequential-stimulus-presentation","93","242463","0.0-20.0-1.6","SS1613169638106","trial","","40","800","1080.9999999590218","images/stimuli/spore_stims/simple_10_B_d.gif","images/stimuli/spore_stims/simple_10_A_d.gif","","","","","4","simple_similar","images/stimuli/spore_stims/simple_10_B_d.gif","middle","","","","",""
"","null","html-keyboard-response","94","243740","0.0-20.0-0.7","SS1613169638106","","","null","","","","","<p><img src= images/blank.png width =""200"" height = ""200"" style = ""float:right""></p><p><img src=images/blank.png width =""800"" height = ""200""></p>","","","","","","","","","","","",""
"","42.000000132247806","sequential-stimulus-presentation","95","244630","0.0-20.0-1.7","SS1613169638106","trial","","40","800","842.0000001322478","images/stimuli/spore_stims/simple_10_B_d.gif","images/stimuli/spore_stims/simple_10_A_d.gif","","","","","4","simple_similar","images/stimuli/spore_stims/simple_10_A_d.gif","right","","","","",""
"","1202.999999979511","html-keyboard-response","96","245846","0.0-21.0","SS1613169638106","pref_question","","98","","","","","<video width ='960' height = '540' style='padding-top:8%' autoplay muted><source src='images/stimuli/wall_pref.mp4' type='video/mp4'></video>","2","middle","45%","4","","","","","","","",""
"","545.9999998565763","sequential-stimulus-presentation","97","247208","0.0-22.0","SS1613169638106","pref_reveal","","40","800","1345.9999998565763","null","null","","","","","4","","","","deviant","","","",""
"","null","html-keyboard-response","98","248254","0.0-23.0-0.0","SS1613169638106","","","null","","","","","<p><img src= images/blank.png width =""200"" height = ""200"" style = ""float:right""></p><p><img src=images/blank.png width =""800"" height = ""200""></p>","","","","","","","","","","","",""
"","44.999999925494194","sequential-stimulus-presentation","99","249166","0.0-23.0-1.0","SS1613169638106","trial","","40","800","844.9999999254942","images/stimuli/spore_stims/complex_04_B_d.gif","images/stimuli/spore_stims/complex_14_B_a.gif","","","","","5","complex_dissimilar","images/stimuli/spore_stims/complex_14_B_a.gif","middle","","","","",""
"","null","html-keyboard-response","100","250426","0.0-23.0-0.1","SS1613169638106","","","null","","","","","<p><img src= images/blank.png width =""200"" height = ""200"" style = ""float:right""></p><p><img src=images/blank.png width =""800"" height = ""200""></p>","","","","","","","","","","","",""
"","591.0000000149012","sequential-stimulus-presentation","101","251844","0.0-23.0-1.1","SS1613169638106","trial","","40","800","1391.0000000149012","images/stimuli/spore_stims/complex_04_B_d.gif","images/stimuli/spore_stims/complex_14_B_a.gif","","","","","5","complex_dissimilar","images/stimuli/spore_stims/complex_14_B_a.gif","middle","","","","",""
"","null","html-keyboard-response","102","253020","0.0-23.0-0.2","SS1613169638106","","","null","","","","","<p><img src= images/blank.png width =""200"" height = ""200"" style = ""float:right""></p><p><img src=images/blank.png width =""800"" height = ""200""></p>","","","","","","","","","","","",""
"","433.9999998919666","sequential-stimulus-presentation","103","254309","0.0-23.0-1.2","SS1613169638106","trial","","40","800","1233.9999998919666","images/stimuli/spore_stims/complex_04_B_d.gif","images/stimuli/spore_stims/complex_14_B_a.gif","","","","","5","complex_dissimilar","images/stimuli/spore_stims/complex_04_B_d.gif","left","","","","",""
"","null","html-keyboard-response","104","255520","0.0-23.0-0.3","SS1613169638106","","","null","","","","","<p><img src= images/blank.png width =""200"" height = ""200"" style = ""float:right""></p><p><img src=images/blank.png width =""800"" height = ""200""></p>","","","","","","","","","","","",""
"","214.0000001527369","sequential-stimulus-presentation","105","256650","0.0-23.0-1.3","SS1613169638106","trial","","40","800","1014.0000001527369","images/stimuli/spore_stims/complex_04_B_d.gif","images/stimuli/spore_stims/complex_14_B_a.gif","","","","","5","complex_dissimilar","images/stimuli/spore_stims/complex_14_B_a.gif","middle","","","","",""
"","null","html-keyboard-response","106","257740","0.0-23.0-0.4","SS1613169638106","","","null","","","","","<p><img src= images/blank.png width =""200"" height = ""200"" style = ""float:right""></p><p><img src=images/blank.png width =""800"" height = ""200""></p>","","","","","","","","","","","",""
"","692.0000000391155","sequential-stimulus-presentation","107","259285","0.0-23.0-1.4","SS1613169638106","trial","","40","800","1492.0000000391155","images/stimuli/spore_stims/complex_04_B_d.gif","images/stimuli/spore_stims/complex_14_B_a.gif","","","","","5","complex_dissimilar","images/stimuli/spore_stims/complex_14_B_a.gif","middle","","","","",""
"","null","html-keyboard-response","108","260567","0.0-23.0-0.5","SS1613169638106","","","null","","","","","<p><img src= images/blank.png width =""200"" height = ""200"" style = ""float:right""></p><p><img src=images/blank.png width =""800"" height = ""200""></p>","","","","","","","","","","","",""
"","324.00000002235174","sequential-stimulus-presentation","109","261720","0.0-23.0-1.5","SS1613169638106","trial","","40","800","1124.0000000223517","images/stimuli/spore_stims/complex_04_B_d.gif","images/stimuli/spore_stims/complex_14_B_a.gif","","","","","5","complex_dissimilar","images/stimuli/spore_stims/complex_14_B_a.gif","middle","","","","",""
"","null","html-keyboard-response","110","262864","0.0-23.0-0.6","SS1613169638106","","","null","","","","","<p><img src= images/blank.png width =""200"" height = ""200"" style = ""float:right""></p><p><img src=images/blank.png width =""800"" height = ""200""></p>","","","","","","","","","","","",""
"","706.9999999366701","sequential-stimulus-presentation","111","264397","0.0-23.0-1.6","SS1613169638106","trial","","40","800","1506.99999993667","images/stimuli/spore_stims/complex_04_B_d.gif","images/stimuli/spore_stims/complex_14_B_a.gif","","","","","5","complex_dissimilar","images/stimuli/spore_stims/complex_14_B_a.gif","middle","","","","",""
"","null","html-keyboard-response","112","265614","0.0-23.0-0.7","SS1613169638106","","","null","","","","","<p><img src= images/blank.png width =""200"" height = ""200"" style = ""float:right""></p><p><img src=images/blank.png width =""800"" height = ""200""></p>","","","","","","","","","","","",""
"","588.9999999199063","sequential-stimulus-presentation","113","267118","0.0-23.0-1.7","SS1613169638106","trial","","40","800","1388.9999999199063","images/stimuli/spore_stims/complex_04_B_d.gif","images/stimuli/spore_stims/complex_14_B_a.gif","","","","","5","complex_dissimilar","images/stimuli/spore_stims/complex_14_B_a.gif","middle","","","","",""
"","1195.0000000651926","html-keyboard-response","114","268326","0.0-24.0","SS1613169638106","pref_question","","98","","","","","<video width ='960' height = '540' style='padding-top:8%' autoplay muted><source src='images/stimuli/wall_pref.mp4' type='video/mp4'></video>","2","middle","45%","5","","","","","","","",""
"","653.9999998640269","sequential-stimulus-presentation","115","269801","0.0-25.0","SS1613169638106","pref_reveal","","40","800","1453.999999864027","null","null","","","","","5","","","","background","","","",""
"","null","html-keyboard-response","116","270724","0.0-26.0-0.0","SS1613169638106","","","null","","","","","<p><img src= images/blank.png width =""200"" height = ""200"" style = ""float:right""></p><p><img src=images/blank.png width =""800"" height = ""200""></p>","","","","","","","","","","","",""
"","313.0000000819564","sequential-stimulus-presentation","117","271876","0.0-26.0-1.0","SS1613169638106","trial","","40","800","1113.0000000819564","images/stimuli/spore_stims/simple_02_A_d.gif","images/stimuli/spore_stims/simple_02_B_d.gif","","","","","6","simple_similar","images/stimuli/spore_stims/simple_02_B_d.gif","right","","","","",""
"","null","html-keyboard-response","118","272787","0.0-26.0-0.1","SS1613169638106","","","null","","","","","<p><img src= images/blank.png width =""200"" height = ""200"" style = ""float:right""></p><p><img src=images/blank.png width =""800"" height = ""200""></p>","","","","","","","","","","","",""
"","4766.999999992549","sequential-stimulus-presentation","119","278389","0.0-26.0-1.1","SS1613169638106","trial","","40","800","5566.999999992549","images/stimuli/spore_stims/simple_02_A_d.gif","images/stimuli/spore_stims/simple_02_B_d.gif","","","","","6","simple_similar","images/stimuli/spore_stims/simple_02_B_d.gif","right","","","","",""
"","null","html-keyboard-response","120","279567","0.0-26.0-0.2","SS1613169638106","","","null","","","","","<p><img src= images/blank.png width =""200"" height = ""200"" style = ""float:right""></p><p><img src=images/blank.png width =""800"" height = ""200""></p>","","","","","","","","","","","",""
"","184.9999998230487","sequential-stimulus-presentation","121","280655","0.0-26.0-1.2","SS1613169638106","trial","","40","800","984.9999998230487","images/stimuli/spore_stims/simple_02_A_d.gif","images/stimuli/spore_stims/simple_02_B_d.gif","","","","","6","simple_similar","images/stimuli/spore_stims/simple_02_A_d.gif","middle","","","","",""
"","null","html-keyboard-response","122","281661","0.0-26.0-0.3","SS1613169638106","","","null","","","","","<p><img src= images/blank.png width =""200"" height = ""200"" style = ""float:right""></p><p><img src=images/blank.png width =""800"" height = ""200""></p>","","","","","","","","","","","",""
"","1337.9999999888241","sequential-stimulus-presentation","123","283830","0.0-26.0-1.3","SS1613169638106","trial","","40","800","2137.999999988824","images/stimuli/spore_stims/simple_02_A_d.gif","images/stimuli/spore_stims/simple_02_B_d.gif","","","","","6","simple_similar","images/stimuli/spore_stims/simple_02_B_d.gif","right","","","","",""
"","null","html-keyboard-response","124","284661","0.0-26.0-0.4","SS1613169638106","","","null","","","","","<p><img src= images/blank.png width =""200"" height = ""200"" style = ""float:right""></p><p><img src=images/blank.png width =""800"" height = ""200""></p>","","","","","","","","","","","",""
"","1406.999999890104","sequential-stimulus-presentation","125","286901","0.0-26.0-1.4","SS1613169638106","trial","","40","800","2206.999999890104","images/stimuli/spore_stims/simple_02_A_d.gif","images/stimuli/spore_stims/simple_02_B_d.gif","","","","","6","simple_similar","images/stimuli/spore_stims/simple_02_B_d.gif","right","","","","",""
"","null","html-keyboard-response","126","287963","0.0-26.0-0.5","SS1613169638106","","","null","","","","","<p><img src= images/blank.png width =""200"" height = ""200"" style = ""float:right""></p><p><img src=images/blank.png width =""800"" height = ""200""></p>","","","","","","","","","","","",""
"","1831.99999993667","sequential-stimulus-presentation","127","290615","0.0-26.0-1.5","SS1613169638106","trial","","40","800","2631.99999993667","images/stimuli/spore_stims/simple_02_A_d.gif","images/stimuli/spore_stims/simple_02_B_d.gif","","","","","6","simple_similar","images/stimuli/spore_stims/simple_02_B_d.gif","right","","","","",""
"","null","html-keyboard-response","128","291928","0.0-26.0-0.6","SS1613169638106","","","null","","","","","<p><img src= images/blank.png width =""200"" height = ""200"" style = ""float:right""></p><p><img src=images/blank.png width =""800"" height = ""200""></p>","","","","","","","","","","","",""
"","388.00000003539026","sequential-stimulus-presentation","129","293143","0.0-26.0-1.6","SS1613169638106","trial","","40","800","1188.0000000353903","images/stimuli/spore_stims/simple_02_A_d.gif","images/stimuli/spore_stims/simple_02_B_d.gif","","","","","6","simple_similar","images/stimuli/spore_stims/simple_02_B_d.gif","right","","","","",""
"","null","html-keyboard-response","130","293990","0.0-26.0-0.7","SS1613169638106","","","null","","","","","<p><img src= images/blank.png width =""200"" height = ""200"" style = ""float:right""></p><p><img src=images/blank.png width =""800"" height = ""200""></p>","","","","","","","","","","","",""
"","3.000000026077032","sequential-stimulus-presentation","131","294845","0.0-26.0-1.7","SS1613169638106","trial","","40","800","803.000000026077","images/stimuli/spore_stims/simple_02_A_d.gif","images/stimuli/spore_stims/simple_02_B_d.gif","","","","","6","simple_similar","images/stimuli/spore_stims/simple_02_B_d.gif","right","","","","",""
"","1263.0000000353903","html-keyboard-response","132","296120","0.0-27.0","SS1613169638106","pref_question","","99","","","","","<video width ='960' height = '540' style='padding-top:8%' autoplay muted><source src='images/stimuli/wall_pref.mp4' type='video/mp4'></video>","3","right","66%","6","","","","","","","",""
"","655.0000000279397","sequential-stimulus-presentation","133","297628","0.0-28.0","SS1613169638106","pref_reveal","","40","800","1455.0000000279397","null","null","","","","","6","","","","background","","","",""
"","null","html-keyboard-response","134","298896","0.0-29.0-0.0","SS1613169638106","","","null","","","","","<p><img src= images/blank.png width =""200"" height = ""200"" style = ""float:right""></p><p><img src=images/blank.png width =""800"" height = ""200""></p>","","","","","","","","","","","",""
"","1438.0000000819564","sequential-stimulus-presentation","135","301207","0.0-29.0-1.0","SS1613169638106","trial","","40","800","2238.0000000819564","images/stimuli/spore_stims/complex_01_B_b.gif","images/stimuli/spore_stims/complex_01_A_b.gif","","","","","7","complex_similar","images/stimuli/spore_stims/complex_01_A_b.gif","right","","","","",""
"","null","html-keyboard-response","136","302209","0.0-29.0-0.1","SS1613169638106","","","null","","","","","<p><img src= images/blank.png width =""200"" height = ""200"" style = ""float:right""></p><p><img src=images/blank.png width =""800"" height = ""200""></p>","","","","","","","","","","","",""
"","154.00000009685755","sequential-stimulus-presentation","137","303191","0.0-29.0-1.1","SS1613169638106","trial","","40","800","954.0000000968575","images/stimuli/spore_stims/complex_01_B_b.gif","images/stimuli/spore_stims/complex_01_A_b.gif","","","","","7","complex_similar","images/stimuli/spore_stims/complex_01_A_b.gif","right","","","","",""
"","null","html-keyboard-response","138","304443","0.0-29.0-0.2","SS1613169638106","","","null","","","","","<p><img src= images/blank.png width =""200"" height = ""200"" style = ""float:right""></p><p><img src=images/blank.png width =""800"" height = ""200""></p>","","","","","","","","","","","",""
"","981.0000001452863","sequential-stimulus-presentation","139","306268","0.0-29.0-1.2","SS1613169638106","trial","","40","800","1781.0000001452863","images/stimuli/spore_stims/complex_01_B_b.gif","images/stimuli/spore_stims/complex_01_A_b.gif","","","","","7","complex_similar","images/stimuli/spore_stims/complex_01_A_b.gif","right","","","","",""
"","null","html-keyboard-response","140","307552","0.0-29.0-0.3","SS1613169638106","","","null","","","","","<p><img src= images/blank.png width =""200"" height = ""200"" style = ""float:right""></p><p><img src=images/blank.png width =""800"" height = ""200""></p>","","","","","","","","","","","",""
"","934.0000001247972","sequential-stimulus-presentation","141","309373","0.0-29.0-1.3","SS1613169638106","trial","","40","800","1734.0000001247972","images/stimuli/spore_stims/complex_01_B_b.gif","images/stimuli/spore_stims/complex_01_A_b.gif","","","","","7","complex_similar","images/stimuli/spore_stims/complex_01_A_b.gif","right","","","","",""
"","null","html-keyboard-response","142","310600","0.0-29.0-0.4","SS1613169638106","","","null","","","","","<p><img src= images/blank.png width =""200"" height = ""200"" style = ""float:right""></p><p><img src=images/blank.png width =""800"" height = ""200""></p>","","","","","","","","","","","",""
"","682.0000000298023","sequential-stimulus-presentation","143","312311","0.0-29.0-1.4","SS1613169638106","trial","","40","800","1482.0000000298023","images/stimuli/spore_stims/complex_01_B_b.gif","images/stimuli/spore_stims/complex_01_A_b.gif","","","","","7","complex_similar","images/stimuli/spore_stims/complex_01_B_b.gif","left","","","","",""
"","null","html-keyboard-response","144","313397","0.0-29.0-0.5","SS1613169638106","","","null","","","","","<p><img src= images/blank.png width =""200"" height = ""200"" style = ""float:right""></p><p><img src=images/blank.png width =""800"" height = ""200""></p>","","","","","","","","","","","",""
"","296.00000008940697","sequential-stimulus-presentation","145","314535","0.0-29.0-1.5","SS1613169638106","trial","","40","800","1096.000000089407","images/stimuli/spore_stims/complex_01_B_b.gif","images/stimuli/spore_stims/complex_01_A_b.gif","","","","","7","complex_similar","images/stimuli/spore_stims/complex_01_A_b.gif","right","","","","",""
"","null","html-keyboard-response","146","315505","0.0-29.0-0.6","SS1613169638106","","","null","","","","","<p><img src= images/blank.png width =""200"" height = ""200"" style = ""float:right""></p><p><img src=images/blank.png width =""800"" height = ""200""></p>","","","","","","","","","","","",""
"","121.00000004284084","sequential-stimulus-presentation","147","316460","0.0-29.0-1.6","SS1613169638106","trial","","40","800","921.0000000428408","images/stimuli/spore_stims/complex_01_B_b.gif","images/stimuli/spore_stims/complex_01_A_b.gif","","","","","7","complex_similar","images/stimuli/spore_stims/complex_01_A_b.gif","right","","","","",""
"","null","html-keyboard-response","148","317396","0.0-29.0-0.7","SS1613169638106","","","null","","","","","<p><img src= images/blank.png width =""200"" height = ""200"" style = ""float:right""></p><p><img src=images/blank.png width =""800"" height = ""200""></p>","","","","","","","","","","","",""
"","111.99999996460974","sequential-stimulus-presentation","149","318489","0.0-29.0-1.7","SS1613169638106","trial","","40","800","911.9999999646097","images/stimuli/spore_stims/complex_01_B_b.gif","images/stimuli/spore_stims/complex_01_A_b.gif","","","","","7","complex_similar","images/stimuli/spore_stims/complex_01_A_b.gif","right","","","","",""
"","1472.9999999981374","html-keyboard-response","150","319977","0.0-30.0","SS1613169638106","pref_question","","99","","","","","<video width ='960' height = '540' style='padding-top:8%' autoplay muted><source src='images/stimuli/wall_pref.mp4' type='video/mp4'></video>","3","right","66%","7","","","","","","","",""
"","702.9999999795109","sequential-stimulus-presentation","151","321511","0.0-31.0","SS1613169638106","pref_reveal","","40","800","1502.999999979511","null","null","","","","","7","","","","background","","","",""
"","null","html-keyboard-response","152","322740","0.0-32.0-0.0","SS1613169638106","","","null","","","","","<p><img src= images/blank.png width =""200"" height = ""200"" style = ""float:right""></p><p><img src=images/blank.png width =""800"" height = ""200""></p>","","","","","","","","","","","",""
"","1658.0000000540167","sequential-stimulus-presentation","153","325256","0.0-32.0-1.0","SS1613169638106","trial","","40","800","2458.0000000540167","images/stimuli/spore_stims/complex_12_A_b.gif","images/stimuli/spore_stims/complex_12_B_b.gif","","","","","8","complex_similar","images/stimuli/spore_stims/complex_12_B_b.gif","left","","","","",""
"","null","html-keyboard-response","154","326194","0.0-32.0-0.1","SS1613169638106","","","null","","","","","<p><img src= images/blank.png width =""200"" height = ""200"" style = ""float:right""></p><p><img src=images/blank.png width =""800"" height = ""200""></p>","","","","","","","","","","","",""
"","807.0000000298023","sequential-stimulus-presentation","155","327836","0.0-32.0-1.1","SS1613169638106","trial","","40","800","1607.0000000298023","images/stimuli/spore_stims/complex_12_A_b.gif","images/stimuli/spore_stims/complex_12_B_b.gif","","","","","8","complex_similar","images/stimuli/spore_stims/complex_12_B_b.gif","left","","","","",""
"","null","html-keyboard-response","156","328927","0.0-32.0-0.2","SS1613169638106","","","null","","","","","<p><img src= images/blank.png width =""200"" height = ""200"" style = ""float:right""></p><p><img src=images/blank.png width =""800"" height = ""200""></p>","","","","","","","","","","","",""
"","780.0000000279397","sequential-stimulus-presentation","157","330552","0.0-32.0-1.2","SS1613169638106","trial","","40","800","1580.0000000279397","images/stimuli/spore_stims/complex_12_A_b.gif","images/stimuli/spore_stims/complex_12_B_b.gif","","","","","8","complex_similar","images/stimuli/spore_stims/complex_12_B_b.gif","left","","","","",""
"","null","html-keyboard-response","158","331724","0.0-32.0-0.3","SS1613169638106","","","null","","","","","<p><img src= images/blank.png width =""200"" height = ""200"" style = ""float:right""></p><p><img src=images/blank.png width =""800"" height = ""200""></p>","","","","","","","","","","","",""
"","707.0000001695007","sequential-stimulus-presentation","159","333288","0.0-32.0-1.3","SS1613169638106","trial","","40","800","1507.0000001695007","images/stimuli/spore_stims/complex_12_A_b.gif","images/stimuli/spore_stims/complex_12_B_b.gif","","","","","8","complex_similar","images/stimuli/spore_stims/complex_12_B_b.gif","left","","","","",""
"","null","html-keyboard-response","160","334209","0.0-32.0-0.4","SS1613169638106","","","null","","","","","<p><img src= images/blank.png width =""200"" height = ""200"" style = ""float:right""></p><p><img src=images/blank.png width =""800"" height = ""200""></p>","","","","","","","","","","","",""
"","653.0000001657754","sequential-stimulus-presentation","161","335721","0.0-32.0-1.4","SS1613169638106","trial","","40","800","1453.0000001657754","images/stimuli/spore_stims/complex_12_A_b.gif","images/stimuli/spore_stims/complex_12_B_b.gif","","","","","8","complex_similar","images/stimuli/spore_stims/complex_12_A_b.gif","middle","","","","",""
"","null","html-keyboard-response","162","336958","0.0-32.0-0.5","SS1613169638106","","","null","","","","","<p><img src= images/blank.png width =""200"" height = ""200"" style = ""float:right""></p><p><img src=images/blank.png width =""800"" height = ""200""></p>","","","","","","","","","","","",""
"","197.99999985843897","sequential-stimulus-presentation","163","338010","0.0-32.0-1.5","SS1613169638106","trial","","40","800","997.999999858439","images/stimuli/spore_stims/complex_12_A_b.gif","images/stimuli/spore_stims/complex_12_B_b.gif","","","","","8","complex_similar","images/stimuli/spore_stims/complex_12_B_b.gif","left","","","","",""
"","null","html-keyboard-response","164","339304","0.0-32.0-0.6","SS1613169638106","","","null","","","","","<p><img src= images/blank.png width =""200"" height = ""200"" style = ""float:right""></p><p><img src=images/blank.png width =""800"" height = ""200""></p>","","","","","","","","","","","",""
"","241.00000015459955","sequential-stimulus-presentation","165","340458","0.0-32.0-1.6","SS1613169638106","trial","","40","800","1041.0000001545995","images/stimuli/spore_stims/complex_12_A_b.gif","images/stimuli/spore_stims/complex_12_B_b.gif","","","","","8","complex_similar","images/stimuli/spore_stims/complex_12_B_b.gif","left","","","","",""
"","null","html-keyboard-response","166","341412","0.0-32.0-0.7","SS1613169638106","","","null","","","","","<p><img src= images/blank.png width =""200"" height = ""200"" style = ""float:right""></p><p><img src=images/blank.png width =""800"" height = ""200""></p>","","","","","","","","","","","",""
"","662.999999942258","sequential-stimulus-presentation","167","342908","0.0-32.0-1.7","SS1613169638106","trial","","40","800","1462.999999942258","images/stimuli/spore_stims/complex_12_A_b.gif","images/stimuli/spore_stims/complex_12_B_b.gif","","","","","8","complex_similar","images/stimuli/spore_stims/complex_12_B_b.gif","left","","","","",""
"","1384.000000078231","html-keyboard-response","168","344306","0.0-33.0","SS1613169638106","pref_question","","97","","","","","<video width ='960' height = '540' style='padding-top:8%' autoplay muted><source src='images/stimuli/wall_pref.mp4' type='video/mp4'></video>","1","left","25%","8","","","","","","","",""
"","962.9999999888241","sequential-stimulus-presentation","169","346088","0.0-34.0","SS1613169638106","pref_reveal","","40","800","1762.9999999888241","null","null","","","","","8","","","","background","","","",""
"","null","html-keyboard-response","170","347397","0.0-35.0-0.0","SS1613169638106","","","null","","","","","<p><img src= images/blank.png width =""200"" height = ""200"" style = ""float:right""></p><p><img src=images/blank.png width =""800"" height = ""200""></p>","","","","","","","","","","","",""
"","1417.0000001322478","sequential-stimulus-presentation","171","349668","0.0-35.0-1.0","SS1613169638106","trial","","40","800","2217.000000132248","images/stimuli/spore_stims/simple_03_B_d.gif","images/stimuli/spore_stims/simple_03_A_d.gif","","","","","9","simple_similar","images/stimuli/spore_stims/simple_03_A_d.gif","left","","","","",""
"","null","html-keyboard-response","172","350614","0.0-35.0-0.1","SS1613169638106","","","null","","","","","<p><img src= images/blank.png width =""200"" height = ""200"" style = ""float:right""></p><p><img src=images/blank.png width =""800"" height = ""200""></p>","","","","","","","","","","","",""
"","834.9999999627471","sequential-stimulus-presentation","173","352281","0.0-35.0-1.1","SS1613169638106","trial","","40","800","1634.999999962747","images/stimuli/spore_stims/simple_03_B_d.gif","images/stimuli/spore_stims/simple_03_A_d.gif","","","","","9","simple_similar","images/stimuli/spore_stims/simple_03_A_d.gif","left","","","","",""
"","null","html-keyboard-response","174","353161","0.0-35.0-0.2","SS1613169638106","","","null","","","","","<p><img src= images/blank.png width =""200"" height = ""200"" style = ""float:right""></p><p><img src=images/blank.png width =""800"" height = ""200""></p>","","","","","","","","","","","",""
"","779.0000000968575","sequential-stimulus-presentation","175","354969","0.0-35.0-1.2","SS1613169638106","trial","","40","800","1579.0000000968575","images/stimuli/spore_stims/simple_03_B_d.gif","images/stimuli/spore_stims/simple_03_A_d.gif","","","","","9","simple_similar","images/stimuli/spore_stims/simple_03_A_d.gif","left","","","","",""
"","null","html-keyboard-response","176","356099","0.0-35.0-0.3","SS1613169638106","","","null","","","","","<p><img src= images/blank.png width =""200"" height = ""200"" style = ""float:right""></p><p><img src=images/blank.png width =""800"" height = ""200""></p>","","","","","","","","","","","",""
"","689.0000000130385","sequential-stimulus-presentation","177","357624","0.0-35.0-1.3","SS1613169638106","trial","","40","800","1489.0000000130385","images/stimuli/spore_stims/simple_03_B_d.gif","images/stimuli/spore_stims/simple_03_A_d.gif","","","","","9","simple_similar","images/stimuli/spore_stims/simple_03_A_d.gif","left","","","","",""
"","null","html-keyboard-response","178","358833","0.0-35.0-0.4","SS1613169638106","","","null","","","","","<p><img src= images/blank.png width =""200"" height = ""200"" style = ""float:right""></p><p><img src=images/blank.png width =""800"" height = ""200""></p>","","","","","","","","","","","",""
"","648.9999999757856","sequential-stimulus-presentation","179","360328","0.0-35.0-1.4","SS1613169638106","trial","","40","800","1448.9999999757856","images/stimuli/spore_stims/simple_03_B_d.gif","images/stimuli/spore_stims/simple_03_A_d.gif","","","","","9","simple_similar","images/stimuli/spore_stims/simple_03_A_d.gif","left","","","","",""
"","null","html-keyboard-response","180","361568","0.0-35.0-0.5","SS1613169638106","","","null","","","","","<p><img src= images/blank.png width =""200"" height = ""200"" style = ""float:right""></p><p><img src=images/blank.png width =""800"" height = ""200""></p>","","","","","","","","","","","",""
"","872.0000002067536","sequential-stimulus-presentation","181","363288","0.0-35.0-1.5","SS1613169638106","trial","","40","800","1672.0000002067536","images/stimuli/spore_stims/simple_03_B_d.gif","images/stimuli/spore_stims/simple_03_A_d.gif","","","","","9","simple_similar","images/stimuli/spore_stims/simple_03_B_d.gif","middle","","","","",""
"","null","html-keyboard-response","182","364317","0.0-35.0-0.6","SS1613169638106","","","null","","","","","<p><img src= images/blank.png width =""200"" height = ""200"" style = ""float:right""></p><p><img src=images/blank.png width =""800"" height = ""200""></p>","","","","","","","","","","","",""
"","712.9999999888241","sequential-stimulus-presentation","183","365865","0.0-35.0-1.6","SS1613169638106","trial","","40","800","1512.9999999888241","images/stimuli/spore_stims/simple_03_B_d.gif","images/stimuli/spore_stims/simple_03_A_d.gif","","","","","9","simple_similar","images/stimuli/spore_stims/simple_03_A_d.gif","left","","","","",""
"","null","html-keyboard-response","184","367147","0.0-35.0-0.7","SS1613169638106","","","null","","","","","<p><img src= images/blank.png width =""200"" height = ""200"" style = ""float:right""></p><p><img src=images/blank.png width =""800"" height = ""200""></p>","","","","","","","","","","","",""
"","518.9999998547137","sequential-stimulus-presentation","185","368502","0.0-35.0-1.7","SS1613169638106","trial","","40","800","1318.9999998547137","images/stimuli/spore_stims/simple_03_B_d.gif","images/stimuli/spore_stims/simple_03_A_d.gif","","","","","9","simple_similar","images/stimuli/spore_stims/simple_03_A_d.gif","left","","","","",""
"","1172.000000020489","html-keyboard-response","186","369687","0.0-36.0","SS1613169638106","pref_question","","97","","","","","<video width ='960' height = '540' style='padding-top:8%' autoplay muted><source src='images/stimuli/wall_pref.mp4' type='video/mp4'></video>","1","left","25%","9","","","","","","","",""
"","743.0000000167638","sequential-stimulus-presentation","187","371309","0.0-37.0","SS1613169638106","pref_reveal","","40","800","1543.0000000167638","null","null","","","","","9","","","","background","","","",""
"","null","html-keyboard-response","188","372177","0.0-38.0-0.0","SS1613169638106","","","null","","","","","<p><img src= images/blank.png width =""200"" height = ""200"" style = ""float:right""></p><p><img src=images/blank.png width =""800"" height = ""200""></p>","","","","","","","","","","","",""
"","1696.9999999273568","sequential-stimulus-presentation","189","374735","0.0-38.0-1.0","SS1613169638106","trial","","40","800","2496.999999927357","images/stimuli/spore_stims/simple_15_A_b.gif","images/stimuli/spore_stims/simple_11_B_b.gif","","","","","10","simple_dissimilar","images/stimuli/spore_stims/simple_11_B_b.gif","middle","","","","",""
"","null","html-keyboard-response","190","375599","0.0-38.0-0.1","SS1613169638106","","","null","","","","","<p><img src= images/blank.png width =""200"" height = ""200"" style = ""float:right""></p><p><img src=images/blank.png width =""800"" height = ""200""></p>","","","","","","","","","","","",""
"","65.99999987520278","sequential-stimulus-presentation","191","376624","0.0-38.0-1.1","SS1613169638106","trial","","40","800","865.9999998752028","images/stimuli/spore_stims/simple_15_A_b.gif","images/stimuli/spore_stims/simple_11_B_b.gif","","","","","10","simple_dissimilar","images/stimuli/spore_stims/simple_11_B_b.gif","middle","","","","",""
"","null","html-keyboard-response","192","377630","0.0-38.0-0.2","SS1613169638106","","","null","","","","","<p><img src= images/blank.png width =""200"" height = ""200"" style = ""float:right""></p><p><img src=images/blank.png width =""800"" height = ""200""></p>","","","","","","","","","","","",""
"","4.999999888241291","sequential-stimulus-presentation","193","378502","0.0-38.0-1.2","SS1613169638106","trial","","40","800","804.9999998882413","images/stimuli/spore_stims/simple_15_A_b.gif","images/stimuli/spore_stims/simple_11_B_b.gif","","","","","10","simple_dissimilar","images/stimuli/spore_stims/simple_15_A_b.gif","right","","","","",""
"","null","html-keyboard-response","194","379771","0.0-38.0-0.3","SS1613169638106","","","null","","","","","<p><img src= images/blank.png width =""200"" height = ""200"" style = ""float:right""></p><p><img src=images/blank.png width =""800"" height = ""200""></p>","","","","","","","","","","","",""
"","553.0000000726432","sequential-stimulus-presentation","195","381174","0.0-38.0-1.3","SS1613169638106","trial","","40","800","1353.0000000726432","images/stimuli/spore_stims/simple_15_A_b.gif","images/stimuli/spore_stims/simple_11_B_b.gif","","","","","10","simple_dissimilar","images/stimuli/spore_stims/simple_11_B_b.gif","middle","","","","",""
"","null","html-keyboard-response","196","382160","0.0-38.0-0.4","SS1613169638106","","","null","","","","","<p><img src= images/blank.png width =""200"" height = ""200"" style = ""float:right""></p><p><img src=images/blank.png width =""800"" height = ""200""></p>","","","","","","","","","","","",""
"","851.9999999552965","sequential-stimulus-presentation","197","383846","0.0-38.0-1.4","SS1613169638106","trial","","40","800","1651.9999999552965","images/stimuli/spore_stims/simple_15_A_b.gif","images/stimuli/spore_stims/simple_11_B_b.gif","","","","","10","simple_dissimilar","images/stimuli/spore_stims/simple_11_B_b.gif","middle","","","","",""
"","null","html-keyboard-response","198","384770","0.0-38.0-0.5","SS1613169638106","","","null","","","","","<p><img src= images/blank.png width =""200"" height = ""200"" style = ""float:right""></p><p><img src=images/blank.png width =""800"" height = ""200""></p>","","","","","","","","","","","",""
"","628.9999999571592","sequential-stimulus-presentation","199","386216","0.0-38.0-1.5","SS1613169638106","trial","","40","800","1428.9999999571592","images/stimuli/spore_stims/simple_15_A_b.gif","images/stimuli/spore_stims/simple_11_B_b.gif","","","","","10","simple_dissimilar","images/stimuli/spore_stims/simple_11_B_b.gif","middle","","","","",""
"","null","html-keyboard-response","200","387036","0.0-38.0-0.6","SS1613169638106","","","null","","","","","<p><img src= images/blank.png width =""200"" height = ""200"" style = ""float:right""></p><p><img src=images/blank.png width =""800"" height = ""200""></p>","","","","","","","","","","","",""
"","904.0000000968575","sequential-stimulus-presentation","201","388783","0.0-38.0-1.6","SS1613169638106","trial","","40","800","1704.0000000968575","images/stimuli/spore_stims/simple_15_A_b.gif","images/stimuli/spore_stims/simple_11_B_b.gif","","","","","10","simple_dissimilar","images/stimuli/spore_stims/simple_11_B_b.gif","middle","","","","",""
"","null","html-keyboard-response","202","389723","0.0-38.0-0.7","SS1613169638106","","","null","","","","","<p><img src= images/blank.png width =""200"" height = ""200"" style = ""float:right""></p><p><img src=images/blank.png width =""800"" height = ""200""></p>","","","","","","","","","","","",""
"","833.0000001005828","sequential-stimulus-presentation","203","391389","0.0-38.0-1.7","SS1613169638106","trial","","40","800","1633.0000001005828","images/stimuli/spore_stims/simple_15_A_b.gif","images/stimuli/spore_stims/simple_11_B_b.gif","","","","","10","simple_dissimilar","images/stimuli/spore_stims/simple_11_B_b.gif","middle","","","","",""
"","1245.0000001117587","html-keyboard-response","204","392649","0.0-39.0","SS1613169638106","pref_question","","99","","","","","<video width ='960' height = '540' style='padding-top:8%' autoplay muted><source src='images/stimuli/wall_pref.mp4' type='video/mp4'></video>","3","right","66%","10","","","","","","","",""
"","689.0000000130385","sequential-stimulus-presentation","205","394153","0.0-40.0","SS1613169638106","pref_reveal","","40","800","1489.0000000130385","null","null","","","","","10","","","","deviant","","","",""
"","null","html-keyboard-response","206","395067","0.0-41.0-0.0","SS1613169638106","","","null","","","","","<p><img src= images/blank.png width =""200"" height = ""200"" style = ""float:right""></p><p><img src=images/blank.png width =""800"" height = ""200""></p>","","","","","","","","","","","",""
"","21.99999988079071","sequential-stimulus-presentation","207","396026","0.0-41.0-1.0","SS1613169638106","trial","","40","800","821.9999998807907","images/stimuli/spore_stims/complex_03_A_d.gif","images/stimuli/spore_stims/complex_07_A_a.gif","","","","","11","complex_dissimilar","images/stimuli/spore_stims/complex_07_A_a.gif","right","","","","",""
"","null","html-keyboard-response","208","396911","0.0-41.0-0.1","SS1613169638106","","","null","","","","","<p><img src= images/blank.png width =""200"" height = ""200"" style = ""float:right""></p><p><img src=images/blank.png width =""800"" height = ""200""></p>","","","","","","","","","","","",""
"","1765.0000001303852","sequential-stimulus-presentation","209","399511","0.0-41.0-1.1","SS1613169638106","trial","","40","800","2565.000000130385","images/stimuli/spore_stims/complex_03_A_d.gif","images/stimuli/spore_stims/complex_07_A_a.gif","","","","","11","complex_dissimilar","images/stimuli/spore_stims/complex_07_A_a.gif","right","","","","",""
"","null","html-keyboard-response","210","400709","0.0-41.0-0.2","SS1613169638106","","","null","","","","","<p><img src= images/blank.png width =""200"" height = ""200"" style = ""float:right""></p><p><img src=images/blank.png width =""800"" height = ""200""></p>","","","","","","","","","","","",""
"","1510.9999999403954","sequential-stimulus-presentation","211","403047","0.0-41.0-1.2","SS1613169638106","trial","","40","800","2310.9999999403954","images/stimuli/spore_stims/complex_03_A_d.gif","images/stimuli/spore_stims/complex_07_A_a.gif","","","","","11","complex_dissimilar","images/stimuli/spore_stims/complex_07_A_a.gif","right","","","","",""
"","null","html-keyboard-response","212","404254","0.0-41.0-0.3","SS1613169638106","","","null","","","","","<p><img src= images/blank.png width =""200"" height = ""200"" style = ""float:right""></p><p><img src=images/blank.png width =""800"" height = ""200""></p>","","","","","","","","","","","",""
"","628.9999999571592","sequential-stimulus-presentation","213","405719","0.0-41.0-1.3","SS1613169638106","trial","","40","800","1428.9999999571592","images/stimuli/spore_stims/complex_03_A_d.gif","images/stimuli/spore_stims/complex_07_A_a.gif","","","","","11","complex_dissimilar","images/stimuli/spore_stims/complex_07_A_a.gif","right","","","","",""
"","null","html-keyboard-response","214","406848","0.0-41.0-0.4","SS1613169638106","","","null","","","","","<p><img src= images/blank.png width =""200"" height = ""200"" style = ""float:right""></p><p><img src=images/blank.png width =""800"" height = ""200""></p>","","","","","","","","","","","",""
"","642.9999999236315","sequential-stimulus-presentation","215","408327","0.0-41.0-1.4","SS1613169638106","trial","","40","800","1442.9999999236315","images/stimuli/spore_stims/complex_03_A_d.gif","images/stimuli/spore_stims/complex_07_A_a.gif","","","","","11","complex_dissimilar","images/stimuli/spore_stims/complex_07_A_a.gif","right","","","","",""
"","null","html-keyboard-response","216","409553","0.0-41.0-0.5","SS1613169638106","","","null","","","","","<p><img src= images/blank.png width =""200"" height = ""200"" style = ""float:right""></p><p><img src=images/blank.png width =""800"" height = ""200""></p>","","","","","","","","","","","",""
"","888.9999999664724","sequential-stimulus-presentation","217","411272","0.0-41.0-1.5","SS1613169638106","trial","","40","800","1688.9999999664724","images/stimuli/spore_stims/complex_03_A_d.gif","images/stimuli/spore_stims/complex_07_A_a.gif","","","","","11","complex_dissimilar","images/stimuli/spore_stims/complex_07_A_a.gif","right","","","","",""
"","null","html-keyboard-response","218","412391","0.0-41.0-0.6","SS1613169638106","","","null","","","","","<p><img src= images/blank.png width =""200"" height = ""200"" style = ""float:right""></p><p><img src=images/blank.png width =""800"" height = ""200""></p>","","","","","","","","","","","",""
"","212.000000057742","sequential-stimulus-presentation","219","413456","0.0-41.0-1.6","SS1613169638106","trial","","40","800","1012.000000057742","images/stimuli/spore_stims/complex_03_A_d.gif","images/stimuli/spore_stims/complex_07_A_a.gif","","","","","11","complex_dissimilar","images/stimuli/spore_stims/complex_03_A_d.gif","middle","","","","",""
"","null","html-keyboard-response","220","414505","0.0-41.0-0.7","SS1613169638106","","","null","","","","","<p><img src= images/blank.png width =""200"" height = ""200"" style = ""float:right""></p><p><img src=images/blank.png width =""800"" height = ""200""></p>","","","","","","","","","","","",""
"","591.9999999459833","sequential-stimulus-presentation","221","415928","0.0-41.0-1.7","SS1613169638106","trial","","40","800","1391.9999999459833","images/stimuli/spore_stims/complex_03_A_d.gif","images/stimuli/spore_stims/complex_07_A_a.gif","","","","","11","complex_dissimilar","images/stimuli/spore_stims/complex_07_A_a.gif","right","","","","",""
"","1205.0000000745058","html-keyboard-response","222","417145","0.0-42.0","SS1613169638106","pref_question","","99","","","","","<video width ='960' height = '540' style='padding-top:8%' autoplay muted><source src='images/stimuli/wall_pref.mp4' type='video/mp4'></video>","3","right","66%","11","","","","","","","",""
"","615.9999999217689","sequential-stimulus-presentation","223","418591","0.0-43.0","SS1613169638106","pref_reveal","","40","800","1415.999999921769","null","null","","","","","11","","","","background","","","",""
"","null","html-keyboard-response","224","419645","0.0-44.0-0.0","SS1613169638106","","","null","","","","","<p><img src= images/blank.png width =""200"" height = ""200"" style = ""float:right""></p><p><img src=images/blank.png width =""800"" height = ""200""></p>","","","","","","","","","","","",""
"","824.9999999534339","sequential-stimulus-presentation","225","421320","0.0-44.0-1.0","SS1613169638106","trial","","40","800","1624.9999999534339","images/stimuli/spore_stims/simple_16_B_c.gif","images/stimuli/spore_stims/simple_16_A_c.gif","","","","","12","simple_similar","images/stimuli/spore_stims/simple_16_A_c.gif","left","","","","",""
"","null","html-keyboard-response","226","422161","0.0-44.0-0.1","SS1613169638106","","","null","","","","","<p><img src= images/blank.png width =""200"" height = ""200"" style = ""float:right""></p><p><img src=images/blank.png width =""800"" height = ""200""></p>","","","","","","","","","","","",""
"","797.0000000204891","sequential-stimulus-presentation","227","423799","0.0-44.0-1.1","SS1613169638106","trial","","40","800","1597.000000020489","images/stimuli/spore_stims/simple_16_B_c.gif","images/stimuli/spore_stims/simple_16_A_c.gif","","","","","12","simple_similar","images/stimuli/spore_stims/simple_16_A_c.gif","left","","","","",""
"","null","html-keyboard-response","228","424991","0.0-44.0-0.2","SS1613169638106","","","null","","","","","<p><img src= images/blank.png width =""200"" height = ""200"" style = ""float:right""></p><p><img src=images/blank.png width =""800"" height = ""200""></p>","","","","","","","","","","","",""
"","119.99999987892807","sequential-stimulus-presentation","229","425965","0.0-44.0-1.2","SS1613169638106","trial","","40","800","919.9999998789281","images/stimuli/spore_stims/simple_16_B_c.gif","images/stimuli/spore_stims/simple_16_A_c.gif","","","","","12","simple_similar","images/stimuli/spore_stims/simple_16_A_c.gif","left","","","","",""
"","null","html-keyboard-response","230","426850","0.0-44.0-0.3","SS1613169638106","","","null","","","","","<p><img src= images/blank.png width =""200"" height = ""200"" style = ""float:right""></p><p><img src=images/blank.png width =""800"" height = ""200""></p>","","","","","","","","","","","",""
"","38.99999987334013","sequential-stimulus-presentation","231","427764","0.0-44.0-1.3","SS1613169638106","trial","","40","800","838.9999998733401","images/stimuli/spore_stims/simple_16_B_c.gif","images/stimuli/spore_stims/simple_16_A_c.gif","","","","","12","simple_similar","images/stimuli/spore_stims/simple_16_B_c.gif","right","","","","",""
"","null","html-keyboard-response","232","429021","0.0-44.0-0.4","SS1613169638106","","","null","","","","","<p><img src= images/blank.png width =""200"" height = ""200"" style = ""float:right""></p><p><img src=images/blank.png width =""800"" height = ""200""></p>","","","","","","","","","","","",""
"","51.99999990873039","sequential-stimulus-presentation","233","429931","0.0-44.0-1.4","SS1613169638106","trial","","40","800","851.9999999087304","images/stimuli/spore_stims/simple_16_B_c.gif","images/stimuli/spore_stims/simple_16_A_c.gif","","","","","12","simple_similar","images/stimuli/spore_stims/simple_16_A_c.gif","left","","","","",""
"","null","html-keyboard-response","234","431163","0.0-44.0-0.5","SS1613169638106","","","null","","","","","<p><img src= images/blank.png width =""200"" height = ""200"" style = ""float:right""></p><p><img src=images/blank.png width =""800"" height = ""200""></p>","","","","","","","","","","","",""
"","3.9999999571591616","sequential-stimulus-presentation","235","432033","0.0-44.0-1.5","SS1613169638106","trial","","40","800","803.9999999571592","images/stimuli/spore_stims/simple_16_B_c.gif","images/stimuli/spore_stims/simple_16_A_c.gif","","","","","12","simple_similar","images/stimuli/spore_stims/simple_16_A_c.gif","left","","","","",""
"","null","html-keyboard-response","236","433161","0.0-44.0-0.6","SS1613169638106","","","null","","","","","<p><img src= images/blank.png width =""200"" height = ""200"" style = ""float:right""></p><p><img src=images/blank.png width =""800"" height = ""200""></p>","","","","","","","","","","","",""
"","128.99999995715916","sequential-stimulus-presentation","237","434123","0.0-44.0-1.6","SS1613169638106","trial","","40","800","928.9999999571592","images/stimuli/spore_stims/simple_16_B_c.gif","images/stimuli/spore_stims/simple_16_A_c.gif","","","","","12","simple_similar","images/stimuli/spore_stims/simple_16_A_c.gif","left","","","","",""
"","null","html-keyboard-response","238","435020","0.0-44.0-0.7","SS1613169638106","","","null","","","","","<p><img src= images/blank.png width =""200"" height = ""200"" style = ""float:right""></p><p><img src=images/blank.png width =""800"" height = ""200""></p>","","","","","","","","","","","",""
"","123.00000013783574","sequential-stimulus-presentation","239","435992","0.0-44.0-1.7","SS1613169638106","trial","","40","800","923.0000001378357","images/stimuli/spore_stims/simple_16_B_c.gif","images/stimuli/spore_stims/simple_16_A_c.gif","","","","","12","simple_similar","images/stimuli/spore_stims/simple_16_A_c.gif","left","","","","",""
"","1111.0000000335276","html-keyboard-response","240","437112","0.0-45.0","SS1613169638106","pref_question","","98","","","","","<video width ='960' height = '540' style='padding-top:8%' autoplay muted><source src='images/stimuli/wall_pref.mp4' type='video/mp4'></video>","2","middle","45%","12","","","","","","","",""
"","32.999999821186066","sequential-stimulus-presentation","241","437993","0.0-46.0","SS1613169638106","pref_reveal","","40","800","832.9999998211861","null","null","","","","","12","","","","novel","","","",""
"","null","html-keyboard-response","242","438974","0.0-47.0-0.0","SS1613169638106","","","null","","","","","<p><img src= images/blank.png width =""200"" height = ""200"" style = ""float:right""></p><p><img src=images/blank.png width =""800"" height = ""200""></p>","","","","","","","","","","","",""
"","273.9999999757856","sequential-stimulus-presentation","243","440112","0.0-47.0-1.0","SS1613169638106","trial","","40","800","1073.9999999757856","images/stimuli/spore_stims/complex_08_A_b.gif","images/stimuli/spore_stims/complex_08_B_b.gif","","","","","13","complex_similar","images/stimuli/spore_stims/complex_08_B_b.gif","middle","","","","",""
"","null","html-keyboard-response","244","441148","0.0-47.0-0.1","SS1613169638106","","","null","","","","","<p><img src= images/blank.png width =""200"" height = ""200"" style = ""float:right""></p><p><img src=images/blank.png width =""800"" height = ""200""></p>","","","","","","","","","","","",""
"","67.99999997019768","sequential-stimulus-presentation","245","442060","0.0-47.0-1.1","SS1613169638106","trial","","40","800","867.9999999701977","images/stimuli/spore_stims/complex_08_A_b.gif","images/stimuli/spore_stims/complex_08_B_b.gif","","","","","13","complex_similar","images/stimuli/spore_stims/complex_08_B_b.gif","middle","","","","",""
"","null","html-keyboard-response","246","443193","0.0-47.0-0.2","SS1613169638106","","","null","","","","","<p><img src= images/blank.png width =""200"" height = ""200"" style = ""float:right""></p><p><img src=images/blank.png width =""800"" height = ""200""></p>","","","","","","","","","","","",""
"","165.99999996833503","sequential-stimulus-presentation","247","444196","0.0-47.0-1.2","SS1613169638106","trial","","40","800","965.999999968335","images/stimuli/spore_stims/complex_08_A_b.gif","images/stimuli/spore_stims/complex_08_B_b.gif","","","","","13","complex_similar","images/stimuli/spore_stims/complex_08_B_b.gif","middle","","","","",""
"","null","html-keyboard-response","248","445351","0.0-47.0-0.3","SS1613169638106","","","null","","","","","<p><img src= images/blank.png width =""200"" height = ""200"" style = ""float:right""></p><p><img src=images/blank.png width =""800"" height = ""200""></p>","","","","","","","","","","","",""
"","103.00000011920929","sequential-stimulus-presentation","249","446283","0.0-47.0-1.3","SS1613169638106","trial","","40","800","903.0000001192093","images/stimuli/spore_stims/complex_08_A_b.gif","images/stimuli/spore_stims/complex_08_B_b.gif","","","","","13","complex_similar","images/stimuli/spore_stims/complex_08_B_b.gif","middle","","","","",""
"","null","html-keyboard-response","250","447474","0.0-47.0-0.4","SS1613169638106","","","null","","","","","<p><img src= images/blank.png width =""200"" height = ""200"" style = ""float:right""></p><p><img src=images/blank.png width =""800"" height = ""200""></p>","","","","","","","","","","","",""
"","84.00000003166497","sequential-stimulus-presentation","251","448406","0.0-47.0-1.4","SS1613169638106","trial","","40","800","884.000000031665","images/stimuli/spore_stims/complex_08_A_b.gif","images/stimuli/spore_stims/complex_08_B_b.gif","","","","","13","complex_similar","images/stimuli/spore_stims/complex_08_B_b.gif","middle","","","","",""
"","null","html-keyboard-response","252","449582","0.0-47.0-0.5","SS1613169638106","","","null","","","","","<p><img src= images/blank.png width =""200"" height = ""200"" style = ""float:right""></p><p><img src=images/blank.png width =""800"" height = ""200""></p>","","","","","","","","","","","",""
"","66.00000010803342","sequential-stimulus-presentation","253","450467","0.0-47.0-1.5","SS1613169638106","trial","","40","800","866.0000001080334","images/stimuli/spore_stims/complex_08_A_b.gif","images/stimuli/spore_stims/complex_08_B_b.gif","","","","","13","complex_similar","images/stimuli/spore_stims/complex_08_B_b.gif","middle","","","","",""
"","null","html-keyboard-response","254","451713","0.0-47.0-0.6","SS1613169638106","","","null","","","","","<p><img src= images/blank.png width =""200"" height = ""200"" style = ""float:right""></p><p><img src=images/blank.png width =""800"" height = ""200""></p>","","","","","","","","","","","",""
"","263.9999999664724","sequential-stimulus-presentation","255","452827","0.0-47.0-1.6","SS1613169638106","trial","","40","800","1063.9999999664724","images/stimuli/spore_stims/complex_08_A_b.gif","images/stimuli/spore_stims/complex_08_B_b.gif","","","","","13","complex_similar","images/stimuli/spore_stims/complex_08_A_b.gif","left","","","","",""
"","null","html-keyboard-response","256","453849","0.0-47.0-0.7","SS1613169638106","","","null","","","","","<p><img src= images/blank.png width =""200"" height = ""200"" style = ""float:right""></p><p><img src=images/blank.png width =""800"" height = ""200""></p>","","","","","","","","","","","",""
"","239.99999999068677","sequential-stimulus-presentation","257","454934","0.0-47.0-1.7","SS1613169638106","trial","","40","800","1039.9999999906868","images/stimuli/spore_stims/complex_08_A_b.gif","images/stimuli/spore_stims/complex_08_B_b.gif","","","","","13","complex_similar","images/stimuli/spore_stims/complex_08_B_b.gif","middle","","","","",""
"","1175.0000000465661","html-keyboard-response","258","456121","0.0-48.0","SS1613169638106","pref_question","","97","","","","","<video width ='960' height = '540' style='padding-top:8%' autoplay muted><source src='images/stimuli/wall_pref.mp4' type='video/mp4'></video>","1","left","25%","13","","","","","","","",""
"","77.9999999795109","sequential-stimulus-presentation","259","457015","0.0-49.0","SS1613169638106","pref_reveal","","40","800","877.9999999795109","null","null","","","","","13","","","","deviant","","","",""
"","null","html-keyboard-response","260","458177","0.0-50.0-0.0","SS1613169638106","","","null","","","","","<p><img src= images/blank.png width =""200"" height = ""200"" style = ""float:right""></p><p><img src=images/blank.png width =""800"" height = ""200""></p>","","","","","","","","","","","",""
"","168.99999999441206","sequential-stimulus-presentation","261","459190","0.0-50.0-1.0","SS1613169638106","trial","","40","800","968.9999999944121","images/stimuli/spore_stims/simple_19_B_a.gif","images/stimuli/spore_stims/simple_11_A_c.gif","","","","","14","simple_dissimilar","images/stimuli/spore_stims/simple_11_A_c.gif","right","","","","",""
"","null","html-keyboard-response","262","460083","0.0-50.0-0.1","SS1613169638106","","","null","","","","","<p><img src= images/blank.png width =""200"" height = ""200"" style = ""float:right""></p><p><img src=images/blank.png width =""800"" height = ""200""></p>","","","","","","","","","","","",""
"","135.99999994039536","sequential-stimulus-presentation","263","461065","0.0-50.0-1.1","SS1613169638106","trial","","40","800","935.9999999403954","images/stimuli/spore_stims/simple_19_B_a.gif","images/stimuli/spore_stims/simple_11_A_c.gif","","","","","14","simple_dissimilar","images/stimuli/spore_stims/simple_11_A_c.gif","right","","","","",""
"","null","html-keyboard-response","264","462349","0.0-50.0-0.2","SS1613169638106","","","null","","","","","<p><img src= images/blank.png width =""200"" height = ""200"" style = ""float:right""></p><p><img src=images/blank.png width =""800"" height = ""200""></p>","","","","","","","","","","","",""
"","40.99999996833503","sequential-stimulus-presentation","265","463289","0.0-50.0-1.2","SS1613169638106","trial","","40","800","840.999999968335","images/stimuli/spore_stims/simple_19_B_a.gif","images/stimuli/spore_stims/simple_11_A_c.gif","","","","","14","simple_dissimilar","images/stimuli/spore_stims/simple_11_A_c.gif","right","","","","",""
"","null","html-keyboard-response","266","464411","0.0-50.0-0.3","SS1613169638106","","","null","","","","","<p><img src= images/blank.png width =""200"" height = ""200"" style = ""float:right""></p><p><img src=images/blank.png width =""800"" height = ""200""></p>","","","","","","","","","","","",""
"","196.99999992735684","sequential-stimulus-presentation","267","465465","0.0-50.0-1.3","SS1613169638106","trial","","40","800","996.9999999273568","images/stimuli/spore_stims/simple_19_B_a.gif","images/stimuli/spore_stims/simple_11_A_c.gif","","","","","14","simple_dissimilar","images/stimuli/spore_stims/simple_19_B_a.gif","middle","","","","",""
"","null","html-keyboard-response","268","466629","0.0-50.0-0.4","SS1613169638106","","","null","","","","","<p><img src= images/blank.png width =""200"" height = ""200"" style = ""float:right""></p><p><img src=images/blank.png width =""800"" height = ""200""></p>","","","","","","","","","","","",""
"","1162.0000000111759","sequential-stimulus-presentation","269","468634","0.0-50.0-1.4","SS1613169638106","trial","","40","800","1962.0000000111759","images/stimuli/spore_stims/simple_19_B_a.gif","images/stimuli/spore_stims/simple_11_A_c.gif","","","","","14","simple_dissimilar","images/stimuli/spore_stims/simple_11_A_c.gif","right","","","","",""
"","null","html-keyboard-response","270","469458","0.0-50.0-0.5","SS1613169638106","","","null","","","","","<p><img src= images/blank.png width =""200"" height = ""200"" style = ""float:right""></p><p><img src=images/blank.png width =""800"" height = ""200""></p>","","","","","","","","","","","",""
"","617.0000000856817","sequential-stimulus-presentation","271","470920","0.0-50.0-1.5","SS1613169638106","trial","","40","800","1417.0000000856817","images/stimuli/spore_stims/simple_19_B_a.gif","images/stimuli/spore_stims/simple_11_A_c.gif","","","","","14","simple_dissimilar","images/stimuli/spore_stims/simple_11_A_c.gif","right","","","","",""
"","null","html-keyboard-response","272","472147","0.0-50.0-0.6","SS1613169638106","","","null","","","","","<p><img src= images/blank.png width =""200"" height = ""200"" style = ""float:right""></p><p><img src=images/blank.png width =""800"" height = ""200""></p>","","","","","","","","","","","",""
"","1459.999999962747","sequential-stimulus-presentation","273","474518","0.0-50.0-1.6","SS1613169638106","trial","","40","800","2259.999999962747","images/stimuli/spore_stims/simple_19_B_a.gif","images/stimuli/spore_stims/simple_11_A_c.gif","","","","","14","simple_dissimilar","images/stimuli/spore_stims/simple_11_A_c.gif","right","","","","",""
"","null","html-keyboard-response","274","475568","0.0-50.0-0.7","SS1613169638106","","","null","","","","","<p><img src= images/blank.png width =""200"" height = ""200"" style = ""float:right""></p><p><img src=images/blank.png width =""800"" height = ""200""></p>","","","","","","","","","","","",""
"","34.99999991618097","sequential-stimulus-presentation","275","476472","0.0-50.0-1.7","SS1613169638106","trial","","40","800","834.999999916181","images/stimuli/spore_stims/simple_19_B_a.gif","images/stimuli/spore_stims/simple_11_A_c.gif","","","","","14","simple_dissimilar","images/stimuli/spore_stims/simple_11_A_c.gif","right","","","","",""
"","1929.0000000037253","html-keyboard-response","276","478474","0.0-51.0","SS1613169638106","pref_question","","99","","","","","<video width ='960' height = '540' style='padding-top:8%' autoplay muted><source src='images/stimuli/wall_pref.mp4' type='video/mp4'></video>","3","right","66%","14","","","","","","","",""
"","702.0000000484288","sequential-stimulus-presentation","277","480008","0.0-52.0","SS1613169638106","pref_reveal","","40","800","1502.0000000484288","null","null","","","","","14","","","","background","","","",""
"","null","html-keyboard-response","278","481178","0.0-53.0-0.0","SS1613169638106","","","null","","","","","<p><img src= images/blank.png width =""200"" height = ""200"" style = ""float:right""></p><p><img src=images/blank.png width =""800"" height = ""200""></p>","","","","","","","","","","","",""
"","1242.0000000856817","sequential-stimulus-presentation","279","483277","0.0-53.0-1.0","SS1613169638106","trial","","40","800","2042.0000000856817","images/stimuli/spore_stims/complex_13_A_d.gif","images/stimuli/spore_stims/complex_19_A_a.gif","","","","","15","complex_dissimilar","images/stimuli/spore_stims/complex_19_A_a.gif","middle","","","","",""
"","null","html-keyboard-response","280","484224","0.0-53.0-0.1","SS1613169638106","","","null","","","","","<p><img src= images/blank.png width =""200"" height = ""200"" style = ""float:right""></p><p><img src=images/blank.png width =""800"" height = ""200""></p>","","","","","","","","","","","",""
"","655.0000000279397","sequential-stimulus-presentation","281","485720","0.0-53.0-1.1","SS1613169638106","trial","","40","800","1455.0000000279397","images/stimuli/spore_stims/complex_13_A_d.gif","images/stimuli/spore_stims/complex_19_A_a.gif","","","","","15","complex_dissimilar","images/stimuli/spore_stims/complex_19_A_a.gif","middle","","","","",""
"","null","html-keyboard-response","282","486551","0.0-53.0-0.2","SS1613169638106","","","null","","","","","<p><img src= images/blank.png width =""200"" height = ""200"" style = ""float:right""></p><p><img src=images/blank.png width =""800"" height = ""200""></p>","","","","","","","","","","","",""
"","457.9999998677522","sequential-stimulus-presentation","283","487848","0.0-53.0-1.2","SS1613169638106","trial","","40","800","1257.9999998677522","images/stimuli/spore_stims/complex_13_A_d.gif","images/stimuli/spore_stims/complex_19_A_a.gif","","","","","15","complex_dissimilar","images/stimuli/spore_stims/complex_19_A_a.gif","middle","","","","",""
"","null","html-keyboard-response","284","489138","0.0-53.0-0.3","SS1613169638106","","","null","","","","","<p><img src= images/blank.png width =""200"" height = ""200"" style = ""float:right""></p><p><img src=images/blank.png width =""800"" height = ""200""></p>","","","","","","","","","","","",""
"","615.9999999217689","sequential-stimulus-presentation","285","490589","0.0-53.0-1.3","SS1613169638106","trial","","40","800","1415.999999921769","images/stimuli/spore_stims/complex_13_A_d.gif","images/stimuli/spore_stims/complex_19_A_a.gif","","","","","15","complex_dissimilar","images/stimuli/spore_stims/complex_19_A_a.gif","middle","","","","",""
"","null","html-keyboard-response","286","491692","0.0-53.0-0.4","SS1613169638106","","","null","","","","","<p><img src= images/blank.png width =""200"" height = ""200"" style = ""float:right""></p><p><img src=images/blank.png width =""800"" height = ""200""></p>","","","","","","","","","","","",""
"","87.99999998882413","sequential-stimulus-presentation","287","492623","0.0-53.0-1.4","SS1613169638106","trial","","40","800","887.9999999888241","images/stimuli/spore_stims/complex_13_A_d.gif","images/stimuli/spore_stims/complex_19_A_a.gif","","","","","15","complex_dissimilar","images/stimuli/spore_stims/complex_19_A_a.gif","middle","","","","",""
"","null","html-keyboard-response","288","493790","0.0-53.0-0.5","SS1613169638106","","","null","","","","","<p><img src= images/blank.png width =""200"" height = ""200"" style = ""float:right""></p><p><img src=images/blank.png width =""800"" height = ""200""></p>","","","","","","","","","","","",""
"","220.99999990314245","sequential-stimulus-presentation","289","494843","0.0-53.0-1.5","SS1613169638106","trial","","40","800","1020.9999999031425","images/stimuli/spore_stims/complex_13_A_d.gif","images/stimuli/spore_stims/complex_19_A_a.gif","","","","","15","complex_dissimilar","images/stimuli/spore_stims/complex_19_A_a.gif","middle","","","","",""
"","null","html-keyboard-response","290","495755","0.0-53.0-0.6","SS1613169638106","","","null","","","","","<p><img src= images/blank.png width =""200"" height = ""200"" style = ""float:right""></p><p><img src=images/blank.png width =""800"" height = ""200""></p>","","","","","","","","","","","",""
"","103.99999981746078","sequential-stimulus-presentation","291","496740","0.0-53.0-1.6","SS1613169638106","trial","","40","800","903.9999998174608","images/stimuli/spore_stims/complex_13_A_d.gif","images/stimuli/spore_stims/complex_19_A_a.gif","","","","","15","complex_dissimilar","images/stimuli/spore_stims/complex_13_A_d.gif","left","","","","",""
"","null","html-keyboard-response","292","497913","0.0-53.0-0.7","SS1613169638106","","","null","","","","","<p><img src= images/blank.png width =""200"" height = ""200"" style = ""float:right""></p><p><img src=images/blank.png width =""800"" height = ""200""></p>","","","","","","","","","","","",""
"","65.99999987520278","sequential-stimulus-presentation","293","498905","0.0-53.0-1.7","SS1613169638106","trial","","40","800","865.9999998752028","images/stimuli/spore_stims/complex_13_A_d.gif","images/stimuli/spore_stims/complex_19_A_a.gif","","","","","15","complex_dissimilar","images/stimuli/spore_stims/complex_19_A_a.gif","middle","","","","",""
"","2478.999999817461","html-keyboard-response","294","501404","0.0-54.0","SS1613169638106","pref_question","","97","","","","","<video width ='960' height = '540' style='padding-top:8%' autoplay muted><source src='images/stimuli/wall_pref.mp4' type='video/mp4'></video>","1","left","25%","15","","","","","","","",""
"","620.0000001117587","sequential-stimulus-presentation","295","502839","0.0-55.0","SS1613169638106","pref_reveal","","40","800","1420.0000001117587","null","null","","","","","15","","","","deviant","","","",""
"","null","html-keyboard-response","296","503791","0.0-56.0-0.0","SS1613169638106","","","null","","","","","<p><img src= images/blank.png width =""200"" height = ""200"" style = ""float:right""></p><p><img src=images/blank.png width =""800"" height = ""200""></p>","","","","","","","","","","","",""
"","479.99999998137355","sequential-stimulus-presentation","297","505188","0.0-56.0-1.0","SS1613169638106","trial","","40","800","1279.9999999813735","images/stimuli/spore_stims/complex_10_A_a.gif","images/stimuli/spore_stims/complex_10_B_a.gif","","","","","16","complex_similar","images/stimuli/spore_stims/complex_10_B_a.gif","middle","","","","",""
"","null","html-keyboard-response","298","506396","0.0-56.0-0.1","SS1613169638106","","","null","","","","","<p><img src= images/blank.png width =""200"" height = ""200"" style = ""float:right""></p><p><img src=images/blank.png width =""800"" height = ""200""></p>","","","","","","","","","","","",""
"","22.000000113621354","sequential-stimulus-presentation","299","507247","0.0-56.0-1.1","SS1613169638106","trial","","40","800","822.0000001136214","images/stimuli/spore_stims/complex_10_A_a.gif","images/stimuli/spore_stims/complex_10_B_a.gif","","","","","16","complex_similar","images/stimuli/spore_stims/complex_10_B_a.gif","middle","","","","",""
"","null","html-keyboard-response","300","508301","0.0-56.0-0.2","SS1613169638106","","","null","","","","","<p><img src= images/blank.png width =""200"" height = ""200"" style = ""float:right""></p><p><img src=images/blank.png width =""800"" height = ""200""></p>","","","","","","","","","","","",""
"","712.000000057742","sequential-stimulus-presentation","301","510018","0.0-56.0-1.2","SS1613169638106","trial","","40","800","1512.000000057742","images/stimuli/spore_stims/complex_10_A_a.gif","images/stimuli/spore_stims/complex_10_B_a.gif","","","","","16","complex_similar","images/stimuli/spore_stims/complex_10_B_a.gif","middle","","","","",""
"","null","html-keyboard-response","302","511004","0.0-56.0-0.3","SS1613169638106","","","null","","","","","<p><img src= images/blank.png width =""200"" height = ""200"" style = ""float:right""></p><p><img src=images/blank.png width =""800"" height = ""200""></p>","","","","","","","","","","","",""
"","707.0000001695007","sequential-stimulus-presentation","303","512558","0.0-56.0-1.3","SS1613169638106","trial","","40","800","1507.0000001695007","images/stimuli/spore_stims/complex_10_A_a.gif","images/stimuli/spore_stims/complex_10_B_a.gif","","","","","16","complex_similar","images/stimuli/spore_stims/complex_10_B_a.gif","middle","","","","",""
"","null","html-keyboard-response","304","513455","0.0-56.0-0.4","SS1613169638106","","","null","","","","","<p><img src= images/blank.png width =""200"" height = ""200"" style = ""float:right""></p><p><img src=images/blank.png width =""800"" height = ""200""></p>","","","","","","","","","","","",""
"","566.9999998062849","sequential-stimulus-presentation","305","514898","0.0-56.0-1.4","SS1613169638106","trial","","40","800","1366.999999806285","images/stimuli/spore_stims/complex_10_A_a.gif","images/stimuli/spore_stims/complex_10_B_a.gif","","","","","16","complex_similar","images/stimuli/spore_stims/complex_10_B_a.gif","middle","","","","",""
"","null","html-keyboard-response","306","516004","0.0-56.0-0.5","SS1613169638106","","","null","","","","","<p><img src= images/blank.png width =""200"" height = ""200"" style = ""float:right""></p><p><img src=images/blank.png width =""800"" height = ""200""></p>","","","","","","","","","","","",""
"","1175.0000000465661","sequential-stimulus-presentation","307","518016","0.0-56.0-1.5","SS1613169638106","trial","","40","800","1975.0000000465661","images/stimuli/spore_stims/complex_10_A_a.gif","images/stimuli/spore_stims/complex_10_B_a.gif","","","","","16","complex_similar","images/stimuli/spore_stims/complex_10_B_a.gif","middle","","","","",""
"","null","html-keyboard-response","308","519208","0.0-56.0-0.6","SS1613169638106","","","null","","","","","<p><img src= images/blank.png width =""200"" height = ""200"" style = ""float:right""></p><p><img src=images/blank.png width =""800"" height = ""200""></p>","","","","","","","","","","","",""
"","1030.9999999590218","sequential-stimulus-presentation","309","521096","0.0-56.0-1.6","SS1613169638106","trial","","40","800","1830.9999999590218","images/stimuli/spore_stims/complex_10_A_a.gif","images/stimuli/spore_stims/complex_10_B_a.gif","","","","","16","complex_similar","images/stimuli/spore_stims/complex_10_B_a.gif","middle","","","","",""
"","null","html-keyboard-response","310","522131","0.0-56.0-0.7","SS1613169638106","","","null","","","","","<p><img src= images/blank.png width =""200"" height = ""200"" style = ""float:right""></p><p><img src=images/blank.png width =""800"" height = ""200""></p>","","","","","","","","","","","",""
"","1658.0000000540167","sequential-stimulus-presentation","311","524633","0.0-56.0-1.7","SS1613169638106","trial","","40","800","2458.0000000540167","images/stimuli/spore_stims/complex_10_A_a.gif","images/stimuli/spore_stims/complex_10_B_a.gif","","","","","16","complex_similar","images/stimuli/spore_stims/complex_10_A_a.gif","left","","","","",""
