"view_history","rt","trial_type","trial_index","time_elapsed","internal_node_id","subject","stimulus_type","trial_stimulus","key_press","minimum_viewing_duration","trial_looking_time","block_deviant","block_background","stimulus","wall_pref","location","location_percent","block_number","block_type","stimulus_displayed","position_displayed","stim_type_selected","responses","question_order","stimulus_left","stimulus_right"
"[{""page_index"":0,""viewing_time"":5141.864999983227}]","5143.305000005057","instructions","0","5148","0.0-0.0","SS1613141830701","","","","","","","","","","","","","","","","","","","",""
"[{""page_index"":0,""viewing_time"":1815.9599999780767},{""page_index"":1,""viewing_time"":5087.945000006584}]","6904.339999979129","instructions","1","14081","0.0-1.0","SS1613141830701","instructions","","","","","","","","","","","","","","","","","","",""
"","5100.904999999329","sequential-stimulus-presentation","2","19998","0.0-2.0","SS1613141830701","","","40","800","5900.904999999329","null","null","","","","","","","","","","","","",""
"","24639.58499999717","sequential-stimulus-presentation","3","45445","0.0-3.0","SS1613141830701","","","40","800","25439.58499999717","null","null","","","","","","","","","","","","",""
"[{""page_index"":0,""viewing_time"":2489.2300000065006}]","2489.659999992","instructions","4","47937","0.0-4.0","SS1613141830701","instructions","","","","","","","","","","","","","","","","","","",""
"","5413.7400000181515","html-keyboard-response","5","53356","0.0-5.0","SS1613141830701","instructions","","51","","","","","<video width ='960' height = '540' autoplay muted><source src='images/stimuli/wall_pref.mp4' type='video/mp4'></video>","3","right","66%","","","","","","","","",""
"","24432.46499999077","sequential-stimulus-presentation","6","78600","0.0-6.0","SS1613141830701","pref_reveal","","40","800","25232.46499999077","null","null","","","","","","","","","","","","",""
"[{""page_index"":0,""viewing_time"":4397.989999997662},{""page_index"":1,""viewing_time"":888.4050000051502},{""page_index"":2,""viewing_time"":1311.519999988377},{""page_index"":3,""viewing_time"":1696.0950000211596}]","8294.599999993807","instructions","7","86896","0.0-7.0","SS1613141830701","instructions","","","","","","","","","","","","","","","","","","",""
"","null","html-keyboard-response","8","87848","0.0-8.0-0.0","SS1613141830701","","","null","","","","","<p><img src= images/blank.png width =""200"" height = ""200"" style = ""float:right""></p><p><img src=images/blank.png width =""800"" height = ""200""></p>","","","","","","","","","","","",""
"","1949.5400000014342","sequential-stimulus-presentation","9","90617","0.0-8.0-1.0","SS1613141830701","trial","","40","800","2749.5400000014342","images/stimuli/spore_stims/complex_17_B_c.gif","images/stimuli/spore_stims/complex_17_A_c.gif","","","","","0","complex_similar","images/stimuli/spore_stims/complex_17_A_c.gif","middle","","","","",""
"","null","html-keyboard-response","10","91496","0.0-8.0-0.1","SS1613141830701","","","null","","","","","<p><img src= images/blank.png width =""200"" height = ""200"" style = ""float:right""></p><p><img src=images/blank.png width =""800"" height = ""200""></p>","","","","","","","","","","","",""
"","2100.5350000050385","sequential-stimulus-presentation","11","94485","0.0-8.0-1.1","SS1613141830701","trial","","40","800","2900.5350000050385","images/stimuli/spore_stims/complex_17_B_c.gif","images/stimuli/spore_stims/complex_17_A_c.gif","","","","","0","complex_similar","images/stimuli/spore_stims/complex_17_A_c.gif","middle","","","","",""
"","null","html-keyboard-response","12","95773","0.0-8.0-0.2","SS1613141830701","","","null","","","","","<p><img src= images/blank.png width =""200"" height = ""200"" style = ""float:right""></p><p><img src=images/blank.png width =""800"" height = ""200""></p>","","","","","","","","","","","",""
"","1524.1399999940768","sequential-stimulus-presentation","13","98108","0.0-8.0-1.2","SS1613141830701","trial","","40","800","2324.139999994077","images/stimuli/spore_stims/complex_17_B_c.gif","images/stimuli/spore_stims/complex_17_A_c.gif","","","","","0","complex_similar","images/stimuli/spore_stims/complex_17_A_c.gif","middle","","","","",""
"","null","html-keyboard-response","14","99063","0.0-8.0-0.3","SS1613141830701","","","null","","","","","<p><img src= images/blank.png width =""200"" height = ""200"" style = ""float:right""></p><p><img src=images/blank.png width =""800"" height = ""200""></p>","","","","","","","","","","","",""
"","1236.3400000031106","sequential-stimulus-presentation","15","101119","0.0-8.0-1.3","SS1613141830701","trial","","40","800","2036.3400000031106","images/stimuli/spore_stims/complex_17_B_c.gif","images/stimuli/spore_stims/complex_17_A_c.gif","","","","","0","complex_similar","images/stimuli/spore_stims/complex_17_B_c.gif","left","","","","",""
"","null","html-keyboard-response","16","102261","0.0-8.0-0.4","SS1613141830701","","","null","","","","","<p><img src= images/blank.png width =""200"" height = ""200"" style = ""float:right""></p><p><img src=images/blank.png width =""800"" height = ""200""></p>","","","","","","","","","","","",""
"","1121.370000008028","sequential-stimulus-presentation","17","104215","0.0-8.0-1.4","SS1613141830701","trial","","40","800","1921.370000008028","images/stimuli/spore_stims/complex_17_B_c.gif","images/stimuli/spore_stims/complex_17_A_c.gif","","","","","0","complex_similar","images/stimuli/spore_stims/complex_17_A_c.gif","middle","","","","",""
"","null","html-keyboard-response","18","105273","0.0-8.0-0.5","SS1613141830701","","","null","","","","","<p><img src= images/blank.png width =""200"" height = ""200"" style = ""float:right""></p><p><img src=images/blank.png width =""800"" height = ""200""></p>","","","","","","","","","","","",""
"","924.6100000164006","sequential-stimulus-presentation","19","107031","0.0-8.0-1.5","SS1613141830701","trial","","40","800","1724.6100000164006","images/stimuli/spore_stims/complex_17_B_c.gif","images/stimuli/spore_stims/complex_17_A_c.gif","","","","","0","complex_similar","images/stimuli/spore_stims/complex_17_A_c.gif","middle","","","","",""
"","null","html-keyboard-response","20","108104","0.0-8.0-0.6","SS1613141830701","","","null","","","","","<p><img src= images/blank.png width =""200"" height = ""200"" style = ""float:right""></p><p><img src=images/blank.png width =""800"" height = ""200""></p>","","","","","","","","","","","",""
"","1330.0800000142772","sequential-stimulus-presentation","21","110253","0.0-8.0-1.6","SS1613141830701","trial","","40","800","2130.080000014277","images/stimuli/spore_stims/complex_17_B_c.gif","images/stimuli/spore_stims/complex_17_A_c.gif","","","","","0","complex_similar","images/stimuli/spore_stims/complex_17_A_c.gif","middle","","","","",""
"","null","html-keyboard-response","22","111255","0.0-8.0-0.7","SS1613141830701","","","null","","","","","<p><img src= images/blank.png width =""200"" height = ""200"" style = ""float:right""></p><p><img src=images/blank.png width =""800"" height = ""200""></p>","","","","","","","","","","","",""
"","925.809999986086","sequential-stimulus-presentation","23","112995","0.0-8.0-1.7","SS1613141830701","trial","","40","800","1725.809999986086","images/stimuli/spore_stims/complex_17_B_c.gif","images/stimuli/spore_stims/complex_17_A_c.gif","","","","","0","complex_similar","images/stimuli/spore_stims/complex_17_A_c.gif","middle","","","","",""
"","8996.874999982538","html-keyboard-response","24","121998","0.0-9.0","SS1613141830701","pref_question","","49","","","","","<video width ='960' height = '540' style='padding-top:8%' autoplay muted><source src='images/stimuli/wall_pref.mp4' type='video/mp4'></video>","1","left","25%","0","","","","","","","",""
"","1576.984999992419","sequential-stimulus-presentation","25","124409","0.0-10.0","SS1613141830701","pref_reveal","","40","800","2376.984999992419","null","null","","","","","0","","","","deviant","","","",""
"","null","html-keyboard-response","26","125236","0.0-11.0-0.0","SS1613141830701","","","null","","","","","<p><img src= images/blank.png width =""200"" height = ""200"" style = ""float:right""></p><p><img src=images/blank.png width =""800"" height = ""200""></p>","","","","","","","","","","","",""
"","1353.804999991553","sequential-stimulus-presentation","27","127398","0.0-11.0-1.0","SS1613141830701","trial","","40","800","2153.804999991553","images/stimuli/spore_stims/simple_04_A_c.gif","images/stimuli/spore_stims/simple_07_B_d.gif","","","","","1","simple_dissimilar","images/stimuli/spore_stims/simple_07_B_d.gif","middle","","","","",""
"","null","html-keyboard-response","28","128442","0.0-11.0-0.1","SS1613141830701","","","null","","","","","<p><img src= images/blank.png width =""200"" height = ""200"" style = ""float:right""></p><p><img src=images/blank.png width =""800"" height = ""200""></p>","","","","","","","","","","","",""
"","866.0200000158511","sequential-stimulus-presentation","29","130119","0.0-11.0-1.1","SS1613141830701","trial","","40","800","1666.020000015851","images/stimuli/spore_stims/simple_04_A_c.gif","images/stimuli/spore_stims/simple_07_B_d.gif","","","","","1","simple_dissimilar","images/stimuli/spore_stims/simple_07_B_d.gif","middle","","","","",""
"","null","html-keyboard-response","30","131015","0.0-11.0-0.2","SS1613141830701","","","null","","","","","<p><img src= images/blank.png width =""200"" height = ""200"" style = ""float:right""></p><p><img src=images/blank.png width =""800"" height = ""200""></p>","","","","","","","","","","","",""
"","1167.9500000027474","sequential-stimulus-presentation","31","132996","0.0-11.0-1.2","SS1613141830701","trial","","40","800","1967.9500000027474","images/stimuli/spore_stims/simple_04_A_c.gif","images/stimuli/spore_stims/simple_07_B_d.gif","","","","","1","simple_dissimilar","images/stimuli/spore_stims/simple_07_B_d.gif","middle","","","","",""
"","null","html-keyboard-response","32","134096","0.0-11.0-0.3","SS1613141830701","","","null","","","","","<p><img src= images/blank.png width =""200"" height = ""200"" style = ""float:right""></p><p><img src=images/blank.png width =""800"" height = ""200""></p>","","","","","","","","","","","",""
"","1206.239999999525","sequential-stimulus-presentation","33","136120","0.0-11.0-1.3","SS1613141830701","trial","","40","800","2006.239999999525","images/stimuli/spore_stims/simple_04_A_c.gif","images/stimuli/spore_stims/simple_07_B_d.gif","","","","","1","simple_dissimilar","images/stimuli/spore_stims/simple_07_B_d.gif","middle","","","","",""
"","null","html-keyboard-response","34","137394","0.0-11.0-0.4","SS1613141830701","","","null","","","","","<p><img src= images/blank.png width =""200"" height = ""200"" style = ""float:right""></p><p><img src=images/blank.png width =""800"" height = ""200""></p>","","","","","","","","","","","",""
"","3882.5899999937974","sequential-stimulus-presentation","35","142105","0.0-11.0-1.4","SS1613141830701","trial","","40","800","4682.589999993797","images/stimuli/spore_stims/simple_04_A_c.gif","images/stimuli/spore_stims/simple_07_B_d.gif","","","","","1","simple_dissimilar","images/stimuli/spore_stims/simple_07_B_d.gif","middle","","","","",""
"","null","html-keyboard-response","36","142978","0.0-11.0-0.5","SS1613141830701","","","null","","","","","<p><img src= images/blank.png width =""200"" height = ""200"" style = ""float:right""></p><p><img src=images/blank.png width =""800"" height = ""200""></p>","","","","","","","","","","","",""
"","1534.894999989774","sequential-stimulus-presentation","37","145336","0.0-11.0-1.5","SS1613141830701","trial","","40","800","2334.894999989774","images/stimuli/spore_stims/simple_04_A_c.gif","images/stimuli/spore_stims/simple_07_B_d.gif","","","","","1","simple_dissimilar","images/stimuli/spore_stims/simple_07_B_d.gif","middle","","","","",""
"","null","html-keyboard-response","38","146633","0.0-11.0-0.6","SS1613141830701","","","null","","","","","<p><img src= images/blank.png width =""200"" height = ""200"" style = ""float:right""></p><p><img src=images/blank.png width =""800"" height = ""200""></p>","","","","","","","","","","","",""
"","1883.1150000041816","sequential-stimulus-presentation","39","149344","0.0-11.0-1.6","SS1613141830701","trial","","40","800","2683.1150000041816","images/stimuli/spore_stims/simple_04_A_c.gif","images/stimuli/spore_stims/simple_07_B_d.gif","","","","","1","simple_dissimilar","images/stimuli/spore_stims/simple_07_B_d.gif","middle","","","","",""
"","null","html-keyboard-response","40","150562","0.0-11.0-0.7","SS1613141830701","","","null","","","","","<p><img src= images/blank.png width =""200"" height = ""200"" style = ""float:right""></p><p><img src=images/blank.png width =""800"" height = ""200""></p>","","","","","","","","","","","",""
"","1803.8050000031944","sequential-stimulus-presentation","41","153216","0.0-11.0-1.7","SS1613141830701","trial","","40","800","2603.8050000031944","images/stimuli/spore_stims/simple_04_A_c.gif","images/stimuli/spore_stims/simple_07_B_d.gif","","","","","1","simple_dissimilar","images/stimuli/spore_stims/simple_04_A_c.gif","right","","","","",""
"","4120.395000005374","html-keyboard-response","42","157343","0.0-12.0","SS1613141830701","pref_question","","50","","","","","<video width ='960' height = '540' style='padding-top:8%' autoplay muted><source src='images/stimuli/wall_pref.mp4' type='video/mp4'></video>","2","middle","45%","1","","","","","","","",""
"","2495.885000011185","sequential-stimulus-presentation","43","160655","0.0-13.0","SS1613141830701","pref_reveal","","40","800","3295.885000011185","null","null","","","","","1","","","","background","","","",""
"","null","html-keyboard-response","44","161802","0.0-14.0-0.0","SS1613141830701","","","null","","","","","<p><img src= images/blank.png width =""200"" height = ""200"" style = ""float:right""></p><p><img src=images/blank.png width =""800"" height = ""200""></p>","","","","","","","","","","","",""
"","3890.3400000126567","sequential-stimulus-presentation","45","166536","0.0-14.0-1.0","SS1613141830701","trial","","40","800","4690.340000012657","images/stimuli/spore_stims/complex_12_B_c.gif","images/stimuli/spore_stims/complex_12_A_c.gif","","","","","2","complex_similar","images/stimuli/spore_stims/complex_12_A_c.gif","right","","","","",""
"","null","html-keyboard-response","46","167398","0.0-14.0-0.1","SS1613141830701","","","null","","","","","<p><img src= images/blank.png width =""200"" height = ""200"" style = ""float:right""></p><p><img src=images/blank.png width =""800"" height = ""200""></p>","","","","","","","","","","","",""
"","2962.24500000244","sequential-stimulus-presentation","47","171217","0.0-14.0-1.1","SS1613141830701","trial","","40","800","3762.24500000244","images/stimuli/spore_stims/complex_12_B_c.gif","images/stimuli/spore_stims/complex_12_A_c.gif","","","","","2","complex_similar","images/stimuli/spore_stims/complex_12_A_c.gif","right","","","","",""
"","null","html-keyboard-response","48","172076","0.0-14.0-0.2","SS1613141830701","","","null","","","","","<p><img src= images/blank.png width =""200"" height = ""200"" style = ""float:right""></p><p><img src=images/blank.png width =""800"" height = ""200""></p>","","","","","","","","","","","",""
"","2987.6900000090245","sequential-stimulus-presentation","49","175893","0.0-14.0-1.2","SS1613141830701","trial","","40","800","3787.6900000090245","images/stimuli/spore_stims/complex_12_B_c.gif","images/stimuli/spore_stims/complex_12_A_c.gif","","","","","2","complex_similar","images/stimuli/spore_stims/complex_12_A_c.gif","right","","","","",""
"","null","html-keyboard-response","50","176742","0.0-14.0-0.3","SS1613141830701","","","null","","","","","<p><img src= images/blank.png width =""200"" height = ""200"" style = ""float:right""></p><p><img src=images/blank.png width =""800"" height = ""200""></p>","","","","","","","","","","","",""
"","1716.4949999714736","sequential-stimulus-presentation","51","179274","0.0-14.0-1.3","SS1613141830701","trial","","40","800","2516.4949999714736","images/stimuli/spore_stims/complex_12_B_c.gif","images/stimuli/spore_stims/complex_12_A_c.gif","","","","","2","complex_similar","images/stimuli/spore_stims/complex_12_A_c.gif","right","","","","",""
"","null","html-keyboard-response","52","180315","0.0-14.0-0.4","SS1613141830701","","","null","","","","","<p><img src= images/blank.png width =""200"" height = ""200"" style = ""float:right""></p><p><img src=images/blank.png width =""800"" height = ""200""></p>","","","","","","","","","","","",""
"","6512.179999990622","sequential-stimulus-presentation","53","187639","0.0-14.0-1.4","SS1613141830701","trial","","40","800","7312.179999990622","images/stimuli/spore_stims/complex_12_B_c.gif","images/stimuli/spore_stims/complex_12_A_c.gif","","","","","2","complex_similar","images/stimuli/spore_stims/complex_12_A_c.gif","right","","","","",""
"","null","html-keyboard-response","54","188504","0.0-14.0-0.5","SS1613141830701","","","null","","","","","<p><img src= images/blank.png width =""200"" height = ""200"" style = ""float:right""></p><p><img src=images/blank.png width =""800"" height = ""200""></p>","","","","","","","","","","","",""
"","1260.0800000072923","sequential-stimulus-presentation","55","190635","0.0-14.0-1.5","SS1613141830701","trial","","40","800","2060.0800000072923","images/stimuli/spore_stims/complex_12_B_c.gif","images/stimuli/spore_stims/complex_12_A_c.gif","","","","","2","complex_similar","images/stimuli/spore_stims/complex_12_A_c.gif","right","","","","",""
"","null","html-keyboard-response","56","191942","0.0-14.0-0.6","SS1613141830701","","","null","","","","","<p><img src= images/blank.png width =""200"" height = ""200"" style = ""float:right""></p><p><img src=images/blank.png width =""800"" height = ""200""></p>","","","","","","","","","","","",""
"","1015.9200000052806","sequential-stimulus-presentation","57","193796","0.0-14.0-1.6","SS1613141830701","trial","","40","800","1815.9200000052806","images/stimuli/spore_stims/complex_12_B_c.gif","images/stimuli/spore_stims/complex_12_A_c.gif","","","","","2","complex_similar","images/stimuli/spore_stims/complex_12_A_c.gif","right","","","","",""
"","null","html-keyboard-response","58","194795","0.0-14.0-0.7","SS1613141830701","","","null","","","","","<p><img src= images/blank.png width =""200"" height = ""200"" style = ""float:right""></p><p><img src=images/blank.png width =""800"" height = ""200""></p>","","","","","","","","","","","",""
"","2583.0000000132713","sequential-stimulus-presentation","59","198215","0.0-14.0-1.7","SS1613141830701","trial","","40","800","3383.0000000132713","images/stimuli/spore_stims/complex_12_B_c.gif","images/stimuli/spore_stims/complex_12_A_c.gif","","","","","2","complex_similar","images/stimuli/spore_stims/complex_12_B_c.gif","left","","","","",""
"","3518.880000017816","html-keyboard-response","60","201741","0.0-15.0","SS1613141830701","pref_question","","50","","","","","<video width ='960' height = '540' style='padding-top:8%' autoplay muted><source src='images/stimuli/wall_pref.mp4' type='video/mp4'></video>","2","middle","45%","2","","","","","","","",""
"","3689.024999999674","sequential-stimulus-presentation","61","206251","0.0-16.0","SS1613141830701","pref_reveal","","40","800","4489.024999999674","null","null","","","","","2","","","","novel","","","",""
"","null","html-keyboard-response","62","207266","0.0-17.0-0.0","SS1613141830701","","","null","","","","","<p><img src= images/blank.png width =""200"" height = ""200"" style = ""float:right""></p><p><img src=images/blank.png width =""800"" height = ""200""></p>","","","","","","","","","","","",""
"","1733.7100000004284","sequential-stimulus-presentation","63","209838","0.0-17.0-1.0","SS1613141830701","trial","","40","800","2533.7100000004284","images/stimuli/spore_stims/simple_15_B_d.gif","images/stimuli/spore_stims/simple_05_B_c.gif","","","","","3","simple_dissimilar","images/stimuli/spore_stims/simple_05_B_c.gif","left","","","","",""
"","null","html-keyboard-response","64","211015","0.0-17.0-0.1","SS1613141830701","","","null","","","","","<p><img src= images/blank.png width =""200"" height = ""200"" style = ""float:right""></p><p><img src=images/blank.png width =""800"" height = ""200""></p>","","","","","","","","","","","",""
"","4862.1750000165775","sequential-stimulus-presentation","65","216698","0.0-17.0-1.1","SS1613141830701","trial","","40","800","5662.1750000165775","images/stimuli/spore_stims/simple_15_B_d.gif","images/stimuli/spore_stims/simple_05_B_c.gif","","","","","3","simple_dissimilar","images/stimuli/spore_stims/simple_05_B_c.gif","left","","","","",""
"","null","html-keyboard-response","66","217812","0.0-17.0-0.2","SS1613141830701","","","null","","","","","<p><img src= images/blank.png width =""200"" height = ""200"" style = ""float:right""></p><p><img src=images/blank.png width =""800"" height = ""200""></p>","","","","","","","","","","","",""
"","8829.98999999836","sequential-stimulus-presentation","67","227465","0.0-17.0-1.2","SS1613141830701","trial","","40","800","9629.98999999836","images/stimuli/spore_stims/simple_15_B_d.gif","images/stimuli/spore_stims/simple_05_B_c.gif","","","","","3","simple_dissimilar","images/stimuli/spore_stims/simple_05_B_c.gif","left","","","","",""
"","null","html-keyboard-response","68","228274","0.0-17.0-0.3","SS1613141830701","","","null","","","","","<p><img src= images/blank.png width =""200"" height = ""200"" style = ""float:right""></p><p><img src=images/blank.png width =""800"" height = ""200""></p>","","","","","","","","","","","",""
"","3293.055000016466","sequential-stimulus-presentation","69","232381","0.0-17.0-1.3","SS1613141830701","trial","","40","800","4093.055000016466","images/stimuli/spore_stims/simple_15_B_d.gif","images/stimuli/spore_stims/simple_05_B_c.gif","","","","","3","simple_dissimilar","images/stimuli/spore_stims/simple_05_B_c.gif","left","","","","",""
"","null","html-keyboard-response","70","233195","0.0-17.0-0.4","SS1613141830701","","","null","","","","","<p><img src= images/blank.png width =""200"" height = ""200"" style = ""float:right""></p><p><img src=images/blank.png width =""800"" height = ""200""></p>","","","","","","","","","","","",""
"","4911.549999989802","sequential-stimulus-presentation","71","238919","0.0-17.0-1.4","SS1613141830701","trial","","40","800","5711.549999989802","images/stimuli/spore_stims/simple_15_B_d.gif","images/stimuli/spore_stims/simple_05_B_c.gif","","","","","3","simple_dissimilar","images/stimuli/spore_stims/simple_05_B_c.gif","left","","","","",""
"","null","html-keyboard-response","72","239809","0.0-17.0-0.5","SS1613141830701","","","null","","","","","<p><img src= images/blank.png width =""200"" height = ""200"" style = ""float:right""></p><p><img src=images/blank.png width =""800"" height = ""200""></p>","","","","","","","","","","","",""
"","1479.090000008","sequential-stimulus-presentation","73","242127","0.0-17.0-1.5","SS1613141830701","trial","","40","800","2279.090000008","images/stimuli/spore_stims/simple_15_B_d.gif","images/stimuli/spore_stims/simple_05_B_c.gif","","","","","3","simple_dissimilar","images/stimuli/spore_stims/simple_15_B_d.gif","middle","","","","",""
"","null","html-keyboard-response","74","243423","0.0-17.0-0.6","SS1613141830701","","","null","","","","","<p><img src= images/blank.png width =""200"" height = ""200"" style = ""float:right""></p><p><img src=images/blank.png width =""800"" height = ""200""></p>","","","","","","","","","","","",""
"","1303.7600000097882","sequential-stimulus-presentation","75","245537","0.0-17.0-1.6","SS1613141830701","trial","","40","800","2103.760000009788","images/stimuli/spore_stims/simple_15_B_d.gif","images/stimuli/spore_stims/simple_05_B_c.gif","","","","","3","simple_dissimilar","images/stimuli/spore_stims/simple_05_B_c.gif","left","","","","",""
"","null","html-keyboard-response","76","246395","0.0-17.0-0.7","SS1613141830701","","","null","","","","","<p><img src= images/blank.png width =""200"" height = ""200"" style = ""float:right""></p><p><img src=images/blank.png width =""800"" height = ""200""></p>","","","","","","","","","","","",""
"","1202.820000005886","sequential-stimulus-presentation","77","248414","0.0-17.0-1.7","SS1613141830701","trial","","40","800","2002.820000005886","images/stimuli/spore_stims/simple_15_B_d.gif","images/stimuli/spore_stims/simple_05_B_c.gif","","","","","3","simple_dissimilar","images/stimuli/spore_stims/simple_05_B_c.gif","left","","","","",""
"","4942.749999987427","html-keyboard-response","78","253364","0.0-18.0","SS1613141830701","pref_question","","51","","","","","<video width ='960' height = '540' style='padding-top:8%' autoplay muted><source src='images/stimuli/wall_pref.mp4' type='video/mp4'></video>","3","right","66%","3","","","","","","","",""
"","4307.020000007469","sequential-stimulus-presentation","79","258479","0.0-19.0","SS1613141830701","pref_reveal","","40","800","5107.020000007469","null","null","","","","","3","","","","novel","","","",""
"","null","html-keyboard-response","80","259351","0.0-20.0-0.0","SS1613141830701","","","null","","","","","<p><img src= images/blank.png width =""200"" height = ""200"" style = ""float:right""></p><p><img src=images/blank.png width =""800"" height = ""200""></p>","","","","","","","","","","","",""
"","2808.210000017425","sequential-stimulus-presentation","81","262981","0.0-20.0-1.0","SS1613141830701","trial","","40","800","3608.210000017425","images/stimuli/spore_stims/simple_11_A_a.gif","images/stimuli/spore_stims/simple_11_B_a.gif","","","","","4","simple_similar","images/stimuli/spore_stims/simple_11_B_a.gif","left","","","","",""
"","null","html-keyboard-response","82","264129","0.0-20.0-0.1","SS1613141830701","","","null","","","","","<p><img src= images/blank.png width =""200"" height = ""200"" style = ""float:right""></p><p><img src=images/blank.png width =""800"" height = ""200""></p>","","","","","","","","","","","",""
"","5038.165000005392","sequential-stimulus-presentation","83","269995","0.0-20.0-1.1","SS1613141830701","trial","","40","800","5838.165000005392","images/stimuli/spore_stims/simple_11_A_a.gif","images/stimuli/spore_stims/simple_11_B_a.gif","","","","","4","simple_similar","images/stimuli/spore_stims/simple_11_B_a.gif","left","","","","",""
"","null","html-keyboard-response","84","271108","0.0-20.0-0.2","SS1613141830701","","","null","","","","","<p><img src= images/blank.png width =""200"" height = ""200"" style = ""float:right""></p><p><img src=images/blank.png width =""800"" height = ""200""></p>","","","","","","","","","","","",""
"","6333.440000016708","sequential-stimulus-presentation","85","278276","0.0-20.0-1.2","SS1613141830701","trial","","40","800","7133.440000016708","images/stimuli/spore_stims/simple_11_A_a.gif","images/stimuli/spore_stims/simple_11_B_a.gif","","","","","4","simple_similar","images/stimuli/spore_stims/simple_11_A_a.gif","middle","","","","",""
"","null","html-keyboard-response","86","279581","0.0-20.0-0.3","SS1613141830701","","","null","","","","","<p><img src= images/blank.png width =""200"" height = ""200"" style = ""float:right""></p><p><img src=images/blank.png width =""800"" height = ""200""></p>","","","","","","","","","","","",""
"","5521.615000005113","sequential-stimulus-presentation","87","285940","0.0-20.0-1.3","SS1613141830701","trial","","40","800","6321.615000005113","images/stimuli/spore_stims/simple_11_A_a.gif","images/stimuli/spore_stims/simple_11_B_a.gif","","","","","4","simple_similar","images/stimuli/spore_stims/simple_11_B_a.gif","left","","","","",""
"","null","html-keyboard-response","88","286995","0.0-20.0-0.4","SS1613141830701","","","null","","","","","<p><img src= images/blank.png width =""200"" height = ""200"" style = ""float:right""></p><p><img src=images/blank.png width =""800"" height = ""200""></p>","","","","","","","","","","","",""
"","16555.285000009462","sequential-stimulus-presentation","89","304378","0.0-20.0-1.4","SS1613141830701","trial","","40","800","17355.285000009462","images/stimuli/spore_stims/simple_11_A_a.gif","images/stimuli/spore_stims/simple_11_B_a.gif","","","","","4","simple_similar","images/stimuli/spore_stims/simple_11_B_a.gif","left","","","","",""
"","null","html-keyboard-response","90","305338","0.0-20.0-0.5","SS1613141830701","","","null","","","","","<p><img src= images/blank.png width =""200"" height = ""200"" style = ""float:right""></p><p><img src=images/blank.png width =""800"" height = ""200""></p>","","","","","","","","","","","",""
"","2098.009999986971","sequential-stimulus-presentation","91","308249","0.0-20.0-1.5","SS1613141830701","trial","","40","800","2898.009999986971","images/stimuli/spore_stims/simple_11_A_a.gif","images/stimuli/spore_stims/simple_11_B_a.gif","","","","","4","simple_similar","images/stimuli/spore_stims/simple_11_B_a.gif","left","","","","",""
"","null","html-keyboard-response","92","309273","0.0-20.0-0.6","SS1613141830701","","","null","","","","","<p><img src= images/blank.png width =""200"" height = ""200"" style = ""float:right""></p><p><img src=images/blank.png width =""800"" height = ""200""></p>","","","","","","","","","","","",""
"","8811.459999997169","sequential-stimulus-presentation","93","318915","0.0-20.0-1.6","SS1613141830701","trial","","40","800","9611.459999997169","images/stimuli/spore_stims/simple_11_A_a.gif","images/stimuli/spore_stims/simple_11_B_a.gif","","","","","4","simple_similar","images/stimuli/spore_stims/simple_11_B_a.gif","left","","","","",""
"","null","html-keyboard-response","94","320044","0.0-20.0-0.7","SS1613141830701","","","null","","","","","<p><img src= images/blank.png width =""200"" height = ""200"" style = ""float:right""></p><p><img src=images/blank.png width =""800"" height = ""200""></p>","","","","","","","","","","","",""
"","2119.040000019595","sequential-stimulus-presentation","95","322991","0.0-20.0-1.7","SS1613141830701","trial","","40","800","2919.040000019595","images/stimuli/spore_stims/simple_11_A_a.gif","images/stimuli/spore_stims/simple_11_B_a.gif","","","","","4","simple_similar","images/stimuli/spore_stims/simple_11_B_a.gif","left","","","","",""
"","11400.519999995595","html-keyboard-response","96","334398","0.0-21.0","SS1613141830701","pref_question","","51","","","","","<video width ='960' height = '540' style='padding-top:8%' autoplay muted><source src='images/stimuli/wall_pref.mp4' type='video/mp4'></video>","3","right","66%","4","","","","","","","",""
"","4801.83000001125","sequential-stimulus-presentation","97","340029","0.0-22.0","SS1613141830701","pref_reveal","","40","800","5601.83000001125","null","null","","","","","4","","","","novel","","","",""
"","null","html-keyboard-response","98","341236","0.0-23.0-0.0","SS1613141830701","","","null","","","","","<p><img src= images/blank.png width =""200"" height = ""200"" style = ""float:right""></p><p><img src=images/blank.png width =""800"" height = ""200""></p>","","","","","","","","","","","",""
"","3789.64500001166","sequential-stimulus-presentation","99","345839","0.0-23.0-1.0","SS1613141830701","trial","","40","800","4589.64500001166","images/stimuli/spore_stims/simple_08_A_c.gif","images/stimuli/spore_stims/simple_08_B_c.gif","","","","","5","simple_similar","images/stimuli/spore_stims/simple_08_B_c.gif","right","","","","",""
"","null","html-keyboard-response","100","346774","0.0-23.0-0.1","SS1613141830701","","","null","","","","","<p><img src= images/blank.png width =""200"" height = ""200"" style = ""float:right""></p><p><img src=images/blank.png width =""800"" height = ""200""></p>","","","","","","","","","","","",""
"","3978.4599999838974","sequential-stimulus-presentation","101","351570","0.0-23.0-1.1","SS1613141830701","trial","","40","800","4778.459999983897","images/stimuli/spore_stims/simple_08_A_c.gif","images/stimuli/spore_stims/simple_08_B_c.gif","","","","","5","simple_similar","images/stimuli/spore_stims/simple_08_B_c.gif","right","","","","",""
"","null","html-keyboard-response","102","352572","0.0-23.0-0.2","SS1613141830701","","","null","","","","","<p><img src= images/blank.png width =""200"" height = ""200"" style = ""float:right""></p><p><img src=images/blank.png width =""800"" height = ""200""></p>","","","","","","","","","","","",""
"","4579.360000003362","sequential-stimulus-presentation","103","357983","0.0-23.0-1.2","SS1613141830701","trial","","40","800","5379.360000003362","images/stimuli/spore_stims/simple_08_A_c.gif","images/stimuli/spore_stims/simple_08_B_c.gif","","","","","5","simple_similar","images/stimuli/spore_stims/simple_08_B_c.gif","right","","","","",""
"","null","html-keyboard-response","104","358918","0.0-23.0-0.3","SS1613141830701","","","null","","","","","<p><img src= images/blank.png width =""200"" height = ""200"" style = ""float:right""></p><p><img src=images/blank.png width =""800"" height = ""200""></p>","","","","","","","","","","","",""
"","2634.149999998044","sequential-stimulus-presentation","105","362400","0.0-23.0-1.3","SS1613141830701","trial","","40","800","3434.149999998044","images/stimuli/spore_stims/simple_08_A_c.gif","images/stimuli/spore_stims/simple_08_B_c.gif","","","","","5","simple_similar","images/stimuli/spore_stims/simple_08_B_c.gif","right","","","","",""
"","null","html-keyboard-response","106","363394","0.0-23.0-0.4","SS1613141830701","","","null","","","","","<p><img src= images/blank.png width =""200"" height = ""200"" style = ""float:right""></p><p><img src=images/blank.png width =""800"" height = ""200""></p>","","","","","","","","","","","",""
"","3096.2599999911617","sequential-stimulus-presentation","107","367304","0.0-23.0-1.4","SS1613141830701","trial","","40","800","3896.2599999911617","images/stimuli/spore_stims/simple_08_A_c.gif","images/stimuli/spore_stims/simple_08_B_c.gif","","","","","5","simple_similar","images/stimuli/spore_stims/simple_08_B_c.gif","right","","","","",""
"","null","html-keyboard-response","108","368323","0.0-23.0-0.5","SS1613141830701","","","null","","","","","<p><img src= images/blank.png width =""200"" height = ""200"" style = ""float:right""></p><p><img src=images/blank.png width =""800"" height = ""200""></p>","","","","","","","","","","","",""
"","3013.150000013411","sequential-stimulus-presentation","109","372159","0.0-23.0-1.5","SS1613141830701","trial","","40","800","3813.150000013411","images/stimuli/spore_stims/simple_08_A_c.gif","images/stimuli/spore_stims/simple_08_B_c.gif","","","","","5","simple_similar","images/stimuli/spore_stims/simple_08_B_c.gif","right","","","","",""
"","null","html-keyboard-response","110","373180","0.0-23.0-0.6","SS1613141830701","","","null","","","","","<p><img src= images/blank.png width =""200"" height = ""200"" style = ""float:right""></p><p><img src=images/blank.png width =""800"" height = ""200""></p>","","","","","","","","","","","",""
"","1807.4650000198744","sequential-stimulus-presentation","111","375807","0.0-23.0-1.6","SS1613141830701","trial","","40","800","2607.4650000198744","images/stimuli/spore_stims/simple_08_A_c.gif","images/stimuli/spore_stims/simple_08_B_c.gif","","","","","5","simple_similar","images/stimuli/spore_stims/simple_08_A_c.gif","middle","","","","",""
"","null","html-keyboard-response","112","377042","0.0-23.0-0.7","SS1613141830701","","","null","","","","","<p><img src= images/blank.png width =""200"" height = ""200"" style = ""float:right""></p><p><img src=images/blank.png width =""800"" height = ""200""></p>","","","","","","","","","","","",""
"","1693.3349999890197","sequential-stimulus-presentation","113","379559","0.0-23.0-1.7","SS1613141830701","trial","","40","800","2493.3349999890197","images/stimuli/spore_stims/simple_08_A_c.gif","images/stimuli/spore_stims/simple_08_B_c.gif","","","","","5","simple_similar","images/stimuli/spore_stims/simple_08_B_c.gif","right","","","","",""
"","7568.375000002561","html-keyboard-response","114","387136","0.0-24.0","SS1613141830701","pref_question","","49","","","","","<video width ='960' height = '540' style='padding-top:8%' autoplay muted><source src='images/stimuli/wall_pref.mp4' type='video/mp4'></video>","1","left","25%","5","","","","","","","",""
"","7205.114999989746","sequential-stimulus-presentation","115","395172","0.0-25.0","SS1613141830701","pref_reveal","","40","800","8005.114999989746","null","null","","","","","5","","","","novel","","","",""
"","null","html-keyboard-response","116","396154","0.0-26.0-0.0","SS1613141830701","","","null","","","","","<p><img src= images/blank.png width =""200"" height = ""200"" style = ""float:right""></p><p><img src=images/blank.png width =""800"" height = ""200""></p>","","","","","","","","","","","",""
"","1510.5949999997392","sequential-stimulus-presentation","117","398489","0.0-26.0-1.0","SS1613141830701","trial","","40","800","2310.5949999997392","images/stimuli/spore_stims/complex_14_B_d.gif","images/stimuli/spore_stims/complex_03_B_b.gif","","","","","6","complex_dissimilar","images/stimuli/spore_stims/complex_03_B_b.gif","right","","","","",""
"","null","html-keyboard-response","118","399582","0.0-26.0-0.1","SS1613141830701","","","null","","","","","<p><img src= images/blank.png width =""200"" height = ""200"" style = ""float:right""></p><p><img src=images/blank.png width =""800"" height = ""200""></p>","","","","","","","","","","","",""
"","2758.075000019744","sequential-stimulus-presentation","119","403179","0.0-26.0-1.1","SS1613141830701","trial","","40","800","3558.075000019744","images/stimuli/spore_stims/complex_14_B_d.gif","images/stimuli/spore_stims/complex_03_B_b.gif","","","","","6","complex_dissimilar","images/stimuli/spore_stims/complex_03_B_b.gif","right","","","","",""
"","null","html-keyboard-response","120","404162","0.0-26.0-0.2","SS1613141830701","","","null","","","","","<p><img src= images/blank.png width =""200"" height = ""200"" style = ""float:right""></p><p><img src=images/blank.png width =""800"" height = ""200""></p>","","","","","","","","","","","",""
"","3864.115000003949","sequential-stimulus-presentation","121","408849","0.0-26.0-1.2","SS1613141830701","trial","","40","800","4664.115000003949","images/stimuli/spore_stims/complex_14_B_d.gif","images/stimuli/spore_stims/complex_03_B_b.gif","","","","","6","complex_dissimilar","images/stimuli/spore_stims/complex_03_B_b.gif","right","","","","",""
"","null","html-keyboard-response","122","409874","0.0-26.0-0.3","SS1613141830701","","","null","","","","","<p><img src= images/blank.png width =""200"" height = ""200"" style = ""float:right""></p><p><img src=images/blank.png width =""800"" height = ""200""></p>","","","","","","","","","","","",""
"","5864.279999979772","sequential-stimulus-presentation","123","416561","0.0-26.0-1.3","SS1613141830701","trial","","40","800","6664.279999979772","images/stimuli/spore_stims/complex_14_B_d.gif","images/stimuli/spore_stims/complex_03_B_b.gif","","","","","6","complex_dissimilar","images/stimuli/spore_stims/complex_03_B_b.gif","right","","","","",""
"","null","html-keyboard-response","124","417498","0.0-26.0-0.4","SS1613141830701","","","null","","","","","<p><img src= images/blank.png width =""200"" height = ""200"" style = ""float:right""></p><p><img src=images/blank.png width =""800"" height = ""200""></p>","","","","","","","","","","","",""
"","2093.720000004396","sequential-stimulus-presentation","125","420414","0.0-26.0-1.4","SS1613141830701","trial","","40","800","2893.720000004396","images/stimuli/spore_stims/complex_14_B_d.gif","images/stimuli/spore_stims/complex_03_B_b.gif","","","","","6","complex_dissimilar","images/stimuli/spore_stims/complex_14_B_d.gif","left","","","","",""
"","null","html-keyboard-response","126","421562","0.0-26.0-0.5","SS1613141830701","","","null","","","","","<p><img src= images/blank.png width =""200"" height = ""200"" style = ""float:right""></p><p><img src=images/blank.png width =""800"" height = ""200""></p>","","","","","","","","","","","",""
"","2537.114999984624","sequential-stimulus-presentation","127","424932","0.0-26.0-1.5","SS1613141830701","trial","","40","800","3337.114999984624","images/stimuli/spore_stims/complex_14_B_d.gif","images/stimuli/spore_stims/complex_03_B_b.gif","","","","","6","complex_dissimilar","images/stimuli/spore_stims/complex_03_B_b.gif","right","","","","",""
"","null","html-keyboard-response","128","425879","0.0-26.0-0.6","SS1613141830701","","","null","","","","","<p><img src= images/blank.png width =""200"" height = ""200"" style = ""float:right""></p><p><img src=images/blank.png width =""800"" height = ""200""></p>","","","","","","","","","","","",""
"","2681.0199999890756","sequential-stimulus-presentation","129","429404","0.0-26.0-1.6","SS1613141830701","trial","","40","800","3481.0199999890756","images/stimuli/spore_stims/complex_14_B_d.gif","images/stimuli/spore_stims/complex_03_B_b.gif","","","","","6","complex_dissimilar","images/stimuli/spore_stims/complex_03_B_b.gif","right","","","","",""
"","null","html-keyboard-response","130","430651","0.0-26.0-0.7","SS1613141830701","","","null","","","","","<p><img src= images/blank.png width =""200"" height = ""200"" style = ""float:right""></p><p><img src=images/blank.png width =""800"" height = ""200""></p>","","","","","","","","","","","",""
"","2512.170000001788","sequential-stimulus-presentation","131","433997","0.0-26.0-1.7","SS1613141830701","trial","","40","800","3312.170000001788","images/stimuli/spore_stims/complex_14_B_d.gif","images/stimuli/spore_stims/complex_03_B_b.gif","","","","","6","complex_dissimilar","images/stimuli/spore_stims/complex_03_B_b.gif","right","","","","",""
"","2860.5899999965914","html-keyboard-response","132","436869","0.0-27.0","SS1613141830701","pref_question","","50","","","","","<video width ='960' height = '540' style='padding-top:8%' autoplay muted><source src='images/stimuli/wall_pref.mp4' type='video/mp4'></video>","2","middle","45%","6","","","","","","","",""
"","2979.3699999863748","sequential-stimulus-presentation","133","440671","0.0-28.0","SS1613141830701","pref_reveal","","40","800","3779.3699999863748","null","null","","","","","6","","","","novel","","","",""
"","null","html-keyboard-response","134","441889","0.0-29.0-0.0","SS1613141830701","","","null","","","","","<p><img src= images/blank.png width =""200"" height = ""200"" style = ""float:right""></p><p><img src=images/blank.png width =""800"" height = ""200""></p>","","","","","","","","","","","",""
"","1415.5299999983981","sequential-stimulus-presentation","135","444150","0.0-29.0-1.0","SS1613141830701","trial","","40","800","2215.529999998398","images/stimuli/spore_stims/simple_14_A_b.gif","images/stimuli/spore_stims/simple_14_B_b.gif","","","","","7","simple_similar","images/stimuli/spore_stims/simple_14_B_b.gif","right","","","","",""
"","null","html-keyboard-response","136","445135","0.0-29.0-0.1","SS1613141830701","","","null","","","","","<p><img src= images/blank.png width =""200"" height = ""200"" style = ""float:right""></p><p><img src=images/blank.png width =""800"" height = ""200""></p>","","","","","","","","","","","",""
"","2092.7349999838043","sequential-stimulus-presentation","137","448064","0.0-29.0-1.1","SS1613141830701","trial","","40","800","2892.7349999838043","images/stimuli/spore_stims/simple_14_A_b.gif","images/stimuli/spore_stims/simple_14_B_b.gif","","","","","7","simple_similar","images/stimuli/spore_stims/simple_14_B_b.gif","right","","","","",""
"","null","html-keyboard-response","138","449353","0.0-29.0-0.2","SS1613141830701","","","null","","","","","<p><img src= images/blank.png width =""200"" height = ""200"" style = ""float:right""></p><p><img src=images/blank.png width =""800"" height = ""200""></p>","","","","","","","","","","","",""
"","2909.0800000121817","sequential-stimulus-presentation","139","453141","0.0-29.0-1.2","SS1613141830701","trial","","40","800","3709.0800000121817","images/stimuli/spore_stims/simple_14_A_b.gif","images/stimuli/spore_stims/simple_14_B_b.gif","","","","","7","simple_similar","images/stimuli/spore_stims/simple_14_A_b.gif","middle","","","","",""
"","null","html-keyboard-response","140","454404","0.0-29.0-0.3","SS1613141830701","","","null","","","","","<p><img src= images/blank.png width =""200"" height = ""200"" style = ""float:right""></p><p><img src=images/blank.png width =""800"" height = ""200""></p>","","","","","","","","","","","",""
"","5270.5649999843445","sequential-stimulus-presentation","141","460510","0.0-29.0-1.3","SS1613141830701","trial","","40","800","6070.5649999843445","images/stimuli/spore_stims/simple_14_A_b.gif","images/stimuli/spore_stims/simple_14_B_b.gif","","","","","7","simple_similar","images/stimuli/spore_stims/simple_14_B_b.gif","right","","","","",""
"","null","html-keyboard-response","142","461526","0.0-29.0-0.4","SS1613141830701","","","null","","","","","<p><img src= images/blank.png width =""200"" height = ""200"" style = ""float:right""></p><p><img src=images/blank.png width =""800"" height = ""200""></p>","","","","","","","","","","","",""
"","251.25000000116415","sequential-stimulus-presentation","143","462591","0.0-29.0-1.4","SS1613141830701","trial","","40","800","1051.2500000011642","images/stimuli/spore_stims/simple_14_A_b.gif","images/stimuli/spore_stims/simple_14_B_b.gif","","","","","7","simple_similar","images/stimuli/spore_stims/simple_14_B_b.gif","right","","","","",""
"","null","html-keyboard-response","144","463463","0.0-29.0-0.5","SS1613141830701","","","null","","","","","<p><img src= images/blank.png width =""200"" height = ""200"" style = ""float:right""></p><p><img src=images/blank.png width =""800"" height = ""200""></p>","","","","","","","","","","","",""
"","4370.4950000101235","sequential-stimulus-presentation","145","468692","0.0-29.0-1.5","SS1613141830701","trial","","40","800","5170.4950000101235","images/stimuli/spore_stims/simple_14_A_b.gif","images/stimuli/spore_stims/simple_14_B_b.gif","","","","","7","simple_similar","images/stimuli/spore_stims/simple_14_B_b.gif","right","","","","",""
"","null","html-keyboard-response","146","469917","0.0-29.0-0.6","SS1613141830701","","","null","","","","","<p><img src= images/blank.png width =""200"" height = ""200"" style = ""float:right""></p><p><img src=images/blank.png width =""800"" height = ""200""></p>","","","","","","","","","","","",""
"","370.7200000062585","sequential-stimulus-presentation","147","471124","0.0-29.0-1.6","SS1613141830701","trial","","40","800","1170.7200000062585","images/stimuli/spore_stims/simple_14_A_b.gif","images/stimuli/spore_stims/simple_14_B_b.gif","","","","","7","simple_similar","images/stimuli/spore_stims/simple_14_B_b.gif","right","","","","",""
"","null","html-keyboard-response","148","472174","0.0-29.0-0.7","SS1613141830701","","","null","","","","","<p><img src= images/blank.png width =""200"" height = ""200"" style = ""float:right""></p><p><img src=images/blank.png width =""800"" height = ""200""></p>","","","","","","","","","","","",""
"","3613.0899999989197","sequential-stimulus-presentation","149","476635","0.0-29.0-1.7","SS1613141830701","trial","","40","800","4413.08999999892","images/stimuli/spore_stims/simple_14_A_b.gif","images/stimuli/spore_stims/simple_14_B_b.gif","","","","","7","simple_similar","images/stimuli/spore_stims/simple_14_B_b.gif","right","","","","",""
"","5757.874999981141","html-keyboard-response","150","482404","0.0-30.0","SS1613141830701","pref_question","","51","","","","","<video width ='960' height = '540' style='padding-top:8%' autoplay muted><source src='images/stimuli/wall_pref.mp4' type='video/mp4'></video>","3","right","66%","7","","","","","","","",""
"","3971.81499999715","sequential-stimulus-presentation","151","487195","0.0-31.0","SS1613141830701","pref_reveal","","40","800","4771.81499999715","null","null","","","","","7","","","","background","","","",""
"","null","html-keyboard-response","152","488299","0.0-32.0-0.0","SS1613141830701","","","null","","","","","<p><img src= images/blank.png width =""200"" height = ""200"" style = ""float:right""></p><p><img src=images/blank.png width =""800"" height = ""200""></p>","","","","","","","","","","","",""
"","3431.2250000075437","sequential-stimulus-presentation","153","492556","0.0-32.0-1.0","SS1613141830701","trial","","40","800","4231.225000007544","images/stimuli/spore_stims/complex_11_B_c.gif","images/stimuli/spore_stims/complex_11_A_c.gif","","","","","8","complex_similar","images/stimuli/spore_stims/complex_11_A_c.gif","left","","","","",""
"","null","html-keyboard-response","154","493768","0.0-32.0-0.1","SS1613141830701","","","null","","","","","<p><img src= images/blank.png width =""200"" height = ""200"" style = ""float:right""></p><p><img src=images/blank.png width =""800"" height = ""200""></p>","","","","","","","","","","","",""
"","4033.9600000006612","sequential-stimulus-presentation","155","498632","0.0-32.0-1.1","SS1613141830701","trial","","40","800","4833.960000000661","images/stimuli/spore_stims/complex_11_B_c.gif","images/stimuli/spore_stims/complex_11_A_c.gif","","","","","8","complex_similar","images/stimuli/spore_stims/complex_11_A_c.gif","left","","","","",""
"","null","html-keyboard-response","156","499547","0.0-32.0-0.2","SS1613141830701","","","null","","","","","<p><img src= images/blank.png width =""200"" height = ""200"" style = ""float:right""></p><p><img src=images/blank.png width =""800"" height = ""200""></p>","","","","","","","","","","","",""
"","3392.924999992829","sequential-stimulus-presentation","157","503759","0.0-32.0-1.2","SS1613141830701","trial","","40","800","4192.924999992829","images/stimuli/spore_stims/complex_11_B_c.gif","images/stimuli/spore_stims/complex_11_A_c.gif","","","","","8","complex_similar","images/stimuli/spore_stims/complex_11_A_c.gif","left","","","","",""
"","null","html-keyboard-response","158","504604","0.0-32.0-0.3","SS1613141830701","","","null","","","","","<p><img src= images/blank.png width =""200"" height = ""200"" style = ""float:right""></p><p><img src=images/blank.png width =""800"" height = ""200""></p>","","","","","","","","","","","",""
"","4578.389999980573","sequential-stimulus-presentation","159","510010","0.0-32.0-1.3","SS1613141830701","trial","","40","800","5378.389999980573","images/stimuli/spore_stims/complex_11_B_c.gif","images/stimuli/spore_stims/complex_11_A_c.gif","","","","","8","complex_similar","images/stimuli/spore_stims/complex_11_A_c.gif","left","","","","",""
"","null","html-keyboard-response","160","511012","0.0-32.0-0.4","SS1613141830701","","","null","","","","","<p><img src= images/blank.png width =""200"" height = ""200"" style = ""float:right""></p><p><img src=images/blank.png width =""800"" height = ""200""></p>","","","","","","","","","","","",""
"","8251.230000023497","sequential-stimulus-presentation","161","520076","0.0-32.0-1.4","SS1613141830701","trial","","40","800","9051.230000023497","images/stimuli/spore_stims/complex_11_B_c.gif","images/stimuli/spore_stims/complex_11_A_c.gif","","","","","8","complex_similar","images/stimuli/spore_stims/complex_11_A_c.gif","left","","","","",""
"","null","html-keyboard-response","162","520955","0.0-32.0-0.5","SS1613141830701","","","null","","","","","<p><img src= images/blank.png width =""200"" height = ""200"" style = ""float:right""></p><p><img src=images/blank.png width =""800"" height = ""200""></p>","","","","","","","","","","","",""
"","2664.4999999844003","sequential-stimulus-presentation","163","524440","0.0-32.0-1.5","SS1613141830701","trial","","40","800","3464.4999999844003","images/stimuli/spore_stims/complex_11_B_c.gif","images/stimuli/spore_stims/complex_11_A_c.gif","","","","","8","complex_similar","images/stimuli/spore_stims/complex_11_A_c.gif","left","","","","",""
"","null","html-keyboard-response","164","525511","0.0-32.0-0.6","SS1613141830701","","","null","","","","","<p><img src= images/blank.png width =""200"" height = ""200"" style = ""float:right""></p><p><img src=images/blank.png width =""800"" height = ""200""></p>","","","","","","","","","","","",""
"","2190.6400000152644","sequential-stimulus-presentation","165","528525","0.0-32.0-1.6","SS1613141830701","trial","","40","800","2990.6400000152644","images/stimuli/spore_stims/complex_11_B_c.gif","images/stimuli/spore_stims/complex_11_A_c.gif","","","","","8","complex_similar","images/stimuli/spore_stims/complex_11_A_c.gif","left","","","","",""
"","null","html-keyboard-response","166","529761","0.0-32.0-0.7","SS1613141830701","","","null","","","","","<p><img src= images/blank.png width =""200"" height = ""200"" style = ""float:right""></p><p><img src=images/blank.png width =""800"" height = ""200""></p>","","","","","","","","","","","",""
"","2337.1400000178255","sequential-stimulus-presentation","167","532910","0.0-32.0-1.7","SS1613141830701","trial","","40","800","3137.1400000178255","images/stimuli/spore_stims/complex_11_B_c.gif","images/stimuli/spore_stims/complex_11_A_c.gif","","","","","8","complex_similar","images/stimuli/spore_stims/complex_11_B_c.gif","middle","","","","",""
"","4310.009999986505","html-keyboard-response","168","537234","0.0-33.0","SS1613141830701","pref_question","","51","","","","","<video width ='960' height = '540' style='padding-top:8%' autoplay muted><source src='images/stimuli/wall_pref.mp4' type='video/mp4'></video>","3","right","66%","8","","","","","","","",""
"","5348.265000007814","sequential-stimulus-presentation","169","543462","0.0-34.0","SS1613141830701","pref_reveal","","40","800","6148.265000007814","null","null","","","","","8","","","","novel","","","",""
"","null","html-keyboard-response","170","544540","0.0-35.0-0.0","SS1613141830701","","","null","","","","","<p><img src= images/blank.png width =""200"" height = ""200"" style = ""float:right""></p><p><img src=images/blank.png width =""800"" height = ""200""></p>","","","","","","","","","","","",""
"","2447.2850000020117","sequential-stimulus-presentation","171","547845","0.0-35.0-1.0","SS1613141830701","trial","","40","800","3247.2850000020117","images/stimuli/spore_stims/simple_17_A_d.gif","images/stimuli/spore_stims/simple_05_A_b.gif","","","","","9","simple_dissimilar","images/stimuli/spore_stims/simple_05_A_b.gif","left","","","","",""
"","null","html-keyboard-response","172","548911","0.0-35.0-0.1","SS1613141830701","","","null","","","","","<p><img src= images/blank.png width =""200"" height = ""200"" style = ""float:right""></p><p><img src=images/blank.png width =""800"" height = ""200""></p>","","","","","","","","","","","",""
"","1059.5049999828916","sequential-stimulus-presentation","173","550821","0.0-35.0-1.1","SS1613141830701","trial","","40","800","1859.5049999828916","images/stimuli/spore_stims/simple_17_A_d.gif","images/stimuli/spore_stims/simple_05_A_b.gif","","","","","9","simple_dissimilar","images/stimuli/spore_stims/simple_05_A_b.gif","left","","","","",""
"","null","html-keyboard-response","174","551727","0.0-35.0-0.2","SS1613141830701","","","null","","","","","<p><img src= images/blank.png width =""200"" height = ""200"" style = ""float:right""></p><p><img src=images/blank.png width =""800"" height = ""200""></p>","","","","","","","","","","","",""
"","1082.8700000129174","sequential-stimulus-presentation","175","553648","0.0-35.0-1.2","SS1613141830701","trial","","40","800","1882.8700000129174","images/stimuli/spore_stims/simple_17_A_d.gif","images/stimuli/spore_stims/simple_05_A_b.gif","","","","","9","simple_dissimilar","images/stimuli/spore_stims/simple_05_A_b.gif","left","","","","",""
"","null","html-keyboard-response","176","554499","0.0-35.0-0.3","SS1613141830701","","","null","","","","","<p><img src= images/blank.png width =""200"" height = ""200"" style = ""float:right""></p><p><img src=images/blank.png width =""800"" height = ""200""></p>","","","","","","","","","","","",""
"","724.3799999996554","sequential-stimulus-presentation","177","556055","0.0-35.0-1.3","SS1613141830701","trial","","40","800","1524.3799999996554","images/stimuli/spore_stims/simple_17_A_d.gif","images/stimuli/spore_stims/simple_05_A_b.gif","","","","","9","simple_dissimilar","images/stimuli/spore_stims/simple_05_A_b.gif","left","","","","",""
"","null","html-keyboard-response","178","557044","0.0-35.0-0.4","SS1613141830701","","","null","","","","","<p><img src= images/blank.png width =""200"" height = ""200"" style = ""float:right""></p><p><img src=images/blank.png width =""800"" height = ""200""></p>","","","","","","","","","","","",""
"","768.8499999931082","sequential-stimulus-presentation","179","558652","0.0-35.0-1.4","SS1613141830701","trial","","40","800","1568.8499999931082","images/stimuli/spore_stims/simple_17_A_d.gif","images/stimuli/spore_stims/simple_05_A_b.gif","","","","","9","simple_dissimilar","images/stimuli/spore_stims/simple_05_A_b.gif","left","","","","",""
"","null","html-keyboard-response","180","559572","0.0-35.0-0.5","SS1613141830701","","","null","","","","","<p><img src= images/blank.png width =""200"" height = ""200"" style = ""float:right""></p><p><img src=images/blank.png width =""800"" height = ""200""></p>","","","","","","","","","","","",""
"","790.3800000203773","sequential-stimulus-presentation","181","561209","0.0-35.0-1.5","SS1613141830701","trial","","40","800","1590.3800000203773","images/stimuli/spore_stims/simple_17_A_d.gif","images/stimuli/spore_stims/simple_05_A_b.gif","","","","","9","simple_dissimilar","images/stimuli/spore_stims/simple_05_A_b.gif","left","","","","",""
"","null","html-keyboard-response","182","562033","0.0-35.0-0.6","SS1613141830701","","","null","","","","","<p><img src= images/blank.png width =""200"" height = ""200"" style = ""float:right""></p><p><img src=images/blank.png width =""800"" height = ""200""></p>","","","","","","","","","","","",""
"","1207.1350000042003","sequential-stimulus-presentation","183","564051","0.0-35.0-1.6","SS1613141830701","trial","","40","800","2007.1350000042003","images/stimuli/spore_stims/simple_17_A_d.gif","images/stimuli/spore_stims/simple_05_A_b.gif","","","","","9","simple_dissimilar","images/stimuli/spore_stims/simple_17_A_d.gif","middle","","","","",""
"","null","html-keyboard-response","184","565291","0.0-35.0-0.7","SS1613141830701","","","null","","","","","<p><img src= images/blank.png width =""200"" height = ""200"" style = ""float:right""></p><p><img src=images/blank.png width =""800"" height = ""200""></p>","","","","","","","","","","","",""
"","669.8000000033062","sequential-stimulus-presentation","185","566818","0.0-35.0-1.7","SS1613141830701","trial","","40","800","1469.8000000033062","images/stimuli/spore_stims/simple_17_A_d.gif","images/stimuli/spore_stims/simple_05_A_b.gif","","","","","9","simple_dissimilar","images/stimuli/spore_stims/simple_05_A_b.gif","left","","","","",""
"","2699.320000014268","html-keyboard-response","186","569527","0.0-36.0","SS1613141830701","pref_question","","51","","","","","<video width ='960' height = '540' style='padding-top:8%' autoplay muted><source src='images/stimuli/wall_pref.mp4' type='video/mp4'></video>","3","right","66%","9","","","","","","","",""
"","1154.4550000107847","sequential-stimulus-presentation","187","571497","0.0-37.0","SS1613141830701","pref_reveal","","40","800","1954.4550000107847","null","null","","","","","9","","","","novel","","","",""
"","null","html-keyboard-response","188","572673","0.0-38.0-0.0","SS1613141830701","","","null","","","","","<p><img src= images/blank.png width =""200"" height = ""200"" style = ""float:right""></p><p><img src=images/blank.png width =""800"" height = ""200""></p>","","","","","","","","","","","",""
"","718.1799999962095","sequential-stimulus-presentation","189","574211","0.0-38.0-1.0","SS1613141830701","trial","","40","800","1518.1799999962095","images/stimuli/spore_stims/simple_03_A_a.gif","images/stimuli/spore_stims/simple_03_B_a.gif","","","","","10","simple_similar","images/stimuli/spore_stims/simple_03_B_a.gif","middle","","","","",""
"","null","html-keyboard-response","190","575455","0.0-38.0-0.1","SS1613141830701","","","null","","","","","<p><img src= images/blank.png width =""200"" height = ""200"" style = ""float:right""></p><p><img src=images/blank.png width =""800"" height = ""200""></p>","","","","","","","","","","","",""
"","606.5200000011828","sequential-stimulus-presentation","191","576956","0.0-38.0-1.1","SS1613141830701","trial","","40","800","1406.5200000011828","images/stimuli/spore_stims/simple_03_A_a.gif","images/stimuli/spore_stims/simple_03_B_a.gif","","","","","10","simple_similar","images/stimuli/spore_stims/simple_03_B_a.gif","middle","","","","",""
"","null","html-keyboard-response","192","578167","0.0-38.0-0.2","SS1613141830701","","","null","","","","","<p><img src= images/blank.png width =""200"" height = ""200"" style = ""float:right""></p><p><img src=images/blank.png width =""800"" height = ""200""></p>","","","","","","","","","","","",""
"","665.2049999975134","sequential-stimulus-presentation","193","579697","0.0-38.0-1.2","SS1613141830701","trial","","40","800","1465.2049999975134","images/stimuli/spore_stims/simple_03_A_a.gif","images/stimuli/spore_stims/simple_03_B_a.gif","","","","","10","simple_similar","images/stimuli/spore_stims/simple_03_B_a.gif","middle","","","","",""
"","null","html-keyboard-response","194","580640","0.0-38.0-0.3","SS1613141830701","","","null","","","","","<p><img src= images/blank.png width =""200"" height = ""200"" style = ""float:right""></p><p><img src=images/blank.png width =""800"" height = ""200""></p>","","","","","","","","","","","",""
"","1346.5650000143796","sequential-stimulus-presentation","195","582800","0.0-38.0-1.3","SS1613141830701","trial","","40","800","2146.5650000143796","images/stimuli/spore_stims/simple_03_A_a.gif","images/stimuli/spore_stims/simple_03_B_a.gif","","","","","10","simple_similar","images/stimuli/spore_stims/simple_03_B_a.gif","middle","","","","",""
"","null","html-keyboard-response","196","583754","0.0-38.0-0.4","SS1613141830701","","","null","","","","","<p><img src= images/blank.png width =""200"" height = ""200"" style = ""float:right""></p><p><img src=images/blank.png width =""800"" height = ""200""></p>","","","","","","","","","","","",""
"","1684.8249999748077","sequential-stimulus-presentation","197","586257","0.0-38.0-1.4","SS1613141830701","trial","","40","800","2484.8249999748077","images/stimuli/spore_stims/simple_03_A_a.gif","images/stimuli/spore_stims/simple_03_B_a.gif","","","","","10","simple_similar","images/stimuli/spore_stims/simple_03_A_a.gif","left","","","","",""
"","null","html-keyboard-response","198","587289","0.0-38.0-0.5","SS1613141830701","","","null","","","","","<p><img src= images/blank.png width =""200"" height = ""200"" style = ""float:right""></p><p><img src=images/blank.png width =""800"" height = ""200""></p>","","","","","","","","","","","",""
"","977.8000000223983","sequential-stimulus-presentation","199","589109","0.0-38.0-1.5","SS1613141830701","trial","","40","800","1777.8000000223983","images/stimuli/spore_stims/simple_03_A_a.gif","images/stimuli/spore_stims/simple_03_B_a.gif","","","","","10","simple_similar","images/stimuli/spore_stims/simple_03_B_a.gif","middle","","","","",""
"","null","html-keyboard-response","200","590338","0.0-38.0-0.6","SS1613141830701","","","null","","","","","<p><img src= images/blank.png width =""200"" height = ""200"" style = ""float:right""></p><p><img src=images/blank.png width =""800"" height = ""200""></p>","","","","","","","","","","","",""
"","638.1499999843072","sequential-stimulus-presentation","201","591792","0.0-38.0-1.6","SS1613141830701","trial","","40","800","1438.1499999843072","images/stimuli/spore_stims/simple_03_A_a.gif","images/stimuli/spore_stims/simple_03_B_a.gif","","","","","10","simple_similar","images/stimuli/spore_stims/simple_03_B_a.gif","middle","","","","",""
"","null","html-keyboard-response","202","592803","0.0-38.0-0.7","SS1613141830701","","","null","","","","","<p><img src= images/blank.png width =""200"" height = ""200"" style = ""float:right""></p><p><img src=images/blank.png width =""800"" height = ""200""></p>","","","","","","","","","","","",""
"","688.4800000116229","sequential-stimulus-presentation","203","594317","0.0-38.0-1.7","SS1613141830701","trial","","40","800","1488.480000011623","images/stimuli/spore_stims/simple_03_A_a.gif","images/stimuli/spore_stims/simple_03_B_a.gif","","","","","10","simple_similar","images/stimuli/spore_stims/simple_03_B_a.gif","middle","","","","",""
"","3470.904999994673","html-keyboard-response","204","597799","0.0-39.0","SS1613141830701","pref_question","","51","","","","","<video width ='960' height = '540' style='padding-top:8%' autoplay muted><source src='images/stimuli/wall_pref.mp4' type='video/mp4'></video>","3","right","66%","10","","","","","","","",""
"","937.6899999915622","sequential-stimulus-presentation","205","599564","0.0-40.0","SS1613141830701","pref_reveal","","40","800","1737.6899999915622","null","null","","","","","10","","","","novel","","","",""
"","null","html-keyboard-response","206","600558","0.0-41.0-0.0","SS1613141830701","","","null","","","","","<p><img src= images/blank.png width =""200"" height = ""200"" style = ""float:right""></p><p><img src=images/blank.png width =""800"" height = ""200""></p>","","","","","","","","","","","",""
"","1893.3450000185985","sequential-stimulus-presentation","207","603268","0.0-41.0-1.0","SS1613141830701","trial","","40","800","2693.3450000185985","images/stimuli/spore_stims/simple_07_A_a.gif","images/stimuli/spore_stims/simple_10_B_a.gif","","","","","11","simple_dissimilar","images/stimuli/spore_stims/simple_10_B_a.gif","middle","","","","",""
"","null","html-keyboard-response","208","604255","0.0-41.0-0.1","SS1613141830701","","","null","","","","","<p><img src= images/blank.png width =""200"" height = ""200"" style = ""float:right""></p><p><img src=images/blank.png width =""800"" height = ""200""></p>","","","","","","","","","","","",""
"","1485.6999999901745","sequential-stimulus-presentation","209","606553","0.0-41.0-1.1","SS1613141830701","trial","","40","800","2285.6999999901745","images/stimuli/spore_stims/simple_07_A_a.gif","images/stimuli/spore_stims/simple_10_B_a.gif","","","","","11","simple_dissimilar","images/stimuli/spore_stims/simple_10_B_a.gif","middle","","","","",""
"","null","html-keyboard-response","210","607787","0.0-41.0-0.2","SS1613141830701","","","null","","","","","<p><img src= images/blank.png width =""200"" height = ""200"" style = ""float:right""></p><p><img src=images/blank.png width =""800"" height = ""200""></p>","","","","","","","","","","","",""
"","1244.3499999935739","sequential-stimulus-presentation","211","609855","0.0-41.0-1.2","SS1613141830701","trial","","40","800","2044.3499999935739","images/stimuli/spore_stims/simple_07_A_a.gif","images/stimuli/spore_stims/simple_10_B_a.gif","","","","","11","simple_dissimilar","images/stimuli/spore_stims/simple_07_A_a.gif","right","","","","",""
"","null","html-keyboard-response","212","611135","0.0-41.0-0.3","SS1613141830701","","","null","","","","","<p><img src= images/blank.png width =""200"" height = ""200"" style = ""float:right""></p><p><img src=images/blank.png width =""800"" height = ""200""></p>","","","","","","","","","","","",""
"","448.48500000080094","sequential-stimulus-presentation","213","612412","0.0-41.0-1.3","SS1613141830701","trial","","40","800","1248.485000000801","images/stimuli/spore_stims/simple_07_A_a.gif","images/stimuli/spore_stims/simple_10_B_a.gif","","","","","11","simple_dissimilar","images/stimuli/spore_stims/simple_10_B_a.gif","middle","","","","",""
"","null","html-keyboard-response","214","613597","0.0-41.0-0.4","SS1613141830701","","","null","","","","","<p><img src= images/blank.png width =""200"" height = ""200"" style = ""float:right""></p><p><img src=images/blank.png width =""800"" height = ""200""></p>","","","","","","","","","","","",""
"","581.6199999826495","sequential-stimulus-presentation","215","615005","0.0-41.0-1.4","SS1613141830701","trial","","40","800","1381.6199999826495","images/stimuli/spore_stims/simple_07_A_a.gif","images/stimuli/spore_stims/simple_10_B_a.gif","","","","","11","simple_dissimilar","images/stimuli/spore_stims/simple_10_B_a.gif","middle","","","","",""
"","null","html-keyboard-response","216","616105","0.0-41.0-0.5","SS1613141830701","","","null","","","","","<p><img src= images/blank.png width =""200"" height = ""200"" style = ""float:right""></p><p><img src=images/blank.png width =""800"" height = ""200""></p>","","","","","","","","","","","",""
"","1512.7149999898393","sequential-stimulus-presentation","217","618462","0.0-41.0-1.5","SS1613141830701","trial","","40","800","2312.7149999898393","images/stimuli/spore_stims/simple_07_A_a.gif","images/stimuli/spore_stims/simple_10_B_a.gif","","","","","11","simple_dissimilar","images/stimuli/spore_stims/simple_10_B_a.gif","middle","","","","",""
"","null","html-keyboard-response","218","619302","0.0-41.0-0.6","SS1613141830701","","","null","","","","","<p><img src= images/blank.png width =""200"" height = ""200"" style = ""float:right""></p><p><img src=images/blank.png width =""800"" height = ""200""></p>","","","","","","","","","","","",""
"","669.2550000152551","sequential-stimulus-presentation","219","620863","0.0-41.0-1.6","SS1613141830701","trial","","40","800","1469.255000015255","images/stimuli/spore_stims/simple_07_A_a.gif","images/stimuli/spore_stims/simple_10_B_a.gif","","","","","11","simple_dissimilar","images/stimuli/spore_stims/simple_10_B_a.gif","middle","","","","",""
"","null","html-keyboard-response","220","622157","0.0-41.0-0.7","SS1613141830701","","","null","","","","","<p><img src= images/blank.png width =""200"" height = ""200"" style = ""float:right""></p><p><img src=images/blank.png width =""800"" height = ""200""></p>","","","","","","","","","","","",""
"","696.6100000136066","sequential-stimulus-presentation","221","623680","0.0-41.0-1.7","SS1613141830701","trial","","40","800","1496.6100000136066","images/stimuli/spore_stims/simple_07_A_a.gif","images/stimuli/spore_stims/simple_10_B_a.gif","","","","","11","simple_dissimilar","images/stimuli/spore_stims/simple_10_B_a.gif","middle","","","","",""
"","2706.4399999799207","html-keyboard-response","222","626399","0.0-42.0","SS1613141830701","pref_question","","49","","","","","<video width ='960' height = '540' style='padding-top:8%' autoplay muted><source src='images/stimuli/wall_pref.mp4' type='video/mp4'></video>","1","left","25%","11","","","","","","","",""
"","1482.064999989234","sequential-stimulus-presentation","223","628714","0.0-43.0","SS1613141830701","pref_reveal","","40","800","2282.064999989234","null","null","","","","","11","","","","novel","","","",""
"","null","html-keyboard-response","224","629882","0.0-44.0-0.0","SS1613141830701","","","null","","","","","<p><img src= images/blank.png width =""200"" height = ""200"" style = ""float:right""></p><p><img src=images/blank.png width =""800"" height = ""200""></p>","","","","","","","","","","","",""
"","976.7399999836925","sequential-stimulus-presentation","225","631689","0.0-44.0-1.0","SS1613141830701","trial","","40","800","1776.7399999836925","images/stimuli/spore_stims/simple_13_B_a.gif","images/stimuli/spore_stims/simple_13_A_a.gif","","","","","12","simple_similar","images/stimuli/spore_stims/simple_13_A_a.gif","middle","","","","",""
"","null","html-keyboard-response","226","632629","0.0-44.0-0.1","SS1613141830701","","","null","","","","","<p><img src= images/blank.png width =""200"" height = ""200"" style = ""float:right""></p><p><img src=images/blank.png width =""800"" height = ""200""></p>","","","","","","","","","","","",""
"","1228.1800000055227","sequential-stimulus-presentation","227","634682","0.0-44.0-1.1","SS1613141830701","trial","","40","800","2028.1800000055227","images/stimuli/spore_stims/simple_13_B_a.gif","images/stimuli/spore_stims/simple_13_A_a.gif","","","","","12","simple_similar","images/stimuli/spore_stims/simple_13_A_a.gif","middle","","","","",""
"","null","html-keyboard-response","228","635656","0.0-44.0-0.2","SS1613141830701","","","null","","","","","<p><img src= images/blank.png width =""200"" height = ""200"" style = ""float:right""></p><p><img src=images/blank.png width =""800"" height = ""200""></p>","","","","","","","","","","","",""
"","1208.45500001451","sequential-stimulus-presentation","229","637699","0.0-44.0-1.2","SS1613141830701","trial","","40","800","2008.45500001451","images/stimuli/spore_stims/simple_13_B_a.gif","images/stimuli/spore_stims/simple_13_A_a.gif","","","","","12","simple_similar","images/stimuli/spore_stims/simple_13_A_a.gif","middle","","","","",""
"","null","html-keyboard-response","230","638928","0.0-44.0-0.3","SS1613141830701","","","null","","","","","<p><img src= images/blank.png width =""200"" height = ""200"" style = ""float:right""></p><p><img src=images/blank.png width =""800"" height = ""200""></p>","","","","","","","","","","","",""
"","504.32000000728294","sequential-stimulus-presentation","231","640267","0.0-44.0-1.3","SS1613141830701","trial","","40","800","1304.320000007283","images/stimuli/spore_stims/simple_13_B_a.gif","images/stimuli/spore_stims/simple_13_A_a.gif","","","","","12","simple_similar","images/stimuli/spore_stims/simple_13_A_a.gif","middle","","","","",""
"","null","html-keyboard-response","232","641409","0.0-44.0-0.4","SS1613141830701","","","null","","","","","<p><img src= images/blank.png width =""200"" height = ""200"" style = ""float:right""></p><p><img src=images/blank.png width =""800"" height = ""200""></p>","","","","","","","","","","","",""
"","1419.4549999956507","sequential-stimulus-presentation","233","643659","0.0-44.0-1.4","SS1613141830701","trial","","40","800","2219.4549999956507","images/stimuli/spore_stims/simple_13_B_a.gif","images/stimuli/spore_stims/simple_13_A_a.gif","","","","","12","simple_similar","images/stimuli/spore_stims/simple_13_A_a.gif","middle","","","","",""
"","null","html-keyboard-response","234","644505","0.0-44.0-0.5","SS1613141830701","","","null","","","","","<p><img src= images/blank.png width =""200"" height = ""200"" style = ""float:right""></p><p><img src=images/blank.png width =""800"" height = ""200""></p>","","","","","","","","","","","",""
"","1396.999999997206","sequential-stimulus-presentation","235","646742","0.0-44.0-1.5","SS1613141830701","trial","","40","800","2196.999999997206","images/stimuli/spore_stims/simple_13_B_a.gif","images/stimuli/spore_stims/simple_13_A_a.gif","","","","","12","simple_similar","images/stimuli/spore_stims/simple_13_A_a.gif","middle","","","","",""
"","null","html-keyboard-response","236","648016","0.0-44.0-0.6","SS1613141830701","","","null","","","","","<p><img src= images/blank.png width =""200"" height = ""200"" style = ""float:right""></p><p><img src=images/blank.png width =""800"" height = ""200""></p>","","","","","","","","","","","",""
"","4211.510000022827","sequential-stimulus-presentation","237","653054","0.0-44.0-1.6","SS1613141830701","trial","","40","800","5011.510000022827","images/stimuli/spore_stims/simple_13_B_a.gif","images/stimuli/spore_stims/simple_13_A_a.gif","","","","","12","simple_similar","images/stimuli/spore_stims/simple_13_A_a.gif","middle","","","","",""
"","null","html-keyboard-response","238","654174","0.0-44.0-0.7","SS1613141830701","","","null","","","","","<p><img src= images/blank.png width =""200"" height = ""200"" style = ""float:right""></p><p><img src=images/blank.png width =""800"" height = ""200""></p>","","","","","","","","","","","",""
"","1668.069999985164","sequential-stimulus-presentation","239","656676","0.0-44.0-1.7","SS1613141830701","trial","","40","800","2468.069999985164","images/stimuli/spore_stims/simple_13_B_a.gif","images/stimuli/spore_stims/simple_13_A_a.gif","","","","","12","simple_similar","images/stimuli/spore_stims/simple_13_B_a.gif","left","","","","",""
"","2949.369999987539","html-keyboard-response","240","659637","0.0-45.0","SS1613141830701","pref_question","","51","","","","","<video width ='960' height = '540' style='padding-top:8%' autoplay muted><source src='images/stimuli/wall_pref.mp4' type='video/mp4'></video>","3","right","66%","12","","","","","","","",""
"","1541.8400000198744","sequential-stimulus-presentation","241","661999","0.0-46.0","SS1613141830701","pref_reveal","","40","800","2341.8400000198744","null","null","","","","","12","","","","novel","","","",""
"","null","html-keyboard-response","242","662888","0.0-47.0-0.0","SS1613141830701","","","null","","","","","<p><img src= images/blank.png width =""200"" height = ""200"" style = ""float:right""></p><p><img src=images/blank.png width =""800"" height = ""200""></p>","","","","","","","","","","","",""
"","1191.4600000018254","sequential-stimulus-presentation","243","664898","0.0-47.0-1.0","SS1613141830701","trial","","40","800","1991.4600000018254","images/stimuli/spore_stims/complex_16_B_d.gif","images/stimuli/spore_stims/complex_16_A_b.gif","","","","","13","complex_dissimilar","images/stimuli/spore_stims/complex_16_A_b.gif","left","","","","",""
"","null","html-keyboard-response","244","665906","0.0-47.0-0.1","SS1613141830701","","","null","","","","","<p><img src= images/blank.png width =""200"" height = ""200"" style = ""float:right""></p><p><img src=images/blank.png width =""800"" height = ""200""></p>","","","","","","","","","","","",""
"","1505.2900000009686","sequential-stimulus-presentation","245","668227","0.0-47.0-1.1","SS1613141830701","trial","","40","800","2305.2900000009686","images/stimuli/spore_stims/complex_16_B_d.gif","images/stimuli/spore_stims/complex_16_A_b.gif","","","","","13","complex_dissimilar","images/stimuli/spore_stims/complex_16_A_b.gif","left","","","","",""
"","null","html-keyboard-response","246","669503","0.0-47.0-0.2","SS1613141830701","","","null","","","","","<p><img src= images/blank.png width =""200"" height = ""200"" style = ""float:right""></p><p><img src=images/blank.png width =""800"" height = ""200""></p>","","","","","","","","","","","",""
"","725.2149999840185","sequential-stimulus-presentation","247","671064","0.0-47.0-1.2","SS1613141830701","trial","","40","800","1525.2149999840185","images/stimuli/spore_stims/complex_16_B_d.gif","images/stimuli/spore_stims/complex_16_A_b.gif","","","","","13","complex_dissimilar","images/stimuli/spore_stims/complex_16_A_b.gif","left","","","","",""
"","null","html-keyboard-response","248","672232","0.0-47.0-0.3","SS1613141830701","","","null","","","","","<p><img src= images/blank.png width =""200"" height = ""200"" style = ""float:right""></p><p><img src=images/blank.png width =""800"" height = ""200""></p>","","","","","","","","","","","",""
"","1122.5399999821093","sequential-stimulus-presentation","249","674191","0.0-47.0-1.3","SS1613141830701","trial","","40","800","1922.5399999821093","images/stimuli/spore_stims/complex_16_B_d.gif","images/stimuli/spore_stims/complex_16_A_b.gif","","","","","13","complex_dissimilar","images/stimuli/spore_stims/complex_16_A_b.gif","left","","","","",""
"","null","html-keyboard-response","250","675074","0.0-47.0-0.4","SS1613141830701","","","null","","","","","<p><img src= images/blank.png width =""200"" height = ""200"" style = ""float:right""></p><p><img src=images/blank.png width =""800"" height = ""200""></p>","","","","","","","","","","","",""
"","1744.1950000065845","sequential-stimulus-presentation","251","677672","0.0-47.0-1.4","SS1613141830701","trial","","40","800","2544.1950000065845","images/stimuli/spore_stims/complex_16_B_d.gif","images/stimuli/spore_stims/complex_16_A_b.gif","","","","","13","complex_dissimilar","images/stimuli/spore_stims/complex_16_B_d.gif","middle","","","","",""
"","null","html-keyboard-response","252","678666","0.0-47.0-0.5","SS1613141830701","","","null","","","","","<p><img src= images/blank.png width =""200"" height = ""200"" style = ""float:right""></p><p><img src=images/blank.png width =""800"" height = ""200""></p>","","","","","","","","","","","",""
"","1784.4999999797437","sequential-stimulus-presentation","253","681277","0.0-47.0-1.5","SS1613141830701","trial","","40","800","2584.4999999797437","images/stimuli/spore_stims/complex_16_B_d.gif","images/stimuli/spore_stims/complex_16_A_b.gif","","","","","13","complex_dissimilar","images/stimuli/spore_stims/complex_16_A_b.gif","left","","","","",""
"","null","html-keyboard-response","254","682298","0.0-47.0-0.6","SS1613141830701","","","null","","","","","<p><img src= images/blank.png width =""200"" height = ""200"" style = ""float:right""></p><p><img src=images/blank.png width =""800"" height = ""200""></p>","","","","","","","","","","","",""
"","1391.9549999991432","sequential-stimulus-presentation","255","684515","0.0-47.0-1.6","SS1613141830701","trial","","40","800","2191.954999999143","images/stimuli/spore_stims/complex_16_B_d.gif","images/stimuli/spore_stims/complex_16_A_b.gif","","","","","13","complex_dissimilar","images/stimuli/spore_stims/complex_16_A_b.gif","left","","","","",""
"","null","html-keyboard-response","256","685497","0.0-47.0-0.7","SS1613141830701","","","null","","","","","<p><img src= images/blank.png width =""200"" height = ""200"" style = ""float:right""></p><p><img src=images/blank.png width =""800"" height = ""200""></p>","","","","","","","","","","","",""
"","1902.0149999996647","sequential-stimulus-presentation","257","688253","0.0-47.0-1.7","SS1613141830701","trial","","40","800","2702.0149999996647","images/stimuli/spore_stims/complex_16_B_d.gif","images/stimuli/spore_stims/complex_16_A_b.gif","","","","","13","complex_dissimilar","images/stimuli/spore_stims/complex_16_A_b.gif","left","","","","",""
"","3412.719999992987","html-keyboard-response","258","691677","0.0-48.0","SS1613141830701","pref_question","","50","","","","","<video width ='960' height = '540' style='padding-top:8%' autoplay muted><source src='images/stimuli/wall_pref.mp4' type='video/mp4'></video>","2","middle","45%","13","","","","","","","",""
"","641.52499998454","sequential-stimulus-presentation","259","693131","0.0-49.0","SS1613141830701","pref_reveal","","40","800","1441.52499998454","null","null","","","","","13","","","","deviant","","","",""
"","null","html-keyboard-response","260","694179","0.0-50.0-0.0","SS1613141830701","","","null","","","","","<p><img src= images/blank.png width =""200"" height = ""200"" style = ""float:right""></p><p><img src=images/blank.png width =""800"" height = ""200""></p>","","","","","","","","","","","",""
"","426.469999976689","sequential-stimulus-presentation","261","695437","0.0-50.0-1.0","SS1613141830701","trial","","40","800","1226.469999976689","images/stimuli/spore_stims/simple_17_B_c.gif","images/stimuli/spore_stims/simple_20_B_a.gif","","","","","14","simple_dissimilar","images/stimuli/spore_stims/simple_20_B_a.gif","middle","","","","",""
"","null","html-keyboard-response","262","696682","0.0-50.0-0.1","SS1613141830701","","","null","","","","","<p><img src= images/blank.png width =""200"" height = ""200"" style = ""float:right""></p><p><img src=images/blank.png width =""800"" height = ""200""></p>","","","","","","","","","","","",""
"","1583.5099999967497","sequential-stimulus-presentation","263","699106","0.0-50.0-1.1","SS1613141830701","trial","","40","800","2383.5099999967497","images/stimuli/spore_stims/simple_17_B_c.gif","images/stimuli/spore_stims/simple_20_B_a.gif","","","","","14","simple_dissimilar","images/stimuli/spore_stims/simple_20_B_a.gif","middle","","","","",""
"","null","html-keyboard-response","264","700398","0.0-50.0-0.2","SS1613141830701","","","null","","","","","<p><img src= images/blank.png width =""200"" height = ""200"" style = ""float:right""></p><p><img src=images/blank.png width =""800"" height = ""200""></p>","","","","","","","","","","","",""
"","784.0250000008382","sequential-stimulus-presentation","265","702007","0.0-50.0-1.2","SS1613141830701","trial","","40","800","1584.0250000008382","images/stimuli/spore_stims/simple_17_B_c.gif","images/stimuli/spore_stims/simple_20_B_a.gif","","","","","14","simple_dissimilar","images/stimuli/spore_stims/simple_20_B_a.gif","middle","","","","",""
"","null","html-keyboard-response","266","703305","0.0-50.0-0.3","SS1613141830701","","","null","","","","","<p><img src= images/blank.png width =""200"" height = ""200"" style = ""float:right""></p><p><img src=images/blank.png width =""800"" height = ""200""></p>","","","","","","","","","","","",""
"","687.9949999856763","sequential-stimulus-presentation","267","704836","0.0-50.0-1.3","SS1613141830701","trial","","40","800","1487.9949999856763","images/stimuli/spore_stims/simple_17_B_c.gif","images/stimuli/spore_stims/simple_20_B_a.gif","","","","","14","simple_dissimilar","images/stimuli/spore_stims/simple_20_B_a.gif","middle","","","","",""
"","null","html-keyboard-response","268","705752","0.0-50.0-0.4","SS1613141830701","","","null","","","","","<p><img src= images/blank.png width =""200"" height = ""200"" style = ""float:right""></p><p><img src=images/blank.png width =""800"" height = ""200""></p>","","","","","","","","","","","",""
"","1935.250000009546","sequential-stimulus-presentation","269","708515","0.0-50.0-1.4","SS1613141830701","trial","","40","800","2735.250000009546","images/stimuli/spore_stims/simple_17_B_c.gif","images/stimuli/spore_stims/simple_20_B_a.gif","","","","","14","simple_dissimilar","images/stimuli/spore_stims/simple_20_B_a.gif","middle","","","","",""
"","null","html-keyboard-response","270","709555","0.0-50.0-0.5","SS1613141830701","","","null","","","","","<p><img src= images/blank.png width =""200"" height = ""200"" style = ""float:right""></p><p><img src=images/blank.png width =""800"" height = ""200""></p>","","","","","","","","","","","",""
"","1109.889999992447","sequential-stimulus-presentation","271","711484","0.0-50.0-1.5","SS1613141830701","trial","","40","800","1909.889999992447","images/stimuli/spore_stims/simple_17_B_c.gif","images/stimuli/spore_stims/simple_20_B_a.gif","","","","","14","simple_dissimilar","images/stimuli/spore_stims/simple_20_B_a.gif","middle","","","","",""
"","null","html-keyboard-response","272","712492","0.0-50.0-0.6","SS1613141830701","","","null","","","","","<p><img src= images/blank.png width =""200"" height = ""200"" style = ""float:right""></p><p><img src=images/blank.png width =""800"" height = ""200""></p>","","","","","","","","","","","",""
"","1850.2149999840185","sequential-stimulus-presentation","273","715234","0.0-50.0-1.6","SS1613141830701","trial","","40","800","2650.2149999840185","images/stimuli/spore_stims/simple_17_B_c.gif","images/stimuli/spore_stims/simple_20_B_a.gif","","","","","14","simple_dissimilar","images/stimuli/spore_stims/simple_17_B_c.gif","left","","","","",""
"","null","html-keyboard-response","274","716133","0.0-50.0-0.7","SS1613141830701","","","null","","","","","<p><img src= images/blank.png width =""200"" height = ""200"" style = ""float:right""></p><p><img src=images/blank.png width =""800"" height = ""200""></p>","","","","","","","","","","","",""
"","808.355000015581","sequential-stimulus-presentation","275","717756","0.0-50.0-1.7","SS1613141830701","trial","","40","800","1608.355000015581","images/stimuli/spore_stims/simple_17_B_c.gif","images/stimuli/spore_stims/simple_20_B_a.gif","","","","","14","simple_dissimilar","images/stimuli/spore_stims/simple_20_B_a.gif","middle","","","","",""
"","2448.5550000099465","html-keyboard-response","276","720221","0.0-51.0","SS1613141830701","pref_question","","51","","","","","<video width ='960' height = '540' style='padding-top:8%' autoplay muted><source src='images/stimuli/wall_pref.mp4' type='video/mp4'></video>","3","right","66%","14","","","","","","","",""
"","2156.140000006417","sequential-stimulus-presentation","277","723194","0.0-52.0","SS1613141830701","pref_reveal","","40","800","2956.140000006417","null","null","","","","","14","","","","novel","","","",""
"","null","html-keyboard-response","278","724388","0.0-53.0-0.0","SS1613141830701","","","null","","","","","<p><img src= images/blank.png width =""200"" height = ""200"" style = ""float:right""></p><p><img src=images/blank.png width =""800"" height = ""200""></p>","","","","","","","","","","","",""
"","1603.2750000013039","sequential-stimulus-presentation","279","726816","0.0-53.0-1.0","SS1613141830701","trial","","40","800","2403.275000001304","images/stimuli/spore_stims/complex_04_B_c.gif","images/stimuli/spore_stims/complex_15_B_b.gif","","","","","15","complex_dissimilar","images/stimuli/spore_stims/complex_15_B_b.gif","middle","","","","",""
"","null","html-keyboard-response","280","727936","0.0-53.0-0.1","SS1613141830701","","","null","","","","","<p><img src= images/blank.png width =""200"" height = ""200"" style = ""float:right""></p><p><img src=images/blank.png width =""800"" height = ""200""></p>","","","","","","","","","","","",""
"","745.5349999945611","sequential-stimulus-presentation","281","729519","0.0-53.0-1.1","SS1613141830701","trial","","40","800","1545.534999994561","images/stimuli/spore_stims/complex_04_B_c.gif","images/stimuli/spore_stims/complex_15_B_b.gif","","","","","15","complex_dissimilar","images/stimuli/spore_stims/complex_15_B_b.gif","middle","","","","",""
"","null","html-keyboard-response","282","730352","0.0-53.0-0.2","SS1613141830701","","","null","","","","","<p><img src= images/blank.png width =""200"" height = ""200"" style = ""float:right""></p><p><img src=images/blank.png width =""800"" height = ""200""></p>","","","","","","","","","","","",""
"","1352.645000006305","sequential-stimulus-presentation","283","732540","0.0-53.0-1.2","SS1613141830701","trial","","40","800","2152.645000006305","images/stimuli/spore_stims/complex_04_B_c.gif","images/stimuli/spore_stims/complex_15_B_b.gif","","","","","15","complex_dissimilar","images/stimuli/spore_stims/complex_15_B_b.gif","middle","","","","",""
"","null","html-keyboard-response","284","733453","0.0-53.0-0.3","SS1613141830701","","","null","","","","","<p><img src= images/blank.png width =""200"" height = ""200"" style = ""float:right""></p><p><img src=images/blank.png width =""800"" height = ""200""></p>","","","","","","","","","","","",""
"","851.1799999978393","sequential-stimulus-presentation","285","735131","0.0-53.0-1.3","SS1613141830701","trial","","40","800","1651.1799999978393","images/stimuli/spore_stims/complex_04_B_c.gif","images/stimuli/spore_stims/complex_15_B_b.gif","","","","","15","complex_dissimilar","images/stimuli/spore_stims/complex_15_B_b.gif","middle","","","","",""
"","null","html-keyboard-response","286","736343","0.0-53.0-0.4","SS1613141830701","","","null","","","","","<p><img src= images/blank.png width =""200"" height = ""200"" style = ""float:right""></p><p><img src=images/blank.png width =""800"" height = ""200""></p>","","","","","","","","","","","",""
"","712.4750000075437","sequential-stimulus-presentation","287","737868","0.0-53.0-1.4","SS1613141830701","trial","","40","800","1512.4750000075437","images/stimuli/spore_stims/complex_04_B_c.gif","images/stimuli/spore_stims/complex_15_B_b.gif","","","","","15","complex_dissimilar","images/stimuli/spore_stims/complex_15_B_b.gif","middle","","","","",""
"","null","html-keyboard-response","288","739011","0.0-53.0-0.5","SS1613141830701","","","null","","","","","<p><img src= images/blank.png width =""200"" height = ""200"" style = ""float:right""></p><p><img src=images/blank.png width =""800"" height = ""200""></p>","","","","","","","","","","","",""
"","649.5149999973364","sequential-stimulus-presentation","289","740485","0.0-53.0-1.5","SS1613141830701","trial","","40","800","1449.5149999973364","images/stimuli/spore_stims/complex_04_B_c.gif","images/stimuli/spore_stims/complex_15_B_b.gif","","","","","15","complex_dissimilar","images/stimuli/spore_stims/complex_15_B_b.gif","middle","","","","",""
"","null","html-keyboard-response","290","741321","0.0-53.0-0.6","SS1613141830701","","","null","","","","","<p><img src= images/blank.png width =""200"" height = ""200"" style = ""float:right""></p><p><img src=images/blank.png width =""800"" height = ""200""></p>","","","","","","","","","","","",""
"","1884.7100000130013","sequential-stimulus-presentation","291","744097","0.0-53.0-1.6","SS1613141830701","trial","","40","800","2684.7100000130013","images/stimuli/spore_stims/complex_04_B_c.gif","images/stimuli/spore_stims/complex_15_B_b.gif","","","","","15","complex_dissimilar","images/stimuli/spore_stims/complex_04_B_c.gif","right","","","","",""
"","null","html-keyboard-response","292","745339","0.0-53.0-0.7","SS1613141830701","","","null","","","","","<p><img src= images/blank.png width =""200"" height = ""200"" style = ""float:right""></p><p><img src=images/blank.png width =""800"" height = ""200""></p>","","","","","","","","","","","",""
"","1014.2249999917112","sequential-stimulus-presentation","293","747173","0.0-53.0-1.7","SS1613141830701","trial","","40","800","1814.2249999917112","images/stimuli/spore_stims/complex_04_B_c.gif","images/stimuli/spore_stims/complex_15_B_b.gif","","","","","15","complex_dissimilar","images/stimuli/spore_stims/complex_15_B_b.gif","middle","","","","",""
"","2232.4749999970663","html-keyboard-response","294","749421","0.0-54.0","SS1613141830701","pref_question","","49","","","","","<video width ='960' height = '540' style='padding-top:8%' autoplay muted><source src='images/stimuli/wall_pref.mp4' type='video/mp4'></video>","1","left","25%","15","","","","","","","",""
"","2191.6499999933876","sequential-stimulus-presentation","295","752449","0.0-55.0","SS1613141830701","pref_reveal","","40","800","2991.6499999933876","null","null","","","","","15","","","","novel","","","",""
"","null","html-keyboard-response","296","753738","0.0-56.0-0.0","SS1613141830701","","","null","","","","","<p><img src= images/blank.png width =""200"" height = ""200"" style = ""float:right""></p><p><img src=images/blank.png width =""800"" height = ""200""></p>","","","","","","","","","","","",""
"","1861.235000018496","sequential-stimulus-presentation","297","756441","0.0-56.0-1.0","SS1613141830701","trial","","40","800","2661.235000018496","images/stimuli/spore_stims/complex_01_A_b.gif","images/stimuli/spore_stims/complex_10_B_a.gif","","","","","16","complex_dissimilar","images/stimuli/spore_stims/complex_10_B_a.gif","left","","","","",""
"","null","html-keyboard-response","298","757673","0.0-56.0-0.1","SS1613141830701","","","null","","","","","<p><img src= images/blank.png width =""200"" height = ""200"" style = ""float:right""></p><p><img src=images/blank.png width =""800"" height = ""200""></p>","","","","","","","","","","","",""
"","727.6499999861699","sequential-stimulus-presentation","299","759242","0.0-56.0-1.1","SS1613141830701","trial","","40","800","1527.6499999861699","images/stimuli/spore_stims/complex_01_A_b.gif","images/stimuli/spore_stims/complex_10_B_a.gif","","","","","16","complex_dissimilar","images/stimuli/spore_stims/complex_10_B_a.gif","left","","","","",""
"","null","html-keyboard-response","300","760384","0.0-56.0-0.2","SS1613141830701","","","null","","","","","<p><img src= images/blank.png width =""200"" height = ""200"" style = ""float:right""></p><p><img src=images/blank.png width =""800"" height = ""200""></p>","","","","","","","","","","","",""
"","2075.6600000022445","sequential-stimulus-presentation","301","763298","0.0-56.0-1.2","SS1613141830701","trial","","40","800","2875.6600000022445","images/stimuli/spore_stims/complex_01_A_b.gif","images/stimuli/spore_stims/complex_10_B_a.gif","","","","","16","complex_dissimilar","images/stimuli/spore_stims/complex_10_B_a.gif","left","","","","",""
"","null","html-keyboard-response","302","764366","0.0-56.0-0.3","SS1613141830701","","","null","","","","","<p><img src= images/blank.png width =""200"" height = ""200"" style = ""float:right""></p><p><img src=images/blank.png width =""800"" height = ""200""></p>","","","","","","","","","","","",""
"","4433.030000014696","sequential-stimulus-presentation","303","769630","0.0-56.0-1.3","SS1613141830701","trial","","40","800","5233.030000014696","images/stimuli/spore_stims/complex_01_A_b.gif","images/stimuli/spore_stims/complex_10_B_a.gif","","","","","16","complex_dissimilar","images/stimuli/spore_stims/complex_01_A_b.gif","middle","","","","",""
"","null","html-keyboard-response","304","770816","0.0-56.0-0.4","SS1613141830701","","","null","","","","","<p><img src= images/blank.png width =""200"" height = ""200"" style = ""float:right""></p><p><img src=images/blank.png width =""800"" height = ""200""></p>","","","","","","","","","","","",""
"","1991.2400000030175","sequential-stimulus-presentation","305","773631","0.0-56.0-1.4","SS1613141830701","trial","","40","800","2791.2400000030175","images/stimuli/spore_stims/complex_01_A_b.gif","images/stimuli/spore_stims/complex_10_B_a.gif","","","","","16","complex_dissimilar","images/stimuli/spore_stims/complex_10_B_a.gif","left","","","","",""
"","null","html-keyboard-response","306","774821","0.0-56.0-0.5","SS1613141830701","","","null","","","","","<p><img src= images/blank.png width =""200"" height = ""200"" style = ""float:right""></p><p><img src=images/blank.png width =""800"" height = ""200""></p>","","","","","","","","","","","",""
"","2147.8899999929126","sequential-stimulus-presentation","307","777837","0.0-56.0-1.5","SS1613141830701","trial","","40","800","2947.8899999929126","images/stimuli/spore_stims/complex_01_A_b.gif","images/stimuli/spore_stims/complex_10_B_a.gif","","","","","16","complex_dissimilar","images/stimuli/spore_stims/complex_10_B_a.gif","left","","","","",""
"","null","html-keyboard-response","308","778839","0.0-56.0-0.6","SS1613141830701","","","null","","","","","<p><img src= images/blank.png width =""200"" height = ""200"" style = ""float:right""></p><p><img src=images/blank.png width =""800"" height = ""200""></p>","","","","","","","","","","","",""
"","2145.1750000123866","sequential-stimulus-presentation","309","781804","0.0-56.0-1.6","SS1613141830701","trial","","40","800","2945.1750000123866","images/stimuli/spore_stims/complex_01_A_b.gif","images/stimuli/spore_stims/complex_10_B_a.gif","","","","","16","complex_dissimilar","images/stimuli/spore_stims/complex_10_B_a.gif","left","","","","",""
"","null","html-keyboard-response","310","782919","0.0-56.0-0.7","SS1613141830701","","","null","","","","","<p><img src= images/blank.png width =""200"" height = ""200"" style = ""float:right""></p><p><img src=images/blank.png width =""800"" height = ""200""></p>","","","","","","","","","","","",""
"","2248.6299999873154","sequential-stimulus-presentation","311","785997","0.0-56.0-1.7","SS1613141830701","trial","","40","800","3048.6299999873154","images/stimuli/spore_stims/complex_01_A_b.gif","images/stimuli/spore_stims/complex_10_B_a.gif","","","","","16","complex_dissimilar","images/stimuli/spore_stims/complex_10_B_a.gif","left","","","","",""
"","4742.37500000163","html-keyboard-response","312","790755","0.0-57.0","SS1613141830701","pref_question","","51","","","","","<video width ='960' height = '540' style='padding-top:8%' autoplay muted><source src='images/stimuli/wall_pref.mp4' type='video/mp4'></video>","3","right","66%","16","","","","","","","",""
