"view_history","rt","trial_type","trial_index","time_elapsed","internal_node_id","subject","stimulus_type","trial_stimulus","key_press","minimum_viewing_duration","trial_looking_time","block_deviant","block_background","stimulus","wall_pref","location","location_percent","block_number","block_type","stimulus_displayed","position_displayed","stim_type_selected","responses","question_order","stimulus_left","stimulus_right"
"[{""page_index"":0,""viewing_time"":14545.985000004293}]","14548.170000009122","instructions","0","14553","0.0-0.0","SS1613138447075","","","","","","","","","","","","","","","","","","","",""
"[{""page_index"":0,""viewing_time"":12463.489999994636},{""page_index"":1,""viewing_time"":9679.74000000686}]","22143.929999991087","instructions","1","38715","0.0-1.0","SS1613138447075","instructions","","","","","","","","","","","","","","","","","","",""
"","9506.399999998393","sequential-stimulus-presentation","2","49040","0.0-2.0","SS1613138447075","","","40","800","10306.399999998393","null","null","","","","","","","","","","","","",""
"","1957.4500000016997","sequential-stimulus-presentation","3","51814","0.0-3.0","SS1613138447075","","","40","800","2757.4500000016997","null","null","","","","","","","","","","","","",""
"[{""page_index"":0,""viewing_time"":4226.365000009537}]","4227.055000010296","instructions","4","56072","0.0-4.0","SS1613138447075","instructions","","","","","","","","","","","","","","","","","","",""
"","8053.245000002789","html-keyboard-response","5","64132","0.0-5.0","SS1613138447075","instructions","","49","","","","","<video width ='960' height = '540' autoplay muted><source src='images/stimuli/wall_pref.mp4' type='video/mp4'></video>","1","left","25%","","","","","","","","",""
"","4267.049999994924","sequential-stimulus-presentation","6","69218","0.0-6.0","SS1613138447075","pref_reveal","","40","800","5067.049999994924","null","null","","","","","","","","","","","","",""
"[{""page_index"":0,""viewing_time"":7063.119999991613},{""page_index"":1,""viewing_time"":6340.560000011465},{""page_index"":2,""viewing_time"":2352.9599999892525},{""page_index"":3,""viewing_time"":1816.44999999844}]","17573.944999996456","instructions","7","86795","0.0-7.0","SS1613138447075","instructions","","","","","","","","","","","","","","","","","","",""
"","null","html-keyboard-response","8","87656","0.0-8.0-0.0","SS1613138447075","","","null","","","","","<p><img src= images/blank.png width =""200"" height = ""200"" style = ""float:right""></p><p><img src=images/blank.png width =""800"" height = ""200""></p>","","","","","","","","","","","",""
"","2299.445000011474","sequential-stimulus-presentation","9","90767","0.0-8.0-1.0","SS1613138447075","trial","","40","800","3099.445000011474","images/stimuli/spore_stims/complex_13_B_b.gif","images/stimuli/spore_stims/complex_13_A_b.gif","","","","","0","complex_similar","images/stimuli/spore_stims/complex_13_A_b.gif","left","","","","",""
"","null","html-keyboard-response","10","91733","0.0-8.0-0.1","SS1613138447075","","","null","","","","","<p><img src= images/blank.png width =""200"" height = ""200"" style = ""float:right""></p><p><img src=images/blank.png width =""800"" height = ""200""></p>","","","","","","","","","","","",""
"","1130.2599999908125","sequential-stimulus-presentation","11","93680","0.0-8.0-1.1","SS1613138447075","trial","","40","800","1930.2599999908125","images/stimuli/spore_stims/complex_13_B_b.gif","images/stimuli/spore_stims/complex_13_A_b.gif","","","","","0","complex_similar","images/stimuli/spore_stims/complex_13_A_b.gif","left","","","","",""
"","null","html-keyboard-response","12","94694","0.0-8.0-0.2","SS1613138447075","","","null","","","","","<p><img src= images/blank.png width =""200"" height = ""200"" style = ""float:right""></p><p><img src=images/blank.png width =""800"" height = ""200""></p>","","","","","","","","","","","",""
"","1501.9849999953294","sequential-stimulus-presentation","13","97009","0.0-8.0-1.2","SS1613138447075","trial","","40","800","2301.9849999953294","images/stimuli/spore_stims/complex_13_B_b.gif","images/stimuli/spore_stims/complex_13_A_b.gif","","","","","0","complex_similar","images/stimuli/spore_stims/complex_13_A_b.gif","left","","","","",""
"","null","html-keyboard-response","14","97877","0.0-8.0-0.3","SS1613138447075","","","null","","","","","<p><img src= images/blank.png width =""200"" height = ""200"" style = ""float:right""></p><p><img src=images/blank.png width =""800"" height = ""200""></p>","","","","","","","","","","","",""
"","1089.7799999947893","sequential-stimulus-presentation","15","99780","0.0-8.0-1.3","SS1613138447075","trial","","40","800","1889.7799999947893","images/stimuli/spore_stims/complex_13_B_b.gif","images/stimuli/spore_stims/complex_13_A_b.gif","","","","","0","complex_similar","images/stimuli/spore_stims/complex_13_B_b.gif","middle","","","","",""
"","null","html-keyboard-response","16","100919","0.0-8.0-0.4","SS1613138447075","","","null","","","","","<p><img src= images/blank.png width =""200"" height = ""200"" style = ""float:right""></p><p><img src=images/blank.png width =""800"" height = ""200""></p>","","","","","","","","","","","",""
"","971.3300000003073","sequential-stimulus-presentation","17","102709","0.0-8.0-1.4","SS1613138447075","trial","","40","800","1771.3300000003073","images/stimuli/spore_stims/complex_13_B_b.gif","images/stimuli/spore_stims/complex_13_A_b.gif","","","","","0","complex_similar","images/stimuli/spore_stims/complex_13_A_b.gif","left","","","","",""
"","null","html-keyboard-response","18","103838","0.0-8.0-0.5","SS1613138447075","","","null","","","","","<p><img src= images/blank.png width =""200"" height = ""200"" style = ""float:right""></p><p><img src=images/blank.png width =""800"" height = ""200""></p>","","","","","","","","","","","",""
"","899.3200000113575","sequential-stimulus-presentation","19","105558","0.0-8.0-1.5","SS1613138447075","trial","","40","800","1699.3200000113575","images/stimuli/spore_stims/complex_13_B_b.gif","images/stimuli/spore_stims/complex_13_A_b.gif","","","","","0","complex_similar","images/stimuli/spore_stims/complex_13_A_b.gif","left","","","","",""
"","null","html-keyboard-response","20","106644","0.0-8.0-0.6","SS1613138447075","","","null","","","","","<p><img src= images/blank.png width =""200"" height = ""200"" style = ""float:right""></p><p><img src=images/blank.png width =""800"" height = ""200""></p>","","","","","","","","","","","",""
"","799.9249999993481","sequential-stimulus-presentation","21","108267","0.0-8.0-1.6","SS1613138447075","trial","","40","800","1599.924999999348","images/stimuli/spore_stims/complex_13_B_b.gif","images/stimuli/spore_stims/complex_13_A_b.gif","","","","","0","complex_similar","images/stimuli/spore_stims/complex_13_A_b.gif","left","","","","",""
"","null","html-keyboard-response","22","109481","0.0-8.0-0.7","SS1613138447075","","","null","","","","","<p><img src= images/blank.png width =""200"" height = ""200"" style = ""float:right""></p><p><img src=images/blank.png width =""800"" height = ""200""></p>","","","","","","","","","","","",""
"","873.0800000048475","sequential-stimulus-presentation","23","111169","0.0-8.0-1.7","SS1613138447075","trial","","40","800","1673.0800000048475","images/stimuli/spore_stims/complex_13_B_b.gif","images/stimuli/spore_stims/complex_13_A_b.gif","","","","","0","complex_similar","images/stimuli/spore_stims/complex_13_A_b.gif","left","","","","",""
"","4274.769999989076","html-keyboard-response","24","115453","0.0-9.0","SS1613138447075","pref_question","","50","","","","","<video width ='960' height = '540' style='padding-top:8%' autoplay muted><source src='images/stimuli/wall_pref.mp4' type='video/mp4'></video>","2","middle","45%","0","","","","","","","",""
"","1150.6349999981467","sequential-stimulus-presentation","25","117420","0.0-10.0","SS1613138447075","pref_reveal","","40","800","1950.6349999981467","null","null","","","","","0","","","","deviant","","","",""
"","null","html-keyboard-response","26","118516","0.0-11.0-0.0","SS1613138447075","","","null","","","","","<p><img src= images/blank.png width =""200"" height = ""200"" style = ""float:right""></p><p><img src=images/blank.png width =""800"" height = ""200""></p>","","","","","","","","","","","",""
"","146.1399999971036","sequential-stimulus-presentation","27","119483","0.0-11.0-1.0","SS1613138447075","trial","","40","800","946.1399999971036","images/stimuli/spore_stims/complex_01_B_c.gif","images/stimuli/spore_stims/complex_10_B_a.gif","","","","","1","complex_dissimilar","images/stimuli/spore_stims/complex_10_B_a.gif","right","","","","",""
"","null","html-keyboard-response","28","120474","0.0-11.0-0.1","SS1613138447075","","","null","","","","","<p><img src= images/blank.png width =""200"" height = ""200"" style = ""float:right""></p><p><img src=images/blank.png width =""800"" height = ""200""></p>","","","","","","","","","","","",""
"","263.7550000072224","sequential-stimulus-presentation","29","121558","0.0-11.0-1.1","SS1613138447075","trial","","40","800","1063.7550000072224","images/stimuli/spore_stims/complex_01_B_c.gif","images/stimuli/spore_stims/complex_10_B_a.gif","","","","","1","complex_dissimilar","images/stimuli/spore_stims/complex_10_B_a.gif","right","","","","",""
"","null","html-keyboard-response","30","122582","0.0-11.0-0.2","SS1613138447075","","","null","","","","","<p><img src= images/blank.png width =""200"" height = ""200"" style = ""float:right""></p><p><img src=images/blank.png width =""800"" height = ""200""></p>","","","","","","","","","","","",""
"","1000.9750000026543","sequential-stimulus-presentation","31","124405","0.0-11.0-1.2","SS1613138447075","trial","","40","800","1800.9750000026543","images/stimuli/spore_stims/complex_01_B_c.gif","images/stimuli/spore_stims/complex_10_B_a.gif","","","","","1","complex_dissimilar","images/stimuli/spore_stims/complex_10_B_a.gif","right","","","","",""
"","null","html-keyboard-response","32","125270","0.0-11.0-0.3","SS1613138447075","","","null","","","","","<p><img src= images/blank.png width =""200"" height = ""200"" style = ""float:right""></p><p><img src=images/blank.png width =""800"" height = ""200""></p>","","","","","","","","","","","",""
"","892.0749999961117","sequential-stimulus-presentation","33","126972","0.0-11.0-1.3","SS1613138447075","trial","","40","800","1692.0749999961117","images/stimuli/spore_stims/complex_01_B_c.gif","images/stimuli/spore_stims/complex_10_B_a.gif","","","","","1","complex_dissimilar","images/stimuli/spore_stims/complex_10_B_a.gif","right","","","","",""
"","null","html-keyboard-response","34","128074","0.0-11.0-0.4","SS1613138447075","","","null","","","","","<p><img src= images/blank.png width =""200"" height = ""200"" style = ""float:right""></p><p><img src=images/blank.png width =""800"" height = ""200""></p>","","","","","","","","","","","",""
"","515.1849999965634","sequential-stimulus-presentation","35","129408","0.0-11.0-1.4","SS1613138447075","trial","","40","800","1315.1849999965634","images/stimuli/spore_stims/complex_01_B_c.gif","images/stimuli/spore_stims/complex_10_B_a.gif","","","","","1","complex_dissimilar","images/stimuli/spore_stims/complex_10_B_a.gif","right","","","","",""
"","null","html-keyboard-response","36","130378","0.0-11.0-0.5","SS1613138447075","","","null","","","","","<p><img src= images/blank.png width =""200"" height = ""200"" style = ""float:right""></p><p><img src=images/blank.png width =""800"" height = ""200""></p>","","","","","","","","","","","",""
"","971.3400000036927","sequential-stimulus-presentation","37","132161","0.0-11.0-1.5","SS1613138447075","trial","","40","800","1771.3400000036927","images/stimuli/spore_stims/complex_01_B_c.gif","images/stimuli/spore_stims/complex_10_B_a.gif","","","","","1","complex_dissimilar","images/stimuli/spore_stims/complex_10_B_a.gif","right","","","","",""
"","null","html-keyboard-response","38","133104","0.0-11.0-0.6","SS1613138447075","","","null","","","","","<p><img src= images/blank.png width =""200"" height = ""200"" style = ""float:right""></p><p><img src=images/blank.png width =""800"" height = ""200""></p>","","","","","","","","","","","",""
"","922.1350000007078","sequential-stimulus-presentation","39","134846","0.0-11.0-1.6","SS1613138447075","trial","","40","800","1722.1350000007078","images/stimuli/spore_stims/complex_01_B_c.gif","images/stimuli/spore_stims/complex_10_B_a.gif","","","","","1","complex_dissimilar","images/stimuli/spore_stims/complex_10_B_a.gif","right","","","","",""
"","null","html-keyboard-response","40","136019","0.0-11.0-0.7","SS1613138447075","","","null","","","","","<p><img src= images/blank.png width =""200"" height = ""200"" style = ""float:right""></p><p><img src=images/blank.png width =""800"" height = ""200""></p>","","","","","","","","","","","",""
"","450.700000001234","sequential-stimulus-presentation","41","137285","0.0-11.0-1.7","SS1613138447075","trial","","40","800","1250.700000001234","images/stimuli/spore_stims/complex_01_B_c.gif","images/stimuli/spore_stims/complex_10_B_a.gif","","","","","1","complex_dissimilar","images/stimuli/spore_stims/complex_01_B_c.gif","middle","","","","",""
"","2635.0799999927403","html-keyboard-response","42","139927","0.0-12.0","SS1613138447075","pref_question","","51","","","","","<video width ='960' height = '540' style='padding-top:8%' autoplay muted><source src='images/stimuli/wall_pref.mp4' type='video/mp4'></video>","3","right","66%","1","","","","","","","",""
"","2252.229999998235","sequential-stimulus-presentation","43","142996","0.0-13.0","SS1613138447075","pref_reveal","","40","800","3052.229999998235","null","null","","","","","1","","","","background","","","",""
"","null","html-keyboard-response","44","144267","0.0-14.0-0.0","SS1613138447075","","","null","","","","","<p><img src= images/blank.png width =""200"" height = ""200"" style = ""float:right""></p><p><img src=images/blank.png width =""800"" height = ""200""></p>","","","","","","","","","","","",""
"","96.19999999995343","sequential-stimulus-presentation","45","145180","0.0-14.0-1.0","SS1613138447075","trial","","40","800","896.1999999999534","images/stimuli/spore_stims/simple_13_B_a.gif","images/stimuli/spore_stims/simple_08_A_a.gif","","","","","2","simple_dissimilar","images/stimuli/spore_stims/simple_08_A_a.gif","left","","","","",""
"","null","html-keyboard-response","46","146310","0.0-14.0-0.1","SS1613138447075","","","null","","","","","<p><img src= images/blank.png width =""200"" height = ""200"" style = ""float:right""></p><p><img src=images/blank.png width =""800"" height = ""200""></p>","","","","","","","","","","","",""
"","927.2849999979371","sequential-stimulus-presentation","47","148089","0.0-14.0-1.1","SS1613138447075","trial","","40","800","1727.2849999979371","images/stimuli/spore_stims/simple_13_B_a.gif","images/stimuli/spore_stims/simple_08_A_a.gif","","","","","2","simple_dissimilar","images/stimuli/spore_stims/simple_08_A_a.gif","left","","","","",""
"","null","html-keyboard-response","48","149379","0.0-14.0-0.2","SS1613138447075","","","null","","","","","<p><img src= images/blank.png width =""200"" height = ""200"" style = ""float:right""></p><p><img src=images/blank.png width =""800"" height = ""200""></p>","","","","","","","","","","","",""
"","983.3599999983562","sequential-stimulus-presentation","49","151177","0.0-14.0-1.2","SS1613138447075","trial","","40","800","1783.3599999983562","images/stimuli/spore_stims/simple_13_B_a.gif","images/stimuli/spore_stims/simple_08_A_a.gif","","","","","2","simple_dissimilar","images/stimuli/spore_stims/simple_08_A_a.gif","left","","","","",""
"","null","html-keyboard-response","50","152005","0.0-14.0-0.3","SS1613138447075","","","null","","","","","<p><img src= images/blank.png width =""200"" height = ""200"" style = ""float:right""></p><p><img src=images/blank.png width =""800"" height = ""200""></p>","","","","","","","","","","","",""
"","897.6950000069337","sequential-stimulus-presentation","51","153724","0.0-14.0-1.3","SS1613138447075","trial","","40","800","1697.6950000069337","images/stimuli/spore_stims/simple_13_B_a.gif","images/stimuli/spore_stims/simple_08_A_a.gif","","","","","2","simple_dissimilar","images/stimuli/spore_stims/simple_13_B_a.gif","right","","","","",""
"","null","html-keyboard-response","52","154726","0.0-14.0-0.4","SS1613138447075","","","null","","","","","<p><img src= images/blank.png width =""200"" height = ""200"" style = ""float:right""></p><p><img src=images/blank.png width =""800"" height = ""200""></p>","","","","","","","","","","","",""
"","1009.2449999938253","sequential-stimulus-presentation","53","156551","0.0-14.0-1.4","SS1613138447075","trial","","40","800","1809.2449999938253","images/stimuli/spore_stims/simple_13_B_a.gif","images/stimuli/spore_stims/simple_08_A_a.gif","","","","","2","simple_dissimilar","images/stimuli/spore_stims/simple_08_A_a.gif","left","","","","",""
"","null","html-keyboard-response","54","157617","0.0-14.0-0.5","SS1613138447075","","","null","","","","","<p><img src= images/blank.png width =""200"" height = ""200"" style = ""float:right""></p><p><img src=images/blank.png width =""800"" height = ""200""></p>","","","","","","","","","","","",""
"","969.119999994291","sequential-stimulus-presentation","55","159405","0.0-14.0-1.5","SS1613138447075","trial","","40","800","1769.119999994291","images/stimuli/spore_stims/simple_13_B_a.gif","images/stimuli/spore_stims/simple_08_A_a.gif","","","","","2","simple_dissimilar","images/stimuli/spore_stims/simple_08_A_a.gif","left","","","","",""
"","null","html-keyboard-response","56","160571","0.0-14.0-0.6","SS1613138447075","","","null","","","","","<p><img src= images/blank.png width =""200"" height = ""200"" style = ""float:right""></p><p><img src=images/blank.png width =""800"" height = ""200""></p>","","","","","","","","","","","",""
"","1017.9099999950267","sequential-stimulus-presentation","57","162413","0.0-14.0-1.6","SS1613138447075","trial","","40","800","1817.9099999950267","images/stimuli/spore_stims/simple_13_B_a.gif","images/stimuli/spore_stims/simple_08_A_a.gif","","","","","2","simple_dissimilar","images/stimuli/spore_stims/simple_08_A_a.gif","left","","","","",""
"","null","html-keyboard-response","58","163243","0.0-14.0-0.7","SS1613138447075","","","null","","","","","<p><img src= images/blank.png width =""200"" height = ""200"" style = ""float:right""></p><p><img src=images/blank.png width =""800"" height = ""200""></p>","","","","","","","","","","","",""
"","858.9199999987613","sequential-stimulus-presentation","59","164926","0.0-14.0-1.7","SS1613138447075","trial","","40","800","1658.9199999987613","images/stimuli/spore_stims/simple_13_B_a.gif","images/stimuli/spore_stims/simple_08_A_a.gif","","","","","2","simple_dissimilar","images/stimuli/spore_stims/simple_08_A_a.gif","left","","","","",""
"","2220.2700000052573","html-keyboard-response","60","167153","0.0-15.0","SS1613138447075","pref_question","","49","","","","","<video width ='960' height = '540' style='padding-top:8%' autoplay muted><source src='images/stimuli/wall_pref.mp4' type='video/mp4'></video>","1","left","25%","2","","","","","","","",""
"","1041.1499999900116","sequential-stimulus-presentation","61","169016","0.0-16.0","SS1613138447075","pref_reveal","","40","800","1841.1499999900116","null","null","","","","","2","","","","background","","","",""
"","null","html-keyboard-response","62","169953","0.0-17.0-0.0","SS1613138447075","","","null","","","","","<p><img src= images/blank.png width =""200"" height = ""200"" style = ""float:right""></p><p><img src=images/blank.png width =""800"" height = ""200""></p>","","","","","","","","","","","",""
"","202.29999998991843","sequential-stimulus-presentation","63","170978","0.0-17.0-1.0","SS1613138447075","trial","","40","800","1002.2999999899184","images/stimuli/spore_stims/complex_16_A_a.gif","images/stimuli/spore_stims/complex_16_B_a.gif","","","","","3","complex_similar","images/stimuli/spore_stims/complex_16_B_a.gif","left","","","","",""
"","null","html-keyboard-response","64","172056","0.0-17.0-0.1","SS1613138447075","","","null","","","","","<p><img src= images/blank.png width =""200"" height = ""200"" style = ""float:right""></p><p><img src=images/blank.png width =""800"" height = ""200""></p>","","","","","","","","","","","",""
"","1026.2349999975413","sequential-stimulus-presentation","65","173903","0.0-17.0-1.1","SS1613138447075","trial","","40","800","1826.2349999975413","images/stimuli/spore_stims/complex_16_A_a.gif","images/stimuli/spore_stims/complex_16_B_a.gif","","","","","3","complex_similar","images/stimuli/spore_stims/complex_16_B_a.gif","left","","","","",""
"","null","html-keyboard-response","66","175095","0.0-17.0-0.2","SS1613138447075","","","null","","","","","<p><img src= images/blank.png width =""200"" height = ""200"" style = ""float:right""></p><p><img src=images/blank.png width =""800"" height = ""200""></p>","","","","","","","","","","","",""
"","315.4199999989942","sequential-stimulus-presentation","67","176223","0.0-17.0-1.2","SS1613138447075","trial","","40","800","1115.4199999989942","images/stimuli/spore_stims/complex_16_A_a.gif","images/stimuli/spore_stims/complex_16_B_a.gif","","","","","3","complex_similar","images/stimuli/spore_stims/complex_16_A_a.gif","middle","","","","",""
"","null","html-keyboard-response","68","177300","0.0-17.0-0.3","SS1613138447075","","","null","","","","","<p><img src= images/blank.png width =""200"" height = ""200"" style = ""float:right""></p><p><img src=images/blank.png width =""800"" height = ""200""></p>","","","","","","","","","","","",""
"","430.1649999979418","sequential-stimulus-presentation","69","178554","0.0-17.0-1.3","SS1613138447075","trial","","40","800","1230.1649999979418","images/stimuli/spore_stims/complex_16_A_a.gif","images/stimuli/spore_stims/complex_16_B_a.gif","","","","","3","complex_similar","images/stimuli/spore_stims/complex_16_B_a.gif","left","","","","",""
"","null","html-keyboard-response","70","179605","0.0-17.0-0.4","SS1613138447075","","","null","","","","","<p><img src= images/blank.png width =""200"" height = ""200"" style = ""float:right""></p><p><img src=images/blank.png width =""800"" height = ""200""></p>","","","","","","","","","","","",""
"","206.60999999381602","sequential-stimulus-presentation","71","180631","0.0-17.0-1.4","SS1613138447075","trial","","40","800","1006.609999993816","images/stimuli/spore_stims/complex_16_A_a.gif","images/stimuli/spore_stims/complex_16_B_a.gif","","","","","3","complex_similar","images/stimuli/spore_stims/complex_16_B_a.gif","left","","","","",""
"","null","html-keyboard-response","72","181477","0.0-17.0-0.5","SS1613138447075","","","null","","","","","<p><img src= images/blank.png width =""200"" height = ""200"" style = ""float:right""></p><p><img src=images/blank.png width =""800"" height = ""200""></p>","","","","","","","","","","","",""
"","984.2599999974482","sequential-stimulus-presentation","73","183281","0.0-17.0-1.5","SS1613138447075","trial","","40","800","1784.2599999974482","images/stimuli/spore_stims/complex_16_A_a.gif","images/stimuli/spore_stims/complex_16_B_a.gif","","","","","3","complex_similar","images/stimuli/spore_stims/complex_16_B_a.gif","left","","","","",""
"","null","html-keyboard-response","74","184280","0.0-17.0-0.6","SS1613138447075","","","null","","","","","<p><img src= images/blank.png width =""200"" height = ""200"" style = ""float:right""></p><p><img src=images/blank.png width =""800"" height = ""200""></p>","","","","","","","","","","","",""
"","839.0800000051968","sequential-stimulus-presentation","75","185940","0.0-17.0-1.6","SS1613138447075","trial","","40","800","1639.0800000051968","images/stimuli/spore_stims/complex_16_A_a.gif","images/stimuli/spore_stims/complex_16_B_a.gif","","","","","3","complex_similar","images/stimuli/spore_stims/complex_16_B_a.gif","left","","","","",""
"","null","html-keyboard-response","76","186803","0.0-17.0-0.7","SS1613138447075","","","null","","","","","<p><img src= images/blank.png width =""200"" height = ""200"" style = ""float:right""></p><p><img src=images/blank.png width =""800"" height = ""200""></p>","","","","","","","","","","","",""
"","1046.184999999241","sequential-stimulus-presentation","77","188669","0.0-17.0-1.7","SS1613138447075","trial","","40","800","1846.184999999241","images/stimuli/spore_stims/complex_16_A_a.gif","images/stimuli/spore_stims/complex_16_B_a.gif","","","","","3","complex_similar","images/stimuli/spore_stims/complex_16_B_a.gif","left","","","","",""
"","2308.1999999994878","html-keyboard-response","78","190983","0.0-18.0","SS1613138447075","pref_question","","51","","","","","<video width ='960' height = '540' style='padding-top:8%' autoplay muted><source src='images/stimuli/wall_pref.mp4' type='video/mp4'></video>","3","right","66%","3","","","","","","","",""
"","2679.644999996526","sequential-stimulus-presentation","79","194477","0.0-19.0","SS1613138447075","pref_reveal","","40","800","3479.644999996526","null","null","","","","","3","","","","novel","","","",""
"","null","html-keyboard-response","80","195770","0.0-20.0-0.0","SS1613138447075","","","null","","","","","<p><img src= images/blank.png width =""200"" height = ""200"" style = ""float:right""></p><p><img src=images/blank.png width =""800"" height = ""200""></p>","","","","","","","","","","","",""
"","310.16000000818167","sequential-stimulus-presentation","81","196892","0.0-20.0-1.0","SS1613138447075","trial","","40","800","1110.1600000081817","images/stimuli/spore_stims/simple_14_B_b.gif","images/stimuli/spore_stims/simple_05_B_c.gif","","","","","4","simple_dissimilar","images/stimuli/spore_stims/simple_05_B_c.gif","right","","","","",""
"","null","html-keyboard-response","82","197735","0.0-20.0-0.1","SS1613138447075","","","null","","","","","<p><img src= images/blank.png width =""200"" height = ""200"" style = ""float:right""></p><p><img src=images/blank.png width =""800"" height = ""200""></p>","","","","","","","","","","","",""
"","225.68000000319444","sequential-stimulus-presentation","83","198772","0.0-20.0-1.1","SS1613138447075","trial","","40","800","1025.6800000031944","images/stimuli/spore_stims/simple_14_B_b.gif","images/stimuli/spore_stims/simple_05_B_c.gif","","","","","4","simple_dissimilar","images/stimuli/spore_stims/simple_05_B_c.gif","right","","","","",""
"","null","html-keyboard-response","84","199941","0.0-20.0-0.2","SS1613138447075","","","null","","","","","<p><img src= images/blank.png width =""200"" height = ""200"" style = ""float:right""></p><p><img src=images/blank.png width =""800"" height = ""200""></p>","","","","","","","","","","","",""
"","1144.6849999920232","sequential-stimulus-presentation","85","201907","0.0-20.0-1.2","SS1613138447075","trial","","40","800","1944.6849999920232","images/stimuli/spore_stims/simple_14_B_b.gif","images/stimuli/spore_stims/simple_05_B_c.gif","","","","","4","simple_dissimilar","images/stimuli/spore_stims/simple_05_B_c.gif","right","","","","",""
"","null","html-keyboard-response","86","203000","0.0-20.0-0.3","SS1613138447075","","","null","","","","","<p><img src= images/blank.png width =""200"" height = ""200"" style = ""float:right""></p><p><img src=images/blank.png width =""800"" height = ""200""></p>","","","","","","","","","","","",""
"","461.5650000050664","sequential-stimulus-presentation","87","204282","0.0-20.0-1.3","SS1613138447075","trial","","40","800","1261.5650000050664","images/stimuli/spore_stims/simple_14_B_b.gif","images/stimuli/spore_stims/simple_05_B_c.gif","","","","","4","simple_dissimilar","images/stimuli/spore_stims/simple_05_B_c.gif","right","","","","",""
"","null","html-keyboard-response","88","205281","0.0-20.0-0.4","SS1613138447075","","","null","","","","","<p><img src= images/blank.png width =""200"" height = ""200"" style = ""float:right""></p><p><img src=images/blank.png width =""800"" height = ""200""></p>","","","","","","","","","","","",""
"","536.5049999963958","sequential-stimulus-presentation","89","206669","0.0-20.0-1.4","SS1613138447075","trial","","40","800","1336.5049999963958","images/stimuli/spore_stims/simple_14_B_b.gif","images/stimuli/spore_stims/simple_05_B_c.gif","","","","","4","simple_dissimilar","images/stimuli/spore_stims/simple_05_B_c.gif","right","","","","",""
"","null","html-keyboard-response","90","207670","0.0-20.0-0.5","SS1613138447075","","","null","","","","","<p><img src= images/blank.png width =""200"" height = ""200"" style = ""float:right""></p><p><img src=images/blank.png width =""800"" height = ""200""></p>","","","","","","","","","","","",""
"","6.210000006831251","sequential-stimulus-presentation","91","208516","0.0-20.0-1.5","SS1613138447075","trial","","40","800","806.2100000068313","images/stimuli/spore_stims/simple_14_B_b.gif","images/stimuli/spore_stims/simple_05_B_c.gif","","","","","4","simple_dissimilar","images/stimuli/spore_stims/simple_05_B_c.gif","right","","","","",""
"","null","html-keyboard-response","92","209791","0.0-20.0-0.6","SS1613138447075","","","null","","","","","<p><img src= images/blank.png width =""200"" height = ""200"" style = ""float:right""></p><p><img src=images/blank.png width =""800"" height = ""200""></p>","","","","","","","","","","","",""
"","845.5400000093505","sequential-stimulus-presentation","93","211462","0.0-20.0-1.6","SS1613138447075","trial","","40","800","1645.5400000093505","images/stimuli/spore_stims/simple_14_B_b.gif","images/stimuli/spore_stims/simple_05_B_c.gif","","","","","4","simple_dissimilar","images/stimuli/spore_stims/simple_14_B_b.gif","left","","","","",""
"","null","html-keyboard-response","94","212648","0.0-20.0-0.7","SS1613138447075","","","null","","","","","<p><img src= images/blank.png width =""200"" height = ""200"" style = ""float:right""></p><p><img src=images/blank.png width =""800"" height = ""200""></p>","","","","","","","","","","","",""
"","240.75500000617467","sequential-stimulus-presentation","95","213697","0.0-20.0-1.7","SS1613138447075","trial","","40","800","1040.7550000061747","images/stimuli/spore_stims/simple_14_B_b.gif","images/stimuli/spore_stims/simple_05_B_c.gif","","","","","4","simple_dissimilar","images/stimuli/spore_stims/simple_05_B_c.gif","right","","","","",""
"","2201.0100000043167","html-keyboard-response","96","215909","0.0-21.0","SS1613138447075","pref_question","","51","","","","","<video width ='960' height = '540' style='padding-top:8%' autoplay muted><source src='images/stimuli/wall_pref.mp4' type='video/mp4'></video>","3","right","66%","4","","","","","","","",""
"","271.22499998949934","sequential-stimulus-presentation","97","216993","0.0-22.0","SS1613138447075","pref_reveal","","40","800","1071.2249999894993","null","null","","","","","4","","","","background","","","",""
"","null","html-keyboard-response","98","218246","0.0-23.0-0.0","SS1613138447075","","","null","","","","","<p><img src= images/blank.png width =""200"" height = ""200"" style = ""float:right""></p><p><img src=images/blank.png width =""800"" height = ""200""></p>","","","","","","","","","","","",""
"","20.49000000988599","sequential-stimulus-presentation","99","219089","0.0-23.0-1.0","SS1613138447075","trial","","40","800","820.490000009886","images/stimuli/spore_stims/complex_12_A_c.gif","images/stimuli/spore_stims/complex_12_B_c.gif","","","","","5","complex_similar","images/stimuli/spore_stims/complex_12_B_c.gif","left","","","","",""
"","null","html-keyboard-response","100","220011","0.0-23.0-0.1","SS1613138447075","","","null","","","","","<p><img src= images/blank.png width =""200"" height = ""200"" style = ""float:right""></p><p><img src=images/blank.png width =""800"" height = ""200""></p>","","","","","","","","","","","",""
"","539.8600000044098","sequential-stimulus-presentation","101","221394","0.0-23.0-1.1","SS1613138447075","trial","","40","800","1339.8600000044098","images/stimuli/spore_stims/complex_12_A_c.gif","images/stimuli/spore_stims/complex_12_B_c.gif","","","","","5","complex_similar","images/stimuli/spore_stims/complex_12_B_c.gif","left","","","","",""
"","null","html-keyboard-response","102","222208","0.0-23.0-0.2","SS1613138447075","","","null","","","","","<p><img src= images/blank.png width =""200"" height = ""200"" style = ""float:right""></p><p><img src=images/blank.png width =""800"" height = ""200""></p>","","","","","","","","","","","",""
"","623.2749999908265","sequential-stimulus-presentation","103","223657","0.0-23.0-1.2","SS1613138447075","trial","","40","800","1423.2749999908265","images/stimuli/spore_stims/complex_12_A_c.gif","images/stimuli/spore_stims/complex_12_B_c.gif","","","","","5","complex_similar","images/stimuli/spore_stims/complex_12_B_c.gif","left","","","","",""
"","null","html-keyboard-response","104","224599","0.0-23.0-0.3","SS1613138447075","","","null","","","","","<p><img src= images/blank.png width =""200"" height = ""200"" style = ""float:right""></p><p><img src=images/blank.png width =""800"" height = ""200""></p>","","","","","","","","","","","",""
"","142.00000000710133","sequential-stimulus-presentation","105","225556","0.0-23.0-1.3","SS1613138447075","trial","","40","800","942.0000000071013","images/stimuli/spore_stims/complex_12_A_c.gif","images/stimuli/spore_stims/complex_12_B_c.gif","","","","","5","complex_similar","images/stimuli/spore_stims/complex_12_B_c.gif","left","","","","",""
"","null","html-keyboard-response","106","226618","0.0-23.0-0.4","SS1613138447075","","","null","","","","","<p><img src= images/blank.png width =""200"" height = ""200"" style = ""float:right""></p><p><img src=images/blank.png width =""800"" height = ""200""></p>","","","","","","","","","","","",""
"","1275.7600000040838","sequential-stimulus-presentation","107","228715","0.0-23.0-1.4","SS1613138447075","trial","","40","800","2075.760000004084","images/stimuli/spore_stims/complex_12_A_c.gif","images/stimuli/spore_stims/complex_12_B_c.gif","","","","","5","complex_similar","images/stimuli/spore_stims/complex_12_A_c.gif","right","","","","",""
"","null","html-keyboard-response","108","229808","0.0-23.0-0.5","SS1613138447075","","","null","","","","","<p><img src= images/blank.png width =""200"" height = ""200"" style = ""float:right""></p><p><img src=images/blank.png width =""800"" height = ""200""></p>","","","","","","","","","","","",""
"","929.294999994454","sequential-stimulus-presentation","109","231550","0.0-23.0-1.5","SS1613138447075","trial","","40","800","1729.294999994454","images/stimuli/spore_stims/complex_12_A_c.gif","images/stimuli/spore_stims/complex_12_B_c.gif","","","","","5","complex_similar","images/stimuli/spore_stims/complex_12_B_c.gif","left","","","","",""
"","null","html-keyboard-response","110","232862","0.0-23.0-0.6","SS1613138447075","","","null","","","","","<p><img src= images/blank.png width =""200"" height = ""200"" style = ""float:right""></p><p><img src=images/blank.png width =""800"" height = ""200""></p>","","","","","","","","","","","",""
"","928.7650000042049","sequential-stimulus-presentation","111","234608","0.0-23.0-1.6","SS1613138447075","trial","","40","800","1728.765000004205","images/stimuli/spore_stims/complex_12_A_c.gif","images/stimuli/spore_stims/complex_12_B_c.gif","","","","","5","complex_similar","images/stimuli/spore_stims/complex_12_B_c.gif","left","","","","",""
"","null","html-keyboard-response","112","235869","0.0-23.0-0.7","SS1613138447075","","","null","","","","","<p><img src= images/blank.png width =""200"" height = ""200"" style = ""float:right""></p><p><img src=images/blank.png width =""800"" height = ""200""></p>","","","","","","","","","","","",""
"","811.199999996461","sequential-stimulus-presentation","113","237500","0.0-23.0-1.7","SS1613138447075","trial","","40","800","1611.199999996461","images/stimuli/spore_stims/complex_12_A_c.gif","images/stimuli/spore_stims/complex_12_B_c.gif","","","","","5","complex_similar","images/stimuli/spore_stims/complex_12_B_c.gif","left","","","","",""
"","1906.5499999996973","html-keyboard-response","114","239418","0.0-24.0","SS1613138447075","pref_question","","50","","","","","<video width ='960' height = '540' style='padding-top:8%' autoplay muted><source src='images/stimuli/wall_pref.mp4' type='video/mp4'></video>","2","middle","45%","5","","","","","","","",""
"","254.69499999599066","sequential-stimulus-presentation","115","240490","0.0-25.0","SS1613138447075","pref_reveal","","40","800","1054.6949999959907","null","null","","","","","5","","","","novel","","","",""
"","null","html-keyboard-response","116","241564","0.0-26.0-0.0","SS1613138447075","","","null","","","","","<p><img src= images/blank.png width =""200"" height = ""200"" style = ""float:right""></p><p><img src=images/blank.png width =""800"" height = ""200""></p>","","","","","","","","","","","",""
"","265.4550000006566","sequential-stimulus-presentation","117","242648","0.0-26.0-1.0","SS1613138447075","trial","","40","800","1065.4550000006566","images/stimuli/spore_stims/complex_03_A_b.gif","images/stimuli/spore_stims/complex_03_B_b.gif","","","","","6","complex_similar","images/stimuli/spore_stims/complex_03_B_b.gif","right","","","","",""
"","null","html-keyboard-response","118","243469","0.0-26.0-0.1","SS1613138447075","","","null","","","","","<p><img src= images/blank.png width =""200"" height = ""200"" style = ""float:right""></p><p><img src=images/blank.png width =""800"" height = ""200""></p>","","","","","","","","","","","",""
"","1057.119999997667","sequential-stimulus-presentation","119","245346","0.0-26.0-1.1","SS1613138447075","trial","","40","800","1857.119999997667","images/stimuli/spore_stims/complex_03_A_b.gif","images/stimuli/spore_stims/complex_03_B_b.gif","","","","","6","complex_similar","images/stimuli/spore_stims/complex_03_B_b.gif","right","","","","",""
"","null","html-keyboard-response","120","246544","0.0-26.0-0.2","SS1613138447075","","","null","","","","","<p><img src= images/blank.png width =""200"" height = ""200"" style = ""float:right""></p><p><img src=images/blank.png width =""800"" height = ""200""></p>","","","","","","","","","","","",""
"","441.6500000079395","sequential-stimulus-presentation","121","247812","0.0-26.0-1.2","SS1613138447075","trial","","40","800","1241.6500000079395","images/stimuli/spore_stims/complex_03_A_b.gif","images/stimuli/spore_stims/complex_03_B_b.gif","","","","","6","complex_similar","images/stimuli/spore_stims/complex_03_B_b.gif","right","","","","",""
"","null","html-keyboard-response","122","248897","0.0-26.0-0.3","SS1613138447075","","","null","","","","","<p><img src= images/blank.png width =""200"" height = ""200"" style = ""float:right""></p><p><img src=images/blank.png width =""800"" height = ""200""></p>","","","","","","","","","","","",""
"","766.1200000002282","sequential-stimulus-presentation","123","250489","0.0-26.0-1.3","SS1613138447075","trial","","40","800","1566.1200000002282","images/stimuli/spore_stims/complex_03_A_b.gif","images/stimuli/spore_stims/complex_03_B_b.gif","","","","","6","complex_similar","images/stimuli/spore_stims/complex_03_B_b.gif","right","","","","",""
"","null","html-keyboard-response","124","251503","0.0-26.0-0.4","SS1613138447075","","","null","","","","","<p><img src= images/blank.png width =""200"" height = ""200"" style = ""float:right""></p><p><img src=images/blank.png width =""800"" height = ""200""></p>","","","","","","","","","","","",""
"","110.7649999903515","sequential-stimulus-presentation","125","252441","0.0-26.0-1.4","SS1613138447075","trial","","40","800","910.7649999903515","images/stimuli/spore_stims/complex_03_A_b.gif","images/stimuli/spore_stims/complex_03_B_b.gif","","","","","6","complex_similar","images/stimuli/spore_stims/complex_03_B_b.gif","right","","","","",""
"","null","html-keyboard-response","126","253608","0.0-26.0-0.5","SS1613138447075","","","null","","","","","<p><img src= images/blank.png width =""200"" height = ""200"" style = ""float:right""></p><p><img src=images/blank.png width =""800"" height = ""200""></p>","","","","","","","","","","","",""
"","6177.645000003395","sequential-stimulus-presentation","127","260608","0.0-26.0-1.5","SS1613138447075","trial","","40","800","6977.645000003395","images/stimuli/spore_stims/complex_03_A_b.gif","images/stimuli/spore_stims/complex_03_B_b.gif","","","","","6","complex_similar","images/stimuli/spore_stims/complex_03_B_b.gif","right","","","","",""
"","null","html-keyboard-response","128","261603","0.0-26.0-0.6","SS1613138447075","","","null","","","","","<p><img src= images/blank.png width =""200"" height = ""200"" style = ""float:right""></p><p><img src=images/blank.png width =""800"" height = ""200""></p>","","","","","","","","","","","",""
"","722.5949999992736","sequential-stimulus-presentation","129","263154","0.0-26.0-1.6","SS1613138447075","trial","","40","800","1522.5949999992736","images/stimuli/spore_stims/complex_03_A_b.gif","images/stimuli/spore_stims/complex_03_B_b.gif","","","","","6","complex_similar","images/stimuli/spore_stims/complex_03_B_b.gif","right","","","","",""
"","null","html-keyboard-response","130","264093","0.0-26.0-0.7","SS1613138447075","","","null","","","","","<p><img src= images/blank.png width =""200"" height = ""200"" style = ""float:right""></p><p><img src=images/blank.png width =""800"" height = ""200""></p>","","","","","","","","","","","",""
"","1577.3150000022724","sequential-stimulus-presentation","131","266490","0.0-26.0-1.7","SS1613138447075","trial","","40","800","2377.3150000022724","images/stimuli/spore_stims/complex_03_A_b.gif","images/stimuli/spore_stims/complex_03_B_b.gif","","","","","6","complex_similar","images/stimuli/spore_stims/complex_03_A_b.gif","middle","","","","",""
"","2278.3699999999953","html-keyboard-response","132","268803","0.0-27.0","SS1613138447075","pref_question","","50","","","","","<video width ='960' height = '540' style='padding-top:8%' autoplay muted><source src='images/stimuli/wall_pref.mp4' type='video/mp4'></video>","2","middle","45%","6","","","","","","","",""
"","432.34499999380205","sequential-stimulus-presentation","133","270052","0.0-28.0","SS1613138447075","pref_reveal","","40","800","1232.344999993802","null","null","","","","","6","","","","deviant","","","",""
"","null","html-keyboard-response","134","271153","0.0-29.0-0.0","SS1613138447075","","","null","","","","","<p><img src= images/blank.png width =""200"" height = ""200"" style = ""float:right""></p><p><img src=images/blank.png width =""800"" height = ""200""></p>","","","","","","","","","","","",""
"","175.28999999922235","sequential-stimulus-presentation","135","272148","0.0-29.0-1.0","SS1613138447075","trial","","40","800","975.2899999992223","images/stimuli/spore_stims/simple_02_A_b.gif","images/stimuli/spore_stims/simple_15_B_a.gif","","","","","7","simple_dissimilar","images/stimuli/spore_stims/simple_15_B_a.gif","left","","","","",""
"","null","html-keyboard-response","136","273142","0.0-29.0-0.1","SS1613138447075","","","null","","","","","<p><img src= images/blank.png width =""200"" height = ""200"" style = ""float:right""></p><p><img src=images/blank.png width =""800"" height = ""200""></p>","","","","","","","","","","","",""
"","2644.944999992731","sequential-stimulus-presentation","137","276610","0.0-29.0-1.1","SS1613138447075","trial","","40","800","3444.944999992731","images/stimuli/spore_stims/simple_02_A_b.gif","images/stimuli/spore_stims/simple_15_B_a.gif","","","","","7","simple_dissimilar","images/stimuli/spore_stims/simple_15_B_a.gif","left","","","","",""
"","null","html-keyboard-response","138","277550","0.0-29.0-0.2","SS1613138447075","","","null","","","","","<p><img src= images/blank.png width =""200"" height = ""200"" style = ""float:right""></p><p><img src=images/blank.png width =""800"" height = ""200""></p>","","","","","","","","","","","",""
"","3601.3850000017555","sequential-stimulus-presentation","139","281975","0.0-29.0-1.2","SS1613138447075","trial","","40","800","4401.3850000017555","images/stimuli/spore_stims/simple_02_A_b.gif","images/stimuli/spore_stims/simple_15_B_a.gif","","","","","7","simple_dissimilar","images/stimuli/spore_stims/simple_15_B_a.gif","left","","","","",""
"","null","html-keyboard-response","140","283277","0.0-29.0-0.3","SS1613138447075","","","null","","","","","<p><img src= images/blank.png width =""200"" height = ""200"" style = ""float:right""></p><p><img src=images/blank.png width =""800"" height = ""200""></p>","","","","","","","","","","","",""
"","2312.3149999883026","sequential-stimulus-presentation","141","286408","0.0-29.0-1.3","SS1613138447075","trial","","40","800","3112.3149999883026","images/stimuli/spore_stims/simple_02_A_b.gif","images/stimuli/spore_stims/simple_15_B_a.gif","","","","","7","simple_dissimilar","images/stimuli/spore_stims/simple_15_B_a.gif","left","","","","",""
"","null","html-keyboard-response","142","287455","0.0-29.0-0.4","SS1613138447075","","","null","","","","","<p><img src= images/blank.png width =""200"" height = ""200"" style = ""float:right""></p><p><img src=images/blank.png width =""800"" height = ""200""></p>","","","","","","","","","","","",""
"","2205.4749999952037","sequential-stimulus-presentation","143","290476","0.0-29.0-1.4","SS1613138447075","trial","","40","800","3005.4749999952037","images/stimuli/spore_stims/simple_02_A_b.gif","images/stimuli/spore_stims/simple_15_B_a.gif","","","","","7","simple_dissimilar","images/stimuli/spore_stims/simple_15_B_a.gif","left","","","","",""
"","null","html-keyboard-response","144","291515","0.0-29.0-0.5","SS1613138447075","","","null","","","","","<p><img src= images/blank.png width =""200"" height = ""200"" style = ""float:right""></p><p><img src=images/blank.png width =""800"" height = ""200""></p>","","","","","","","","","","","",""
"","1375.0700000091456","sequential-stimulus-presentation","145","293721","0.0-29.0-1.5","SS1613138447075","trial","","40","800","2175.0700000091456","images/stimuli/spore_stims/simple_02_A_b.gif","images/stimuli/spore_stims/simple_15_B_a.gif","","","","","7","simple_dissimilar","images/stimuli/spore_stims/simple_15_B_a.gif","left","","","","",""
"","null","html-keyboard-response","146","294637","0.0-29.0-0.6","SS1613138447075","","","null","","","","","<p><img src= images/blank.png width =""200"" height = ""200"" style = ""float:right""></p><p><img src=images/blank.png width =""800"" height = ""200""></p>","","","","","","","","","","","",""
"","535.0699999980861","sequential-stimulus-presentation","147","296006","0.0-29.0-1.6","SS1613138447075","trial","","40","800","1335.0699999980861","images/stimuli/spore_stims/simple_02_A_b.gif","images/stimuli/spore_stims/simple_15_B_a.gif","","","","","7","simple_dissimilar","images/stimuli/spore_stims/simple_02_A_b.gif","middle","","","","",""
"","null","html-keyboard-response","148","297128","0.0-29.0-0.7","SS1613138447075","","","null","","","","","<p><img src= images/blank.png width =""200"" height = ""200"" style = ""float:right""></p><p><img src=images/blank.png width =""800"" height = ""200""></p>","","","","","","","","","","","",""
"","2623.8849999936065","sequential-stimulus-presentation","149","300583","0.0-29.0-1.7","SS1613138447075","trial","","40","800","3423.8849999936065","images/stimuli/spore_stims/simple_02_A_b.gif","images/stimuli/spore_stims/simple_15_B_a.gif","","","","","7","simple_dissimilar","images/stimuli/spore_stims/simple_15_B_a.gif","left","","","","",""
"","2878.904999990482","html-keyboard-response","150","303474","0.0-30.0","SS1613138447075","pref_question","","50","","","","","<video width ='960' height = '540' style='padding-top:8%' autoplay muted><source src='images/stimuli/wall_pref.mp4' type='video/mp4'></video>","2","middle","45%","7","","","","","","","",""
"","606.8899999954738","sequential-stimulus-presentation","151","304909","0.0-31.0","SS1613138447075","pref_reveal","","40","800","1406.8899999954738","null","null","","","","","7","","","","deviant","","","",""
"","null","html-keyboard-response","152","305791","0.0-32.0-0.0","SS1613138447075","","","null","","","","","<p><img src= images/blank.png width =""200"" height = ""200"" style = ""float:right""></p><p><img src=images/blank.png width =""800"" height = ""200""></p>","","","","","","","","","","","",""
"","1142.8000000014435","sequential-stimulus-presentation","153","307764","0.0-32.0-1.0","SS1613138447075","trial","","40","800","1942.8000000014435","images/stimuli/spore_stims/simple_14_B_b.gif","images/stimuli/spore_stims/simple_14_A_b.gif","","","","","8","simple_similar","images/stimuli/spore_stims/simple_14_A_b.gif","right","","","","",""
"","null","html-keyboard-response","154","308726","0.0-32.0-0.1","SS1613138447075","","","null","","","","","<p><img src= images/blank.png width =""200"" height = ""200"" style = ""float:right""></p><p><img src=images/blank.png width =""800"" height = ""200""></p>","","","","","","","","","","","",""
"","3608.959999997751","sequential-stimulus-presentation","155","313160","0.0-32.0-1.1","SS1613138447075","trial","","40","800","4408.959999997751","images/stimuli/spore_stims/simple_14_B_b.gif","images/stimuli/spore_stims/simple_14_A_b.gif","","","","","8","simple_similar","images/stimuli/spore_stims/simple_14_A_b.gif","right","","","","",""
"","null","html-keyboard-response","156","314139","0.0-32.0-0.2","SS1613138447075","","","null","","","","","<p><img src= images/blank.png width =""200"" height = ""200"" style = ""float:right""></p><p><img src=images/blank.png width =""800"" height = ""200""></p>","","","","","","","","","","","",""
"","1143.8650000054622","sequential-stimulus-presentation","157","316097","0.0-32.0-1.2","SS1613138447075","trial","","40","800","1943.8650000054622","images/stimuli/spore_stims/simple_14_B_b.gif","images/stimuli/spore_stims/simple_14_A_b.gif","","","","","8","simple_similar","images/stimuli/spore_stims/simple_14_A_b.gif","right","","","","",""
"","null","html-keyboard-response","158","317345","0.0-32.0-0.3","SS1613138447075","","","null","","","","","<p><img src= images/blank.png width =""200"" height = ""200"" style = ""float:right""></p><p><img src=images/blank.png width =""800"" height = ""200""></p>","","","","","","","","","","","",""
"","139.77999999769963","sequential-stimulus-presentation","159","318308","0.0-32.0-1.3","SS1613138447075","trial","","40","800","939.7799999976996","images/stimuli/spore_stims/simple_14_B_b.gif","images/stimuli/spore_stims/simple_14_A_b.gif","","","","","8","simple_similar","images/stimuli/spore_stims/simple_14_A_b.gif","right","","","","",""
"","null","html-keyboard-response","160","319135","0.0-32.0-0.4","SS1613138447075","","","null","","","","","<p><img src= images/blank.png width =""200"" height = ""200"" style = ""float:right""></p><p><img src=images/blank.png width =""800"" height = ""200""></p>","","","","","","","","","","","",""
"","448.17499999771826","sequential-stimulus-presentation","161","320400","0.0-32.0-1.4","SS1613138447075","trial","","40","800","1248.1749999977183","images/stimuli/spore_stims/simple_14_B_b.gif","images/stimuli/spore_stims/simple_14_A_b.gif","","","","","8","simple_similar","images/stimuli/spore_stims/simple_14_A_b.gif","right","","","","",""
"","null","html-keyboard-response","162","321578","0.0-32.0-0.5","SS1613138447075","","","null","","","","","<p><img src= images/blank.png width =""200"" height = ""200"" style = ""float:right""></p><p><img src=images/blank.png width =""800"" height = ""200""></p>","","","","","","","","","","","",""
"","997.8200000041397","sequential-stimulus-presentation","163","323404","0.0-32.0-1.5","SS1613138447075","trial","","40","800","1797.8200000041397","images/stimuli/spore_stims/simple_14_B_b.gif","images/stimuli/spore_stims/simple_14_A_b.gif","","","","","8","simple_similar","images/stimuli/spore_stims/simple_14_A_b.gif","right","","","","",""
"","null","html-keyboard-response","164","324514","0.0-32.0-0.6","SS1613138447075","","","null","","","","","<p><img src= images/blank.png width =""200"" height = ""200"" style = ""float:right""></p><p><img src=images/blank.png width =""800"" height = ""200""></p>","","","","","","","","","","","",""
"","500.1149999879999","sequential-stimulus-presentation","165","325844","0.0-32.0-1.6","SS1613138447075","trial","","40","800","1300.114999988","images/stimuli/spore_stims/simple_14_B_b.gif","images/stimuli/spore_stims/simple_14_A_b.gif","","","","","8","simple_similar","images/stimuli/spore_stims/simple_14_B_b.gif","middle","","","","",""
"","null","html-keyboard-response","166","326817","0.0-32.0-0.7","SS1613138447075","","","null","","","","","<p><img src= images/blank.png width =""200"" height = ""200"" style = ""float:right""></p><p><img src=images/blank.png width =""800"" height = ""200""></p>","","","","","","","","","","","",""
"","413.87000000395346","sequential-stimulus-presentation","167","328060","0.0-32.0-1.7","SS1613138447075","trial","","40","800","1213.8700000039535","images/stimuli/spore_stims/simple_14_B_b.gif","images/stimuli/spore_stims/simple_14_A_b.gif","","","","","8","simple_similar","images/stimuli/spore_stims/simple_14_A_b.gif","right","","","","",""
"","1965.6600000016624","html-keyboard-response","168","330046","0.0-33.0","SS1613138447075","pref_question","","49","","","","","<video width ='960' height = '540' style='padding-top:8%' autoplay muted><source src='images/stimuli/wall_pref.mp4' type='video/mp4'></video>","1","left","25%","8","","","","","","","",""
"","1058.4499999968102","sequential-stimulus-presentation","169","331930","0.0-34.0","SS1613138447075","pref_reveal","","40","800","1858.4499999968102","null","null","","","","","8","","","","novel","","","",""
"","null","html-keyboard-response","170","332799","0.0-35.0-0.0","SS1613138447075","","","null","","","","","<p><img src= images/blank.png width =""200"" height = ""200"" style = ""float:right""></p><p><img src=images/blank.png width =""800"" height = ""200""></p>","","","","","","","","","","","",""
"","331.6650000051595","sequential-stimulus-presentation","171","333950","0.0-35.0-1.0","SS1613138447075","trial","","40","800","1131.6650000051595","images/stimuli/spore_stims/simple_19_A_a.gif","images/stimuli/spore_stims/simple_19_B_a.gif","","","","","9","simple_similar","images/stimuli/spore_stims/simple_19_B_a.gif","middle","","","","",""
"","null","html-keyboard-response","172","335234","0.0-35.0-0.1","SS1613138447075","","","null","","","","","<p><img src= images/blank.png width =""200"" height = ""200"" style = ""float:right""></p><p><img src=images/blank.png width =""800"" height = ""200""></p>","","","","","","","","","","","",""
"","206.93499999470077","sequential-stimulus-presentation","173","336261","0.0-35.0-1.1","SS1613138447075","trial","","40","800","1006.9349999947008","images/stimuli/spore_stims/simple_19_A_a.gif","images/stimuli/spore_stims/simple_19_B_a.gif","","","","","9","simple_similar","images/stimuli/spore_stims/simple_19_B_a.gif","middle","","","","",""
"","null","html-keyboard-response","174","337571","0.0-35.0-0.2","SS1613138447075","","","null","","","","","<p><img src= images/blank.png width =""200"" height = ""200"" style = ""float:right""></p><p><img src=images/blank.png width =""800"" height = ""200""></p>","","","","","","","","","","","",""
"","273.6000000004424","sequential-stimulus-presentation","175","338664","0.0-35.0-1.2","SS1613138447075","trial","","40","800","1073.6000000004424","images/stimuli/spore_stims/simple_19_A_a.gif","images/stimuli/spore_stims/simple_19_B_a.gif","","","","","9","simple_similar","images/stimuli/spore_stims/simple_19_B_a.gif","middle","","","","",""
"","null","html-keyboard-response","176","339644","0.0-35.0-0.3","SS1613138447075","","","null","","","","","<p><img src= images/blank.png width =""200"" height = ""200"" style = ""float:right""></p><p><img src=images/blank.png width =""800"" height = ""200""></p>","","","","","","","","","","","",""
"","657.9000000056112","sequential-stimulus-presentation","177","341122","0.0-35.0-1.3","SS1613138447075","trial","","40","800","1457.9000000056112","images/stimuli/spore_stims/simple_19_A_a.gif","images/stimuli/spore_stims/simple_19_B_a.gif","","","","","9","simple_similar","images/stimuli/spore_stims/simple_19_B_a.gif","middle","","","","",""
"","null","html-keyboard-response","178","341993","0.0-35.0-0.4","SS1613138447075","","","null","","","","","<p><img src= images/blank.png width =""200"" height = ""200"" style = ""float:right""></p><p><img src=images/blank.png width =""800"" height = ""200""></p>","","","","","","","","","","","",""
"","645.18500000122","sequential-stimulus-presentation","179","343454","0.0-35.0-1.4","SS1613138447075","trial","","40","800","1445.18500000122","images/stimuli/spore_stims/simple_19_A_a.gif","images/stimuli/spore_stims/simple_19_B_a.gif","","","","","9","simple_similar","images/stimuli/spore_stims/simple_19_B_a.gif","middle","","","","",""
"","null","html-keyboard-response","180","344720","0.0-35.0-0.5","SS1613138447075","","","null","","","","","<p><img src= images/blank.png width =""200"" height = ""200"" style = ""float:right""></p><p><img src=images/blank.png width =""800"" height = ""200""></p>","","","","","","","","","","","",""
"","407.7450000040699","sequential-stimulus-presentation","181","345954","0.0-35.0-1.5","SS1613138447075","trial","","40","800","1207.7450000040699","images/stimuli/spore_stims/simple_19_A_a.gif","images/stimuli/spore_stims/simple_19_B_a.gif","","","","","9","simple_similar","images/stimuli/spore_stims/simple_19_B_a.gif","middle","","","","",""
"","null","html-keyboard-response","182","347104","0.0-35.0-0.6","SS1613138447075","","","null","","","","","<p><img src= images/blank.png width =""200"" height = ""200"" style = ""float:right""></p><p><img src=images/blank.png width =""800"" height = ""200""></p>","","","","","","","","","","","",""
"","495.9950000047684","sequential-stimulus-presentation","183","348448","0.0-35.0-1.6","SS1613138447075","trial","","40","800","1295.9950000047684","images/stimuli/spore_stims/simple_19_A_a.gif","images/stimuli/spore_stims/simple_19_B_a.gif","","","","","9","simple_similar","images/stimuli/spore_stims/simple_19_A_a.gif","left","","","","",""
"","null","html-keyboard-response","184","349761","0.0-35.0-0.7","SS1613138447075","","","null","","","","","<p><img src= images/blank.png width =""200"" height = ""200"" style = ""float:right""></p><p><img src=images/blank.png width =""800"" height = ""200""></p>","","","","","","","","","","","",""
"","585.6500000081724","sequential-stimulus-presentation","185","351179","0.0-35.0-1.7","SS1613138447075","trial","","40","800","1385.6500000081724","images/stimuli/spore_stims/simple_19_A_a.gif","images/stimuli/spore_stims/simple_19_B_a.gif","","","","","9","simple_similar","images/stimuli/spore_stims/simple_19_B_a.gif","middle","","","","",""
"","2376.799999998184","html-keyboard-response","186","353574","0.0-36.0","SS1613138447075","pref_question","","51","","","","","<video width ='960' height = '540' style='padding-top:8%' autoplay muted><source src='images/stimuli/wall_pref.mp4' type='video/mp4'></video>","3","right","66%","9","","","","","","","",""
"","1008.350000003702","sequential-stimulus-presentation","187","355415","0.0-37.0","SS1613138447075","pref_reveal","","40","800","1808.350000003702","null","null","","","","","9","","","","novel","","","",""
"","null","html-keyboard-response","188","356345","0.0-38.0-0.0","SS1613138447075","","","null","","","","","<p><img src= images/blank.png width =""200"" height = ""200"" style = ""float:right""></p><p><img src=images/blank.png width =""800"" height = ""200""></p>","","","","","","","","","","","",""
"","406.55499999411404","sequential-stimulus-presentation","189","357583","0.0-38.0-1.0","SS1613138447075","trial","","40","800","1206.554999994114","images/stimuli/spore_stims/simple_11_B_c.gif","images/stimuli/spore_stims/simple_07_B_d.gif","","","","","10","simple_dissimilar","images/stimuli/spore_stims/simple_07_B_d.gif","middle","","","","",""
"","null","html-keyboard-response","190","358650","0.0-38.0-0.1","SS1613138447075","","","null","","","","","<p><img src= images/blank.png width =""200"" height = ""200"" style = ""float:right""></p><p><img src=images/blank.png width =""800"" height = ""200""></p>","","","","","","","","","","","",""
"","722.909999996773","sequential-stimulus-presentation","191","360206","0.0-38.0-1.1","SS1613138447075","trial","","40","800","1522.909999996773","images/stimuli/spore_stims/simple_11_B_c.gif","images/stimuli/spore_stims/simple_07_B_d.gif","","","","","10","simple_dissimilar","images/stimuli/spore_stims/simple_07_B_d.gif","middle","","","","",""
"","null","html-keyboard-response","192","361287","0.0-38.0-0.2","SS1613138447075","","","null","","","","","<p><img src= images/blank.png width =""200"" height = ""200"" style = ""float:right""></p><p><img src=images/blank.png width =""800"" height = ""200""></p>","","","","","","","","","","","",""
"","285.98499999498017","sequential-stimulus-presentation","193","362398","0.0-38.0-1.2","SS1613138447075","trial","","40","800","1085.9849999949802","images/stimuli/spore_stims/simple_11_B_c.gif","images/stimuli/spore_stims/simple_07_B_d.gif","","","","","10","simple_dissimilar","images/stimuli/spore_stims/simple_07_B_d.gif","middle","","","","",""
"","null","html-keyboard-response","194","363274","0.0-38.0-0.3","SS1613138447075","","","null","","","","","<p><img src= images/blank.png width =""200"" height = ""200"" style = ""float:right""></p><p><img src=images/blank.png width =""800"" height = ""200""></p>","","","","","","","","","","","",""
"","455.3650000016205","sequential-stimulus-presentation","195","364549","0.0-38.0-1.3","SS1613138447075","trial","","40","800","1255.3650000016205","images/stimuli/spore_stims/simple_11_B_c.gif","images/stimuli/spore_stims/simple_07_B_d.gif","","","","","10","simple_dissimilar","images/stimuli/spore_stims/simple_07_B_d.gif","middle","","","","",""
"","null","html-keyboard-response","196","365564","0.0-38.0-0.4","SS1613138447075","","","null","","","","","<p><img src= images/blank.png width =""200"" height = ""200"" style = ""float:right""></p><p><img src=images/blank.png width =""800"" height = ""200""></p>","","","","","","","","","","","",""
"","309.2449999967357","sequential-stimulus-presentation","197","366692","0.0-38.0-1.4","SS1613138447075","trial","","40","800","1109.2449999967357","images/stimuli/spore_stims/simple_11_B_c.gif","images/stimuli/spore_stims/simple_07_B_d.gif","","","","","10","simple_dissimilar","images/stimuli/spore_stims/simple_11_B_c.gif","right","","","","",""
"","null","html-keyboard-response","198","367668","0.0-38.0-0.5","SS1613138447075","","","null","","","","","<p><img src= images/blank.png width =""200"" height = ""200"" style = ""float:right""></p><p><img src=images/blank.png width =""800"" height = ""200""></p>","","","","","","","","","","","",""
"","269.41000000806525","sequential-stimulus-presentation","199","368757","0.0-38.0-1.5","SS1613138447075","trial","","40","800","1069.4100000080653","images/stimuli/spore_stims/simple_11_B_c.gif","images/stimuli/spore_stims/simple_07_B_d.gif","","","","","10","simple_dissimilar","images/stimuli/spore_stims/simple_07_B_d.gif","middle","","","","",""
"","null","html-keyboard-response","200","369919","0.0-38.0-0.6","SS1613138447075","","","null","","","","","<p><img src= images/blank.png width =""200"" height = ""200"" style = ""float:right""></p><p><img src=images/blank.png width =""800"" height = ""200""></p>","","","","","","","","","","","",""
"","463.28499999071937","sequential-stimulus-presentation","201","371211","0.0-38.0-1.6","SS1613138447075","trial","","40","800","1263.2849999907194","images/stimuli/spore_stims/simple_11_B_c.gif","images/stimuli/spore_stims/simple_07_B_d.gif","","","","","10","simple_dissimilar","images/stimuli/spore_stims/simple_07_B_d.gif","middle","","","","",""
"","null","html-keyboard-response","202","372024","0.0-38.0-0.7","SS1613138447075","","","null","","","","","<p><img src= images/blank.png width =""200"" height = ""200"" style = ""float:right""></p><p><img src=images/blank.png width =""800"" height = ""200""></p>","","","","","","","","","","","",""
"","625.6849999917904","sequential-stimulus-presentation","203","373482","0.0-38.0-1.7","SS1613138447075","trial","","40","800","1425.6849999917904","images/stimuli/spore_stims/simple_11_B_c.gif","images/stimuli/spore_stims/simple_07_B_d.gif","","","","","10","simple_dissimilar","images/stimuli/spore_stims/simple_07_B_d.gif","middle","","","","",""
"","1867.4449999962235","html-keyboard-response","204","375367","0.0-39.0","SS1613138447075","pref_question","","49","","","","","<video width ='960' height = '540' style='padding-top:8%' autoplay muted><source src='images/stimuli/wall_pref.mp4' type='video/mp4'></video>","1","left","25%","10","","","","","","","",""
"","358.16499999782536","sequential-stimulus-presentation","205","376551","0.0-40.0","SS1613138447075","pref_reveal","","40","800","1158.1649999978254","null","null","","","","","10","","","","novel","","","",""
"","null","html-keyboard-response","206","377767","0.0-41.0-0.0","SS1613138447075","","","null","","","","","<p><img src= images/blank.png width =""200"" height = ""200"" style = ""float:right""></p><p><img src=images/blank.png width =""800"" height = ""200""></p>","","","","","","","","","","","",""
"","473.3199999900535","sequential-stimulus-presentation","207","379063","0.0-41.0-1.0","SS1613138447075","trial","","40","800","1273.3199999900535","images/stimuli/spore_stims/complex_09_B_c.gif","images/stimuli/spore_stims/complex_07_B_d.gif","","","","","11","complex_dissimilar","images/stimuli/spore_stims/complex_07_B_d.gif","left","","","","",""
"","null","html-keyboard-response","208","380257","0.0-41.0-0.1","SS1613138447075","","","null","","","","","<p><img src= images/blank.png width =""200"" height = ""200"" style = ""float:right""></p><p><img src=images/blank.png width =""800"" height = ""200""></p>","","","","","","","","","","","",""
"","264.1650000005029","sequential-stimulus-presentation","209","381353","0.0-41.0-1.1","SS1613138447075","trial","","40","800","1064.165000000503","images/stimuli/spore_stims/complex_09_B_c.gif","images/stimuli/spore_stims/complex_07_B_d.gif","","","","","11","complex_dissimilar","images/stimuli/spore_stims/complex_07_B_d.gif","left","","","","",""
"","null","html-keyboard-response","210","382501","0.0-41.0-0.2","SS1613138447075","","","null","","","","","<p><img src= images/blank.png width =""200"" height = ""200"" style = ""float:right""></p><p><img src=images/blank.png width =""800"" height = ""200""></p>","","","","","","","","","","","",""
"","973.9599999884376","sequential-stimulus-presentation","211","384292","0.0-41.0-1.2","SS1613138447075","trial","","40","800","1773.9599999884376","images/stimuli/spore_stims/complex_09_B_c.gif","images/stimuli/spore_stims/complex_07_B_d.gif","","","","","11","complex_dissimilar","images/stimuli/spore_stims/complex_07_B_d.gif","left","","","","",""
"","null","html-keyboard-response","212","385239","0.0-41.0-0.3","SS1613138447075","","","null","","","","","<p><img src= images/blank.png width =""200"" height = ""200"" style = ""float:right""></p><p><img src=images/blank.png width =""800"" height = ""200""></p>","","","","","","","","","","","",""
"","450.2150000043912","sequential-stimulus-presentation","213","386517","0.0-41.0-1.3","SS1613138447075","trial","","40","800","1250.2150000043912","images/stimuli/spore_stims/complex_09_B_c.gif","images/stimuli/spore_stims/complex_07_B_d.gif","","","","","11","complex_dissimilar","images/stimuli/spore_stims/complex_09_B_c.gif","middle","","","","",""
"","null","html-keyboard-response","214","387827","0.0-41.0-0.4","SS1613138447075","","","null","","","","","<p><img src= images/blank.png width =""200"" height = ""200"" style = ""float:right""></p><p><img src=images/blank.png width =""800"" height = ""200""></p>","","","","","","","","","","","",""
"","313.8450000114972","sequential-stimulus-presentation","215","388961","0.0-41.0-1.4","SS1613138447075","trial","","40","800","1113.8450000114972","images/stimuli/spore_stims/complex_09_B_c.gif","images/stimuli/spore_stims/complex_07_B_d.gif","","","","","11","complex_dissimilar","images/stimuli/spore_stims/complex_07_B_d.gif","left","","","","",""
"","null","html-keyboard-response","216","390049","0.0-41.0-0.5","SS1613138447075","","","null","","","","","<p><img src= images/blank.png width =""200"" height = ""200"" style = ""float:right""></p><p><img src=images/blank.png width =""800"" height = ""200""></p>","","","","","","","","","","","",""
"","285.6350000074599","sequential-stimulus-presentation","217","391163","0.0-41.0-1.5","SS1613138447075","trial","","40","800","1085.63500000746","images/stimuli/spore_stims/complex_09_B_c.gif","images/stimuli/spore_stims/complex_07_B_d.gif","","","","","11","complex_dissimilar","images/stimuli/spore_stims/complex_07_B_d.gif","left","","","","",""
"","null","html-keyboard-response","218","392035","0.0-41.0-0.6","SS1613138447075","","","null","","","","","<p><img src= images/blank.png width =""200"" height = ""200"" style = ""float:right""></p><p><img src=images/blank.png width =""800"" height = ""200""></p>","","","","","","","","","","","",""
"","236.5250000002561","sequential-stimulus-presentation","219","393102","0.0-41.0-1.6","SS1613138447075","trial","","40","800","1036.5250000002561","images/stimuli/spore_stims/complex_09_B_c.gif","images/stimuli/spore_stims/complex_07_B_d.gif","","","","","11","complex_dissimilar","images/stimuli/spore_stims/complex_07_B_d.gif","left","","","","",""
"","null","html-keyboard-response","220","393972","0.0-41.0-0.7","SS1613138447075","","","null","","","","","<p><img src= images/blank.png width =""200"" height = ""200"" style = ""float:right""></p><p><img src=images/blank.png width =""800"" height = ""200""></p>","","","","","","","","","","","",""
"","844.4000000017695","sequential-stimulus-presentation","221","395647","0.0-41.0-1.7","SS1613138447075","trial","","40","800","1644.4000000017695","images/stimuli/spore_stims/complex_09_B_c.gif","images/stimuli/spore_stims/complex_07_B_d.gif","","","","","11","complex_dissimilar","images/stimuli/spore_stims/complex_07_B_d.gif","left","","","","",""
"","2237.4850000051083","html-keyboard-response","222","397901","0.0-42.0","SS1613138447075","pref_question","","51","","","","","<video width ='960' height = '540' style='padding-top:8%' autoplay muted><source src='images/stimuli/wall_pref.mp4' type='video/mp4'></video>","3","right","66%","11","","","","","","","",""
"","252.86000000778586","sequential-stimulus-presentation","223","398979","0.0-43.0","SS1613138447075","pref_reveal","","40","800","1052.8600000077859","null","null","","","","","11","","","","novel","","","",""
"","null","html-keyboard-response","224","400139","0.0-44.0-0.0","SS1613138447075","","","null","","","","","<p><img src= images/blank.png width =""200"" height = ""200"" style = ""float:right""></p><p><img src=images/blank.png width =""800"" height = ""200""></p>","","","","","","","","","","","",""
"","624.775000003865","sequential-stimulus-presentation","225","401576","0.0-44.0-1.0","SS1613138447075","trial","","40","800","1424.775000003865","images/stimuli/spore_stims/simple_09_A_b.gif","images/stimuli/spore_stims/simple_10_A_c.gif","","","","","12","simple_dissimilar","images/stimuli/spore_stims/simple_10_A_c.gif","middle","","","","",""
"","null","html-keyboard-response","226","402860","0.0-44.0-0.1","SS1613138447075","","","null","","","","","<p><img src= images/blank.png width =""200"" height = ""200"" style = ""float:right""></p><p><img src=images/blank.png width =""800"" height = ""200""></p>","","","","","","","","","","","",""
"","826.614999998128","sequential-stimulus-presentation","227","404514","0.0-44.0-1.1","SS1613138447075","trial","","40","800","1626.614999998128","images/stimuli/spore_stims/simple_09_A_b.gif","images/stimuli/spore_stims/simple_10_A_c.gif","","","","","12","simple_dissimilar","images/stimuli/spore_stims/simple_10_A_c.gif","middle","","","","",""
"","null","html-keyboard-response","228","405413","0.0-44.0-0.2","SS1613138447075","","","null","","","","","<p><img src= images/blank.png width =""200"" height = ""200"" style = ""float:right""></p><p><img src=images/blank.png width =""800"" height = ""200""></p>","","","","","","","","","","","",""
"","356.60999998799525","sequential-stimulus-presentation","229","406595","0.0-44.0-1.2","SS1613138447075","trial","","40","800","1156.6099999879953","images/stimuli/spore_stims/simple_09_A_b.gif","images/stimuli/spore_stims/simple_10_A_c.gif","","","","","12","simple_dissimilar","images/stimuli/spore_stims/simple_10_A_c.gif","middle","","","","",""
"","null","html-keyboard-response","230","407556","0.0-44.0-0.3","SS1613138447075","","","null","","","","","<p><img src= images/blank.png width =""200"" height = ""200"" style = ""float:right""></p><p><img src=images/blank.png width =""800"" height = ""200""></p>","","","","","","","","","","","",""
"","297.42000000260305","sequential-stimulus-presentation","231","408689","0.0-44.0-1.3","SS1613138447075","trial","","40","800","1097.420000002603","images/stimuli/spore_stims/simple_09_A_b.gif","images/stimuli/spore_stims/simple_10_A_c.gif","","","","","12","simple_dissimilar","images/stimuli/spore_stims/simple_10_A_c.gif","middle","","","","",""
"","null","html-keyboard-response","232","409940","0.0-44.0-0.4","SS1613138447075","","","null","","","","","<p><img src= images/blank.png width =""200"" height = ""200"" style = ""float:right""></p><p><img src=images/blank.png width =""800"" height = ""200""></p>","","","","","","","","","","","",""
"","357.99499999848194","sequential-stimulus-presentation","233","411129","0.0-44.0-1.4","SS1613138447075","trial","","40","800","1157.994999998482","images/stimuli/spore_stims/simple_09_A_b.gif","images/stimuli/spore_stims/simple_10_A_c.gif","","","","","12","simple_dissimilar","images/stimuli/spore_stims/simple_10_A_c.gif","middle","","","","",""
"","null","html-keyboard-response","234","411999","0.0-44.0-0.5","SS1613138447075","","","null","","","","","<p><img src= images/blank.png width =""200"" height = ""200"" style = ""float:right""></p><p><img src=images/blank.png width =""800"" height = ""200""></p>","","","","","","","","","","","",""
"","236.6699999984121","sequential-stimulus-presentation","235","413059","0.0-44.0-1.5","SS1613138447075","trial","","40","800","1036.669999998412","images/stimuli/spore_stims/simple_09_A_b.gif","images/stimuli/spore_stims/simple_10_A_c.gif","","","","","12","simple_dissimilar","images/stimuli/spore_stims/simple_09_A_b.gif","left","","","","",""
"","null","html-keyboard-response","236","414320","0.0-44.0-0.6","SS1613138447075","","","null","","","","","<p><img src= images/blank.png width =""200"" height = ""200"" style = ""float:right""></p><p><img src=images/blank.png width =""800"" height = ""200""></p>","","","","","","","","","","","",""
"","419.60500000277534","sequential-stimulus-presentation","237","415560","0.0-44.0-1.6","SS1613138447075","trial","","40","800","1219.6050000027753","images/stimuli/spore_stims/simple_09_A_b.gif","images/stimuli/spore_stims/simple_10_A_c.gif","","","","","12","simple_dissimilar","images/stimuli/spore_stims/simple_10_A_c.gif","middle","","","","",""
"","null","html-keyboard-response","238","416857","0.0-44.0-0.7","SS1613138447075","","","null","","","","","<p><img src= images/blank.png width =""200"" height = ""200"" style = ""float:right""></p><p><img src=images/blank.png width =""800"" height = ""200""></p>","","","","","","","","","","","",""
"","397.17499999096617","sequential-stimulus-presentation","239","418083","0.0-44.0-1.7","SS1613138447075","trial","","40","800","1197.1749999909662","images/stimuli/spore_stims/simple_09_A_b.gif","images/stimuli/spore_stims/simple_10_A_c.gif","","","","","12","simple_dissimilar","images/stimuli/spore_stims/simple_10_A_c.gif","middle","","","","",""
"","2096.690000005765","html-keyboard-response","240","420190","0.0-45.0","SS1613138447075","pref_question","","49","","","","","<video width ='960' height = '540' style='padding-top:8%' autoplay muted><source src='images/stimuli/wall_pref.mp4' type='video/mp4'></video>","1","left","25%","12","","","","","","","",""
"","348.3949999936158","sequential-stimulus-presentation","241","421362","0.0-46.0","SS1613138447075","pref_reveal","","40","800","1148.3949999936158","null","null","","","","","12","","","","deviant","","","",""
"","null","html-keyboard-response","242","422492","0.0-47.0-0.0","SS1613138447075","","","null","","","","","<p><img src= images/blank.png width =""200"" height = ""200"" style = ""float:right""></p><p><img src=images/blank.png width =""800"" height = ""200""></p>","","","","","","","","","","","",""
"","266.4549999899464","sequential-stimulus-presentation","243","423593","0.0-47.0-1.0","SS1613138447075","trial","","40","800","1066.4549999899464","images/stimuli/spore_stims/complex_19_B_d.gif","images/stimuli/spore_stims/complex_07_A_b.gif","","","","","13","complex_dissimilar","images/stimuli/spore_stims/complex_07_A_b.gif","middle","","","","",""
"","null","html-keyboard-response","244","424744","0.0-47.0-0.1","SS1613138447075","","","null","","","","","<p><img src= images/blank.png width =""200"" height = ""200"" style = ""float:right""></p><p><img src=images/blank.png width =""800"" height = ""200""></p>","","","","","","","","","","","",""
"","224.01999999419786","sequential-stimulus-presentation","245","425789","0.0-47.0-1.1","SS1613138447075","trial","","40","800","1024.0199999941979","images/stimuli/spore_stims/complex_19_B_d.gif","images/stimuli/spore_stims/complex_07_A_b.gif","","","","","13","complex_dissimilar","images/stimuli/spore_stims/complex_07_A_b.gif","middle","","","","",""
"","null","html-keyboard-response","246","426918","0.0-47.0-0.2","SS1613138447075","","","null","","","","","<p><img src= images/blank.png width =""200"" height = ""200"" style = ""float:right""></p><p><img src=images/blank.png width =""800"" height = ""200""></p>","","","","","","","","","","","",""
"","281.105000001844","sequential-stimulus-presentation","247","428023","0.0-47.0-1.2","SS1613138447075","trial","","40","800","1081.105000001844","images/stimuli/spore_stims/complex_19_B_d.gif","images/stimuli/spore_stims/complex_07_A_b.gif","","","","","13","complex_dissimilar","images/stimuli/spore_stims/complex_07_A_b.gif","middle","","","","",""
"","null","html-keyboard-response","248","429008","0.0-47.0-0.3","SS1613138447075","","","null","","","","","<p><img src= images/blank.png width =""200"" height = ""200"" style = ""float:right""></p><p><img src=images/blank.png width =""800"" height = ""200""></p>","","","","","","","","","","","",""
"","297.25000000325963","sequential-stimulus-presentation","249","430125","0.0-47.0-1.3","SS1613138447075","trial","","40","800","1097.2500000032596","images/stimuli/spore_stims/complex_19_B_d.gif","images/stimuli/spore_stims/complex_07_A_b.gif","","","","","13","complex_dissimilar","images/stimuli/spore_stims/complex_07_A_b.gif","middle","","","","",""
"","null","html-keyboard-response","250","431271","0.0-47.0-0.4","SS1613138447075","","","null","","","","","<p><img src= images/blank.png width =""200"" height = ""200"" style = ""float:right""></p><p><img src=images/blank.png width =""800"" height = ""200""></p>","","","","","","","","","","","",""
"","264.48499999241903","sequential-stimulus-presentation","251","432372","0.0-47.0-1.4","SS1613138447075","trial","","40","800","1064.484999992419","images/stimuli/spore_stims/complex_19_B_d.gif","images/stimuli/spore_stims/complex_07_A_b.gif","","","","","13","complex_dissimilar","images/stimuli/spore_stims/complex_19_B_d.gif","right","","","","",""
"","null","html-keyboard-response","252","433544","0.0-47.0-0.5","SS1613138447075","","","null","","","","","<p><img src= images/blank.png width =""200"" height = ""200"" style = ""float:right""></p><p><img src=images/blank.png width =""800"" height = ""200""></p>","","","","","","","","","","","",""
"","346.0400000039954","sequential-stimulus-presentation","253","434723","0.0-47.0-1.5","SS1613138447075","trial","","40","800","1146.0400000039954","images/stimuli/spore_stims/complex_19_B_d.gif","images/stimuli/spore_stims/complex_07_A_b.gif","","","","","13","complex_dissimilar","images/stimuli/spore_stims/complex_07_A_b.gif","middle","","","","",""
"","null","html-keyboard-response","254","435618","0.0-47.0-0.6","SS1613138447075","","","null","","","","","<p><img src= images/blank.png width =""200"" height = ""200"" style = ""float:right""></p><p><img src=images/blank.png width =""800"" height = ""200""></p>","","","","","","","","","","","",""
"","327.2399999987101","sequential-stimulus-presentation","255","436771","0.0-47.0-1.6","SS1613138447075","trial","","40","800","1127.2399999987101","images/stimuli/spore_stims/complex_19_B_d.gif","images/stimuli/spore_stims/complex_07_A_b.gif","","","","","13","complex_dissimilar","images/stimuli/spore_stims/complex_07_A_b.gif","middle","","","","",""
"","null","html-keyboard-response","256","437722","0.0-47.0-0.7","SS1613138447075","","","null","","","","","<p><img src= images/blank.png width =""200"" height = ""200"" style = ""float:right""></p><p><img src=images/blank.png width =""800"" height = ""200""></p>","","","","","","","","","","","",""
"","225.0249999924563","sequential-stimulus-presentation","257","438769","0.0-47.0-1.7","SS1613138447075","trial","","40","800","1025.0249999924563","images/stimuli/spore_stims/complex_19_B_d.gif","images/stimuli/spore_stims/complex_07_A_b.gif","","","","","13","complex_dissimilar","images/stimuli/spore_stims/complex_07_A_b.gif","middle","","","","",""
"","2165.7350000023143","html-keyboard-response","258","440981","0.0-48.0","SS1613138447075","pref_question","","51","","","","","<video width ='960' height = '540' style='padding-top:8%' autoplay muted><source src='images/stimuli/wall_pref.mp4' type='video/mp4'></video>","3","right","66%","13","","","","","","","",""
"","423.18499999237247","sequential-stimulus-presentation","259","442233","0.0-49.0","SS1613138447075","pref_reveal","","40","800","1223.1849999923725","null","null","","","","","13","","","","deviant","","","",""
"","null","html-keyboard-response","260","443146","0.0-50.0-0.0","SS1613138447075","","","null","","","","","<p><img src= images/blank.png width =""200"" height = ""200"" style = ""float:right""></p><p><img src=images/blank.png width =""800"" height = ""200""></p>","","","","","","","","","","","",""
"","383.125000007567","sequential-stimulus-presentation","261","444352","0.0-50.0-1.0","SS1613138447075","trial","","40","800","1183.125000007567","images/stimuli/spore_stims/simple_16_A_d.gif","images/stimuli/spore_stims/simple_16_B_d.gif","","","","","14","simple_similar","images/stimuli/spore_stims/simple_16_B_d.gif","right","","","","",""
"","null","html-keyboard-response","262","445550","0.0-50.0-0.1","SS1613138447075","","","null","","","","","<p><img src= images/blank.png width =""200"" height = ""200"" style = ""float:right""></p><p><img src=images/blank.png width =""800"" height = ""200""></p>","","","","","","","","","","","",""
"","217.83500000310596","sequential-stimulus-presentation","263","446589","0.0-50.0-1.1","SS1613138447075","trial","","40","800","1017.835000003106","images/stimuli/spore_stims/simple_16_A_d.gif","images/stimuli/spore_stims/simple_16_B_d.gif","","","","","14","simple_similar","images/stimuli/spore_stims/simple_16_B_d.gif","right","","","","",""
"","null","html-keyboard-response","264","447471","0.0-50.0-0.2","SS1613138447075","","","null","","","","","<p><img src= images/blank.png width =""200"" height = ""200"" style = ""float:right""></p><p><img src=images/blank.png width =""800"" height = ""200""></p>","","","","","","","","","","","",""
"","239.48999999265652","sequential-stimulus-presentation","265","448544","0.0-50.0-1.2","SS1613138447075","trial","","40","800","1039.4899999926565","images/stimuli/spore_stims/simple_16_A_d.gif","images/stimuli/spore_stims/simple_16_B_d.gif","","","","","14","simple_similar","images/stimuli/spore_stims/simple_16_A_d.gif","middle","","","","",""
"","null","html-keyboard-response","266","449607","0.0-50.0-0.3","SS1613138447075","","","null","","","","","<p><img src= images/blank.png width =""200"" height = ""200"" style = ""float:right""></p><p><img src=images/blank.png width =""800"" height = ""200""></p>","","","","","","","","","","","",""
"","235.93500000424683","sequential-stimulus-presentation","267","450671","0.0-50.0-1.3","SS1613138447075","trial","","40","800","1035.9350000042468","images/stimuli/spore_stims/simple_16_A_d.gif","images/stimuli/spore_stims/simple_16_B_d.gif","","","","","14","simple_similar","images/stimuli/spore_stims/simple_16_B_d.gif","right","","","","",""
"","null","html-keyboard-response","268","451681","0.0-50.0-0.4","SS1613138447075","","","null","","","","","<p><img src= images/blank.png width =""200"" height = ""200"" style = ""float:right""></p><p><img src=images/blank.png width =""800"" height = ""200""></p>","","","","","","","","","","","",""
"","117.92000000423286","sequential-stimulus-presentation","269","452641","0.0-50.0-1.4","SS1613138447075","trial","","40","800","917.9200000042329","images/stimuli/spore_stims/simple_16_A_d.gif","images/stimuli/spore_stims/simple_16_B_d.gif","","","","","14","simple_similar","images/stimuli/spore_stims/simple_16_B_d.gif","right","","","","",""
"","null","html-keyboard-response","270","453871","0.0-50.0-0.5","SS1613138447075","","","null","","","","","<p><img src= images/blank.png width =""200"" height = ""200"" style = ""float:right""></p><p><img src=images/blank.png width =""800"" height = ""200""></p>","","","","","","","","","","","",""
"","197.87000000360422","sequential-stimulus-presentation","271","454929","0.0-50.0-1.5","SS1613138447075","trial","","40","800","997.8700000036042","images/stimuli/spore_stims/simple_16_A_d.gif","images/stimuli/spore_stims/simple_16_B_d.gif","","","","","14","simple_similar","images/stimuli/spore_stims/simple_16_B_d.gif","right","","","","",""
"","null","html-keyboard-response","272","455859","0.0-50.0-0.6","SS1613138447075","","","null","","","","","<p><img src= images/blank.png width =""200"" height = ""200"" style = ""float:right""></p><p><img src=images/blank.png width =""800"" height = ""200""></p>","","","","","","","","","","","",""
"","392.06499999272637","sequential-stimulus-presentation","273","457072","0.0-50.0-1.6","SS1613138447075","trial","","40","800","1192.0649999927264","images/stimuli/spore_stims/simple_16_A_d.gif","images/stimuli/spore_stims/simple_16_B_d.gif","","","","","14","simple_similar","images/stimuli/spore_stims/simple_16_B_d.gif","right","","","","",""
"","null","html-keyboard-response","274","458125","0.0-50.0-0.7","SS1613138447075","","","null","","","","","<p><img src= images/blank.png width =""200"" height = ""200"" style = ""float:right""></p><p><img src=images/blank.png width =""800"" height = ""200""></p>","","","","","","","","","","","",""
"","298.914999992121","sequential-stimulus-presentation","275","459255","0.0-50.0-1.7","SS1613138447075","trial","","40","800","1098.914999992121","images/stimuli/spore_stims/simple_16_A_d.gif","images/stimuli/spore_stims/simple_16_B_d.gif","","","","","14","simple_similar","images/stimuli/spore_stims/simple_16_B_d.gif","right","","","","",""
"","1859.390000012354","html-keyboard-response","276","461136","0.0-51.0","SS1613138447075","pref_question","","49","","","","","<video width ='960' height = '540' style='padding-top:8%' autoplay muted><source src='images/stimuli/wall_pref.mp4' type='video/mp4'></video>","1","left","25%","14","","","","","","","",""
"","141.84500000556","sequential-stimulus-presentation","277","462113","0.0-52.0","SS1613138447075","pref_reveal","","40","800","941.84500000556","null","null","","","","","14","","","","novel","","","",""
"","null","html-keyboard-response","278","463356","0.0-53.0-0.0","SS1613138447075","","","null","","","","","<p><img src= images/blank.png width =""200"" height = ""200"" style = ""float:right""></p><p><img src=images/blank.png width =""800"" height = ""200""></p>","","","","","","","","","","","",""
"","410.2100000018254","sequential-stimulus-presentation","279","464585","0.0-53.0-1.0","SS1613138447075","trial","","40","800","1210.2100000018254","images/stimuli/spore_stims/complex_04_A_b.gif","images/stimuli/spore_stims/complex_04_B_b.gif","","","","","15","complex_similar","images/stimuli/spore_stims/complex_04_B_b.gif","right","","","","",""
"","null","html-keyboard-response","280","465879","0.0-53.0-0.1","SS1613138447075","","","null","","","","","<p><img src= images/blank.png width =""200"" height = ""200"" style = ""float:right""></p><p><img src=images/blank.png width =""800"" height = ""200""></p>","","","","","","","","","","","",""
"","342.4349999986589","sequential-stimulus-presentation","281","467044","0.0-53.0-1.1","SS1613138447075","trial","","40","800","1142.434999998659","images/stimuli/spore_stims/complex_04_A_b.gif","images/stimuli/spore_stims/complex_04_B_b.gif","","","","","15","complex_similar","images/stimuli/spore_stims/complex_04_B_b.gif","right","","","","",""
"","null","html-keyboard-response","282","468185","0.0-53.0-0.2","SS1613138447075","","","null","","","","","<p><img src= images/blank.png width =""200"" height = ""200"" style = ""float:right""></p><p><img src=images/blank.png width =""800"" height = ""200""></p>","","","","","","","","","","","",""
"","131.39999999839347","sequential-stimulus-presentation","283","469142","0.0-53.0-1.2","SS1613138447075","trial","","40","800","931.3999999983935","images/stimuli/spore_stims/complex_04_A_b.gif","images/stimuli/spore_stims/complex_04_B_b.gif","","","","","15","complex_similar","images/stimuli/spore_stims/complex_04_B_b.gif","right","","","","",""
"","null","html-keyboard-response","284","469989","0.0-53.0-0.3","SS1613138447075","","","null","","","","","<p><img src= images/blank.png width =""200"" height = ""200"" style = ""float:right""></p><p><img src=images/blank.png width =""800"" height = ""200""></p>","","","","","","","","","","","",""
"","171.83500000101048","sequential-stimulus-presentation","285","470991","0.0-53.0-1.3","SS1613138447075","trial","","40","800","971.8350000010105","images/stimuli/spore_stims/complex_04_A_b.gif","images/stimuli/spore_stims/complex_04_B_b.gif","","","","","15","complex_similar","images/stimuli/spore_stims/complex_04_B_b.gif","right","","","","",""
"","null","html-keyboard-response","286","472110","0.0-53.0-0.4","SS1613138447075","","","null","","","","","<p><img src= images/blank.png width =""200"" height = ""200"" style = ""float:right""></p><p><img src=images/blank.png width =""800"" height = ""200""></p>","","","","","","","","","","","",""
"","286.94000000541564","sequential-stimulus-presentation","287","473221","0.0-53.0-1.4","SS1613138447075","trial","","40","800","1086.9400000054156","images/stimuli/spore_stims/complex_04_A_b.gif","images/stimuli/spore_stims/complex_04_B_b.gif","","","","","15","complex_similar","images/stimuli/spore_stims/complex_04_B_b.gif","right","","","","",""
"","null","html-keyboard-response","288","474464","0.0-53.0-0.5","SS1613138447075","","","null","","","","","<p><img src= images/blank.png width =""200"" height = ""200"" style = ""float:right""></p><p><img src=images/blank.png width =""800"" height = ""200""></p>","","","","","","","","","","","",""
"","297.9300000006333","sequential-stimulus-presentation","289","475575","0.0-53.0-1.5","SS1613138447075","trial","","40","800","1097.9300000006333","images/stimuli/spore_stims/complex_04_A_b.gif","images/stimuli/spore_stims/complex_04_B_b.gif","","","","","15","complex_similar","images/stimuli/spore_stims/complex_04_B_b.gif","right","","","","",""
"","null","html-keyboard-response","290","476771","0.0-53.0-0.6","SS1613138447075","","","null","","","","","<p><img src= images/blank.png width =""200"" height = ""200"" style = ""float:right""></p><p><img src=images/blank.png width =""800"" height = ""200""></p>","","","","","","","","","","","",""
"","97.53500000806525","sequential-stimulus-presentation","291","477690","0.0-53.0-1.6","SS1613138447075","trial","","40","800","897.5350000080653","images/stimuli/spore_stims/complex_04_A_b.gif","images/stimuli/spore_stims/complex_04_B_b.gif","","","","","15","complex_similar","images/stimuli/spore_stims/complex_04_B_b.gif","right","","","","",""
"","null","html-keyboard-response","292","478630","0.0-53.0-0.7","SS1613138447075","","","null","","","","","<p><img src= images/blank.png width =""200"" height = ""200"" style = ""float:right""></p><p><img src=images/blank.png width =""800"" height = ""200""></p>","","","","","","","","","","","",""
"","297.5200000073528","sequential-stimulus-presentation","293","479780","0.0-53.0-1.7","SS1613138447075","trial","","40","800","1097.5200000073528","images/stimuli/spore_stims/complex_04_A_b.gif","images/stimuli/spore_stims/complex_04_B_b.gif","","","","","15","complex_similar","images/stimuli/spore_stims/complex_04_A_b.gif","middle","","","","",""
"","2070.754999993369","html-keyboard-response","294","481874","0.0-54.0","SS1613138447075","pref_question","","50","","","","","<video width ='960' height = '540' style='padding-top:8%' autoplay muted><source src='images/stimuli/wall_pref.mp4' type='video/mp4'></video>","2","middle","45%","15","","","","","","","",""
"","187.82000000646804","sequential-stimulus-presentation","295","482884","0.0-55.0","SS1613138447075","pref_reveal","","40","800","987.820000006468","null","null","","","","","15","","","","deviant","","","",""
"","null","html-keyboard-response","296","484129","0.0-56.0-0.0","SS1613138447075","","","null","","","","","<p><img src= images/blank.png width =""200"" height = ""200"" style = ""float:right""></p><p><img src=images/blank.png width =""800"" height = ""200""></p>","","","","","","","","","","","",""
"","141.79999999760184","sequential-stimulus-presentation","297","485104","0.0-56.0-1.0","SS1613138447075","trial","","40","800","941.7999999976018","images/stimuli/spore_stims/complex_16_A_a.gif","images/stimuli/spore_stims/complex_08_A_d.gif","","","","","16","complex_dissimilar","images/stimuli/spore_stims/complex_08_A_d.gif","left","","","","",""
"","null","html-keyboard-response","298","486165","0.0-56.0-0.1","SS1613138447075","","","null","","","","","<p><img src= images/blank.png width =""200"" height = ""200"" style = ""float:right""></p><p><img src=images/blank.png width =""800"" height = ""200""></p>","","","","","","","","","","","",""
"","255.06999999925029","sequential-stimulus-presentation","299","487252","0.0-56.0-1.1","SS1613138447075","trial","","40","800","1055.0699999992503","images/stimuli/spore_stims/complex_16_A_a.gif","images/stimuli/spore_stims/complex_08_A_d.gif","","","","","16","complex_dissimilar","images/stimuli/spore_stims/complex_08_A_d.gif","left","","","","",""
"","null","html-keyboard-response","300","488438","0.0-56.0-0.2","SS1613138447075","","","null","","","","","<p><img src= images/blank.png width =""200"" height = ""200"" style = ""float:right""></p><p><img src=images/blank.png width =""800"" height = ""200""></p>","","","","","","","","","","","",""
"","312.6100000081351","sequential-stimulus-presentation","301","489574","0.0-56.0-1.2","SS1613138447075","trial","","40","800","1112.610000008135","images/stimuli/spore_stims/complex_16_A_a.gif","images/stimuli/spore_stims/complex_08_A_d.gif","","","","","16","complex_dissimilar","images/stimuli/spore_stims/complex_08_A_d.gif","left","","","","",""
"","null","html-keyboard-response","302","490490","0.0-56.0-0.3","SS1613138447075","","","null","","","","","<p><img src= images/blank.png width =""200"" height = ""200"" style = ""float:right""></p><p><img src=images/blank.png width =""800"" height = ""200""></p>","","","","","","","","","","","",""
"","279.3299999902956","sequential-stimulus-presentation","303","491592","0.0-56.0-1.3","SS1613138447075","trial","","40","800","1079.3299999902956","images/stimuli/spore_stims/complex_16_A_a.gif","images/stimuli/spore_stims/complex_08_A_d.gif","","","","","16","complex_dissimilar","images/stimuli/spore_stims/complex_08_A_d.gif","left","","","","",""
"","null","html-keyboard-response","304","492779","0.0-56.0-0.4","SS1613138447075","","","null","","","","","<p><img src= images/blank.png width =""200"" height = ""200"" style = ""float:right""></p><p><img src=images/blank.png width =""800"" height = ""200""></p>","","","","","","","","","","","",""
"","490.8500000019558","sequential-stimulus-presentation","305","494101","0.0-56.0-1.4","SS1613138447075","trial","","40","800","1290.8500000019558","images/stimuli/spore_stims/complex_16_A_a.gif","images/stimuli/spore_stims/complex_08_A_d.gif","","","","","16","complex_dissimilar","images/stimuli/spore_stims/complex_08_A_d.gif","left","","","","",""
"","null","html-keyboard-response","306","495384","0.0-56.0-0.5","SS1613138447075","","","null","","","","","<p><img src= images/blank.png width =""200"" height = ""200"" style = ""float:right""></p><p><img src=images/blank.png width =""800"" height = ""200""></p>","","","","","","","","","","","",""
"","223.73499999230262","sequential-stimulus-presentation","307","496425","0.0-56.0-1.5","SS1613138447075","trial","","40","800","1023.7349999923026","images/stimuli/spore_stims/complex_16_A_a.gif","images/stimuli/spore_stims/complex_08_A_d.gif","","","","","16","complex_dissimilar","images/stimuli/spore_stims/complex_08_A_d.gif","left","","","","",""
"","null","html-keyboard-response","308","497506","0.0-56.0-0.6","SS1613138447075","","","null","","","","","<p><img src= images/blank.png width =""200"" height = ""200"" style = ""float:right""></p><p><img src=images/blank.png width =""800"" height = ""200""></p>","","","","","","","","","","","",""
"","400.02000000094995","sequential-stimulus-presentation","309","498726","0.0-56.0-1.6","SS1613138447075","trial","","40","800","1200.02000000095","images/stimuli/spore_stims/complex_16_A_a.gif","images/stimuli/spore_stims/complex_08_A_d.gif","","","","","16","complex_dissimilar","images/stimuli/spore_stims/complex_16_A_a.gif","right","","","","",""
"","null","html-keyboard-response","310","499963","0.0-56.0-0.7","SS1613138447075","","","null","","","","","<p><img src= images/blank.png width =""200"" height = ""200"" style = ""float:right""></p><p><img src=images/blank.png width =""800"" height = ""200""></p>","","","","","","","","","","","",""
"","389.90999999805354","sequential-stimulus-presentation","311","501185","0.0-56.0-1.7","SS1613138447075","trial","","40","800","1189.9099999980535","images/stimuli/spore_stims/complex_16_A_a.gif","images/stimuli/spore_stims/complex_08_A_d.gif","","","","","16","complex_dissimilar","images/stimuli/spore_stims/complex_08_A_d.gif","left","","","","",""
"","2670.04499999166","html-keyboard-response","312","503874","0.0-57.0","SS1613138447075","pref_question","","51","","","","","<video width ='960' height = '540' style='padding-top:8%' autoplay muted><source src='images/stimuli/wall_pref.mp4' type='video/mp4'></video>","3","right","66%","16","","","","","","","",""
