"view_history","rt","trial_type","trial_index","time_elapsed","internal_node_id","subject","stimulus_type","trial_stimulus","key_press","minimum_viewing_duration","trial_looking_time","block_deviant","block_background","stimulus","wall_pref","location","location_percent","block_number","block_type","stimulus_displayed","position_displayed","stim_type_selected","responses","question_order","stimulus_left","stimulus_right"
"[{""page_index"":0,""viewing_time"":25765.040000000226}]","25768.325000000004","instructions","0","25774","0.0-0.0","SS1613143638546","","","","","","","","","","","","","","","","","","","",""
"[{""page_index"":0,""viewing_time"":5482.280000000166},{""page_index"":1,""viewing_time"":9943.82999999926}]","15427.05999999999","instructions","1","43208","0.0-1.0","SS1613143638546","instructions","","","","","","","","","","","","","","","","","","",""
"","652.9049999999261","sequential-stimulus-presentation","2","44676","0.0-2.0","SS1613143638546","","","40","800","1452.904999999926","null","null","","","","","","","","","","","","",""
"","3992.599999999584","sequential-stimulus-presentation","3","49476","0.0-3.0","SS1613143638546","","","40","800","4792.599999999584","null","null","","","","","","","","","","","","",""
"[{""page_index"":0,""viewing_time"":980.5749999995896}]","981.2049999991432","instructions","4","50461","0.0-4.0","SS1613143638546","instructions","","","","","","","","","","","","","","","","","","",""
"","2956.4499999996915","html-keyboard-response","5","53428","0.0-5.0","SS1613143638546","instructions","","99","","","","","<video width ='960' height = '540' autoplay muted><source src='images/stimuli/wall_pref.mp4' type='video/mp4'></video>","3","right","66%","","","","","","","","",""
"","880.4100000006729","sequential-stimulus-presentation","6","55123","0.0-6.0","SS1613143638546","pref_reveal","","40","800","1680.4100000006729","null","null","","","","","","","","","","","","",""
"[{""page_index"":0,""viewing_time"":1115.1950000003271},{""page_index"":1,""viewing_time"":719.8399999997346},{""page_index"":2,""viewing_time"":1144.264999999912},{""page_index"":3,""viewing_time"":280.06499999992957}]","3260.1500000000815","instructions","7","58387","0.0-7.0","SS1613143638546","instructions","","","","","","","","","","","","","","","","","","",""
"","null","html-keyboard-response","8","59353","0.0-8.0-0.0","SS1613143638546","","","null","","","","","<p><img src= images/blank.png width =""200"" height = ""200"" style = ""float:right""></p><p><img src=images/blank.png width =""800"" height = ""200""></p>","","","","","","","","","","","",""
"","1217.1799999996438","sequential-stimulus-presentation","9","61387","0.0-8.0-1.0","SS1613143638546","trial","","40","800","2017.1799999996438","images/stimuli/spore_stims/simple_17_A_a.gif","images/stimuli/spore_stims/simple_07_B_b.gif","","","","","0","simple_dissimilar","images/stimuli/spore_stims/simple_07_B_b.gif","left","","","","",""
"","null","html-keyboard-response","10","62296","0.0-8.0-0.1","SS1613143638546","","","null","","","","","<p><img src= images/blank.png width =""200"" height = ""200"" style = ""float:right""></p><p><img src=images/blank.png width =""800"" height = ""200""></p>","","","","","","","","","","","",""
"","260.4799999999086","sequential-stimulus-presentation","11","63369","0.0-8.0-1.1","SS1613143638546","trial","","40","800","1060.4799999999086","images/stimuli/spore_stims/simple_17_A_a.gif","images/stimuli/spore_stims/simple_07_B_b.gif","","","","","0","simple_dissimilar","images/stimuli/spore_stims/simple_07_B_b.gif","left","","","","",""
"","null","html-keyboard-response","12","64554","0.0-8.0-0.2","SS1613143638546","","","null","","","","","<p><img src= images/blank.png width =""200"" height = ""200"" style = ""float:right""></p><p><img src=images/blank.png width =""800"" height = ""200""></p>","","","","","","","","","","","",""
"","977.410000000411","sequential-stimulus-presentation","13","66345","0.0-8.0-1.2","SS1613143638546","trial","","40","800","1777.410000000411","images/stimuli/spore_stims/simple_17_A_a.gif","images/stimuli/spore_stims/simple_07_B_b.gif","","","","","0","simple_dissimilar","images/stimuli/spore_stims/simple_07_B_b.gif","left","","","","",""
"","null","html-keyboard-response","14","67488","0.0-8.0-0.3","SS1613143638546","","","null","","","","","<p><img src= images/blank.png width =""200"" height = ""200"" style = ""float:right""></p><p><img src=images/blank.png width =""800"" height = ""200""></p>","","","","","","","","","","","",""
"","163.01999999996042","sequential-stimulus-presentation","15","68465","0.0-8.0-1.3","SS1613143638546","trial","","40","800","963.0199999999604","images/stimuli/spore_stims/simple_17_A_a.gif","images/stimuli/spore_stims/simple_07_B_b.gif","","","","","0","simple_dissimilar","images/stimuli/spore_stims/simple_17_A_a.gif","middle","","","","",""
"","null","html-keyboard-response","16","69486","0.0-8.0-0.4","SS1613143638546","","","null","","","","","<p><img src= images/blank.png width =""200"" height = ""200"" style = ""float:right""></p><p><img src=images/blank.png width =""800"" height = ""200""></p>","","","","","","","","","","","",""
"","1282.0300000003044","sequential-stimulus-presentation","17","71593","0.0-8.0-1.4","SS1613143638546","trial","","40","800","2082.0300000003044","images/stimuli/spore_stims/simple_17_A_a.gif","images/stimuli/spore_stims/simple_07_B_b.gif","","","","","0","simple_dissimilar","images/stimuli/spore_stims/simple_07_B_b.gif","left","","","","",""
"","null","html-keyboard-response","18","72411","0.0-8.0-0.5","SS1613143638546","","","null","","","","","<p><img src= images/blank.png width =""200"" height = ""200"" style = ""float:right""></p><p><img src=images/blank.png width =""800"" height = ""200""></p>","","","","","","","","","","","",""
"","988.0700000003271","sequential-stimulus-presentation","19","74216","0.0-8.0-1.5","SS1613143638546","trial","","40","800","1788.0700000003271","images/stimuli/spore_stims/simple_17_A_a.gif","images/stimuli/spore_stims/simple_07_B_b.gif","","","","","0","simple_dissimilar","images/stimuli/spore_stims/simple_07_B_b.gif","left","","","","",""
"","null","html-keyboard-response","20","75258","0.0-8.0-0.6","SS1613143638546","","","null","","","","","<p><img src= images/blank.png width =""200"" height = ""200"" style = ""float:right""></p><p><img src=images/blank.png width =""800"" height = ""200""></p>","","","","","","","","","","","",""
"","5070.369999999457","sequential-stimulus-presentation","21","81143","0.0-8.0-1.6","SS1613143638546","trial","","40","800","5870.369999999457","images/stimuli/spore_stims/simple_17_A_a.gif","images/stimuli/spore_stims/simple_07_B_b.gif","","","","","0","simple_dissimilar","images/stimuli/spore_stims/simple_07_B_b.gif","left","","","","",""
"","null","html-keyboard-response","22","82335","0.0-8.0-0.7","SS1613143638546","","","null","","","","","<p><img src= images/blank.png width =""200"" height = ""200"" style = ""float:right""></p><p><img src=images/blank.png width =""800"" height = ""200""></p>","","","","","","","","","","","",""
"","1351.6049999998359","sequential-stimulus-presentation","23","84501","0.0-8.0-1.7","SS1613143638546","trial","","40","800","2151.604999999836","images/stimuli/spore_stims/simple_17_A_a.gif","images/stimuli/spore_stims/simple_07_B_b.gif","","","","","0","simple_dissimilar","images/stimuli/spore_stims/simple_07_B_b.gif","left","","","","",""
"","17209.480000000447","html-keyboard-response","24","101718","0.0-9.0","SS1613143638546","pref_question","","98","","","","","<video width ='960' height = '540' style='padding-top:8%' autoplay muted><source src='images/stimuli/wall_pref.mp4' type='video/mp4'></video>","2","middle","45%","0","","","","","","","",""
"","4645.700000000012","sequential-stimulus-presentation","25","107179","0.0-10.0","SS1613143638546","pref_reveal","","40","800","5445.700000000012","null","null","","","","","0","","","","deviant","","","",""
"","null","html-keyboard-response","26","108464","0.0-11.0-0.0","SS1613143638546","","","null","","","","","<p><img src= images/blank.png width =""200"" height = ""200"" style = ""float:right""></p><p><img src=images/blank.png width =""800"" height = ""200""></p>","","","","","","","","","","","",""
"","4889.259999999922","sequential-stimulus-presentation","27","114162","0.0-11.0-1.0","SS1613143638546","trial","","40","800","5689.259999999922","images/stimuli/spore_stims/simple_02_A_d.gif","images/stimuli/spore_stims/simple_11_B_a.gif","","","","","1","simple_dissimilar","images/stimuli/spore_stims/simple_11_B_a.gif","middle","","","","",""
"","null","html-keyboard-response","28","115293","0.0-11.0-0.1","SS1613143638546","","","null","","","","","<p><img src= images/blank.png width =""200"" height = ""200"" style = ""float:right""></p><p><img src=images/blank.png width =""800"" height = ""200""></p>","","","","","","","","","","","",""
"","254.77000000045518","sequential-stimulus-presentation","29","116362","0.0-11.0-1.1","SS1613143638546","trial","","40","800","1054.7700000004552","images/stimuli/spore_stims/simple_02_A_d.gif","images/stimuli/spore_stims/simple_11_B_a.gif","","","","","1","simple_dissimilar","images/stimuli/spore_stims/simple_11_B_a.gif","middle","","","","",""
"","null","html-keyboard-response","30","117462","0.0-11.0-0.2","SS1613143638546","","","null","","","","","<p><img src= images/blank.png width =""200"" height = ""200"" style = ""float:right""></p><p><img src=images/blank.png width =""800"" height = ""200""></p>","","","","","","","","","","","",""
"","794.7300000005343","sequential-stimulus-presentation","31","119081","0.0-11.0-1.2","SS1613143638546","trial","","40","800","1594.7300000005343","images/stimuli/spore_stims/simple_02_A_d.gif","images/stimuli/spore_stims/simple_11_B_a.gif","","","","","1","simple_dissimilar","images/stimuli/spore_stims/simple_11_B_a.gif","middle","","","","",""
"","null","html-keyboard-response","32","120099","0.0-11.0-0.3","SS1613143638546","","","null","","","","","<p><img src= images/blank.png width =""200"" height = ""200"" style = ""float:right""></p><p><img src=images/blank.png width =""800"" height = ""200""></p>","","","","","","","","","","","",""
"","3806.5800000003946","sequential-stimulus-presentation","33","124721","0.0-11.0-1.3","SS1613143638546","trial","","40","800","4606.580000000395","images/stimuli/spore_stims/simple_02_A_d.gif","images/stimuli/spore_stims/simple_11_B_a.gif","","","","","1","simple_dissimilar","images/stimuli/spore_stims/simple_11_B_a.gif","middle","","","","",""
"","null","html-keyboard-response","34","125983","0.0-11.0-0.4","SS1613143638546","","","null","","","","","<p><img src= images/blank.png width =""200"" height = ""200"" style = ""float:right""></p><p><img src=images/blank.png width =""800"" height = ""200""></p>","","","","","","","","","","","",""
"","666.0950000004959","sequential-stimulus-presentation","35","127463","0.0-11.0-1.4","SS1613143638546","trial","","40","800","1466.095000000496","images/stimuli/spore_stims/simple_02_A_d.gif","images/stimuli/spore_stims/simple_11_B_a.gif","","","","","1","simple_dissimilar","images/stimuli/spore_stims/simple_11_B_a.gif","middle","","","","",""
"","null","html-keyboard-response","36","128425","0.0-11.0-0.5","SS1613143638546","","","null","","","","","<p><img src= images/blank.png width =""200"" height = ""200"" style = ""float:right""></p><p><img src=images/blank.png width =""800"" height = ""200""></p>","","","","","","","","","","","",""
"","361.0849999995553","sequential-stimulus-presentation","37","129600","0.0-11.0-1.5","SS1613143638546","trial","","40","800","1161.0849999995553","images/stimuli/spore_stims/simple_02_A_d.gif","images/stimuli/spore_stims/simple_11_B_a.gif","","","","","1","simple_dissimilar","images/stimuli/spore_stims/simple_11_B_a.gif","middle","","","","",""
"","null","html-keyboard-response","38","130897","0.0-11.0-0.6","SS1613143638546","","","null","","","","","<p><img src= images/blank.png width =""200"" height = ""200"" style = ""float:right""></p><p><img src=images/blank.png width =""800"" height = ""200""></p>","","","","","","","","","","","",""
"","656.3649999998161","sequential-stimulus-presentation","39","132367","0.0-11.0-1.6","SS1613143638546","trial","","40","800","1456.364999999816","images/stimuli/spore_stims/simple_02_A_d.gif","images/stimuli/spore_stims/simple_11_B_a.gif","","","","","1","simple_dissimilar","images/stimuli/spore_stims/simple_11_B_a.gif","middle","","","","",""
"","null","html-keyboard-response","40","133501","0.0-11.0-0.7","SS1613143638546","","","null","","","","","<p><img src= images/blank.png width =""200"" height = ""200"" style = ""float:right""></p><p><img src=images/blank.png width =""800"" height = ""200""></p>","","","","","","","","","","","",""
"","468.3800000002375","sequential-stimulus-presentation","41","134783","0.0-11.0-1.7","SS1613143638546","trial","","40","800","1268.3800000002375","images/stimuli/spore_stims/simple_02_A_d.gif","images/stimuli/spore_stims/simple_11_B_a.gif","","","","","1","simple_dissimilar","images/stimuli/spore_stims/simple_02_A_d.gif","right","","","","",""
"","1618.0700000004726","html-keyboard-response","42","136416","0.0-12.0","SS1613143638546","pref_question","","98","","","","","<video width ='960' height = '540' style='padding-top:8%' autoplay muted><source src='images/stimuli/wall_pref.mp4' type='video/mp4'></video>","2","middle","45%","1","","","","","","","",""
"","861.5449999997509","sequential-stimulus-presentation","43","138094","0.0-13.0","SS1613143638546","pref_reveal","","40","800","1661.5449999997509","null","null","","","","","1","","","","background","","","",""
"","null","html-keyboard-response","44","138952","0.0-14.0-0.0","SS1613143638546","","","null","","","","","<p><img src= images/blank.png width =""200"" height = ""200"" style = ""float:right""></p><p><img src=images/blank.png width =""800"" height = ""200""></p>","","","","","","","","","","","",""
"","1797.8950000006007","sequential-stimulus-presentation","45","141590","0.0-14.0-1.0","SS1613143638546","trial","","40","800","2597.8950000006007","images/stimuli/spore_stims/complex_12_B_b.gif","images/stimuli/spore_stims/complex_12_A_b.gif","","","","","2","complex_similar","images/stimuli/spore_stims/complex_12_A_b.gif","middle","","","","",""
"","null","html-keyboard-response","46","142790","0.0-14.0-0.1","SS1613143638546","","","null","","","","","<p><img src= images/blank.png width =""200"" height = ""200"" style = ""float:right""></p><p><img src=images/blank.png width =""800"" height = ""200""></p>","","","","","","","","","","","",""
"","236.6900000006135","sequential-stimulus-presentation","47","143836","0.0-14.0-1.1","SS1613143638546","trial","","40","800","1036.6900000006135","images/stimuli/spore_stims/complex_12_B_b.gif","images/stimuli/spore_stims/complex_12_A_b.gif","","","","","2","complex_similar","images/stimuli/spore_stims/complex_12_A_b.gif","middle","","","","",""
"","null","html-keyboard-response","48","145030","0.0-14.0-0.2","SS1613143638546","","","null","","","","","<p><img src= images/blank.png width =""200"" height = ""200"" style = ""float:right""></p><p><img src=images/blank.png width =""800"" height = ""200""></p>","","","","","","","","","","","",""
"","49.474999999802094","sequential-stimulus-presentation","49","145896","0.0-14.0-1.2","SS1613143638546","trial","","40","800","849.4749999998021","images/stimuli/spore_stims/complex_12_B_b.gif","images/stimuli/spore_stims/complex_12_A_b.gif","","","","","2","complex_similar","images/stimuli/spore_stims/complex_12_A_b.gif","middle","","","","",""
"","null","html-keyboard-response","50","147104","0.0-14.0-0.3","SS1613143638546","","","null","","","","","<p><img src= images/blank.png width =""200"" height = ""200"" style = ""float:right""></p><p><img src=images/blank.png width =""800"" height = ""200""></p>","","","","","","","","","","","",""
"","7542.054999999877","sequential-stimulus-presentation","51","155462","0.0-14.0-1.3","SS1613143638546","trial","","40","800","8342.054999999877","images/stimuli/spore_stims/complex_12_B_b.gif","images/stimuli/spore_stims/complex_12_A_b.gif","","","","","2","complex_similar","images/stimuli/spore_stims/complex_12_B_b.gif","right","","","","",""
"","null","html-keyboard-response","52","156385","0.0-14.0-0.4","SS1613143638546","","","null","","","","","<p><img src= images/blank.png width =""200"" height = ""200"" style = ""float:right""></p><p><img src=images/blank.png width =""800"" height = ""200""></p>","","","","","","","","","","","",""
"","7195.090000000171","sequential-stimulus-presentation","53","164396","0.0-14.0-1.4","SS1613143638546","trial","","40","800","7995.090000000171","images/stimuli/spore_stims/complex_12_B_b.gif","images/stimuli/spore_stims/complex_12_A_b.gif","","","","","2","complex_similar","images/stimuli/spore_stims/complex_12_A_b.gif","middle","","","","",""
"","null","html-keyboard-response","54","165230","0.0-14.0-0.5","SS1613143638546","","","null","","","","","<p><img src= images/blank.png width =""200"" height = ""200"" style = ""float:right""></p><p><img src=images/blank.png width =""800"" height = ""200""></p>","","","","","","","","","","","",""
"","508.25999999960186","sequential-stimulus-presentation","55","166556","0.0-14.0-1.5","SS1613143638546","trial","","40","800","1308.2599999996019","images/stimuli/spore_stims/complex_12_B_b.gif","images/stimuli/spore_stims/complex_12_A_b.gif","","","","","2","complex_similar","images/stimuli/spore_stims/complex_12_A_b.gif","middle","","","","",""
"","null","html-keyboard-response","56","167446","0.0-14.0-0.6","SS1613143638546","","","null","","","","","<p><img src= images/blank.png width =""200"" height = ""200"" style = ""float:right""></p><p><img src=images/blank.png width =""800"" height = ""200""></p>","","","","","","","","","","","",""
"","632.029999999766","sequential-stimulus-presentation","57","168914","0.0-14.0-1.6","SS1613143638546","trial","","40","800","1432.029999999766","images/stimuli/spore_stims/complex_12_B_b.gif","images/stimuli/spore_stims/complex_12_A_b.gif","","","","","2","complex_similar","images/stimuli/spore_stims/complex_12_A_b.gif","middle","","","","",""
"","null","html-keyboard-response","58","170193","0.0-14.0-0.7","SS1613143638546","","","null","","","","","<p><img src= images/blank.png width =""200"" height = ""200"" style = ""float:right""></p><p><img src=images/blank.png width =""800"" height = ""200""></p>","","","","","","","","","","","",""
"","620.8550000000978","sequential-stimulus-presentation","59","171627","0.0-14.0-1.7","SS1613143638546","trial","","40","800","1420.8550000000978","images/stimuli/spore_stims/complex_12_B_b.gif","images/stimuli/spore_stims/complex_12_A_b.gif","","","","","2","complex_similar","images/stimuli/spore_stims/complex_12_A_b.gif","middle","","","","",""
"","8113.229999999923","html-keyboard-response","60","179757","0.0-15.0","SS1613143638546","pref_question","","97","","","","","<video width ='960' height = '540' style='padding-top:8%' autoplay muted><source src='images/stimuli/wall_pref.mp4' type='video/mp4'></video>","1","left","25%","2","","","","","","","",""
"","1003.1600000002072","sequential-stimulus-presentation","61","181579","0.0-16.0","SS1613143638546","pref_reveal","","40","800","1803.1600000002072","null","null","","","","","2","","","","novel","","","",""
"","null","html-keyboard-response","62","182470","0.0-17.0-0.0","SS1613143638546","","","null","","","","","<p><img src= images/blank.png width =""200"" height = ""200"" style = ""float:right""></p><p><img src=images/blank.png width =""800"" height = ""200""></p>","","","","","","","","","","","",""
"","528.7299999999814","sequential-stimulus-presentation","63","183816","0.0-17.0-1.0","SS1613143638546","trial","","40","800","1328.7299999999814","images/stimuli/spore_stims/simple_02_B_a.gif","images/stimuli/spore_stims/simple_08_A_d.gif","","","","","3","simple_dissimilar","images/stimuli/spore_stims/simple_08_A_d.gif","middle","","","","",""
"","null","html-keyboard-response","64","184694","0.0-17.0-0.1","SS1613143638546","","","null","","","","","<p><img src= images/blank.png width =""200"" height = ""200"" style = ""float:right""></p><p><img src=images/blank.png width =""800"" height = ""200""></p>","","","","","","","","","","","",""
"","10569.774999999936","sequential-stimulus-presentation","65","196080","0.0-17.0-1.1","SS1613143638546","trial","","40","800","11369.774999999936","images/stimuli/spore_stims/simple_02_B_a.gif","images/stimuli/spore_stims/simple_08_A_d.gif","","","","","3","simple_dissimilar","images/stimuli/spore_stims/simple_08_A_d.gif","middle","","","","",""
"","null","html-keyboard-response","66","197061","0.0-17.0-0.2","SS1613143638546","","","null","","","","","<p><img src= images/blank.png width =""200"" height = ""200"" style = ""float:right""></p><p><img src=images/blank.png width =""800"" height = ""200""></p>","","","","","","","","","","","",""
"","285.2499999999127","sequential-stimulus-presentation","67","198167","0.0-17.0-1.2","SS1613143638546","trial","","40","800","1085.2499999999127","images/stimuli/spore_stims/simple_02_B_a.gif","images/stimuli/spore_stims/simple_08_A_d.gif","","","","","3","simple_dissimilar","images/stimuli/spore_stims/simple_08_A_d.gif","middle","","","","",""
"","null","html-keyboard-response","68","199480","0.0-17.0-0.3","SS1613143638546","","","null","","","","","<p><img src= images/blank.png width =""200"" height = ""200"" style = ""float:right""></p><p><img src=images/blank.png width =""800"" height = ""200""></p>","","","","","","","","","","","",""
"","363.9800000000978","sequential-stimulus-presentation","69","200662","0.0-17.0-1.3","SS1613143638546","trial","","40","800","1163.9800000000978","images/stimuli/spore_stims/simple_02_B_a.gif","images/stimuli/spore_stims/simple_08_A_d.gif","","","","","3","simple_dissimilar","images/stimuli/spore_stims/simple_02_B_a.gif","right","","","","",""
"","null","html-keyboard-response","70","201486","0.0-17.0-0.4","SS1613143638546","","","null","","","","","<p><img src= images/blank.png width =""200"" height = ""200"" style = ""float:right""></p><p><img src=images/blank.png width =""800"" height = ""200""></p>","","","","","","","","","","","",""
"","183.30000000059954","sequential-stimulus-presentation","71","202486","0.0-17.0-1.4","SS1613143638546","trial","","40","800","983.3000000005995","images/stimuli/spore_stims/simple_02_B_a.gif","images/stimuli/spore_stims/simple_08_A_d.gif","","","","","3","simple_dissimilar","images/stimuli/spore_stims/simple_08_A_d.gif","middle","","","","",""
"","null","html-keyboard-response","72","203309","0.0-17.0-0.5","SS1613143638546","","","null","","","","","<p><img src= images/blank.png width =""200"" height = ""200"" style = ""float:right""></p><p><img src=images/blank.png width =""800"" height = ""200""></p>","","","","","","","","","","","",""
"","542.6050000005343","sequential-stimulus-presentation","73","204669","0.0-17.0-1.5","SS1613143638546","trial","","40","800","1342.6050000005343","images/stimuli/spore_stims/simple_02_B_a.gif","images/stimuli/spore_stims/simple_08_A_d.gif","","","","","3","simple_dissimilar","images/stimuli/spore_stims/simple_08_A_d.gif","middle","","","","",""
"","null","html-keyboard-response","74","205720","0.0-17.0-0.6","SS1613143638546","","","null","","","","","<p><img src= images/blank.png width =""200"" height = ""200"" style = ""float:right""></p><p><img src=images/blank.png width =""800"" height = ""200""></p>","","","","","","","","","","","",""
"","478.05000000059954","sequential-stimulus-presentation","75","207016","0.0-17.0-1.6","SS1613143638546","trial","","40","800","1278.0500000005995","images/stimuli/spore_stims/simple_02_B_a.gif","images/stimuli/spore_stims/simple_08_A_d.gif","","","","","3","simple_dissimilar","images/stimuli/spore_stims/simple_08_A_d.gif","middle","","","","",""
"","null","html-keyboard-response","76","207965","0.0-17.0-0.7","SS1613143638546","","","null","","","","","<p><img src= images/blank.png width =""200"" height = ""200"" style = ""float:right""></p><p><img src=images/blank.png width =""800"" height = ""200""></p>","","","","","","","","","","","",""
"","664.890000000014","sequential-stimulus-presentation","77","209446","0.0-17.0-1.7","SS1613143638546","trial","","40","800","1464.890000000014","images/stimuli/spore_stims/simple_02_B_a.gif","images/stimuli/spore_stims/simple_08_A_d.gif","","","","","3","simple_dissimilar","images/stimuli/spore_stims/simple_08_A_d.gif","middle","","","","",""
"","2237.149999999936","html-keyboard-response","78","211694","0.0-18.0","SS1613143638546","pref_question","","98","","","","","<video width ='960' height = '540' style='padding-top:8%' autoplay muted><source src='images/stimuli/wall_pref.mp4' type='video/mp4'></video>","2","middle","45%","3","","","","","","","",""
"","862.5200000006007","sequential-stimulus-presentation","79","213367","0.0-19.0","SS1613143638546","pref_reveal","","40","800","1662.5200000006007","null","null","","","","","3","","","","background","","","",""
"","null","html-keyboard-response","80","214479","0.0-20.0-0.0","SS1613143638546","","","null","","","","","<p><img src= images/blank.png width =""200"" height = ""200"" style = ""float:right""></p><p><img src=images/blank.png width =""800"" height = ""200""></p>","","","","","","","","","","","",""
"","287.6249999999418","sequential-stimulus-presentation","81","215590","0.0-20.0-1.0","SS1613143638546","trial","","40","800","1087.6249999999418","images/stimuli/spore_stims/complex_19_A_d.gif","images/stimuli/spore_stims/complex_08_A_b.gif","","","","","4","complex_dissimilar","images/stimuli/spore_stims/complex_08_A_b.gif","middle","","","","",""
"","null","html-keyboard-response","82","216649","0.0-20.0-0.1","SS1613143638546","","","null","","","","","<p><img src= images/blank.png width =""200"" height = ""200"" style = ""float:right""></p><p><img src=images/blank.png width =""800"" height = ""200""></p>","","","","","","","","","","","",""
"","244.24499999987893","sequential-stimulus-presentation","83","217710","0.0-20.0-1.1","SS1613143638546","trial","","40","800","1044.244999999879","images/stimuli/spore_stims/complex_19_A_d.gif","images/stimuli/spore_stims/complex_08_A_b.gif","","","","","4","complex_dissimilar","images/stimuli/spore_stims/complex_08_A_b.gif","middle","","","","",""
"","null","html-keyboard-response","84","218748","0.0-20.0-0.2","SS1613143638546","","","null","","","","","<p><img src= images/blank.png width =""200"" height = ""200"" style = ""float:right""></p><p><img src=images/blank.png width =""800"" height = ""200""></p>","","","","","","","","","","","",""
"","686.9299999998184","sequential-stimulus-presentation","85","220253","0.0-20.0-1.2","SS1613143638546","trial","","40","800","1486.9299999998184","images/stimuli/spore_stims/complex_19_A_d.gif","images/stimuli/spore_stims/complex_08_A_b.gif","","","","","4","complex_dissimilar","images/stimuli/spore_stims/complex_08_A_b.gif","middle","","","","",""
"","null","html-keyboard-response","86","221373","0.0-20.0-0.3","SS1613143638546","","","null","","","","","<p><img src= images/blank.png width =""200"" height = ""200"" style = ""float:right""></p><p><img src=images/blank.png width =""800"" height = ""200""></p>","","","","","","","","","","","",""
"","2.9249999997846317","sequential-stimulus-presentation","87","222215","0.0-20.0-1.3","SS1613143638546","trial","","40","800","802.9249999997846","images/stimuli/spore_stims/complex_19_A_d.gif","images/stimuli/spore_stims/complex_08_A_b.gif","","","","","4","complex_dissimilar","images/stimuli/spore_stims/complex_08_A_b.gif","middle","","","","",""
"","null","html-keyboard-response","88","223075","0.0-20.0-0.4","SS1613143638546","","","null","","","","","<p><img src= images/blank.png width =""200"" height = ""200"" style = ""float:right""></p><p><img src=images/blank.png width =""800"" height = ""200""></p>","","","","","","","","","","","",""
"","40.39500000001863","sequential-stimulus-presentation","89","223933","0.0-20.0-1.4","SS1613143638546","trial","","40","800","840.3950000000186","images/stimuli/spore_stims/complex_19_A_d.gif","images/stimuli/spore_stims/complex_08_A_b.gif","","","","","4","complex_dissimilar","images/stimuli/spore_stims/complex_08_A_b.gif","middle","","","","",""
"","null","html-keyboard-response","90","224768","0.0-20.0-0.5","SS1613143638546","","","null","","","","","<p><img src= images/blank.png width =""200"" height = ""200"" style = ""float:right""></p><p><img src=images/blank.png width =""800"" height = ""200""></p>","","","","","","","","","","","",""
"","1010.5899999998801","sequential-stimulus-presentation","91","226596","0.0-20.0-1.5","SS1613143638546","trial","","40","800","1810.58999999988","images/stimuli/spore_stims/complex_19_A_d.gif","images/stimuli/spore_stims/complex_08_A_b.gif","","","","","4","complex_dissimilar","images/stimuli/spore_stims/complex_19_A_d.gif","right","","","","",""
"","null","html-keyboard-response","92","227525","0.0-20.0-0.6","SS1613143638546","","","null","","","","","<p><img src= images/blank.png width =""200"" height = ""200"" style = ""float:right""></p><p><img src=images/blank.png width =""800"" height = ""200""></p>","","","","","","","","","","","",""
"","270.5649999998277","sequential-stimulus-presentation","93","228613","0.0-20.0-1.6","SS1613143638546","trial","","40","800","1070.5649999998277","images/stimuli/spore_stims/complex_19_A_d.gif","images/stimuli/spore_stims/complex_08_A_b.gif","","","","","4","complex_dissimilar","images/stimuli/spore_stims/complex_08_A_b.gif","middle","","","","",""
"","null","html-keyboard-response","94","229849","0.0-20.0-0.7","SS1613143638546","","","null","","","","","<p><img src= images/blank.png width =""200"" height = ""200"" style = ""float:right""></p><p><img src=images/blank.png width =""800"" height = ""200""></p>","","","","","","","","","","","",""
"","87.44000000023516","sequential-stimulus-presentation","95","230756","0.0-20.0-1.7","SS1613143638546","trial","","40","800","887.4400000002352","images/stimuli/spore_stims/complex_19_A_d.gif","images/stimuli/spore_stims/complex_08_A_b.gif","","","","","4","complex_dissimilar","images/stimuli/spore_stims/complex_08_A_b.gif","middle","","","","",""
"","3820.51999999932","html-keyboard-response","96","234596","0.0-21.0","SS1613143638546","pref_question","","99","","","","","<video width ='960' height = '540' style='padding-top:8%' autoplay muted><source src='images/stimuli/wall_pref.mp4' type='video/mp4'></video>","3","right","66%","4","","","","","","","",""
"","553.055000000284","sequential-stimulus-presentation","97","235970","0.0-22.0","SS1613143638546","pref_reveal","","40","800","1353.055000000284","null","null","","","","","4","","","","deviant","","","",""
"","null","html-keyboard-response","98","237036","0.0-23.0-0.0","SS1613143638546","","","null","","","","","<p><img src= images/blank.png width =""200"" height = ""200"" style = ""float:right""></p><p><img src=images/blank.png width =""800"" height = ""200""></p>","","","","","","","","","","","",""
"","185.68999999930384","sequential-stimulus-presentation","99","238042","0.0-23.0-1.0","SS1613143638546","trial","","40","800","985.6899999993038","images/stimuli/spore_stims/simple_13_B_b.gif","images/stimuli/spore_stims/simple_13_A_b.gif","","","","","5","simple_similar","images/stimuli/spore_stims/simple_13_A_b.gif","left","","","","",""
"","null","html-keyboard-response","100","238967","0.0-23.0-0.1","SS1613143638546","","","null","","","","","<p><img src= images/blank.png width =""200"" height = ""200"" style = ""float:right""></p><p><img src=images/blank.png width =""800"" height = ""200""></p>","","","","","","","","","","","",""
"","54.79500000004191","sequential-stimulus-presentation","101","239842","0.0-23.0-1.1","SS1613143638546","trial","","40","800","854.7950000000419","images/stimuli/spore_stims/simple_13_B_b.gif","images/stimuli/spore_stims/simple_13_A_b.gif","","","","","5","simple_similar","images/stimuli/spore_stims/simple_13_A_b.gif","left","","","","",""
"","null","html-keyboard-response","102","240844","0.0-23.0-0.2","SS1613143638546","","","null","","","","","<p><img src= images/blank.png width =""200"" height = ""200"" style = ""float:right""></p><p><img src=images/blank.png width =""800"" height = ""200""></p>","","","","","","","","","","","",""
"","1889.7100000004284","sequential-stimulus-presentation","103","243553","0.0-23.0-1.2","SS1613143638546","trial","","40","800","2689.7100000004284","images/stimuli/spore_stims/simple_13_B_b.gif","images/stimuli/spore_stims/simple_13_A_b.gif","","","","","5","simple_similar","images/stimuli/spore_stims/simple_13_A_b.gif","left","","","","",""
"","null","html-keyboard-response","104","244548","0.0-23.0-0.3","SS1613143638546","","","null","","","","","<p><img src= images/blank.png width =""200"" height = ""200"" style = ""float:right""></p><p><img src=images/blank.png width =""800"" height = ""200""></p>","","","","","","","","","","","",""
"","1879.8650000008056","sequential-stimulus-presentation","105","247248","0.0-23.0-1.3","SS1613143638546","trial","","40","800","2679.8650000008056","images/stimuli/spore_stims/simple_13_B_b.gif","images/stimuli/spore_stims/simple_13_A_b.gif","","","","","5","simple_similar","images/stimuli/spore_stims/simple_13_A_b.gif","left","","","","",""
"","null","html-keyboard-response","106","248261","0.0-23.0-0.4","SS1613143638546","","","null","","","","","<p><img src= images/blank.png width =""200"" height = ""200"" style = ""float:right""></p><p><img src=images/blank.png width =""800"" height = ""200""></p>","","","","","","","","","","","",""
"","326.8799999995972","sequential-stimulus-presentation","107","249408","0.0-23.0-1.4","SS1613143638546","trial","","40","800","1126.8799999995972","images/stimuli/spore_stims/simple_13_B_b.gif","images/stimuli/spore_stims/simple_13_A_b.gif","","","","","5","simple_similar","images/stimuli/spore_stims/simple_13_A_b.gif","left","","","","",""
"","null","html-keyboard-response","108","250656","0.0-23.0-0.5","SS1613143638546","","","null","","","","","<p><img src= images/blank.png width =""200"" height = ""200"" style = ""float:right""></p><p><img src=images/blank.png width =""800"" height = ""200""></p>","","","","","","","","","","","",""
"","1179.6999999996624","sequential-stimulus-presentation","109","252656","0.0-23.0-1.5","SS1613143638546","trial","","40","800","1979.6999999996624","images/stimuli/spore_stims/simple_13_B_b.gif","images/stimuli/spore_stims/simple_13_A_b.gif","","","","","5","simple_similar","images/stimuli/spore_stims/simple_13_A_b.gif","left","","","","",""
"","null","html-keyboard-response","110","253647","0.0-23.0-0.6","SS1613143638546","","","null","","","","","<p><img src= images/blank.png width =""200"" height = ""200"" style = ""float:right""></p><p><img src=images/blank.png width =""800"" height = ""200""></p>","","","","","","","","","","","",""
"","355.660000000149","sequential-stimulus-presentation","111","254823","0.0-23.0-1.6","SS1613143638546","trial","","40","800","1155.660000000149","images/stimuli/spore_stims/simple_13_B_b.gif","images/stimuli/spore_stims/simple_13_A_b.gif","","","","","5","simple_similar","images/stimuli/spore_stims/simple_13_A_b.gif","left","","","","",""
"","null","html-keyboard-response","112","255702","0.0-23.0-0.7","SS1613143638546","","","null","","","","","<p><img src= images/blank.png width =""200"" height = ""200"" style = ""float:right""></p><p><img src=images/blank.png width =""800"" height = ""200""></p>","","","","","","","","","","","",""
"","983.9700000002049","sequential-stimulus-presentation","113","257526","0.0-23.0-1.7","SS1613143638546","trial","","40","800","1783.970000000205","images/stimuli/spore_stims/simple_13_B_b.gif","images/stimuli/spore_stims/simple_13_A_b.gif","","","","","5","simple_similar","images/stimuli/spore_stims/simple_13_B_b.gif","right","","","","",""
"","2524.3000000000466","html-keyboard-response","114","260070","0.0-24.0","SS1613143638546","pref_question","","97","","","","","<video width ='960' height = '540' style='padding-top:8%' autoplay muted><source src='images/stimuli/wall_pref.mp4' type='video/mp4'></video>","1","left","25%","5","","","","","","","",""
"","1260.3600000002189","sequential-stimulus-presentation","115","262150","0.0-25.0","SS1613143638546","pref_reveal","","40","800","2060.360000000219","null","null","","","","","5","","","","background","","","",""
"","null","html-keyboard-response","116","263052","0.0-26.0-0.0","SS1613143638546","","","null","","","","","<p><img src= images/blank.png width =""200"" height = ""200"" style = ""float:right""></p><p><img src=images/blank.png width =""800"" height = ""200""></p>","","","","","","","","","","","",""
"","188.7849999993923","sequential-stimulus-presentation","117","264063","0.0-26.0-1.0","SS1613143638546","trial","","40","800","988.7849999993923","images/stimuli/spore_stims/complex_10_B_c.gif","images/stimuli/spore_stims/complex_10_A_c.gif","","","","","6","complex_similar","images/stimuli/spore_stims/complex_10_A_c.gif","left","","","","",""
"","null","html-keyboard-response","118","264912","0.0-26.0-0.1","SS1613143638546","","","null","","","","","<p><img src= images/blank.png width =""200"" height = ""200"" style = ""float:right""></p><p><img src=images/blank.png width =""800"" height = ""200""></p>","","","","","","","","","","","",""
"","1348.1649999994552","sequential-stimulus-presentation","119","267103","0.0-26.0-1.1","SS1613143638546","trial","","40","800","2148.164999999455","images/stimuli/spore_stims/complex_10_B_c.gif","images/stimuli/spore_stims/complex_10_A_c.gif","","","","","6","complex_similar","images/stimuli/spore_stims/complex_10_A_c.gif","left","","","","",""
"","null","html-keyboard-response","120","268416","0.0-26.0-0.2","SS1613143638546","","","null","","","","","<p><img src= images/blank.png width =""200"" height = ""200"" style = ""float:right""></p><p><img src=images/blank.png width =""800"" height = ""200""></p>","","","","","","","","","","","",""
"","3317.180000000051","sequential-stimulus-presentation","121","272557","0.0-26.0-1.2","SS1613143638546","trial","","40","800","4117.180000000051","images/stimuli/spore_stims/complex_10_B_c.gif","images/stimuli/spore_stims/complex_10_A_c.gif","","","","","6","complex_similar","images/stimuli/spore_stims/complex_10_A_c.gif","left","","","","",""
"","null","html-keyboard-response","122","273372","0.0-26.0-0.3","SS1613143638546","","","null","","","","","<p><img src= images/blank.png width =""200"" height = ""200"" style = ""float:right""></p><p><img src=images/blank.png width =""800"" height = ""200""></p>","","","","","","","","","","","",""
"","1339.6400000001304","sequential-stimulus-presentation","123","275526","0.0-26.0-1.3","SS1613143638546","trial","","40","800","2139.6400000001304","images/stimuli/spore_stims/complex_10_B_c.gif","images/stimuli/spore_stims/complex_10_A_c.gif","","","","","6","complex_similar","images/stimuli/spore_stims/complex_10_A_c.gif","left","","","","",""
"","null","html-keyboard-response","124","276422","0.0-26.0-0.4","SS1613143638546","","","null","","","","","<p><img src= images/blank.png width =""200"" height = ""200"" style = ""float:right""></p><p><img src=images/blank.png width =""800"" height = ""200""></p>","","","","","","","","","","","",""
"","79.10499999980675","sequential-stimulus-presentation","125","277318","0.0-26.0-1.4","SS1613143638546","trial","","40","800","879.1049999998068","images/stimuli/spore_stims/complex_10_B_c.gif","images/stimuli/spore_stims/complex_10_A_c.gif","","","","","6","complex_similar","images/stimuli/spore_stims/complex_10_A_c.gif","left","","","","",""
"","null","html-keyboard-response","126","278392","0.0-26.0-0.5","SS1613143638546","","","null","","","","","<p><img src= images/blank.png width =""200"" height = ""200"" style = ""float:right""></p><p><img src=images/blank.png width =""800"" height = ""200""></p>","","","","","","","","","","","",""
"","360.3149999999441","sequential-stimulus-presentation","127","279597","0.0-26.0-1.5","SS1613143638546","trial","","40","800","1160.3149999999441","images/stimuli/spore_stims/complex_10_B_c.gif","images/stimuli/spore_stims/complex_10_A_c.gif","","","","","6","complex_similar","images/stimuli/spore_stims/complex_10_A_c.gif","left","","","","",""
"","null","html-keyboard-response","128","280827","0.0-26.0-0.6","SS1613143638546","","","null","","","","","<p><img src= images/blank.png width =""200"" height = ""200"" style = ""float:right""></p><p><img src=images/blank.png width =""800"" height = ""200""></p>","","","","","","","","","","","",""
"","197.6049999993993","sequential-stimulus-presentation","129","281845","0.0-26.0-1.6","SS1613143638546","trial","","40","800","997.6049999993993","images/stimuli/spore_stims/complex_10_B_c.gif","images/stimuli/spore_stims/complex_10_A_c.gif","","","","","6","complex_similar","images/stimuli/spore_stims/complex_10_A_c.gif","left","","","","",""
"","null","html-keyboard-response","130","283000","0.0-26.0-0.7","SS1613143638546","","","null","","","","","<p><img src= images/blank.png width =""200"" height = ""200"" style = ""float:right""></p><p><img src=images/blank.png width =""800"" height = ""200""></p>","","","","","","","","","","","",""
"","2206.8099999996484","sequential-stimulus-presentation","131","286029","0.0-26.0-1.7","SS1613143638546","trial","","40","800","3006.8099999996484","images/stimuli/spore_stims/complex_10_B_c.gif","images/stimuli/spore_stims/complex_10_A_c.gif","","","","","6","complex_similar","images/stimuli/spore_stims/complex_10_B_c.gif","middle","","","","",""
"","2014.4399999999441","html-keyboard-response","132","288085","0.0-27.0","SS1613143638546","pref_question","","98","","","","","<video width ='960' height = '540' style='padding-top:8%' autoplay muted><source src='images/stimuli/wall_pref.mp4' type='video/mp4'></video>","2","middle","45%","6","","","","","","","",""
"","6382.474999999453","sequential-stimulus-presentation","133","295291","0.0-28.0","SS1613143638546","pref_reveal","","40","800","7182.474999999453","null","null","","","","","6","","","","deviant","","","",""
"","null","html-keyboard-response","134","296108","0.0-29.0-0.0","SS1613143638546","","","null","","","","","<p><img src= images/blank.png width =""200"" height = ""200"" style = ""float:right""></p><p><img src=images/blank.png width =""800"" height = ""200""></p>","","","","","","","","","","","",""
"","2344.2799999993877","sequential-stimulus-presentation","135","299274","0.0-29.0-1.0","SS1613143638546","trial","","40","800","3144.2799999993877","images/stimuli/spore_stims/simple_20_A_a.gif","images/stimuli/spore_stims/simple_20_B_a.gif","","","","","7","simple_similar","images/stimuli/spore_stims/simple_20_B_a.gif","right","","","","",""
"","null","html-keyboard-response","136","300354","0.0-29.0-0.1","SS1613143638546","","","null","","","","","<p><img src= images/blank.png width =""200"" height = ""200"" style = ""float:right""></p><p><img src=images/blank.png width =""800"" height = ""200""></p>","","","","","","","","","","","",""
"","650.7149999997346","sequential-stimulus-presentation","137","301825","0.0-29.0-1.1","SS1613143638546","trial","","40","800","1450.7149999997346","images/stimuli/spore_stims/simple_20_A_a.gif","images/stimuli/spore_stims/simple_20_B_a.gif","","","","","7","simple_similar","images/stimuli/spore_stims/simple_20_B_a.gif","right","","","","",""
"","null","html-keyboard-response","138","302823","0.0-29.0-0.2","SS1613143638546","","","null","","","","","<p><img src= images/blank.png width =""200"" height = ""200"" style = ""float:right""></p><p><img src=images/blank.png width =""800"" height = ""200""></p>","","","","","","","","","","","",""
"","1027.420000000333","sequential-stimulus-presentation","139","304673","0.0-29.0-1.2","SS1613143638546","trial","","40","800","1827.420000000333","images/stimuli/spore_stims/simple_20_A_a.gif","images/stimuli/spore_stims/simple_20_B_a.gif","","","","","7","simple_similar","images/stimuli/spore_stims/simple_20_A_a.gif","left","","","","",""
"","null","html-keyboard-response","140","305652","0.0-29.0-0.3","SS1613143638546","","","null","","","","","<p><img src= images/blank.png width =""200"" height = ""200"" style = ""float:right""></p><p><img src=images/blank.png width =""800"" height = ""200""></p>","","","","","","","","","","","",""
"","327.19499999983236","sequential-stimulus-presentation","141","306800","0.0-29.0-1.3","SS1613143638546","trial","","40","800","1127.1949999998324","images/stimuli/spore_stims/simple_20_A_a.gif","images/stimuli/spore_stims/simple_20_B_a.gif","","","","","7","simple_similar","images/stimuli/spore_stims/simple_20_B_a.gif","right","","","","",""
"","null","html-keyboard-response","142","307680","0.0-29.0-0.4","SS1613143638546","","","null","","","","","<p><img src= images/blank.png width =""200"" height = ""200"" style = ""float:right""></p><p><img src=images/blank.png width =""800"" height = ""200""></p>","","","","","","","","","","","",""
"","24210.444999999716","sequential-stimulus-presentation","143","332726","0.0-29.0-1.4","SS1613143638546","trial","","40","800","25010.444999999716","images/stimuli/spore_stims/simple_20_A_a.gif","images/stimuli/spore_stims/simple_20_B_a.gif","","","","","7","simple_similar","images/stimuli/spore_stims/simple_20_B_a.gif","right","","","","",""
"","null","html-keyboard-response","144","333989","0.0-29.0-0.5","SS1613143638546","","","null","","","","","<p><img src= images/blank.png width =""200"" height = ""200"" style = ""float:right""></p><p><img src=images/blank.png width =""800"" height = ""200""></p>","","","","","","","","","","","",""
"","1342.920000000042","sequential-stimulus-presentation","145","336157","0.0-29.0-1.5","SS1613143638546","trial","","40","800","2142.920000000042","images/stimuli/spore_stims/simple_20_A_a.gif","images/stimuli/spore_stims/simple_20_B_a.gif","","","","","7","simple_similar","images/stimuli/spore_stims/simple_20_B_a.gif","right","","","","",""
"","null","html-keyboard-response","146","337059","0.0-29.0-0.6","SS1613143638546","","","null","","","","","<p><img src= images/blank.png width =""200"" height = ""200"" style = ""float:right""></p><p><img src=images/blank.png width =""800"" height = ""200""></p>","","","","","","","","","","","",""
"","570.980000000447","sequential-stimulus-presentation","147","338452","0.0-29.0-1.6","SS1613143638546","trial","","40","800","1370.980000000447","images/stimuli/spore_stims/simple_20_A_a.gif","images/stimuli/spore_stims/simple_20_B_a.gif","","","","","7","simple_similar","images/stimuli/spore_stims/simple_20_B_a.gif","right","","","","",""
"","null","html-keyboard-response","148","339720","0.0-29.0-0.7","SS1613143638546","","","null","","","","","<p><img src= images/blank.png width =""200"" height = ""200"" style = ""float:right""></p><p><img src=images/blank.png width =""800"" height = ""200""></p>","","","","","","","","","","","",""
"","1048.8800000002957","sequential-stimulus-presentation","149","341588","0.0-29.0-1.7","SS1613143638546","trial","","40","800","1848.8800000002957","images/stimuli/spore_stims/simple_20_A_a.gif","images/stimuli/spore_stims/simple_20_B_a.gif","","","","","7","simple_similar","images/stimuli/spore_stims/simple_20_B_a.gif","right","","","","",""
"","2242.360000000219","html-keyboard-response","150","343852","0.0-30.0","SS1613143638546","pref_question","","98","","","","","<video width ='960' height = '540' style='padding-top:8%' autoplay muted><source src='images/stimuli/wall_pref.mp4' type='video/mp4'></video>","2","middle","45%","7","","","","","","","",""
"","2622.2349999998696","sequential-stimulus-presentation","151","347301","0.0-31.0","SS1613143638546","pref_reveal","","40","800","3422.2349999998696","null","null","","","","","7","","","","novel","","","",""
"","null","html-keyboard-response","152","348613","0.0-32.0-0.0","SS1613143638546","","","null","","","","","<p><img src= images/blank.png width =""200"" height = ""200"" style = ""float:right""></p><p><img src=images/blank.png width =""800"" height = ""200""></p>","","","","","","","","","","","",""
"","558.3549999992247","sequential-stimulus-presentation","153","349995","0.0-32.0-1.0","SS1613143638546","trial","","40","800","1358.3549999992247","images/stimuli/spore_stims/simple_10_B_c.gif","images/stimuli/spore_stims/simple_10_A_c.gif","","","","","8","simple_similar","images/stimuli/spore_stims/simple_10_A_c.gif","middle","","","","",""
"","null","html-keyboard-response","154","351306","0.0-32.0-0.1","SS1613143638546","","","null","","","","","<p><img src= images/blank.png width =""200"" height = ""200"" style = ""float:right""></p><p><img src=images/blank.png width =""800"" height = ""200""></p>","","","","","","","","","","","",""
"","2651.7249999996857","sequential-stimulus-presentation","155","354801","0.0-32.0-1.1","SS1613143638546","trial","","40","800","3451.7249999996857","images/stimuli/spore_stims/simple_10_B_c.gif","images/stimuli/spore_stims/simple_10_A_c.gif","","","","","8","simple_similar","images/stimuli/spore_stims/simple_10_A_c.gif","middle","","","","",""
"","null","html-keyboard-response","156","356018","0.0-32.0-0.2","SS1613143638546","","","null","","","","","<p><img src= images/blank.png width =""200"" height = ""200"" style = ""float:right""></p><p><img src=images/blank.png width =""800"" height = ""200""></p>","","","","","","","","","","","",""
"","5062.615000000747","sequential-stimulus-presentation","157","361904","0.0-32.0-1.2","SS1613143638546","trial","","40","800","5862.615000000747","images/stimuli/spore_stims/simple_10_B_c.gif","images/stimuli/spore_stims/simple_10_A_c.gif","","","","","8","simple_similar","images/stimuli/spore_stims/simple_10_A_c.gif","middle","","","","",""
"","null","html-keyboard-response","158","362875","0.0-32.0-0.3","SS1613143638546","","","null","","","","","<p><img src= images/blank.png width =""200"" height = ""200"" style = ""float:right""></p><p><img src=images/blank.png width =""800"" height = ""200""></p>","","","","","","","","","","","",""
"","581.8650000001071","sequential-stimulus-presentation","159","364281","0.0-32.0-1.3","SS1613143638546","trial","","40","800","1381.865000000107","images/stimuli/spore_stims/simple_10_B_c.gif","images/stimuli/spore_stims/simple_10_A_c.gif","","","","","8","simple_similar","images/stimuli/spore_stims/simple_10_A_c.gif","middle","","","","",""
"","null","html-keyboard-response","160","365358","0.0-32.0-0.4","SS1613143638546","","","null","","","","","<p><img src= images/blank.png width =""200"" height = ""200"" style = ""float:right""></p><p><img src=images/blank.png width =""800"" height = ""200""></p>","","","","","","","","","","","",""
"","2747.7900000003283","sequential-stimulus-presentation","161","368928","0.0-32.0-1.4","SS1613143638546","trial","","40","800","3547.7900000003283","images/stimuli/spore_stims/simple_10_B_c.gif","images/stimuli/spore_stims/simple_10_A_c.gif","","","","","8","simple_similar","images/stimuli/spore_stims/simple_10_A_c.gif","middle","","","","",""
"","null","html-keyboard-response","162","370120","0.0-32.0-0.5","SS1613143638546","","","null","","","","","<p><img src= images/blank.png width =""200"" height = ""200"" style = ""float:right""></p><p><img src=images/blank.png width =""800"" height = ""200""></p>","","","","","","","","","","","",""
"","310.21499999950174","sequential-stimulus-presentation","163","371255","0.0-32.0-1.5","SS1613143638546","trial","","40","800","1110.2149999995017","images/stimuli/spore_stims/simple_10_B_c.gif","images/stimuli/spore_stims/simple_10_A_c.gif","","","","","8","simple_similar","images/stimuli/spore_stims/simple_10_A_c.gif","middle","","","","",""
"","null","html-keyboard-response","164","372193","0.0-32.0-0.6","SS1613143638546","","","null","","","","","<p><img src= images/blank.png width =""200"" height = ""200"" style = ""float:right""></p><p><img src=images/blank.png width =""800"" height = ""200""></p>","","","","","","","","","","","",""
"","641.9399999994785","sequential-stimulus-presentation","165","373671","0.0-32.0-1.6","SS1613143638546","trial","","40","800","1441.9399999994785","images/stimuli/spore_stims/simple_10_B_c.gif","images/stimuli/spore_stims/simple_10_A_c.gif","","","","","8","simple_similar","images/stimuli/spore_stims/simple_10_A_c.gif","middle","","","","",""
"","null","html-keyboard-response","166","374791","0.0-32.0-0.7","SS1613143638546","","","null","","","","","<p><img src= images/blank.png width =""200"" height = ""200"" style = ""float:right""></p><p><img src=images/blank.png width =""800"" height = ""200""></p>","","","","","","","","","","","",""
"","969.5950000004959","sequential-stimulus-presentation","167","376582","0.0-32.0-1.7","SS1613143638546","trial","","40","800","1769.595000000496","images/stimuli/spore_stims/simple_10_B_c.gif","images/stimuli/spore_stims/simple_10_A_c.gif","","","","","8","simple_similar","images/stimuli/spore_stims/simple_10_B_c.gif","left","","","","",""
"","4992.560000000638","html-keyboard-response","168","381592","0.0-33.0","SS1613143638546","pref_question","","98","","","","","<video width ='960' height = '540' style='padding-top:8%' autoplay muted><source src='images/stimuli/wall_pref.mp4' type='video/mp4'></video>","2","middle","45%","8","","","","","","","",""
"","1470.3699999999953","sequential-stimulus-presentation","169","383886","0.0-34.0","SS1613143638546","pref_reveal","","40","800","2270.3699999999953","null","null","","","","","8","","","","background","","","",""
"","null","html-keyboard-response","170","385151","0.0-35.0-0.0","SS1613143638546","","","null","","","","","<p><img src= images/blank.png width =""200"" height = ""200"" style = ""float:right""></p><p><img src=images/blank.png width =""800"" height = ""200""></p>","","","","","","","","","","","",""
"","440.48500000004424","sequential-stimulus-presentation","171","386437","0.0-35.0-1.0","SS1613143638546","trial","","40","800","1240.4850000000442","images/stimuli/spore_stims/simple_15_B_a.gif","images/stimuli/spore_stims/simple_15_A_a.gif","","","","","9","simple_similar","images/stimuli/spore_stims/simple_15_A_a.gif","middle","","","","",""
"","null","html-keyboard-response","172","387305","0.0-35.0-0.1","SS1613143638546","","","null","","","","","<p><img src= images/blank.png width =""200"" height = ""200"" style = ""float:right""></p><p><img src=images/blank.png width =""800"" height = ""200""></p>","","","","","","","","","","","",""
"","1276.6499999997905","sequential-stimulus-presentation","173","389405","0.0-35.0-1.1","SS1613143638546","trial","","40","800","2076.6499999997905","images/stimuli/spore_stims/simple_15_B_a.gif","images/stimuli/spore_stims/simple_15_A_a.gif","","","","","9","simple_similar","images/stimuli/spore_stims/simple_15_A_a.gif","middle","","","","",""
"","null","html-keyboard-response","174","390713","0.0-35.0-0.2","SS1613143638546","","","null","","","","","<p><img src= images/blank.png width =""200"" height = ""200"" style = ""float:right""></p><p><img src=images/blank.png width =""800"" height = ""200""></p>","","","","","","","","","","","",""
"","427.50999999948544","sequential-stimulus-presentation","175","391964","0.0-35.0-1.2","SS1613143638546","trial","","40","800","1227.5099999994854","images/stimuli/spore_stims/simple_15_B_a.gif","images/stimuli/spore_stims/simple_15_A_a.gif","","","","","9","simple_similar","images/stimuli/spore_stims/simple_15_B_a.gif","left","","","","",""
"","null","html-keyboard-response","176","392794","0.0-35.0-0.3","SS1613143638546","","","null","","","","","<p><img src= images/blank.png width =""200"" height = ""200"" style = ""float:right""></p><p><img src=images/blank.png width =""800"" height = ""200""></p>","","","","","","","","","","","",""
"","1946.9500000004773","sequential-stimulus-presentation","177","395566","0.0-35.0-1.3","SS1613143638546","trial","","40","800","2746.9500000004773","images/stimuli/spore_stims/simple_15_B_a.gif","images/stimuli/spore_stims/simple_15_A_a.gif","","","","","9","simple_similar","images/stimuli/spore_stims/simple_15_A_a.gif","middle","","","","",""
"","null","html-keyboard-response","178","396722","0.0-35.0-0.4","SS1613143638546","","","null","","","","","<p><img src= images/blank.png width =""200"" height = ""200"" style = ""float:right""></p><p><img src=images/blank.png width =""800"" height = ""200""></p>","","","","","","","","","","","",""
"","634.3749999996508","sequential-stimulus-presentation","179","398181","0.0-35.0-1.4","SS1613143638546","trial","","40","800","1434.3749999996508","images/stimuli/spore_stims/simple_15_B_a.gif","images/stimuli/spore_stims/simple_15_A_a.gif","","","","","9","simple_similar","images/stimuli/spore_stims/simple_15_A_a.gif","middle","","","","",""
"","null","html-keyboard-response","180","399406","0.0-35.0-0.5","SS1613143638546","","","null","","","","","<p><img src= images/blank.png width =""200"" height = ""200"" style = ""float:right""></p><p><img src=images/blank.png width =""800"" height = ""200""></p>","","","","","","","","","","","",""
"","1020.4199999998673","sequential-stimulus-presentation","181","401268","0.0-35.0-1.5","SS1613143638546","trial","","40","800","1820.4199999998673","images/stimuli/spore_stims/simple_15_B_a.gif","images/stimuli/spore_stims/simple_15_A_a.gif","","","","","9","simple_similar","images/stimuli/spore_stims/simple_15_A_a.gif","middle","","","","",""
"","null","html-keyboard-response","182","402127","0.0-35.0-0.6","SS1613143638546","","","null","","","","","<p><img src= images/blank.png width =""200"" height = ""200"" style = ""float:right""></p><p><img src=images/blank.png width =""800"" height = ""200""></p>","","","","","","","","","","","",""
"","1395.574999999546","sequential-stimulus-presentation","183","404348","0.0-35.0-1.6","SS1613143638546","trial","","40","800","2195.574999999546","images/stimuli/spore_stims/simple_15_B_a.gif","images/stimuli/spore_stims/simple_15_A_a.gif","","","","","9","simple_similar","images/stimuli/spore_stims/simple_15_A_a.gif","middle","","","","",""
"","null","html-keyboard-response","184","405529","0.0-35.0-0.7","SS1613143638546","","","null","","","","","<p><img src= images/blank.png width =""200"" height = ""200"" style = ""float:right""></p><p><img src=images/blank.png width =""800"" height = ""200""></p>","","","","","","","","","","","",""
"","57.415000000211876","sequential-stimulus-presentation","185","406412","0.0-35.0-1.7","SS1613143638546","trial","","40","800","857.4150000002119","images/stimuli/spore_stims/simple_15_B_a.gif","images/stimuli/spore_stims/simple_15_A_a.gif","","","","","9","simple_similar","images/stimuli/spore_stims/simple_15_A_a.gif","middle","","","","",""
"","2189.559999999765","html-keyboard-response","186","408627","0.0-36.0","SS1613143638546","pref_question","","98","","","","","<video width ='960' height = '540' style='padding-top:8%' autoplay muted><source src='images/stimuli/wall_pref.mp4' type='video/mp4'></video>","2","middle","45%","9","","","","","","","",""
"","89.879999999539","sequential-stimulus-presentation","187","409532","0.0-37.0","SS1613143638546","pref_reveal","","40","800","889.879999999539","null","null","","","","","9","","","","background","","","",""
"","null","html-keyboard-response","188","410799","0.0-38.0-0.0","SS1613143638546","","","null","","","","","<p><img src= images/blank.png width =""200"" height = ""200"" style = ""float:right""></p><p><img src=images/blank.png width =""800"" height = ""200""></p>","","","","","","","","","","","",""
"","105.95000000012806","sequential-stimulus-presentation","189","411732","0.0-38.0-1.0","SS1613143638546","trial","","40","800","905.9500000001281","images/stimuli/spore_stims/simple_16_A_a.gif","images/stimuli/spore_stims/simple_19_B_b.gif","","","","","10","simple_dissimilar","images/stimuli/spore_stims/simple_19_B_b.gif","right","","","","",""
"","null","html-keyboard-response","190","412709","0.0-38.0-0.1","SS1613143638546","","","null","","","","","<p><img src= images/blank.png width =""200"" height = ""200"" style = ""float:right""></p><p><img src=images/blank.png width =""800"" height = ""200""></p>","","","","","","","","","","","",""
"","6033.979999999283","sequential-stimulus-presentation","191","419570","0.0-38.0-1.1","SS1613143638546","trial","","40","800","6833.979999999283","images/stimuli/spore_stims/simple_16_A_a.gif","images/stimuli/spore_stims/simple_19_B_b.gif","","","","","10","simple_dissimilar","images/stimuli/spore_stims/simple_19_B_b.gif","right","","","","",""
"","null","html-keyboard-response","192","420791","0.0-38.0-0.2","SS1613143638546","","","null","","","","","<p><img src= images/blank.png width =""200"" height = ""200"" style = ""float:right""></p><p><img src=images/blank.png width =""800"" height = ""200""></p>","","","","","","","","","","","",""
"","399.19000000011874","sequential-stimulus-presentation","193","422018","0.0-38.0-1.2","SS1613143638546","trial","","40","800","1199.1900000001187","images/stimuli/spore_stims/simple_16_A_a.gif","images/stimuli/spore_stims/simple_19_B_b.gif","","","","","10","simple_dissimilar","images/stimuli/spore_stims/simple_19_B_b.gif","right","","","","",""
"","null","html-keyboard-response","194","422950","0.0-38.0-0.3","SS1613143638546","","","null","","","","","<p><img src= images/blank.png width =""200"" height = ""200"" style = ""float:right""></p><p><img src=images/blank.png width =""800"" height = ""200""></p>","","","","","","","","","","","",""
"","2609.0349999995087","sequential-stimulus-presentation","195","426400","0.0-38.0-1.3","SS1613143638546","trial","","40","800","3409.0349999995087","images/stimuli/spore_stims/simple_16_A_a.gif","images/stimuli/spore_stims/simple_19_B_b.gif","","","","","10","simple_dissimilar","images/stimuli/spore_stims/simple_19_B_b.gif","right","","","","",""
"","null","html-keyboard-response","196","427281","0.0-38.0-0.4","SS1613143638546","","","null","","","","","<p><img src= images/blank.png width =""200"" height = ""200"" style = ""float:right""></p><p><img src=images/blank.png width =""800"" height = ""200""></p>","","","","","","","","","","","",""
"","44.230000000447035","sequential-stimulus-presentation","197","428153","0.0-38.0-1.4","SS1613143638546","trial","","40","800","844.230000000447","images/stimuli/spore_stims/simple_16_A_a.gif","images/stimuli/spore_stims/simple_19_B_b.gif","","","","","10","simple_dissimilar","images/stimuli/spore_stims/simple_19_B_b.gif","right","","","","",""
"","null","html-keyboard-response","198","429035","0.0-38.0-0.5","SS1613143638546","","","null","","","","","<p><img src= images/blank.png width =""200"" height = ""200"" style = ""float:right""></p><p><img src=images/blank.png width =""800"" height = ""200""></p>","","","","","","","","","","","",""
"","5822.865000000107","sequential-stimulus-presentation","199","435672","0.0-38.0-1.5","SS1613143638546","trial","","40","800","6622.865000000107","images/stimuli/spore_stims/simple_16_A_a.gif","images/stimuli/spore_stims/simple_19_B_b.gif","","","","","10","simple_dissimilar","images/stimuli/spore_stims/simple_19_B_b.gif","right","","","","",""
"","null","html-keyboard-response","200","436825","0.0-38.0-0.6","SS1613143638546","","","null","","","","","<p><img src= images/blank.png width =""200"" height = ""200"" style = ""float:right""></p><p><img src=images/blank.png width =""800"" height = ""200""></p>","","","","","","","","","","","",""
"","666.4999999993597","sequential-stimulus-presentation","201","438319","0.0-38.0-1.6","SS1613143638546","trial","","40","800","1466.4999999993597","images/stimuli/spore_stims/simple_16_A_a.gif","images/stimuli/spore_stims/simple_19_B_b.gif","","","","","10","simple_dissimilar","images/stimuli/spore_stims/simple_16_A_a.gif","middle","","","","",""
"","null","html-keyboard-response","202","439337","0.0-38.0-0.7","SS1613143638546","","","null","","","","","<p><img src= images/blank.png width =""200"" height = ""200"" style = ""float:right""></p><p><img src=images/blank.png width =""800"" height = ""200""></p>","","","","","","","","","","","",""
"","111.7850000000326","sequential-stimulus-presentation","203","440278","0.0-38.0-1.7","SS1613143638546","trial","","40","800","911.7850000000326","images/stimuli/spore_stims/simple_16_A_a.gif","images/stimuli/spore_stims/simple_19_B_b.gif","","","","","10","simple_dissimilar","images/stimuli/spore_stims/simple_19_B_b.gif","right","","","","",""
"","3144.720000000263","html-keyboard-response","204","443447","0.0-39.0","SS1613143638546","pref_question","","99","","","","","<video width ='960' height = '540' style='padding-top:8%' autoplay muted><source src='images/stimuli/wall_pref.mp4' type='video/mp4'></video>","3","right","66%","10","","","","","","","",""
"","244.44500000029802","sequential-stimulus-presentation","205","444510","0.0-40.0","SS1613143638546","pref_reveal","","40","800","1044.445000000298","null","null","","","","","10","","","","background","","","",""
"","null","html-keyboard-response","206","445695","0.0-41.0-0.0","SS1613143638546","","","null","","","","","<p><img src= images/blank.png width =""200"" height = ""200"" style = ""float:right""></p><p><img src=images/blank.png width =""800"" height = ""200""></p>","","","","","","","","","","","",""
"","677.5850000003702","sequential-stimulus-presentation","207","447214","0.0-41.0-1.0","SS1613143638546","trial","","40","800","1477.5850000003702","images/stimuli/spore_stims/complex_14_A_b.gif","images/stimuli/spore_stims/complex_14_B_b.gif","","","","","11","complex_similar","images/stimuli/spore_stims/complex_14_B_b.gif","middle","","","","",""
"","null","html-keyboard-response","208","448062","0.0-41.0-0.1","SS1613143638546","","","null","","","","","<p><img src= images/blank.png width =""200"" height = ""200"" style = ""float:right""></p><p><img src=images/blank.png width =""800"" height = ""200""></p>","","","","","","","","","","","",""
"","739.3499999998021","sequential-stimulus-presentation","209","449629","0.0-41.0-1.1","SS1613143638546","trial","","40","800","1539.349999999802","images/stimuli/spore_stims/complex_14_A_b.gif","images/stimuli/spore_stims/complex_14_B_b.gif","","","","","11","complex_similar","images/stimuli/spore_stims/complex_14_B_b.gif","middle","","","","",""
"","null","html-keyboard-response","210","450561","0.0-41.0-0.2","SS1613143638546","","","null","","","","","<p><img src= images/blank.png width =""200"" height = ""200"" style = ""float:right""></p><p><img src=images/blank.png width =""800"" height = ""200""></p>","","","","","","","","","","","",""
"","302.24500000075204","sequential-stimulus-presentation","211","451693","0.0-41.0-1.2","SS1613143638546","trial","","40","800","1102.245000000752","images/stimuli/spore_stims/complex_14_A_b.gif","images/stimuli/spore_stims/complex_14_B_b.gif","","","","","11","complex_similar","images/stimuli/spore_stims/complex_14_B_b.gif","middle","","","","",""
"","null","html-keyboard-response","212","452693","0.0-41.0-0.3","SS1613143638546","","","null","","","","","<p><img src= images/blank.png width =""200"" height = ""200"" style = ""float:right""></p><p><img src=images/blank.png width =""800"" height = ""200""></p>","","","","","","","","","","","",""
"","282.06500000029337","sequential-stimulus-presentation","213","453799","0.0-41.0-1.3","SS1613143638546","trial","","40","800","1082.0650000002934","images/stimuli/spore_stims/complex_14_A_b.gif","images/stimuli/spore_stims/complex_14_B_b.gif","","","","","11","complex_similar","images/stimuli/spore_stims/complex_14_B_b.gif","middle","","","","",""
"","null","html-keyboard-response","214","454821","0.0-41.0-0.4","SS1613143638546","","","null","","","","","<p><img src= images/blank.png width =""200"" height = ""200"" style = ""float:right""></p><p><img src=images/blank.png width =""800"" height = ""200""></p>","","","","","","","","","","","",""
"","222.15499999950407","sequential-stimulus-presentation","215","455872","0.0-41.0-1.4","SS1613143638546","trial","","40","800","1022.1549999995041","images/stimuli/spore_stims/complex_14_A_b.gif","images/stimuli/spore_stims/complex_14_B_b.gif","","","","","11","complex_similar","images/stimuli/spore_stims/complex_14_B_b.gif","middle","","","","",""
"","null","html-keyboard-response","216","456712","0.0-41.0-0.5","SS1613143638546","","","null","","","","","<p><img src= images/blank.png width =""200"" height = ""200"" style = ""float:right""></p><p><img src=images/blank.png width =""800"" height = ""200""></p>","","","","","","","","","","","",""
"","396.469999999681","sequential-stimulus-presentation","217","457958","0.0-41.0-1.5","SS1613143638546","trial","","40","800","1196.469999999681","images/stimuli/spore_stims/complex_14_A_b.gif","images/stimuli/spore_stims/complex_14_B_b.gif","","","","","11","complex_similar","images/stimuli/spore_stims/complex_14_B_b.gif","middle","","","","",""
"","null","html-keyboard-response","218","459000","0.0-41.0-0.6","SS1613143638546","","","null","","","","","<p><img src= images/blank.png width =""200"" height = ""200"" style = ""float:right""></p><p><img src=images/blank.png width =""800"" height = ""200""></p>","","","","","","","","","","","",""
"","442.535000000149","sequential-stimulus-presentation","219","460271","0.0-41.0-1.6","SS1613143638546","trial","","40","800","1242.535000000149","images/stimuli/spore_stims/complex_14_A_b.gif","images/stimuli/spore_stims/complex_14_B_b.gif","","","","","11","complex_similar","images/stimuli/spore_stims/complex_14_A_b.gif","right","","","","",""
"","null","html-keyboard-response","220","461446","0.0-41.0-0.7","SS1613143638546","","","null","","","","","<p><img src= images/blank.png width =""200"" height = ""200"" style = ""float:right""></p><p><img src=images/blank.png width =""800"" height = ""200""></p>","","","","","","","","","","","",""
"","775.8100000001141","sequential-stimulus-presentation","221","463047","0.0-41.0-1.7","SS1613143638546","trial","","40","800","1575.810000000114","images/stimuli/spore_stims/complex_14_A_b.gif","images/stimuli/spore_stims/complex_14_B_b.gif","","","","","11","complex_similar","images/stimuli/spore_stims/complex_14_B_b.gif","middle","","","","",""
"","10500.179999999993","html-keyboard-response","222","473575","0.0-42.0","SS1613143638546","pref_question","","99","","","","","<video width ='960' height = '540' style='padding-top:8%' autoplay muted><source src='images/stimuli/wall_pref.mp4' type='video/mp4'></video>","3","right","66%","11","","","","","","","",""
"","2588.3850000000093","sequential-stimulus-presentation","223","476996","0.0-43.0","SS1613143638546","pref_reveal","","40","800","3388.3850000000093","null","null","","","","","11","","","","deviant","","","",""
"","null","html-keyboard-response","224","477936","0.0-44.0-0.0","SS1613143638546","","","null","","","","","<p><img src= images/blank.png width =""200"" height = ""200"" style = ""float:right""></p><p><img src=images/blank.png width =""800"" height = ""200""></p>","","","","","","","","","","","",""
"","1742.5949999997392","sequential-stimulus-presentation","225","480508","0.0-44.0-1.0","SS1613143638546","trial","","40","800","2542.5949999997392","images/stimuli/spore_stims/complex_05_B_b.gif","images/stimuli/spore_stims/complex_05_A_b.gif","","","","","12","complex_similar","images/stimuli/spore_stims/complex_05_A_b.gif","middle","","","","",""
"","null","html-keyboard-response","226","481818","0.0-44.0-0.1","SS1613143638546","","","null","","","","","<p><img src= images/blank.png width =""200"" height = ""200"" style = ""float:right""></p><p><img src=images/blank.png width =""800"" height = ""200""></p>","","","","","","","","","","","",""
"","11462.8400000002","sequential-stimulus-presentation","227","494106","0.0-44.0-1.1","SS1613143638546","trial","","40","800","12262.8400000002","images/stimuli/spore_stims/complex_05_B_b.gif","images/stimuli/spore_stims/complex_05_A_b.gif","","","","","12","complex_similar","images/stimuli/spore_stims/complex_05_A_b.gif","middle","","","","",""
"","null","html-keyboard-response","228","495320","0.0-44.0-0.2","SS1613143638546","","","null","","","","","<p><img src= images/blank.png width =""200"" height = ""200"" style = ""float:right""></p><p><img src=images/blank.png width =""800"" height = ""200""></p>","","","","","","","","","","","",""
"","8075.410000000382","sequential-stimulus-presentation","229","504225","0.0-44.0-1.2","SS1613143638546","trial","","40","800","8875.410000000382","images/stimuli/spore_stims/complex_05_B_b.gif","images/stimuli/spore_stims/complex_05_A_b.gif","","","","","12","complex_similar","images/stimuli/spore_stims/complex_05_B_b.gif","left","","","","",""
"","null","html-keyboard-response","230","505383","0.0-44.0-0.3","SS1613143638546","","","null","","","","","<p><img src= images/blank.png width =""200"" height = ""200"" style = ""float:right""></p><p><img src=images/blank.png width =""800"" height = ""200""></p>","","","","","","","","","","","",""
"","49.500000000116415","sequential-stimulus-presentation","231","506263","0.0-44.0-1.3","SS1613143638546","trial","","40","800","849.5000000001164","images/stimuli/spore_stims/complex_05_B_b.gif","images/stimuli/spore_stims/complex_05_A_b.gif","","","","","12","complex_similar","images/stimuli/spore_stims/complex_05_A_b.gif","middle","","","","",""
"","null","html-keyboard-response","232","507492","0.0-44.0-0.4","SS1613143638546","","","null","","","","","<p><img src= images/blank.png width =""200"" height = ""200"" style = ""float:right""></p><p><img src=images/blank.png width =""800"" height = ""200""></p>","","","","","","","","","","","",""
"","822.1849999999395","sequential-stimulus-presentation","233","509143","0.0-44.0-1.4","SS1613143638546","trial","","40","800","1622.1849999999395","images/stimuli/spore_stims/complex_05_B_b.gif","images/stimuli/spore_stims/complex_05_A_b.gif","","","","","12","complex_similar","images/stimuli/spore_stims/complex_05_A_b.gif","middle","","","","",""
"","null","html-keyboard-response","234","510164","0.0-44.0-0.5","SS1613143638546","","","null","","","","","<p><img src= images/blank.png width =""200"" height = ""200"" style = ""float:right""></p><p><img src=images/blank.png width =""800"" height = ""200""></p>","","","","","","","","","","","",""
"","4941.874999999534","sequential-stimulus-presentation","235","515943","0.0-44.0-1.5","SS1613143638546","trial","","40","800","5741.874999999534","images/stimuli/spore_stims/complex_05_B_b.gif","images/stimuli/spore_stims/complex_05_A_b.gif","","","","","12","complex_similar","images/stimuli/spore_stims/complex_05_A_b.gif","middle","","","","",""
"","null","html-keyboard-response","236","517058","0.0-44.0-0.6","SS1613143638546","","","null","","","","","<p><img src= images/blank.png width =""200"" height = ""200"" style = ""float:right""></p><p><img src=images/blank.png width =""800"" height = ""200""></p>","","","","","","","","","","","",""
"","236.28999999980442","sequential-stimulus-presentation","237","518125","0.0-44.0-1.6","SS1613143638546","trial","","40","800","1036.2899999998044","images/stimuli/spore_stims/complex_05_B_b.gif","images/stimuli/spore_stims/complex_05_A_b.gif","","","","","12","complex_similar","images/stimuli/spore_stims/complex_05_A_b.gif","middle","","","","",""
"","null","html-keyboard-response","238","519041","0.0-44.0-0.7","SS1613143638546","","","null","","","","","<p><img src= images/blank.png width =""200"" height = ""200"" style = ""float:right""></p><p><img src=images/blank.png width =""800"" height = ""200""></p>","","","","","","","","","","","",""
"","3983.349999999511","sequential-stimulus-presentation","239","523854","0.0-44.0-1.7","SS1613143638546","trial","","40","800","4783.349999999511","images/stimuli/spore_stims/complex_05_B_b.gif","images/stimuli/spore_stims/complex_05_A_b.gif","","","","","12","complex_similar","images/stimuli/spore_stims/complex_05_A_b.gif","middle","","","","",""
"","13586.140000000363","html-keyboard-response","240","537475","0.0-45.0","SS1613143638546","pref_question","","98","","","","","<video width ='960' height = '540' style='padding-top:8%' autoplay muted><source src='images/stimuli/wall_pref.mp4' type='video/mp4'></video>","2","middle","45%","12","","","","","","","",""
"","1766.2100000006612","sequential-stimulus-presentation","241","540058","0.0-46.0","SS1613143638546","pref_reveal","","40","800","2566.2100000006612","null","null","","","","","12","","","","background","","","",""
"","null","html-keyboard-response","242","540981","0.0-47.0-0.0","SS1613143638546","","","null","","","","","<p><img src= images/blank.png width =""200"" height = ""200"" style = ""float:right""></p><p><img src=images/blank.png width =""800"" height = ""200""></p>","","","","","","","","","","","",""
"","374.96000000007916","sequential-stimulus-presentation","243","542186","0.0-47.0-1.0","SS1613143638546","trial","","40","800","1174.9600000000792","images/stimuli/spore_stims/simple_12_B_b.gif","images/stimuli/spore_stims/simple_12_A_b.gif","","","","","13","simple_similar","images/stimuli/spore_stims/simple_12_A_b.gif","middle","","","","",""
"","null","html-keyboard-response","244","543347","0.0-47.0-0.1","SS1613143638546","","","null","","","","","<p><img src= images/blank.png width =""200"" height = ""200"" style = ""float:right""></p><p><img src=images/blank.png width =""800"" height = ""200""></p>","","","","","","","","","","","",""
"","94.30499999958556","sequential-stimulus-presentation","245","544265","0.0-47.0-1.1","SS1613143638546","trial","","40","800","894.3049999995856","images/stimuli/spore_stims/simple_12_B_b.gif","images/stimuli/spore_stims/simple_12_A_b.gif","","","","","13","simple_similar","images/stimuli/spore_stims/simple_12_A_b.gif","middle","","","","",""
"","null","html-keyboard-response","246","545246","0.0-47.0-0.2","SS1613143638546","","","null","","","","","<p><img src= images/blank.png width =""200"" height = ""200"" style = ""float:right""></p><p><img src=images/blank.png width =""800"" height = ""200""></p>","","","","","","","","","","","",""
"","154.86499999952503","sequential-stimulus-presentation","247","546234","0.0-47.0-1.2","SS1613143638546","trial","","40","800","954.864999999525","images/stimuli/spore_stims/simple_12_B_b.gif","images/stimuli/spore_stims/simple_12_A_b.gif","","","","","13","simple_similar","images/stimuli/spore_stims/simple_12_A_b.gif","middle","","","","",""
"","null","html-keyboard-response","248","547277","0.0-47.0-0.3","SS1613143638546","","","null","","","","","<p><img src= images/blank.png width =""200"" height = ""200"" style = ""float:right""></p><p><img src=images/blank.png width =""800"" height = ""200""></p>","","","","","","","","","","","",""
"","383.0600000000559","sequential-stimulus-presentation","249","548512","0.0-47.0-1.3","SS1613143638546","trial","","40","800","1183.0600000000559","images/stimuli/spore_stims/simple_12_B_b.gif","images/stimuli/spore_stims/simple_12_A_b.gif","","","","","13","simple_similar","images/stimuli/spore_stims/simple_12_A_b.gif","middle","","","","",""
"","null","html-keyboard-response","250","549376","0.0-47.0-0.4","SS1613143638546","","","null","","","","","<p><img src= images/blank.png width =""200"" height = ""200"" style = ""float:right""></p><p><img src=images/blank.png width =""800"" height = ""200""></p>","","","","","","","","","","","",""
"","337.4800000000978","sequential-stimulus-presentation","251","550545","0.0-47.0-1.4","SS1613143638546","trial","","40","800","1137.4800000000978","images/stimuli/spore_stims/simple_12_B_b.gif","images/stimuli/spore_stims/simple_12_A_b.gif","","","","","13","simple_similar","images/stimuli/spore_stims/simple_12_A_b.gif","middle","","","","",""
"","null","html-keyboard-response","252","551735","0.0-47.0-0.5","SS1613143638546","","","null","","","","","<p><img src= images/blank.png width =""200"" height = ""200"" style = ""float:right""></p><p><img src=images/blank.png width =""800"" height = ""200""></p>","","","","","","","","","","","",""
"","1025.5950000000885","sequential-stimulus-presentation","253","553592","0.0-47.0-1.5","SS1613143638546","trial","","40","800","1825.5950000000885","images/stimuli/spore_stims/simple_12_B_b.gif","images/stimuli/spore_stims/simple_12_A_b.gif","","","","","13","simple_similar","images/stimuli/spore_stims/simple_12_A_b.gif","middle","","","","",""
"","null","html-keyboard-response","254","554874","0.0-47.0-0.6","SS1613143638546","","","null","","","","","<p><img src= images/blank.png width =""200"" height = ""200"" style = ""float:right""></p><p><img src=images/blank.png width =""800"" height = ""200""></p>","","","","","","","","","","","",""
"","0.4799999996321276","sequential-stimulus-presentation","255","555704","0.0-47.0-1.6","SS1613143638546","trial","","40","800","800.4799999996321","images/stimuli/spore_stims/simple_12_B_b.gif","images/stimuli/spore_stims/simple_12_A_b.gif","","","","","13","simple_similar","images/stimuli/spore_stims/simple_12_A_b.gif","middle","","","","",""
"","null","html-keyboard-response","256","556838","0.0-47.0-0.7","SS1613143638546","","","null","","","","","<p><img src= images/blank.png width =""200"" height = ""200"" style = ""float:right""></p><p><img src=images/blank.png width =""800"" height = ""200""></p>","","","","","","","","","","","",""
"","1601.3250000005355","sequential-stimulus-presentation","257","559271","0.0-47.0-1.7","SS1613143638546","trial","","40","800","2401.3250000005355","images/stimuli/spore_stims/simple_12_B_b.gif","images/stimuli/spore_stims/simple_12_A_b.gif","","","","","13","simple_similar","images/stimuli/spore_stims/simple_12_B_b.gif","left","","","","",""
"","6353.939999999944","html-keyboard-response","258","565656","0.0-48.0","SS1613143638546","pref_question","","97","","","","","<video width ='960' height = '540' style='padding-top:8%' autoplay muted><source src='images/stimuli/wall_pref.mp4' type='video/mp4'></video>","1","left","25%","13","","","","","","","",""
"","7453.480000000214","sequential-stimulus-presentation","259","573960","0.0-49.0","SS1613143638546","pref_reveal","","40","800","8253.480000000214","null","null","","","","","13","","","","deviant","","","",""
"","null","html-keyboard-response","260","574895","0.0-50.0-0.0","SS1613143638546","","","null","","","","","<p><img src= images/blank.png width =""200"" height = ""200"" style = ""float:right""></p><p><img src=images/blank.png width =""800"" height = ""200""></p>","","","","","","","","","","","",""
"","3327.6850000002887","sequential-stimulus-presentation","261","579045","0.0-50.0-1.0","SS1613143638546","trial","","40","800","4127.685000000289","images/stimuli/spore_stims/complex_13_B_c.gif","images/stimuli/spore_stims/complex_20_B_a.gif","","","","","14","complex_dissimilar","images/stimuli/spore_stims/complex_20_B_a.gif","middle","","","","",""
"","null","html-keyboard-response","262","580253","0.0-50.0-0.1","SS1613143638546","","","null","","","","","<p><img src= images/blank.png width =""200"" height = ""200"" style = ""float:right""></p><p><img src=images/blank.png width =""800"" height = ""200""></p>","","","","","","","","","","","",""
"","280.42499999993015","sequential-stimulus-presentation","263","581389","0.0-50.0-1.1","SS1613143638546","trial","","40","800","1080.4249999999302","images/stimuli/spore_stims/complex_13_B_c.gif","images/stimuli/spore_stims/complex_20_B_a.gif","","","","","14","complex_dissimilar","images/stimuli/spore_stims/complex_20_B_a.gif","middle","","","","",""
"","null","html-keyboard-response","264","582618","0.0-50.0-0.2","SS1613143638546","","","null","","","","","<p><img src= images/blank.png width =""200"" height = ""200"" style = ""float:right""></p><p><img src=images/blank.png width =""800"" height = ""200""></p>","","","","","","","","","","","",""
"","11.970000000437722","sequential-stimulus-presentation","265","583460","0.0-50.0-1.2","SS1613143638546","trial","","40","800","811.9700000004377","images/stimuli/spore_stims/complex_13_B_c.gif","images/stimuli/spore_stims/complex_20_B_a.gif","","","","","14","complex_dissimilar","images/stimuli/spore_stims/complex_13_B_c.gif","left","","","","",""
"","null","html-keyboard-response","266","584355","0.0-50.0-0.3","SS1613143638546","","","null","","","","","<p><img src= images/blank.png width =""200"" height = ""200"" style = ""float:right""></p><p><img src=images/blank.png width =""800"" height = ""200""></p>","","","","","","","","","","","",""
"","2189.2500000003492","sequential-stimulus-presentation","267","587373","0.0-50.0-1.3","SS1613143638546","trial","","40","800","2989.2500000003492","images/stimuli/spore_stims/complex_13_B_c.gif","images/stimuli/spore_stims/complex_20_B_a.gif","","","","","14","complex_dissimilar","images/stimuli/spore_stims/complex_20_B_a.gif","middle","","","","",""
"","null","html-keyboard-response","268","588299","0.0-50.0-0.4","SS1613143638546","","","null","","","","","<p><img src= images/blank.png width =""200"" height = ""200"" style = ""float:right""></p><p><img src=images/blank.png width =""800"" height = ""200""></p>","","","","","","","","","","","",""
"","3639.2799999993294","sequential-stimulus-presentation","269","592771","0.0-50.0-1.4","SS1613143638546","trial","","40","800","4439.279999999329","images/stimuli/spore_stims/complex_13_B_c.gif","images/stimuli/spore_stims/complex_20_B_a.gif","","","","","14","complex_dissimilar","images/stimuli/spore_stims/complex_20_B_a.gif","middle","","","","",""
"","null","html-keyboard-response","270","593890","0.0-50.0-0.5","SS1613143638546","","","null","","","","","<p><img src= images/blank.png width =""200"" height = ""200"" style = ""float:right""></p><p><img src=images/blank.png width =""800"" height = ""200""></p>","","","","","","","","","","","",""
"","73.02000000071712","sequential-stimulus-presentation","271","594795","0.0-50.0-1.5","SS1613143638546","trial","","40","800","873.0200000007171","images/stimuli/spore_stims/complex_13_B_c.gif","images/stimuli/spore_stims/complex_20_B_a.gif","","","","","14","complex_dissimilar","images/stimuli/spore_stims/complex_20_B_a.gif","middle","","","","",""
"","null","html-keyboard-response","272","595782","0.0-50.0-0.6","SS1613143638546","","","null","","","","","<p><img src= images/blank.png width =""200"" height = ""200"" style = ""float:right""></p><p><img src=images/blank.png width =""800"" height = ""200""></p>","","","","","","","","","","","",""
"","694.7300000002142","sequential-stimulus-presentation","273","597338","0.0-50.0-1.6","SS1613143638546","trial","","40","800","1494.7300000002142","images/stimuli/spore_stims/complex_13_B_c.gif","images/stimuli/spore_stims/complex_20_B_a.gif","","","","","14","complex_dissimilar","images/stimuli/spore_stims/complex_20_B_a.gif","middle","","","","",""
"","null","html-keyboard-response","274","598230","0.0-50.0-0.7","SS1613143638546","","","null","","","","","<p><img src= images/blank.png width =""200"" height = ""200"" style = ""float:right""></p><p><img src=images/blank.png width =""800"" height = ""200""></p>","","","","","","","","","","","",""
"","2065.6199999994133","sequential-stimulus-presentation","275","601130","0.0-50.0-1.7","SS1613143638546","trial","","40","800","2865.6199999994133","images/stimuli/spore_stims/complex_13_B_c.gif","images/stimuli/spore_stims/complex_20_B_a.gif","","","","","14","complex_dissimilar","images/stimuli/spore_stims/complex_20_B_a.gif","middle","","","","",""
"","1428.8649999998743","html-keyboard-response","276","602596","0.0-51.0","SS1613143638546","pref_question","","99","","","","","<video width ='960' height = '540' style='padding-top:8%' autoplay muted><source src='images/stimuli/wall_pref.mp4' type='video/mp4'></video>","3","right","66%","14","","","","","","","",""
"","126.18000000016764","sequential-stimulus-presentation","277","603553","0.0-52.0","SS1613143638546","pref_reveal","","40","800","926.1800000001676","null","null","","","","","14","","","","novel","","","",""
"","null","html-keyboard-response","278","604479","0.0-53.0-0.0","SS1613143638546","","","null","","","","","<p><img src= images/blank.png width =""200"" height = ""200"" style = ""float:right""></p><p><img src=images/blank.png width =""800"" height = ""200""></p>","","","","","","","","","","","",""
"","544.3349999996135","sequential-stimulus-presentation","279","605857","0.0-53.0-1.0","SS1613143638546","trial","","40","800","1344.3349999996135","images/stimuli/spore_stims/simple_05_B_c.gif","images/stimuli/spore_stims/simple_18_B_d.gif","","","","","15","simple_dissimilar","images/stimuli/spore_stims/simple_18_B_d.gif","right","","","","",""
"","null","html-keyboard-response","280","607180","0.0-53.0-0.1","SS1613143638546","","","null","","","","","<p><img src= images/blank.png width =""200"" height = ""200"" style = ""float:right""></p><p><img src=images/blank.png width =""800"" height = ""200""></p>","","","","","","","","","","","",""
"","1844.509999999893","sequential-stimulus-presentation","281","609841","0.0-53.0-1.1","SS1613143638546","trial","","40","800","2644.509999999893","images/stimuli/spore_stims/simple_05_B_c.gif","images/stimuli/spore_stims/simple_18_B_d.gif","","","","","15","simple_dissimilar","images/stimuli/spore_stims/simple_18_B_d.gif","right","","","","",""
"","null","html-keyboard-response","282","610688","0.0-53.0-0.2","SS1613143638546","","","null","","","","","<p><img src= images/blank.png width =""200"" height = ""200"" style = ""float:right""></p><p><img src=images/blank.png width =""800"" height = ""200""></p>","","","","","","","","","","","",""
"","430.6749999995809","sequential-stimulus-presentation","283","611952","0.0-53.0-1.2","SS1613143638546","trial","","40","800","1230.674999999581","images/stimuli/spore_stims/simple_05_B_c.gif","images/stimuli/spore_stims/simple_18_B_d.gif","","","","","15","simple_dissimilar","images/stimuli/spore_stims/simple_18_B_d.gif","right","","","","",""
"","null","html-keyboard-response","284","612835","0.0-53.0-0.3","SS1613143638546","","","null","","","","","<p><img src= images/blank.png width =""200"" height = ""200"" style = ""float:right""></p><p><img src=images/blank.png width =""800"" height = ""200""></p>","","","","","","","","","","","",""
"","617.7100000004284","sequential-stimulus-presentation","285","614287","0.0-53.0-1.3","SS1613143638546","trial","","40","800","1417.7100000004284","images/stimuli/spore_stims/simple_05_B_c.gif","images/stimuli/spore_stims/simple_18_B_d.gif","","","","","15","simple_dissimilar","images/stimuli/spore_stims/simple_05_B_c.gif","left","","","","",""
"","null","html-keyboard-response","286","615354","0.0-53.0-0.4","SS1613143638546","","","null","","","","","<p><img src= images/blank.png width =""200"" height = ""200"" style = ""float:right""></p><p><img src=images/blank.png width =""800"" height = ""200""></p>","","","","","","","","","","","",""
"","620.6450000000186","sequential-stimulus-presentation","287","616807","0.0-53.0-1.4","SS1613143638546","trial","","40","800","1420.6450000000186","images/stimuli/spore_stims/simple_05_B_c.gif","images/stimuli/spore_stims/simple_18_B_d.gif","","","","","15","simple_dissimilar","images/stimuli/spore_stims/simple_18_B_d.gif","right","","","","",""
"","null","html-keyboard-response","288","617886","0.0-53.0-0.5","SS1613143638546","","","null","","","","","<p><img src= images/blank.png width =""200"" height = ""200"" style = ""float:right""></p><p><img src=images/blank.png width =""800"" height = ""200""></p>","","","","","","","","","","","",""
"","473.14999999979045","sequential-stimulus-presentation","289","619183","0.0-53.0-1.5","SS1613143638546","trial","","40","800","1273.1499999997905","images/stimuli/spore_stims/simple_05_B_c.gif","images/stimuli/spore_stims/simple_18_B_d.gif","","","","","15","simple_dissimilar","images/stimuli/spore_stims/simple_18_B_d.gif","right","","","","",""
"","null","html-keyboard-response","290","620250","0.0-53.0-0.6","SS1613143638546","","","null","","","","","<p><img src= images/blank.png width =""200"" height = ""200"" style = ""float:right""></p><p><img src=images/blank.png width =""800"" height = ""200""></p>","","","","","","","","","","","",""
"","162.52499999967404","sequential-stimulus-presentation","291","621231","0.0-53.0-1.6","SS1613143638546","trial","","40","800","962.524999999674","images/stimuli/spore_stims/simple_05_B_c.gif","images/stimuli/spore_stims/simple_18_B_d.gif","","","","","15","simple_dissimilar","images/stimuli/spore_stims/simple_18_B_d.gif","right","","","","",""
"","null","html-keyboard-response","292","622236","0.0-53.0-0.7","SS1613143638546","","","null","","","","","<p><img src= images/blank.png width =""200"" height = ""200"" style = ""float:right""></p><p><img src=images/blank.png width =""800"" height = ""200""></p>","","","","","","","","","","","",""
"","232.1199999996461","sequential-stimulus-presentation","293","623303","0.0-53.0-1.7","SS1613143638546","trial","","40","800","1032.119999999646","images/stimuli/spore_stims/simple_05_B_c.gif","images/stimuli/spore_stims/simple_18_B_d.gif","","","","","15","simple_dissimilar","images/stimuli/spore_stims/simple_18_B_d.gif","right","","","","",""
"","6104.535000000382","html-keyboard-response","294","629447","0.0-54.0","SS1613143638546","pref_question","","98","","","","","<video width ='960' height = '540' style='padding-top:8%' autoplay muted><source src='images/stimuli/wall_pref.mp4' type='video/mp4'></video>","2","middle","45%","15","","","","","","","",""
"","183.8200000001816","sequential-stimulus-presentation","295","630460","0.0-55.0","SS1613143638546","pref_reveal","","40","800","983.8200000001816","null","null","","","","","15","","","","novel","","","",""
"","null","html-keyboard-response","296","631374","0.0-56.0-0.0","SS1613143638546","","","null","","","","","<p><img src= images/blank.png width =""200"" height = ""200"" style = ""float:right""></p><p><img src=images/blank.png width =""800"" height = ""200""></p>","","","","","","","","","","","",""
"","281.6549999997951","sequential-stimulus-presentation","297","632509","0.0-56.0-1.0","SS1613143638546","trial","","40","800","1081.654999999795","images/stimuli/spore_stims/complex_17_A_c.gif","images/stimuli/spore_stims/complex_11_B_a.gif","","","","","16","complex_dissimilar","images/stimuli/spore_stims/complex_11_B_a.gif","middle","","","","",""
"","null","html-keyboard-response","298","633427","0.0-56.0-0.1","SS1613143638546","","","null","","","","","<p><img src= images/blank.png width =""200"" height = ""200"" style = ""float:right""></p><p><img src=images/blank.png width =""800"" height = ""200""></p>","","","","","","","","","","","",""
"","2350.755000000354","sequential-stimulus-presentation","299","636613","0.0-56.0-1.1","SS1613143638546","trial","","40","800","3150.755000000354","images/stimuli/spore_stims/complex_17_A_c.gif","images/stimuli/spore_stims/complex_11_B_a.gif","","","","","16","complex_dissimilar","images/stimuli/spore_stims/complex_11_B_a.gif","middle","","","","",""
"","null","html-keyboard-response","300","637558","0.0-56.0-0.2","SS1613143638546","","","null","","","","","<p><img src= images/blank.png width =""200"" height = ""200"" style = ""float:right""></p><p><img src=images/blank.png width =""800"" height = ""200""></p>","","","","","","","","","","","",""
"","362.0149999996647","sequential-stimulus-presentation","301","638757","0.0-56.0-1.2","SS1613143638546","trial","","40","800","1162.0149999996647","images/stimuli/spore_stims/complex_17_A_c.gif","images/stimuli/spore_stims/complex_11_B_a.gif","","","","","16","complex_dissimilar","images/stimuli/spore_stims/complex_17_A_c.gif","right","","","","",""
"","null","html-keyboard-response","302","639668","0.0-56.0-0.3","SS1613143638546","","","null","","","","","<p><img src= images/blank.png width =""200"" height = ""200"" style = ""float:right""></p><p><img src=images/blank.png width =""800"" height = ""200""></p>","","","","","","","","","","","",""
"","210.97499999997672","sequential-stimulus-presentation","303","640724","0.0-56.0-1.3","SS1613143638546","trial","","40","800","1010.9749999999767","images/stimuli/spore_stims/complex_17_A_c.gif","images/stimuli/spore_stims/complex_11_B_a.gif","","","","","16","complex_dissimilar","images/stimuli/spore_stims/complex_11_B_a.gif","middle","","","","",""
"","null","html-keyboard-response","304","641652","0.0-56.0-0.4","SS1613143638546","","","null","","","","","<p><img src= images/blank.png width =""200"" height = ""200"" style = ""float:right""></p><p><img src=images/blank.png width =""800"" height = ""200""></p>","","","","","","","","","","","",""
"","3370.8149999992456","sequential-stimulus-presentation","305","645860","0.0-56.0-1.4","SS1613143638546","trial","","40","800","4170.814999999246","images/stimuli/spore_stims/complex_17_A_c.gif","images/stimuli/spore_stims/complex_11_B_a.gif","","","","","16","complex_dissimilar","images/stimuli/spore_stims/complex_11_B_a.gif","middle","","","","",""
"","null","html-keyboard-response","306","646987","0.0-56.0-0.5","SS1613143638546","","","null","","","","","<p><img src= images/blank.png width =""200"" height = ""200"" style = ""float:right""></p><p><img src=images/blank.png width =""800"" height = ""200""></p>","","","","","","","","","","","",""
"","821.960000000312","sequential-stimulus-presentation","307","648628","0.0-56.0-1.5","SS1613143638546","trial","","40","800","1621.960000000312","images/stimuli/spore_stims/complex_17_A_c.gif","images/stimuli/spore_stims/complex_11_B_a.gif","","","","","16","complex_dissimilar","images/stimuli/spore_stims/complex_11_B_a.gif","middle","","","","",""
"","null","html-keyboard-response","308","649748","0.0-56.0-0.6","SS1613143638546","","","null","","","","","<p><img src= images/blank.png width =""200"" height = ""200"" style = ""float:right""></p><p><img src=images/blank.png width =""800"" height = ""200""></p>","","","","","","","","","","","",""
"","1645.2950000002747","sequential-stimulus-presentation","309","652227","0.0-56.0-1.6","SS1613143638546","trial","","40","800","2445.2950000002747","images/stimuli/spore_stims/complex_17_A_c.gif","images/stimuli/spore_stims/complex_11_B_a.gif","","","","","16","complex_dissimilar","images/stimuli/spore_stims/complex_11_B_a.gif","middle","","","","",""
"","null","html-keyboard-response","310","653510","0.0-56.0-0.7","SS1613143638546","","","null","","","","","<p><img src= images/blank.png width =""200"" height = ""200"" style = ""float:right""></p><p><img src=images/blank.png width =""800"" height = ""200""></p>","","","","","","","","","","","",""
"","2402.995000000461","sequential-stimulus-presentation","311","656747","0.0-56.0-1.7","SS1613143638546","trial","","40","800","3202.995000000461","images/stimuli/spore_stims/complex_17_A_c.gif","images/stimuli/spore_stims/complex_11_B_a.gif","","","","","16","complex_dissimilar","images/stimuli/spore_stims/complex_11_B_a.gif","middle","","","","",""
"","1529.7750000000233","html-keyboard-response","312","658323","0.0-57.0","SS1613143638546","pref_question","","99","","","","","<video width ='960' height = '540' style='padding-top:8%' autoplay muted><source src='images/stimuli/wall_pref.mp4' type='video/mp4'></video>","3","right","66%","16","","","","","","","",""
