"view_history","rt","trial_type","trial_index","time_elapsed","internal_node_id","subject","stimulus_type","trial_stimulus","key_press","minimum_viewing_duration","trial_looking_time","block_deviant","block_background","stimulus","wall_pref","location","location_percent","block_number","block_type","stimulus_displayed","position_displayed","stim_type_selected","responses","question_order","stimulus_left","stimulus_right"
"[{""page_index"":0,""viewing_time"":3557.730000000447}]","3560.2749999961816","instructions","0","3566","0.0-0.0","SS1613171712768","","","","","","","","","","","","","","","","","","","",""
"[{""page_index"":0,""viewing_time"":2546.619999979157},{""page_index"":1,""viewing_time"":12694.160000013653}]","15241.574999992736","instructions","1","20816","0.0-1.0","SS1613171712768","instructions","","","","","","","","","","","","","","","","","","",""
"","4300.749999994878","sequential-stimulus-presentation","2","25935","0.0-2.0","SS1613171712768","","","40","800","5100.749999994878","null","null","","","","","","","","","","","","",""
"","2033.5099999792874","sequential-stimulus-presentation","3","28779","0.0-3.0","SS1613171712768","","","40","800","2833.5099999792874","null","null","","","","","","","","","","","","",""
"[{""page_index"":0,""viewing_time"":1036.9249999639578}]","1037.1849999646656","instructions","4","29818","0.0-4.0","SS1613171712768","instructions","","","","","","","","","","","","","","","","","","",""
"","7657.254999969155","html-keyboard-response","5","37483","0.0-5.0","SS1613171712768","instructions","","99","","","","","<video width ='960' height = '540' autoplay muted><source src='images/stimuli/wall_pref.mp4' type='video/mp4'></video>","3","right","66%","","","","","","","","",""
"","3343.9500000094995","sequential-stimulus-presentation","6","41641","0.0-6.0","SS1613171712768","pref_reveal","","40","800","4143.9500000094995","null","null","","","","","","","","","","","","",""
"[{""page_index"":0,""viewing_time"":1155.7449999963865},{""page_index"":1,""viewing_time"":1279.5599999953993},{""page_index"":2,""viewing_time"":1151.81999997003},{""page_index"":3,""viewing_time"":3464.0350000117905}]","7051.574999990407","instructions","7","48696","0.0-7.0","SS1613171712768","instructions","","","","","","","","","","","","","","","","","","",""
"","null","html-keyboard-response","8","49553","0.0-8.0-0.0","SS1613171712768","","","null","","","","","<p><img src= images/blank.png width =""200"" height = ""200"" style = ""float:right""></p><p><img src=images/blank.png width =""800"" height = ""200""></p>","","","","","","","","","","","",""
"","3632.0900000282563","sequential-stimulus-presentation","9","54000","0.0-8.0-1.0","SS1613171712768","trial","","40","800","4432.090000028256","images/stimuli/spore_stims/simple_07_B_b.gif","images/stimuli/spore_stims/simple_04_A_d.gif","","","","","0","simple_dissimilar","images/stimuli/spore_stims/simple_04_A_d.gif","left","","","","",""
"","null","html-keyboard-response","10","54833","0.0-8.0-0.1","SS1613171712768","","","null","","","","","<p><img src= images/blank.png width =""200"" height = ""200"" style = ""float:right""></p><p><img src=images/blank.png width =""800"" height = ""200""></p>","","","","","","","","","","","",""
"","1242.194999998901","sequential-stimulus-presentation","11","56887","0.0-8.0-1.1","SS1613171712768","trial","","40","800","2042.194999998901","images/stimuli/spore_stims/simple_07_B_b.gif","images/stimuli/spore_stims/simple_04_A_d.gif","","","","","0","simple_dissimilar","images/stimuli/spore_stims/simple_04_A_d.gif","left","","","","",""
"","null","html-keyboard-response","12","58098","0.0-8.0-0.2","SS1613171712768","","","null","","","","","<p><img src= images/blank.png width =""200"" height = ""200"" style = ""float:right""></p><p><img src=images/blank.png width =""800"" height = ""200""></p>","","","","","","","","","","","",""
"","376.47999997716397","sequential-stimulus-presentation","13","59287","0.0-8.0-1.2","SS1613171712768","trial","","40","800","1176.479999977164","images/stimuli/spore_stims/simple_07_B_b.gif","images/stimuli/spore_stims/simple_04_A_d.gif","","","","","0","simple_dissimilar","images/stimuli/spore_stims/simple_07_B_b.gif","middle","","","","",""
"","null","html-keyboard-response","14","60481","0.0-8.0-0.3","SS1613171712768","","","null","","","","","<p><img src= images/blank.png width =""200"" height = ""200"" style = ""float:right""></p><p><img src=images/blank.png width =""800"" height = ""200""></p>","","","","","","","","","","","",""
"","1176.9250000361353","sequential-stimulus-presentation","15","62470","0.0-8.0-1.3","SS1613171712768","trial","","40","800","1976.9250000361353","images/stimuli/spore_stims/simple_07_B_b.gif","images/stimuli/spore_stims/simple_04_A_d.gif","","","","","0","simple_dissimilar","images/stimuli/spore_stims/simple_04_A_d.gif","left","","","","",""
"","null","html-keyboard-response","16","63613","0.0-8.0-0.4","SS1613171712768","","","null","","","","","<p><img src= images/blank.png width =""200"" height = ""200"" style = ""float:right""></p><p><img src=images/blank.png width =""800"" height = ""200""></p>","","","","","","","","","","","",""
"","2827.195000019856","sequential-stimulus-presentation","17","67254","0.0-8.0-1.4","SS1613171712768","trial","","40","800","3627.195000019856","images/stimuli/spore_stims/simple_07_B_b.gif","images/stimuli/spore_stims/simple_04_A_d.gif","","","","","0","simple_dissimilar","images/stimuli/spore_stims/simple_04_A_d.gif","left","","","","",""
"","null","html-keyboard-response","18","68468","0.0-8.0-0.5","SS1613171712768","","","null","","","","","<p><img src= images/blank.png width =""200"" height = ""200"" style = ""float:right""></p><p><img src=images/blank.png width =""800"" height = ""200""></p>","","","","","","","","","","","",""
"","301.5400000149384","sequential-stimulus-presentation","19","69583","0.0-8.0-1.5","SS1613171712768","trial","","40","800","1101.5400000149384","images/stimuli/spore_stims/simple_07_B_b.gif","images/stimuli/spore_stims/simple_04_A_d.gif","","","","","0","simple_dissimilar","images/stimuli/spore_stims/simple_04_A_d.gif","left","","","","",""
"","null","html-keyboard-response","20","70641","0.0-8.0-0.6","SS1613171712768","","","null","","","","","<p><img src= images/blank.png width =""200"" height = ""200"" style = ""float:right""></p><p><img src=images/blank.png width =""800"" height = ""200""></p>","","","","","","","","","","","",""
"","378.25000000884756","sequential-stimulus-presentation","21","71830","0.0-8.0-1.6","SS1613171712768","trial","","40","800","1178.2500000088476","images/stimuli/spore_stims/simple_07_B_b.gif","images/stimuli/spore_stims/simple_04_A_d.gif","","","","","0","simple_dissimilar","images/stimuli/spore_stims/simple_04_A_d.gif","left","","","","",""
"","null","html-keyboard-response","22","72860","0.0-8.0-0.7","SS1613171712768","","","null","","","","","<p><img src= images/blank.png width =""200"" height = ""200"" style = ""float:right""></p><p><img src=images/blank.png width =""800"" height = ""200""></p>","","","","","","","","","","","",""
"","445.4050000058487","sequential-stimulus-presentation","23","74117","0.0-8.0-1.7","SS1613171712768","trial","","40","800","1245.4050000058487","images/stimuli/spore_stims/simple_07_B_b.gif","images/stimuli/spore_stims/simple_04_A_d.gif","","","","","0","simple_dissimilar","images/stimuli/spore_stims/simple_04_A_d.gif","left","","","","",""
"","2866.325000009965","html-keyboard-response","24","76997","0.0-9.0","SS1613171712768","pref_question","","97","","","","","<video width ='960' height = '540' style='padding-top:8%' autoplay muted><source src='images/stimuli/wall_pref.mp4' type='video/mp4'></video>","1","left","25%","0","","","","","","","",""
"","1475.7749999989755","sequential-stimulus-presentation","25","79284","0.0-10.0","SS1613171712768","pref_reveal","","40","800","2275.7749999989755","null","null","","","","","0","","","","background","","","",""
"","null","html-keyboard-response","26","80419","0.0-11.0-0.0","SS1613171712768","","","null","","","","","<p><img src= images/blank.png width =""200"" height = ""200"" style = ""float:right""></p><p><img src=images/blank.png width =""800"" height = ""200""></p>","","","","","","","","","","","",""
"","5564.004999992903","sequential-stimulus-presentation","27","86796","0.0-11.0-1.0","SS1613171712768","trial","","40","800","6364.004999992903","images/stimuli/spore_stims/simple_08_A_c.gif","images/stimuli/spore_stims/simple_01_A_c.gif","","","","","1","simple_dissimilar","images/stimuli/spore_stims/simple_01_A_c.gif","right","","","","",""
"","null","html-keyboard-response","28","88065","0.0-11.0-0.1","SS1613171712768","","","null","","","","","<p><img src= images/blank.png width =""200"" height = ""200"" style = ""float:right""></p><p><img src=images/blank.png width =""800"" height = ""200""></p>","","","","","","","","","","","",""
"","796.9849999644794","sequential-stimulus-presentation","29","89675","0.0-11.0-1.1","SS1613171712768","trial","","40","800","1596.9849999644794","images/stimuli/spore_stims/simple_08_A_c.gif","images/stimuli/spore_stims/simple_01_A_c.gif","","","","","1","simple_dissimilar","images/stimuli/spore_stims/simple_01_A_c.gif","right","","","","",""
"","null","html-keyboard-response","30","90652","0.0-11.0-0.2","SS1613171712768","","","null","","","","","<p><img src= images/blank.png width =""200"" height = ""200"" style = ""float:right""></p><p><img src=images/blank.png width =""800"" height = ""200""></p>","","","","","","","","","","","",""
"","353.4400000353344","sequential-stimulus-presentation","31","91818","0.0-11.0-1.2","SS1613171712768","trial","","40","800","1153.4400000353344","images/stimuli/spore_stims/simple_08_A_c.gif","images/stimuli/spore_stims/simple_01_A_c.gif","","","","","1","simple_dissimilar","images/stimuli/spore_stims/simple_08_A_c.gif","left","","","","",""
"","null","html-keyboard-response","32","92981","0.0-11.0-0.3","SS1613171712768","","","null","","","","","<p><img src= images/blank.png width =""200"" height = ""200"" style = ""float:right""></p><p><img src=images/blank.png width =""800"" height = ""200""></p>","","","","","","","","","","","",""
"","408.92499999608845","sequential-stimulus-presentation","33","94203","0.0-11.0-1.3","SS1613171712768","trial","","40","800","1208.9249999960884","images/stimuli/spore_stims/simple_08_A_c.gif","images/stimuli/spore_stims/simple_01_A_c.gif","","","","","1","simple_dissimilar","images/stimuli/spore_stims/simple_01_A_c.gif","right","","","","",""
"","null","html-keyboard-response","34","95048","0.0-11.0-0.4","SS1613171712768","","","null","","","","","<p><img src= images/blank.png width =""200"" height = ""200"" style = ""float:right""></p><p><img src=images/blank.png width =""800"" height = ""200""></p>","","","","","","","","","","","",""
"","431.3649999676272","sequential-stimulus-presentation","35","96330","0.0-11.0-1.4","SS1613171712768","trial","","40","800","1231.3649999676272","images/stimuli/spore_stims/simple_08_A_c.gif","images/stimuli/spore_stims/simple_01_A_c.gif","","","","","1","simple_dissimilar","images/stimuli/spore_stims/simple_01_A_c.gif","right","","","","",""
"","null","html-keyboard-response","36","97222","0.0-11.0-0.5","SS1613171712768","","","null","","","","","<p><img src= images/blank.png width =""200"" height = ""200"" style = ""float:right""></p><p><img src=images/blank.png width =""800"" height = ""200""></p>","","","","","","","","","","","",""
"","264.31500003673136","sequential-stimulus-presentation","37","98298","0.0-11.0-1.5","SS1613171712768","trial","","40","800","1064.3150000367314","images/stimuli/spore_stims/simple_08_A_c.gif","images/stimuli/spore_stims/simple_01_A_c.gif","","","","","1","simple_dissimilar","images/stimuli/spore_stims/simple_01_A_c.gif","right","","","","",""
"","null","html-keyboard-response","38","99318","0.0-11.0-0.6","SS1613171712768","","","null","","","","","<p><img src= images/blank.png width =""200"" height = ""200"" style = ""float:right""></p><p><img src=images/blank.png width =""800"" height = ""200""></p>","","","","","","","","","","","",""
"","1413.4299999568611","sequential-stimulus-presentation","39","101545","0.0-11.0-1.6","SS1613171712768","trial","","40","800","2213.429999956861","images/stimuli/spore_stims/simple_08_A_c.gif","images/stimuli/spore_stims/simple_01_A_c.gif","","","","","1","simple_dissimilar","images/stimuli/spore_stims/simple_01_A_c.gif","right","","","","",""
"","null","html-keyboard-response","40","102515","0.0-11.0-0.7","SS1613171712768","","","null","","","","","<p><img src= images/blank.png width =""200"" height = ""200"" style = ""float:right""></p><p><img src=images/blank.png width =""800"" height = ""200""></p>","","","","","","","","","","","",""
"","894.1800000029616","sequential-stimulus-presentation","41","104216","0.0-11.0-1.7","SS1613171712768","trial","","40","800","1694.1800000029616","images/stimuli/spore_stims/simple_08_A_c.gif","images/stimuli/spore_stims/simple_01_A_c.gif","","","","","1","simple_dissimilar","images/stimuli/spore_stims/simple_01_A_c.gif","right","","","","",""
"","1829.9899999983609","html-keyboard-response","42","106056","0.0-12.0","SS1613171712768","pref_question","","99","","","","","<video width ='960' height = '540' style='padding-top:8%' autoplay muted><source src='images/stimuli/wall_pref.mp4' type='video/mp4'></video>","3","right","66%","1","","","","","","","",""
"","695.8449999801815","sequential-stimulus-presentation","43","107559","0.0-13.0","SS1613171712768","pref_reveal","","40","800","1495.8449999801815","null","null","","","","","1","","","","background","","","",""
"","null","html-keyboard-response","44","108752","0.0-14.0-0.0","SS1613171712768","","","null","","","","","<p><img src= images/blank.png width =""200"" height = ""200"" style = ""float:right""></p><p><img src=images/blank.png width =""800"" height = ""200""></p>","","","","","","","","","","","",""
"","207.2899999911897","sequential-stimulus-presentation","45","109775","0.0-14.0-1.0","SS1613171712768","trial","","40","800","1007.2899999911897","images/stimuli/spore_stims/complex_06_B_a.gif","images/stimuli/spore_stims/complex_02_B_b.gif","","","","","2","complex_dissimilar","images/stimuli/spore_stims/complex_02_B_b.gif","right","","","","",""
"","null","html-keyboard-response","46","110899","0.0-14.0-0.1","SS1613171712768","","","null","","","","","<p><img src= images/blank.png width =""200"" height = ""200"" style = ""float:right""></p><p><img src=images/blank.png width =""800"" height = ""200""></p>","","","","","","","","","","","",""
"","850.8950000395998","sequential-stimulus-presentation","47","112559","0.0-14.0-1.1","SS1613171712768","trial","","40","800","1650.8950000395998","images/stimuli/spore_stims/complex_06_B_a.gif","images/stimuli/spore_stims/complex_02_B_b.gif","","","","","2","complex_dissimilar","images/stimuli/spore_stims/complex_02_B_b.gif","right","","","","",""
"","null","html-keyboard-response","48","113391","0.0-14.0-0.2","SS1613171712768","","","null","","","","","<p><img src= images/blank.png width =""200"" height = ""200"" style = ""float:right""></p><p><img src=images/blank.png width =""800"" height = ""200""></p>","","","","","","","","","","","",""
"","440.085000009276","sequential-stimulus-presentation","49","114639","0.0-14.0-1.2","SS1613171712768","trial","","40","800","1240.085000009276","images/stimuli/spore_stims/complex_06_B_a.gif","images/stimuli/spore_stims/complex_02_B_b.gif","","","","","2","complex_dissimilar","images/stimuli/spore_stims/complex_02_B_b.gif","right","","","","",""
"","null","html-keyboard-response","50","115463","0.0-14.0-0.3","SS1613171712768","","","null","","","","","<p><img src= images/blank.png width =""200"" height = ""200"" style = ""float:right""></p><p><img src=images/blank.png width =""800"" height = ""200""></p>","","","","","","","","","","","",""
"","327.15500000631437","sequential-stimulus-presentation","51","116598","0.0-14.0-1.3","SS1613171712768","trial","","40","800","1127.1550000063144","images/stimuli/spore_stims/complex_06_B_a.gif","images/stimuli/spore_stims/complex_02_B_b.gif","","","","","2","complex_dissimilar","images/stimuli/spore_stims/complex_02_B_b.gif","right","","","","",""
"","null","html-keyboard-response","52","117883","0.0-14.0-0.4","SS1613171712768","","","null","","","","","<p><img src= images/blank.png width =""200"" height = ""200"" style = ""float:right""></p><p><img src=images/blank.png width =""800"" height = ""200""></p>","","","","","","","","","","","",""
"","129.58000000799075","sequential-stimulus-presentation","53","118821","0.0-14.0-1.4","SS1613171712768","trial","","40","800","929.5800000079907","images/stimuli/spore_stims/complex_06_B_a.gif","images/stimuli/spore_stims/complex_02_B_b.gif","","","","","2","complex_dissimilar","images/stimuli/spore_stims/complex_02_B_b.gif","right","","","","",""
"","null","html-keyboard-response","54","119792","0.0-14.0-0.5","SS1613171712768","","","null","","","","","<p><img src= images/blank.png width =""200"" height = ""200"" style = ""float:right""></p><p><img src=images/blank.png width =""800"" height = ""200""></p>","","","","","","","","","","","",""
"","133.72500002151355","sequential-stimulus-presentation","55","120734","0.0-14.0-1.5","SS1613171712768","trial","","40","800","933.7250000215136","images/stimuli/spore_stims/complex_06_B_a.gif","images/stimuli/spore_stims/complex_02_B_b.gif","","","","","2","complex_dissimilar","images/stimuli/spore_stims/complex_02_B_b.gif","right","","","","",""
"","null","html-keyboard-response","56","121921","0.0-14.0-0.6","SS1613171712768","","","null","","","","","<p><img src= images/blank.png width =""200"" height = ""200"" style = ""float:right""></p><p><img src=images/blank.png width =""800"" height = ""200""></p>","","","","","","","","","","","",""
"","412.08500001812354","sequential-stimulus-presentation","57","123141","0.0-14.0-1.6","SS1613171712768","trial","","40","800","1212.0850000181235","images/stimuli/spore_stims/complex_06_B_a.gif","images/stimuli/spore_stims/complex_02_B_b.gif","","","","","2","complex_dissimilar","images/stimuli/spore_stims/complex_06_B_a.gif","middle","","","","",""
"","null","html-keyboard-response","58","124108","0.0-14.0-0.7","SS1613171712768","","","null","","","","","<p><img src= images/blank.png width =""200"" height = ""200"" style = ""float:right""></p><p><img src=images/blank.png width =""800"" height = ""200""></p>","","","","","","","","","","","",""
"","5.164999980479479","sequential-stimulus-presentation","59","124926","0.0-14.0-1.7","SS1613171712768","trial","","40","800","805.1649999804795","images/stimuli/spore_stims/complex_06_B_a.gif","images/stimuli/spore_stims/complex_02_B_b.gif","","","","","2","complex_dissimilar","images/stimuli/spore_stims/complex_02_B_b.gif","right","","","","",""
"","1711.9099999545142","html-keyboard-response","60","126684","0.0-15.0","SS1613171712768","pref_question","","98","","","","","<video width ='960' height = '540' style='padding-top:8%' autoplay muted><source src='images/stimuli/wall_pref.mp4' type='video/mp4'></video>","2","middle","45%","2","","","","","","","",""
"","366.26999999862164","sequential-stimulus-presentation","61","127861","0.0-16.0","SS1613171712768","pref_reveal","","40","800","1166.2699999986216","null","null","","","","","2","","","","deviant","","","",""
"","null","html-keyboard-response","62","128944","0.0-17.0-0.0","SS1613171712768","","","null","","","","","<p><img src= images/blank.png width =""200"" height = ""200"" style = ""float:right""></p><p><img src=images/blank.png width =""800"" height = ""200""></p>","","","","","","","","","","","",""
"","379.5300000347197","sequential-stimulus-presentation","63","130134","0.0-17.0-1.0","SS1613171712768","trial","","40","800","1179.5300000347197","images/stimuli/spore_stims/complex_17_B_d.gif","images/stimuli/spore_stims/complex_09_B_d.gif","","","","","3","complex_dissimilar","images/stimuli/spore_stims/complex_09_B_d.gif","left","","","","",""
"","null","html-keyboard-response","64","131227","0.0-17.0-0.1","SS1613171712768","","","null","","","","","<p><img src= images/blank.png width =""200"" height = ""200"" style = ""float:right""></p><p><img src=images/blank.png width =""800"" height = ""200""></p>","","","","","","","","","","","",""
"","688.0900000105612","sequential-stimulus-presentation","65","132724","0.0-17.0-1.1","SS1613171712768","trial","","40","800","1488.0900000105612","images/stimuli/spore_stims/complex_17_B_d.gif","images/stimuli/spore_stims/complex_09_B_d.gif","","","","","3","complex_dissimilar","images/stimuli/spore_stims/complex_09_B_d.gif","left","","","","",""
"","null","html-keyboard-response","66","133797","0.0-17.0-0.2","SS1613171712768","","","null","","","","","<p><img src= images/blank.png width =""200"" height = ""200"" style = ""float:right""></p><p><img src=images/blank.png width =""800"" height = ""200""></p>","","","","","","","","","","","",""
"","270.6400000024587","sequential-stimulus-presentation","67","134876","0.0-17.0-1.2","SS1613171712768","trial","","40","800","1070.6400000024587","images/stimuli/spore_stims/complex_17_B_d.gif","images/stimuli/spore_stims/complex_09_B_d.gif","","","","","3","complex_dissimilar","images/stimuli/spore_stims/complex_09_B_d.gif","left","","","","",""
"","null","html-keyboard-response","68","135823","0.0-17.0-0.3","SS1613171712768","","","null","","","","","<p><img src= images/blank.png width =""200"" height = ""200"" style = ""float:right""></p><p><img src=images/blank.png width =""800"" height = ""200""></p>","","","","","","","","","","","",""
"","236.8949999799952","sequential-stimulus-presentation","69","136868","0.0-17.0-1.3","SS1613171712768","trial","","40","800","1036.8949999799952","images/stimuli/spore_stims/complex_17_B_d.gif","images/stimuli/spore_stims/complex_09_B_d.gif","","","","","3","complex_dissimilar","images/stimuli/spore_stims/complex_09_B_d.gif","left","","","","",""
"","null","html-keyboard-response","70","137906","0.0-17.0-0.4","SS1613171712768","","","null","","","","","<p><img src= images/blank.png width =""200"" height = ""200"" style = ""float:right""></p><p><img src=images/blank.png width =""800"" height = ""200""></p>","","","","","","","","","","","",""
"","295.7649999880232","sequential-stimulus-presentation","71","139011","0.0-17.0-1.4","SS1613171712768","trial","","40","800","1095.7649999880232","images/stimuli/spore_stims/complex_17_B_d.gif","images/stimuli/spore_stims/complex_09_B_d.gif","","","","","3","complex_dissimilar","images/stimuli/spore_stims/complex_09_B_d.gif","left","","","","",""
"","null","html-keyboard-response","72","140302","0.0-17.0-0.5","SS1613171712768","","","null","","","","","<p><img src= images/blank.png width =""200"" height = ""200"" style = ""float:right""></p><p><img src=images/blank.png width =""800"" height = ""200""></p>","","","","","","","","","","","",""
"","620.3199999872595","sequential-stimulus-presentation","73","141731","0.0-17.0-1.5","SS1613171712768","trial","","40","800","1420.3199999872595","images/stimuli/spore_stims/complex_17_B_d.gif","images/stimuli/spore_stims/complex_09_B_d.gif","","","","","3","complex_dissimilar","images/stimuli/spore_stims/complex_17_B_d.gif","right","","","","",""
"","null","html-keyboard-response","74","142652","0.0-17.0-0.6","SS1613171712768","","","null","","","","","<p><img src= images/blank.png width =""200"" height = ""200"" style = ""float:right""></p><p><img src=images/blank.png width =""800"" height = ""200""></p>","","","","","","","","","","","",""
"","337.8900000243448","sequential-stimulus-presentation","75","143803","0.0-17.0-1.6","SS1613171712768","trial","","40","800","1137.8900000243448","images/stimuli/spore_stims/complex_17_B_d.gif","images/stimuli/spore_stims/complex_09_B_d.gif","","","","","3","complex_dissimilar","images/stimuli/spore_stims/complex_09_B_d.gif","left","","","","",""
"","null","html-keyboard-response","76","144753","0.0-17.0-0.7","SS1613171712768","","","null","","","","","<p><img src= images/blank.png width =""200"" height = ""200"" style = ""float:right""></p><p><img src=images/blank.png width =""800"" height = ""200""></p>","","","","","","","","","","","",""
"","262.41000002482906","sequential-stimulus-presentation","77","145826","0.0-17.0-1.7","SS1613171712768","trial","","40","800","1062.410000024829","images/stimuli/spore_stims/complex_17_B_d.gif","images/stimuli/spore_stims/complex_09_B_d.gif","","","","","3","complex_dissimilar","images/stimuli/spore_stims/complex_09_B_d.gif","left","","","","",""
"","1345.644999993965","html-keyboard-response","78","147179","0.0-18.0","SS1613171712768","pref_question","","97","","","","","<video width ='960' height = '540' style='padding-top:8%' autoplay muted><source src='images/stimuli/wall_pref.mp4' type='video/mp4'></video>","1","left","25%","3","","","","","","","",""
"","317.9150000214577","sequential-stimulus-presentation","79","148306","0.0-19.0","SS1613171712768","pref_reveal","","40","800","1117.9150000214577","null","null","","","","","3","","","","background","","","",""
"","null","html-keyboard-response","80","149449","0.0-20.0-0.0","SS1613171712768","","","null","","","","","<p><img src= images/blank.png width =""200"" height = ""200"" style = ""float:right""></p><p><img src=images/blank.png width =""800"" height = ""200""></p>","","","","","","","","","","","",""
"","480.07999995024875","sequential-stimulus-presentation","81","150739","0.0-20.0-1.0","SS1613171712768","trial","","40","800","1280.0799999502487","images/stimuli/spore_stims/simple_13_B_a.gif","images/stimuli/spore_stims/simple_11_A_c.gif","","","","","4","simple_dissimilar","images/stimuli/spore_stims/simple_11_A_c.gif","middle","","","","",""
"","null","html-keyboard-response","82","151768","0.0-20.0-0.1","SS1613171712768","","","null","","","","","<p><img src= images/blank.png width =""200"" height = ""200"" style = ""float:right""></p><p><img src=images/blank.png width =""800"" height = ""200""></p>","","","","","","","","","","","",""
"","328.0899999663234","sequential-stimulus-presentation","83","152906","0.0-20.0-1.1","SS1613171712768","trial","","40","800","1128.0899999663234","images/stimuli/spore_stims/simple_13_B_a.gif","images/stimuli/spore_stims/simple_11_A_c.gif","","","","","4","simple_dissimilar","images/stimuli/spore_stims/simple_11_A_c.gif","middle","","","","",""
"","null","html-keyboard-response","84","153785","0.0-20.0-0.2","SS1613171712768","","","null","","","","","<p><img src= images/blank.png width =""200"" height = ""200"" style = ""float:right""></p><p><img src=images/blank.png width =""800"" height = ""200""></p>","","","","","","","","","","","",""
"","307.2950000059791","sequential-stimulus-presentation","85","154906","0.0-20.0-1.2","SS1613171712768","trial","","40","800","1107.295000005979","images/stimuli/spore_stims/simple_13_B_a.gif","images/stimuli/spore_stims/simple_11_A_c.gif","","","","","4","simple_dissimilar","images/stimuli/spore_stims/simple_13_B_a.gif","right","","","","",""
"","null","html-keyboard-response","86","155944","0.0-20.0-0.3","SS1613171712768","","","null","","","","","<p><img src= images/blank.png width =""200"" height = ""200"" style = ""float:right""></p><p><img src=images/blank.png width =""800"" height = ""200""></p>","","","","","","","","","","","",""
"","377.07000004593283","sequential-stimulus-presentation","87","157186","0.0-20.0-1.3","SS1613171712768","trial","","40","800","1177.0700000459328","images/stimuli/spore_stims/simple_13_B_a.gif","images/stimuli/spore_stims/simple_11_A_c.gif","","","","","4","simple_dissimilar","images/stimuli/spore_stims/simple_11_A_c.gif","middle","","","","",""
"","null","html-keyboard-response","88","158224","0.0-20.0-0.4","SS1613171712768","","","null","","","","","<p><img src= images/blank.png width =""200"" height = ""200"" style = ""float:right""></p><p><img src=images/blank.png width =""800"" height = ""200""></p>","","","","","","","","","","","",""
"","426.9800000474788","sequential-stimulus-presentation","89","159464","0.0-20.0-1.4","SS1613171712768","trial","","40","800","1226.9800000474788","images/stimuli/spore_stims/simple_13_B_a.gif","images/stimuli/spore_stims/simple_11_A_c.gif","","","","","4","simple_dissimilar","images/stimuli/spore_stims/simple_11_A_c.gif","middle","","","","",""
"","null","html-keyboard-response","90","160527","0.0-20.0-0.5","SS1613171712768","","","null","","","","","<p><img src= images/blank.png width =""200"" height = ""200"" style = ""float:right""></p><p><img src=images/blank.png width =""800"" height = ""200""></p>","","","","","","","","","","","",""
"","299.799999978859","sequential-stimulus-presentation","91","161641","0.0-20.0-1.5","SS1613171712768","trial","","40","800","1099.799999978859","images/stimuli/spore_stims/simple_13_B_a.gif","images/stimuli/spore_stims/simple_11_A_c.gif","","","","","4","simple_dissimilar","images/stimuli/spore_stims/simple_11_A_c.gif","middle","","","","",""
"","null","html-keyboard-response","92","162538","0.0-20.0-0.6","SS1613171712768","","","null","","","","","<p><img src= images/blank.png width =""200"" height = ""200"" style = ""float:right""></p><p><img src=images/blank.png width =""800"" height = ""200""></p>","","","","","","","","","","","",""
"","214.17499997187406","sequential-stimulus-presentation","93","163568","0.0-20.0-1.6","SS1613171712768","trial","","40","800","1014.1749999718741","images/stimuli/spore_stims/simple_13_B_a.gif","images/stimuli/spore_stims/simple_11_A_c.gif","","","","","4","simple_dissimilar","images/stimuli/spore_stims/simple_11_A_c.gif","middle","","","","",""
"","null","html-keyboard-response","94","164491","0.0-20.0-0.7","SS1613171712768","","","null","","","","","<p><img src= images/blank.png width =""200"" height = ""200"" style = ""float:right""></p><p><img src=images/blank.png width =""800"" height = ""200""></p>","","","","","","","","","","","",""
"","302.0050000050105","sequential-stimulus-presentation","95","165648","0.0-20.0-1.7","SS1613171712768","trial","","40","800","1102.0050000050105","images/stimuli/spore_stims/simple_13_B_a.gif","images/stimuli/spore_stims/simple_11_A_c.gif","","","","","4","simple_dissimilar","images/stimuli/spore_stims/simple_11_A_c.gif","middle","","","","",""
"","1471.5949999517761","html-keyboard-response","96","167128","0.0-21.0","SS1613171712768","pref_question","","98","","","","","<video width ='960' height = '540' style='padding-top:8%' autoplay muted><source src='images/stimuli/wall_pref.mp4' type='video/mp4'></video>","2","middle","45%","4","","","","","","","",""
"","320.1349999872036","sequential-stimulus-presentation","97","168264","0.0-22.0","SS1613171712768","pref_reveal","","40","800","1120.1349999872036","null","null","","","","","4","","","","background","","","",""
"","null","html-keyboard-response","98","169500","0.0-23.0-0.0","SS1613171712768","","","null","","","","","<p><img src= images/blank.png width =""200"" height = ""200"" style = ""float:right""></p><p><img src=images/blank.png width =""800"" height = ""200""></p>","","","","","","","","","","","",""
"","380.4899999522604","sequential-stimulus-presentation","99","170696","0.0-23.0-1.0","SS1613171712768","trial","","40","800","1180.4899999522604","images/stimuli/spore_stims/simple_10_B_c.gif","images/stimuli/spore_stims/simple_10_A_c.gif","","","","","5","simple_similar","images/stimuli/spore_stims/simple_10_A_c.gif","right","","","","",""
"","null","html-keyboard-response","100","171551","0.0-23.0-0.1","SS1613171712768","","","null","","","","","<p><img src= images/blank.png width =""200"" height = ""200"" style = ""float:right""></p><p><img src=images/blank.png width =""800"" height = ""200""></p>","","","","","","","","","","","",""
"","80.33000002615154","sequential-stimulus-presentation","101","172446","0.0-23.0-1.1","SS1613171712768","trial","","40","800","880.3300000261515","images/stimuli/spore_stims/simple_10_B_c.gif","images/stimuli/spore_stims/simple_10_A_c.gif","","","","","5","simple_similar","images/stimuli/spore_stims/simple_10_A_c.gif","right","","","","",""
"","null","html-keyboard-response","102","173328","0.0-23.0-0.2","SS1613171712768","","","null","","","","","<p><img src= images/blank.png width =""200"" height = ""200"" style = ""float:right""></p><p><img src=images/blank.png width =""800"" height = ""200""></p>","","","","","","","","","","","",""
"","373.810000019148","sequential-stimulus-presentation","103","174551","0.0-23.0-1.2","SS1613171712768","trial","","40","800","1173.810000019148","images/stimuli/spore_stims/simple_10_B_c.gif","images/stimuli/spore_stims/simple_10_A_c.gif","","","","","5","simple_similar","images/stimuli/spore_stims/simple_10_A_c.gif","right","","","","",""
"","null","html-keyboard-response","104","175725","0.0-23.0-0.3","SS1613171712768","","","null","","","","","<p><img src= images/blank.png width =""200"" height = ""200"" style = ""float:right""></p><p><img src=images/blank.png width =""800"" height = ""200""></p>","","","","","","","","","","","",""
"","529.5399999595247","sequential-stimulus-presentation","105","177070","0.0-23.0-1.3","SS1613171712768","trial","","40","800","1329.5399999595247","images/stimuli/spore_stims/simple_10_B_c.gif","images/stimuli/spore_stims/simple_10_A_c.gif","","","","","5","simple_similar","images/stimuli/spore_stims/simple_10_B_c.gif","middle","","","","",""
"","null","html-keyboard-response","106","178064","0.0-23.0-0.4","SS1613171712768","","","null","","","","","<p><img src= images/blank.png width =""200"" height = ""200"" style = ""float:right""></p><p><img src=images/blank.png width =""800"" height = ""200""></p>","","","","","","","","","","","",""
"","97.10999997332692","sequential-stimulus-presentation","107","178976","0.0-23.0-1.4","SS1613171712768","trial","","40","800","897.1099999733269","images/stimuli/spore_stims/simple_10_B_c.gif","images/stimuli/spore_stims/simple_10_A_c.gif","","","","","5","simple_similar","images/stimuli/spore_stims/simple_10_A_c.gif","right","","","","",""
"","null","html-keyboard-response","108","179956","0.0-23.0-0.5","SS1613171712768","","","null","","","","","<p><img src= images/blank.png width =""200"" height = ""200"" style = ""float:right""></p><p><img src=images/blank.png width =""800"" height = ""200""></p>","","","","","","","","","","","",""
"","570.2049999963492","sequential-stimulus-presentation","109","181342","0.0-23.0-1.5","SS1613171712768","trial","","40","800","1370.2049999963492","images/stimuli/spore_stims/simple_10_B_c.gif","images/stimuli/spore_stims/simple_10_A_c.gif","","","","","5","simple_similar","images/stimuli/spore_stims/simple_10_A_c.gif","right","","","","",""
"","null","html-keyboard-response","110","182202","0.0-23.0-0.6","SS1613171712768","","","null","","","","","<p><img src= images/blank.png width =""200"" height = ""200"" style = ""float:right""></p><p><img src=images/blank.png width =""800"" height = ""200""></p>","","","","","","","","","","","",""
"","202.1950000198558","sequential-stimulus-presentation","111","183214","0.0-23.0-1.6","SS1613171712768","trial","","40","800","1002.1950000198558","images/stimuli/spore_stims/simple_10_B_c.gif","images/stimuli/spore_stims/simple_10_A_c.gif","","","","","5","simple_similar","images/stimuli/spore_stims/simple_10_A_c.gif","right","","","","",""
"","null","html-keyboard-response","112","184039","0.0-23.0-0.7","SS1613171712768","","","null","","","","","<p><img src= images/blank.png width =""200"" height = ""200"" style = ""float:right""></p><p><img src=images/blank.png width =""800"" height = ""200""></p>","","","","","","","","","","","",""
"","278.46000000135973","sequential-stimulus-presentation","113","185133","0.0-23.0-1.7","SS1613171712768","trial","","40","800","1078.4600000013597","images/stimuli/spore_stims/simple_10_B_c.gif","images/stimuli/spore_stims/simple_10_A_c.gif","","","","","5","simple_similar","images/stimuli/spore_stims/simple_10_A_c.gif","right","","","","",""
"","1395.2599999611266","html-keyboard-response","114","186573","0.0-24.0","SS1613171712768","pref_question","","98","","","","","<video width ='960' height = '540' style='padding-top:8%' autoplay muted><source src='images/stimuli/wall_pref.mp4' type='video/mp4'></video>","2","middle","45%","5","","","","","","","",""
"","446.7250000452623","sequential-stimulus-presentation","115","187836","0.0-25.0","SS1613171712768","pref_reveal","","40","800","1246.7250000452623","null","null","","","","","5","","","","deviant","","","",""
"","null","html-keyboard-response","116","188825","0.0-26.0-0.0","SS1613171712768","","","null","","","","","<p><img src= images/blank.png width =""200"" height = ""200"" style = ""float:right""></p><p><img src=images/blank.png width =""800"" height = ""200""></p>","","","","","","","","","","","",""
"","722.7350000175647","sequential-stimulus-presentation","117","190366","0.0-26.0-1.0","SS1613171712768","trial","","40","800","1522.7350000175647","images/stimuli/spore_stims/complex_18_B_b.gif","images/stimuli/spore_stims/complex_03_A_c.gif","","","","","6","complex_dissimilar","images/stimuli/spore_stims/complex_03_A_c.gif","right","","","","",""
"","null","html-keyboard-response","118","191611","0.0-26.0-0.1","SS1613171712768","","","null","","","","","<p><img src= images/blank.png width =""200"" height = ""200"" style = ""float:right""></p><p><img src=images/blank.png width =""800"" height = ""200""></p>","","","","","","","","","","","",""
"","32.829999981913716","sequential-stimulus-presentation","119","192460","0.0-26.0-1.1","SS1613171712768","trial","","40","800","832.8299999819137","images/stimuli/spore_stims/complex_18_B_b.gif","images/stimuli/spore_stims/complex_03_A_c.gif","","","","","6","complex_dissimilar","images/stimuli/spore_stims/complex_03_A_c.gif","right","","","","",""
"","null","html-keyboard-response","120","193313","0.0-26.0-0.2","SS1613171712768","","","null","","","","","<p><img src= images/blank.png width =""200"" height = ""200"" style = ""float:right""></p><p><img src=images/blank.png width =""800"" height = ""200""></p>","","","","","","","","","","","",""
"","129.84499998856336","sequential-stimulus-presentation","121","194260","0.0-26.0-1.2","SS1613171712768","trial","","40","800","929.8449999885634","images/stimuli/spore_stims/complex_18_B_b.gif","images/stimuli/spore_stims/complex_03_A_c.gif","","","","","6","complex_dissimilar","images/stimuli/spore_stims/complex_03_A_c.gif","right","","","","",""
"","null","html-keyboard-response","122","195293","0.0-26.0-0.3","SS1613171712768","","","null","","","","","<p><img src= images/blank.png width =""200"" height = ""200"" style = ""float:right""></p><p><img src=images/blank.png width =""800"" height = ""200""></p>","","","","","","","","","","","",""
"","262.5349999871105","sequential-stimulus-presentation","123","196372","0.0-26.0-1.3","SS1613171712768","trial","","40","800","1062.5349999871105","images/stimuli/spore_stims/complex_18_B_b.gif","images/stimuli/spore_stims/complex_03_A_c.gif","","","","","6","complex_dissimilar","images/stimuli/spore_stims/complex_03_A_c.gif","right","","","","",""
"","null","html-keyboard-response","124","197514","0.0-26.0-0.4","SS1613171712768","","","null","","","","","<p><img src= images/blank.png width =""200"" height = ""200"" style = ""float:right""></p><p><img src=images/blank.png width =""800"" height = ""200""></p>","","","","","","","","","","","",""
"","258.6649999720976","sequential-stimulus-presentation","125","198589","0.0-26.0-1.4","SS1613171712768","trial","","40","800","1058.6649999720976","images/stimuli/spore_stims/complex_18_B_b.gif","images/stimuli/spore_stims/complex_03_A_c.gif","","","","","6","complex_dissimilar","images/stimuli/spore_stims/complex_03_A_c.gif","right","","","","",""
"","null","html-keyboard-response","126","199798","0.0-26.0-0.5","SS1613171712768","","","null","","","","","<p><img src= images/blank.png width =""200"" height = ""200"" style = ""float:right""></p><p><img src=images/blank.png width =""800"" height = ""200""></p>","","","","","","","","","","","",""
"","141.6249999892898","sequential-stimulus-presentation","127","200756","0.0-26.0-1.5","SS1613171712768","trial","","40","800","941.6249999892898","images/stimuli/spore_stims/complex_18_B_b.gif","images/stimuli/spore_stims/complex_03_A_c.gif","","","","","6","complex_dissimilar","images/stimuli/spore_stims/complex_03_A_c.gif","right","","","","",""
"","null","html-keyboard-response","128","201689","0.0-26.0-0.6","SS1613171712768","","","null","","","","","<p><img src= images/blank.png width =""200"" height = ""200"" style = ""float:right""></p><p><img src=images/blank.png width =""800"" height = ""200""></p>","","","","","","","","","","","",""
"","184.91499999072403","sequential-stimulus-presentation","129","202691","0.0-26.0-1.6","SS1613171712768","trial","","40","800","984.914999990724","images/stimuli/spore_stims/complex_18_B_b.gif","images/stimuli/spore_stims/complex_03_A_c.gif","","","","","6","complex_dissimilar","images/stimuli/spore_stims/complex_18_B_b.gif","left","","","","",""
"","null","html-keyboard-response","130","203697","0.0-26.0-0.7","SS1613171712768","","","null","","","","","<p><img src= images/blank.png width =""200"" height = ""200"" style = ""float:right""></p><p><img src=images/blank.png width =""800"" height = ""200""></p>","","","","","","","","","","","",""
"","95.63499997602776","sequential-stimulus-presentation","131","204611","0.0-26.0-1.7","SS1613171712768","trial","","40","800","895.6349999760278","images/stimuli/spore_stims/complex_18_B_b.gif","images/stimuli/spore_stims/complex_03_A_c.gif","","","","","6","complex_dissimilar","images/stimuli/spore_stims/complex_03_A_c.gif","right","","","","",""
"","2303.090000001248","html-keyboard-response","132","206931","0.0-27.0","SS1613171712768","pref_question","","97","","","","","<video width ='960' height = '540' style='padding-top:8%' autoplay muted><source src='images/stimuli/wall_pref.mp4' type='video/mp4'></video>","1","left","25%","6","","","","","","","",""
"","438.0850000306964","sequential-stimulus-presentation","133","208186","0.0-28.0","SS1613171712768","pref_reveal","","40","800","1238.0850000306964","null","null","","","","","6","","","","deviant","","","",""
"","null","html-keyboard-response","134","209035","0.0-29.0-0.0","SS1613171712768","","","null","","","","","<p><img src= images/blank.png width =""200"" height = ""200"" style = ""float:right""></p><p><img src=images/blank.png width =""800"" height = ""200""></p>","","","","","","","","","","","",""
"","68.90499999281019","sequential-stimulus-presentation","135","209922","0.0-29.0-1.0","SS1613171712768","trial","","40","800","868.9049999928102","images/stimuli/spore_stims/complex_20_A_b.gif","images/stimuli/spore_stims/complex_20_B_d.gif","","","","","7","complex_dissimilar","images/stimuli/spore_stims/complex_20_B_d.gif","right","","","","",""
"","null","html-keyboard-response","136","210938","0.0-29.0-0.1","SS1613171712768","","","null","","","","","<p><img src= images/blank.png width =""200"" height = ""200"" style = ""float:right""></p><p><img src=images/blank.png width =""800"" height = ""200""></p>","","","","","","","","","","","",""
"","254.5350000145845","sequential-stimulus-presentation","137","212011","0.0-29.0-1.1","SS1613171712768","trial","","40","800","1054.5350000145845","images/stimuli/spore_stims/complex_20_A_b.gif","images/stimuli/spore_stims/complex_20_B_d.gif","","","","","7","complex_dissimilar","images/stimuli/spore_stims/complex_20_B_d.gif","right","","","","",""
"","null","html-keyboard-response","138","212927","0.0-29.0-0.2","SS1613171712768","","","null","","","","","<p><img src= images/blank.png width =""200"" height = ""200"" style = ""float:right""></p><p><img src=images/blank.png width =""800"" height = ""200""></p>","","","","","","","","","","","",""
"","289.359999995213","sequential-stimulus-presentation","139","214034","0.0-29.0-1.2","SS1613171712768","trial","","40","800","1089.359999995213","images/stimuli/spore_stims/complex_20_A_b.gif","images/stimuli/spore_stims/complex_20_B_d.gif","","","","","7","complex_dissimilar","images/stimuli/spore_stims/complex_20_B_d.gif","right","","","","",""
"","null","html-keyboard-response","140","215300","0.0-29.0-0.3","SS1613171712768","","","null","","","","","<p><img src= images/blank.png width =""200"" height = ""200"" style = ""float:right""></p><p><img src=images/blank.png width =""800"" height = ""200""></p>","","","","","","","","","","","",""
"","19.009999989066273","sequential-stimulus-presentation","141","216138","0.0-29.0-1.3","SS1613171712768","trial","","40","800","819.0099999890663","images/stimuli/spore_stims/complex_20_A_b.gif","images/stimuli/spore_stims/complex_20_B_d.gif","","","","","7","complex_dissimilar","images/stimuli/spore_stims/complex_20_B_d.gif","right","","","","",""
"","null","html-keyboard-response","142","217389","0.0-29.0-0.4","SS1613171712768","","","null","","","","","<p><img src= images/blank.png width =""200"" height = ""200"" style = ""float:right""></p><p><img src=images/blank.png width =""800"" height = ""200""></p>","","","","","","","","","","","",""
"","138.03500001085922","sequential-stimulus-presentation","143","218384","0.0-29.0-1.4","SS1613171712768","trial","","40","800","938.0350000108592","images/stimuli/spore_stims/complex_20_A_b.gif","images/stimuli/spore_stims/complex_20_B_d.gif","","","","","7","complex_dissimilar","images/stimuli/spore_stims/complex_20_B_d.gif","right","","","","",""
"","null","html-keyboard-response","144","219559","0.0-29.0-0.5","SS1613171712768","","","null","","","","","<p><img src= images/blank.png width =""200"" height = ""200"" style = ""float:right""></p><p><img src=images/blank.png width =""800"" height = ""200""></p>","","","","","","","","","","","",""
"","558.5900000296533","sequential-stimulus-presentation","145","220936","0.0-29.0-1.5","SS1613171712768","trial","","40","800","1358.5900000296533","images/stimuli/spore_stims/complex_20_A_b.gif","images/stimuli/spore_stims/complex_20_B_d.gif","","","","","7","complex_dissimilar","images/stimuli/spore_stims/complex_20_A_b.gif","middle","","","","",""
"","null","html-keyboard-response","146","221984","0.0-29.0-0.6","SS1613171712768","","","null","","","","","<p><img src= images/blank.png width =""200"" height = ""200"" style = ""float:right""></p><p><img src=images/blank.png width =""800"" height = ""200""></p>","","","","","","","","","","","",""
"","42.94000001391396","sequential-stimulus-presentation","147","222839","0.0-29.0-1.6","SS1613171712768","trial","","40","800","842.940000013914","images/stimuli/spore_stims/complex_20_A_b.gif","images/stimuli/spore_stims/complex_20_B_d.gif","","","","","7","complex_dissimilar","images/stimuli/spore_stims/complex_20_B_d.gif","right","","","","",""
"","null","html-keyboard-response","148","223655","0.0-29.0-0.7","SS1613171712768","","","null","","","","","<p><img src= images/blank.png width =""200"" height = ""200"" style = ""float:right""></p><p><img src=images/blank.png width =""800"" height = ""200""></p>","","","","","","","","","","","",""
"","276.3600000180304","sequential-stimulus-presentation","149","224784","0.0-29.0-1.7","SS1613171712768","trial","","40","800","1076.3600000180304","images/stimuli/spore_stims/complex_20_A_b.gif","images/stimuli/spore_stims/complex_20_B_d.gif","","","","","7","complex_dissimilar","images/stimuli/spore_stims/complex_20_B_d.gif","right","","","","",""
"","1239.1000000061467","html-keyboard-response","150","226039","0.0-30.0","SS1613171712768","pref_question","","99","","","","","<video width ='960' height = '540' style='padding-top:8%' autoplay muted><source src='images/stimuli/wall_pref.mp4' type='video/mp4'></video>","3","right","66%","7","","","","","","","",""
"","403.3300000010058","sequential-stimulus-presentation","151","227263","0.0-31.0","SS1613171712768","pref_reveal","","40","800","1203.3300000010058","null","null","","","","","7","","","","background","","","",""
"","null","html-keyboard-response","152","228355","0.0-32.0-0.0","SS1613171712768","","","null","","","","","<p><img src= images/blank.png width =""200"" height = ""200"" style = ""float:right""></p><p><img src=images/blank.png width =""800"" height = ""200""></p>","","","","","","","","","","","",""
"","288.0299999960698","sequential-stimulus-presentation","153","229463","0.0-32.0-1.0","SS1613171712768","trial","","40","800","1088.0299999960698","images/stimuli/spore_stims/simple_12_A_a.gif","images/stimuli/spore_stims/simple_12_B_a.gif","","","","","8","simple_similar","images/stimuli/spore_stims/simple_12_B_a.gif","left","","","","",""
"","null","html-keyboard-response","154","230597","0.0-32.0-0.1","SS1613171712768","","","null","","","","","<p><img src= images/blank.png width =""200"" height = ""200"" style = ""float:right""></p><p><img src=images/blank.png width =""800"" height = ""200""></p>","","","","","","","","","","","",""
"","518.1899999734014","sequential-stimulus-presentation","155","231934","0.0-32.0-1.1","SS1613171712768","trial","","40","800","1318.1899999734014","images/stimuli/spore_stims/simple_12_A_a.gif","images/stimuli/spore_stims/simple_12_B_a.gif","","","","","8","simple_similar","images/stimuli/spore_stims/simple_12_B_a.gif","left","","","","",""
"","null","html-keyboard-response","156","233192","0.0-32.0-0.2","SS1613171712768","","","null","","","","","<p><img src= images/blank.png width =""200"" height = ""200"" style = ""float:right""></p><p><img src=images/blank.png width =""800"" height = ""200""></p>","","","","","","","","","","","",""
"","74.98999999370426","sequential-stimulus-presentation","157","234087","0.0-32.0-1.2","SS1613171712768","trial","","40","800","874.9899999937043","images/stimuli/spore_stims/simple_12_A_a.gif","images/stimuli/spore_stims/simple_12_B_a.gif","","","","","8","simple_similar","images/stimuli/spore_stims/simple_12_B_a.gif","left","","","","",""
"","null","html-keyboard-response","158","235093","0.0-32.0-0.3","SS1613171712768","","","null","","","","","<p><img src= images/blank.png width =""200"" height = ""200"" style = ""float:right""></p><p><img src=images/blank.png width =""800"" height = ""200""></p>","","","","","","","","","","","",""
"","58.209999988321215","sequential-stimulus-presentation","159","235973","0.0-32.0-1.3","SS1613171712768","trial","","40","800","858.2099999883212","images/stimuli/spore_stims/simple_12_A_a.gif","images/stimuli/spore_stims/simple_12_B_a.gif","","","","","8","simple_similar","images/stimuli/spore_stims/simple_12_B_a.gif","left","","","","",""
"","null","html-keyboard-response","160","237110","0.0-32.0-0.4","SS1613171712768","","","null","","","","","<p><img src= images/blank.png width =""200"" height = ""200"" style = ""float:right""></p><p><img src=images/blank.png width =""800"" height = ""200""></p>","","","","","","","","","","","",""
"","38.9749999740161","sequential-stimulus-presentation","161","237973","0.0-32.0-1.4","SS1613171712768","trial","","40","800","838.9749999740161","images/stimuli/spore_stims/simple_12_A_a.gif","images/stimuli/spore_stims/simple_12_B_a.gif","","","","","8","simple_similar","images/stimuli/spore_stims/simple_12_A_a.gif","right","","","","",""
"","null","html-keyboard-response","162","238877","0.0-32.0-0.5","SS1613171712768","","","null","","","","","<p><img src= images/blank.png width =""200"" height = ""200"" style = ""float:right""></p><p><img src=images/blank.png width =""800"" height = ""200""></p>","","","","","","","","","","","",""
"","309.96500002220273","sequential-stimulus-presentation","163","240005","0.0-32.0-1.5","SS1613171712768","trial","","40","800","1109.9650000222027","images/stimuli/spore_stims/simple_12_A_a.gif","images/stimuli/spore_stims/simple_12_B_a.gif","","","","","8","simple_similar","images/stimuli/spore_stims/simple_12_B_a.gif","left","","","","",""
"","null","html-keyboard-response","164","241026","0.0-32.0-0.6","SS1613171712768","","","null","","","","","<p><img src= images/blank.png width =""200"" height = ""200"" style = ""float:right""></p><p><img src=images/blank.png width =""800"" height = ""200""></p>","","","","","","","","","","","",""
"","487.810000020545","sequential-stimulus-presentation","165","242333","0.0-32.0-1.6","SS1613171712768","trial","","40","800","1287.810000020545","images/stimuli/spore_stims/simple_12_A_a.gif","images/stimuli/spore_stims/simple_12_B_a.gif","","","","","8","simple_similar","images/stimuli/spore_stims/simple_12_B_a.gif","left","","","","",""
"","null","html-keyboard-response","166","243492","0.0-32.0-0.7","SS1613171712768","","","null","","","","","<p><img src= images/blank.png width =""200"" height = ""200"" style = ""float:right""></p><p><img src=images/blank.png width =""800"" height = ""200""></p>","","","","","","","","","","","",""
"","358.08999999426305","sequential-stimulus-presentation","167","244669","0.0-32.0-1.7","SS1613171712768","trial","","40","800","1158.089999994263","images/stimuli/spore_stims/simple_12_A_a.gif","images/stimuli/spore_stims/simple_12_B_a.gif","","","","","8","simple_similar","images/stimuli/spore_stims/simple_12_B_a.gif","left","","","","",""
"","1331.865000014659","html-keyboard-response","168","246021","0.0-33.0","SS1613171712768","pref_question","","98","","","","","<video width ='960' height = '540' style='padding-top:8%' autoplay muted><source src='images/stimuli/wall_pref.mp4' type='video/mp4'></video>","2","middle","45%","8","","","","","","","",""
"","475.4850000026636","sequential-stimulus-presentation","169","247316","0.0-34.0","SS1613171712768","pref_reveal","","40","800","1275.4850000026636","null","null","","","","","8","","","","novel","","","",""
"","null","html-keyboard-response","170","248379","0.0-35.0-0.0","SS1613171712768","","","null","","","","","<p><img src= images/blank.png width =""200"" height = ""200"" style = ""float:right""></p><p><img src=images/blank.png width =""800"" height = ""200""></p>","","","","","","","","","","","",""
"","266.4700000314042","sequential-stimulus-presentation","171","249460","0.0-35.0-1.0","SS1613171712768","trial","","40","800","1066.4700000314042","images/stimuli/spore_stims/complex_12_B_c.gif","images/stimuli/spore_stims/complex_12_A_c.gif","","","","","9","complex_similar","images/stimuli/spore_stims/complex_12_A_c.gif","right","","","","",""
"","null","html-keyboard-response","172","250424","0.0-35.0-0.1","SS1613171712768","","","null","","","","","<p><img src= images/blank.png width =""200"" height = ""200"" style = ""float:right""></p><p><img src=images/blank.png width =""800"" height = ""200""></p>","","","","","","","","","","","",""
"","214.10500002093613","sequential-stimulus-presentation","173","251453","0.0-35.0-1.1","SS1613171712768","trial","","40","800","1014.1050000209361","images/stimuli/spore_stims/complex_12_B_c.gif","images/stimuli/spore_stims/complex_12_A_c.gif","","","","","9","complex_similar","images/stimuli/spore_stims/complex_12_A_c.gif","right","","","","",""
"","null","html-keyboard-response","174","252721","0.0-35.0-0.2","SS1613171712768","","","null","","","","","<p><img src= images/blank.png width =""200"" height = ""200"" style = ""float:right""></p><p><img src=images/blank.png width =""800"" height = ""200""></p>","","","","","","","","","","","",""
"","463.38999998988584","sequential-stimulus-presentation","175","254005","0.0-35.0-1.2","SS1613171712768","trial","","40","800","1263.3899999898858","images/stimuli/spore_stims/complex_12_B_c.gif","images/stimuli/spore_stims/complex_12_A_c.gif","","","","","9","complex_similar","images/stimuli/spore_stims/complex_12_A_c.gif","right","","","","",""
"","null","html-keyboard-response","176","255214","0.0-35.0-0.3","SS1613171712768","","","null","","","","","<p><img src= images/blank.png width =""200"" height = ""200"" style = ""float:right""></p><p><img src=images/blank.png width =""800"" height = ""200""></p>","","","","","","","","","","","",""
"","120.56499999016523","sequential-stimulus-presentation","177","256156","0.0-35.0-1.3","SS1613171712768","trial","","40","800","920.5649999901652","images/stimuli/spore_stims/complex_12_B_c.gif","images/stimuli/spore_stims/complex_12_A_c.gif","","","","","9","complex_similar","images/stimuli/spore_stims/complex_12_A_c.gif","right","","","","",""
"","null","html-keyboard-response","178","257333","0.0-35.0-0.4","SS1613171712768","","","null","","","","","<p><img src= images/blank.png width =""200"" height = ""200"" style = ""float:right""></p><p><img src=images/blank.png width =""800"" height = ""200""></p>","","","","","","","","","","","",""
"","33.46500004408881","sequential-stimulus-presentation","179","258188","0.0-35.0-1.4","SS1613171712768","trial","","40","800","833.4650000440888","images/stimuli/spore_stims/complex_12_B_c.gif","images/stimuli/spore_stims/complex_12_A_c.gif","","","","","9","complex_similar","images/stimuli/spore_stims/complex_12_A_c.gif","right","","","","",""
"","null","html-keyboard-response","180","259338","0.0-35.0-0.5","SS1613171712768","","","null","","","","","<p><img src= images/blank.png width =""200"" height = ""200"" style = ""float:right""></p><p><img src=images/blank.png width =""800"" height = ""200""></p>","","","","","","","","","","","",""
"","353.0549999559298","sequential-stimulus-presentation","181","260540","0.0-35.0-1.5","SS1613171712768","trial","","40","800","1153.0549999559298","images/stimuli/spore_stims/complex_12_B_c.gif","images/stimuli/spore_stims/complex_12_A_c.gif","","","","","9","complex_similar","images/stimuli/spore_stims/complex_12_B_c.gif","left","","","","",""
"","null","html-keyboard-response","182","261396","0.0-35.0-0.6","SS1613171712768","","","null","","","","","<p><img src= images/blank.png width =""200"" height = ""200"" style = ""float:right""></p><p><img src=images/blank.png width =""800"" height = ""200""></p>","","","","","","","","","","","",""
"","481.70000000391155","sequential-stimulus-presentation","183","262699","0.0-35.0-1.6","SS1613171712768","trial","","40","800","1281.7000000039116","images/stimuli/spore_stims/complex_12_B_c.gif","images/stimuli/spore_stims/complex_12_A_c.gif","","","","","9","complex_similar","images/stimuli/spore_stims/complex_12_A_c.gif","right","","","","",""
"","null","html-keyboard-response","184","263743","0.0-35.0-0.7","SS1613171712768","","","null","","","","","<p><img src= images/blank.png width =""200"" height = ""200"" style = ""float:right""></p><p><img src=images/blank.png width =""800"" height = ""200""></p>","","","","","","","","","","","",""
"","127.45999998878688","sequential-stimulus-presentation","185","264691","0.0-35.0-1.7","SS1613171712768","trial","","40","800","927.4599999887869","images/stimuli/spore_stims/complex_12_B_c.gif","images/stimuli/spore_stims/complex_12_A_c.gif","","","","","9","complex_similar","images/stimuli/spore_stims/complex_12_A_c.gif","right","","","","",""
"","1407.100000011269","html-keyboard-response","186","266116","0.0-36.0","SS1613171712768","pref_question","","99","","","","","<video width ='960' height = '540' style='padding-top:8%' autoplay muted><source src='images/stimuli/wall_pref.mp4' type='video/mp4'></video>","3","right","66%","9","","","","","","","",""
"","352.8900000383146","sequential-stimulus-presentation","187","267291","0.0-37.0","SS1613171712768","pref_reveal","","40","800","1152.8900000383146","null","null","","","","","9","","","","background","","","",""
"","null","html-keyboard-response","188","268165","0.0-38.0-0.0","SS1613171712768","","","null","","","","","<p><img src= images/blank.png width =""200"" height = ""200"" style = ""float:right""></p><p><img src=images/blank.png width =""800"" height = ""200""></p>","","","","","","","","","","","",""
"","167.66500001540408","sequential-stimulus-presentation","189","269155","0.0-38.0-1.0","SS1613171712768","trial","","40","800","967.6650000154041","images/stimuli/spore_stims/simple_19_B_d.gif","images/stimuli/spore_stims/simple_19_A_d.gif","","","","","10","simple_similar","images/stimuli/spore_stims/simple_19_A_d.gif","left","","","","",""
"","null","html-keyboard-response","190","270076","0.0-38.0-0.1","SS1613171712768","","","null","","","","","<p><img src= images/blank.png width =""200"" height = ""200"" style = ""float:right""></p><p><img src=images/blank.png width =""800"" height = ""200""></p>","","","","","","","","","","","",""
"","163.8950000051409","sequential-stimulus-presentation","191","271067","0.0-38.0-1.1","SS1613171712768","trial","","40","800","963.8950000051409","images/stimuli/spore_stims/simple_19_B_d.gif","images/stimuli/spore_stims/simple_19_A_d.gif","","","","","10","simple_similar","images/stimuli/spore_stims/simple_19_A_d.gif","left","","","","",""
"","null","html-keyboard-response","192","272284","0.0-38.0-0.2","SS1613171712768","","","null","","","","","<p><img src= images/blank.png width =""200"" height = ""200"" style = ""float:right""></p><p><img src=images/blank.png width =""800"" height = ""200""></p>","","","","","","","","","","","",""
"","160.83499998785555","sequential-stimulus-presentation","193","273266","0.0-38.0-1.2","SS1613171712768","trial","","40","800","960.8349999878556","images/stimuli/spore_stims/simple_19_B_d.gif","images/stimuli/spore_stims/simple_19_A_d.gif","","","","","10","simple_similar","images/stimuli/spore_stims/simple_19_A_d.gif","left","","","","",""
"","null","html-keyboard-response","194","274339","0.0-38.0-0.3","SS1613171712768","","","null","","","","","<p><img src= images/blank.png width =""200"" height = ""200"" style = ""float:right""></p><p><img src=images/blank.png width =""800"" height = ""200""></p>","","","","","","","","","","","",""
"","153.50999997463077","sequential-stimulus-presentation","195","275314","0.0-38.0-1.3","SS1613171712768","trial","","40","800","953.5099999746308","images/stimuli/spore_stims/simple_19_B_d.gif","images/stimuli/spore_stims/simple_19_A_d.gif","","","","","10","simple_similar","images/stimuli/spore_stims/simple_19_A_d.gif","left","","","","",""
"","null","html-keyboard-response","196","276147","0.0-38.0-0.4","SS1613171712768","","","null","","","","","<p><img src= images/blank.png width =""200"" height = ""200"" style = ""float:right""></p><p><img src=images/blank.png width =""800"" height = ""200""></p>","","","","","","","","","","","",""
"","321.9999999855645","sequential-stimulus-presentation","197","277282","0.0-38.0-1.4","SS1613171712768","trial","","40","800","1121.9999999855645","images/stimuli/spore_stims/simple_19_B_d.gif","images/stimuli/spore_stims/simple_19_A_d.gif","","","","","10","simple_similar","images/stimuli/spore_stims/simple_19_A_d.gif","left","","","","",""
"","null","html-keyboard-response","198","278332","0.0-38.0-0.5","SS1613171712768","","","null","","","","","<p><img src= images/blank.png width =""200"" height = ""200"" style = ""float:right""></p><p><img src=images/blank.png width =""800"" height = ""200""></p>","","","","","","","","","","","",""
"","56.31000001449138","sequential-stimulus-presentation","199","279209","0.0-38.0-1.5","SS1613171712768","trial","","40","800","856.3100000144914","images/stimuli/spore_stims/simple_19_B_d.gif","images/stimuli/spore_stims/simple_19_A_d.gif","","","","","10","simple_similar","images/stimuli/spore_stims/simple_19_B_d.gif","middle","","","","",""
"","null","html-keyboard-response","200","280188","0.0-38.0-0.6","SS1613171712768","","","null","","","","","<p><img src= images/blank.png width =""200"" height = ""200"" style = ""float:right""></p><p><img src=images/blank.png width =""800"" height = ""200""></p>","","","","","","","","","","","",""
"","143.9750000135973","sequential-stimulus-presentation","201","281185","0.0-38.0-1.6","SS1613171712768","trial","","40","800","943.9750000135973","images/stimuli/spore_stims/simple_19_B_d.gif","images/stimuli/spore_stims/simple_19_A_d.gif","","","","","10","simple_similar","images/stimuli/spore_stims/simple_19_A_d.gif","left","","","","",""
"","null","html-keyboard-response","202","282107","0.0-38.0-0.7","SS1613171712768","","","null","","","","","<p><img src= images/blank.png width =""200"" height = ""200"" style = ""float:right""></p><p><img src=images/blank.png width =""800"" height = ""200""></p>","","","","","","","","","","","",""
"","142.7449999609962","sequential-stimulus-presentation","203","283072","0.0-38.0-1.7","SS1613171712768","trial","","40","800","942.7449999609962","images/stimuli/spore_stims/simple_19_B_d.gif","images/stimuli/spore_stims/simple_19_A_d.gif","","","","","10","simple_similar","images/stimuli/spore_stims/simple_19_A_d.gif","left","","","","",""
"","1082.5999999651685","html-keyboard-response","204","284176","0.0-39.0","SS1613171712768","pref_question","","98","","","","","<video width ='960' height = '540' style='padding-top:8%' autoplay muted><source src='images/stimuli/wall_pref.mp4' type='video/mp4'></video>","2","middle","45%","10","","","","","","","",""
"","356.8350000423379","sequential-stimulus-presentation","205","285352","0.0-40.0","SS1613171712768","pref_reveal","","40","800","1156.835000042338","null","null","","","","","10","","","","deviant","","","",""
"","null","html-keyboard-response","206","286242","0.0-41.0-0.0","SS1613171712768","","","null","","","","","<p><img src= images/blank.png width =""200"" height = ""200"" style = ""float:right""></p><p><img src=images/blank.png width =""800"" height = ""200""></p>","","","","","","","","","","","",""
"","151.9500000285916","sequential-stimulus-presentation","207","287247","0.0-41.0-1.0","SS1613171712768","trial","","40","800","951.9500000285916","images/stimuli/spore_stims/simple_15_B_c.gif","images/stimuli/spore_stims/simple_15_A_c.gif","","","","","11","simple_similar","images/stimuli/spore_stims/simple_15_A_c.gif","middle","","","","",""
"","null","html-keyboard-response","208","288347","0.0-41.0-0.1","SS1613171712768","","","null","","","","","<p><img src= images/blank.png width =""200"" height = ""200"" style = ""float:right""></p><p><img src=images/blank.png width =""800"" height = ""200""></p>","","","","","","","","","","","",""
"","342.83000003779307","sequential-stimulus-presentation","209","289511","0.0-41.0-1.1","SS1613171712768","trial","","40","800","1142.830000037793","images/stimuli/spore_stims/simple_15_B_c.gif","images/stimuli/spore_stims/simple_15_A_c.gif","","","","","11","simple_similar","images/stimuli/spore_stims/simple_15_A_c.gif","middle","","","","",""
"","null","html-keyboard-response","210","290337","0.0-41.0-0.2","SS1613171712768","","","null","","","","","<p><img src= images/blank.png width =""200"" height = ""200"" style = ""float:right""></p><p><img src=images/blank.png width =""800"" height = ""200""></p>","","","","","","","","","","","",""
"","159.81499996269122","sequential-stimulus-presentation","211","291319","0.0-41.0-1.2","SS1613171712768","trial","","40","800","959.8149999626912","images/stimuli/spore_stims/simple_15_B_c.gif","images/stimuli/spore_stims/simple_15_A_c.gif","","","","","11","simple_similar","images/stimuli/spore_stims/simple_15_A_c.gif","middle","","","","",""
"","null","html-keyboard-response","212","292337","0.0-41.0-0.3","SS1613171712768","","","null","","","","","<p><img src= images/blank.png width =""200"" height = ""200"" style = ""float:right""></p><p><img src=images/blank.png width =""800"" height = ""200""></p>","","","","","","","","","","","",""
"","207.4700000230223","sequential-stimulus-presentation","213","293367","0.0-41.0-1.3","SS1613171712768","trial","","40","800","1007.4700000230223","images/stimuli/spore_stims/simple_15_B_c.gif","images/stimuli/spore_stims/simple_15_A_c.gif","","","","","11","simple_similar","images/stimuli/spore_stims/simple_15_A_c.gif","middle","","","","",""
"","null","html-keyboard-response","214","294383","0.0-41.0-0.4","SS1613171712768","","","null","","","","","<p><img src= images/blank.png width =""200"" height = ""200"" style = ""float:right""></p><p><img src=images/blank.png width =""800"" height = ""200""></p>","","","","","","","","","","","",""
"","289.1550000058487","sequential-stimulus-presentation","215","295494","0.0-41.0-1.4","SS1613171712768","trial","","40","800","1089.1550000058487","images/stimuli/spore_stims/simple_15_B_c.gif","images/stimuli/spore_stims/simple_15_A_c.gif","","","","","11","simple_similar","images/stimuli/spore_stims/simple_15_A_c.gif","middle","","","","",""
"","null","html-keyboard-response","216","296480","0.0-41.0-0.5","SS1613171712768","","","null","","","","","<p><img src= images/blank.png width =""200"" height = ""200"" style = ""float:right""></p><p><img src=images/blank.png width =""800"" height = ""200""></p>","","","","","","","","","","","",""
"","87.07000000867993","sequential-stimulus-presentation","217","297390","0.0-41.0-1.5","SS1613171712768","trial","","40","800","887.0700000086799","images/stimuli/spore_stims/simple_15_B_c.gif","images/stimuli/spore_stims/simple_15_A_c.gif","","","","","11","simple_similar","images/stimuli/spore_stims/simple_15_A_c.gif","middle","","","","",""
"","null","html-keyboard-response","218","298680","0.0-41.0-0.6","SS1613171712768","","","null","","","","","<p><img src= images/blank.png width =""200"" height = ""200"" style = ""float:right""></p><p><img src=images/blank.png width =""800"" height = ""200""></p>","","","","","","","","","","","",""
"","103.87500002980232","sequential-stimulus-presentation","219","299606","0.0-41.0-1.6","SS1613171712768","trial","","40","800","903.8750000298023","images/stimuli/spore_stims/simple_15_B_c.gif","images/stimuli/spore_stims/simple_15_A_c.gif","","","","","11","simple_similar","images/stimuli/spore_stims/simple_15_A_c.gif","middle","","","","",""
"","null","html-keyboard-response","220","300848","0.0-41.0-0.7","SS1613171712768","","","null","","","","","<p><img src= images/blank.png width =""200"" height = ""200"" style = ""float:right""></p><p><img src=images/blank.png width =""800"" height = ""200""></p>","","","","","","","","","","","",""
"","94.12500000325963","sequential-stimulus-presentation","221","301765","0.0-41.0-1.7","SS1613171712768","trial","","40","800","894.1250000032596","images/stimuli/spore_stims/simple_15_B_c.gif","images/stimuli/spore_stims/simple_15_A_c.gif","","","","","11","simple_similar","images/stimuli/spore_stims/simple_15_B_c.gif","left","","","","",""
"","1258.289999968838","html-keyboard-response","222","303069","0.0-42.0","SS1613171712768","pref_question","","99","","","","","<video width ='960' height = '540' style='padding-top:8%' autoplay muted><source src='images/stimuli/wall_pref.mp4' type='video/mp4'></video>","3","right","66%","11","","","","","","","",""
"","344.81000003870577","sequential-stimulus-presentation","223","304237","0.0-43.0","SS1613171712768","pref_reveal","","40","800","1144.8100000387058","null","null","","","","","11","","","","novel","","","",""
"","null","html-keyboard-response","224","305358","0.0-44.0-0.0","SS1613171712768","","","null","","","","","<p><img src= images/blank.png width =""200"" height = ""200"" style = ""float:right""></p><p><img src=images/blank.png width =""800"" height = ""200""></p>","","","","","","","","","","","",""
"","510.52000001072884","sequential-stimulus-presentation","225","306693","0.0-44.0-1.0","SS1613171712768","trial","","40","800","1310.5200000107288","images/stimuli/spore_stims/complex_01_A_b.gif","images/stimuli/spore_stims/complex_01_B_b.gif","","","","","12","complex_similar","images/stimuli/spore_stims/complex_01_B_b.gif","right","","","","",""
"","null","html-keyboard-response","226","307796","0.0-44.0-0.1","SS1613171712768","","","null","","","","","<p><img src= images/blank.png width =""200"" height = ""200"" style = ""float:right""></p><p><img src=images/blank.png width =""800"" height = ""200""></p>","","","","","","","","","","","",""
"","571.4450000086799","sequential-stimulus-presentation","227","309188","0.0-44.0-1.1","SS1613171712768","trial","","40","800","1371.44500000868","images/stimuli/spore_stims/complex_01_A_b.gif","images/stimuli/spore_stims/complex_01_B_b.gif","","","","","12","complex_similar","images/stimuli/spore_stims/complex_01_B_b.gif","right","","","","",""
"","null","html-keyboard-response","228","310425","0.0-44.0-0.2","SS1613171712768","","","null","","","","","<p><img src= images/blank.png width =""200"" height = ""200"" style = ""float:right""></p><p><img src=images/blank.png width =""800"" height = ""200""></p>","","","","","","","","","","","",""
"","623.3199999551289","sequential-stimulus-presentation","229","311870","0.0-44.0-1.2","SS1613171712768","trial","","40","800","1423.3199999551289","images/stimuli/spore_stims/complex_01_A_b.gif","images/stimuli/spore_stims/complex_01_B_b.gif","","","","","12","complex_similar","images/stimuli/spore_stims/complex_01_B_b.gif","right","","","","",""
"","null","html-keyboard-response","230","313000","0.0-44.0-0.3","SS1613171712768","","","null","","","","","<p><img src= images/blank.png width =""200"" height = ""200"" style = ""float:right""></p><p><img src=images/blank.png width =""800"" height = ""200""></p>","","","","","","","","","","","",""
"","647.034999972675","sequential-stimulus-presentation","231","314468","0.0-44.0-1.3","SS1613171712768","trial","","40","800","1447.034999972675","images/stimuli/spore_stims/complex_01_A_b.gif","images/stimuli/spore_stims/complex_01_B_b.gif","","","","","12","complex_similar","images/stimuli/spore_stims/complex_01_B_b.gif","right","","","","",""
"","null","html-keyboard-response","232","315730","0.0-44.0-0.4","SS1613171712768","","","null","","","","","<p><img src= images/blank.png width =""200"" height = ""200"" style = ""float:right""></p><p><img src=images/blank.png width =""800"" height = ""200""></p>","","","","","","","","","","","",""
"","669.2700000130571","sequential-stimulus-presentation","233","317228","0.0-44.0-1.4","SS1613171712768","trial","","40","800","1469.2700000130571","images/stimuli/spore_stims/complex_01_A_b.gif","images/stimuli/spore_stims/complex_01_B_b.gif","","","","","12","complex_similar","images/stimuli/spore_stims/complex_01_B_b.gif","right","","","","",""
"","null","html-keyboard-response","234","318267","0.0-44.0-0.5","SS1613171712768","","","null","","","","","<p><img src= images/blank.png width =""200"" height = ""200"" style = ""float:right""></p><p><img src=images/blank.png width =""800"" height = ""200""></p>","","","","","","","","","","","",""
"","321.9249999965541","sequential-stimulus-presentation","235","319412","0.0-44.0-1.5","SS1613171712768","trial","","40","800","1121.924999996554","images/stimuli/spore_stims/complex_01_A_b.gif","images/stimuli/spore_stims/complex_01_B_b.gif","","","","","12","complex_similar","images/stimuli/spore_stims/complex_01_B_b.gif","right","","","","",""
"","null","html-keyboard-response","236","320333","0.0-44.0-0.6","SS1613171712768","","","null","","","","","<p><img src= images/blank.png width =""200"" height = ""200"" style = ""float:right""></p><p><img src=images/blank.png width =""800"" height = ""200""></p>","","","","","","","","","","","",""
"","495.30499998945743","sequential-stimulus-presentation","237","321651","0.0-44.0-1.6","SS1613171712768","trial","","40","800","1295.3049999894574","images/stimuli/spore_stims/complex_01_A_b.gif","images/stimuli/spore_stims/complex_01_B_b.gif","","","","","12","complex_similar","images/stimuli/spore_stims/complex_01_A_b.gif","middle","","","","",""
"","null","html-keyboard-response","238","322594","0.0-44.0-0.7","SS1613171712768","","","null","","","","","<p><img src= images/blank.png width =""200"" height = ""200"" style = ""float:right""></p><p><img src=images/blank.png width =""800"" height = ""200""></p>","","","","","","","","","","","",""
"","490.894999995362","sequential-stimulus-presentation","239","323908","0.0-44.0-1.7","SS1613171712768","trial","","40","800","1290.894999995362","images/stimuli/spore_stims/complex_01_A_b.gif","images/stimuli/spore_stims/complex_01_B_b.gif","","","","","12","complex_similar","images/stimuli/spore_stims/complex_01_B_b.gif","right","","","","",""
"","1329.8000000067987","html-keyboard-response","240","325259","0.0-45.0","SS1613171712768","pref_question","","97","","","","","<video width ='960' height = '540' style='padding-top:8%' autoplay muted><source src='images/stimuli/wall_pref.mp4' type='video/mp4'></video>","1","left","25%","12","","","","","","","",""
"","456.6399999894202","sequential-stimulus-presentation","241","326539","0.0-46.0","SS1613171712768","pref_reveal","","40","800","1256.6399999894202","null","null","","","","","12","","","","novel","","","",""
"","null","html-keyboard-response","242","327613","0.0-47.0-0.0","SS1613171712768","","","null","","","","","<p><img src= images/blank.png width =""200"" height = ""200"" style = ""float:right""></p><p><img src=images/blank.png width =""800"" height = ""200""></p>","","","","","","","","","","","",""
"","601.9499999820255","sequential-stimulus-presentation","243","329082","0.0-47.0-1.0","SS1613171712768","trial","","40","800","1401.9499999820255","images/stimuli/spore_stims/simple_17_B_a.gif","images/stimuli/spore_stims/simple_03_A_d.gif","","","","","13","simple_dissimilar","images/stimuli/spore_stims/simple_03_A_d.gif","right","","","","",""
"","null","html-keyboard-response","244","329975","0.0-47.0-0.1","SS1613171712768","","","null","","","","","<p><img src= images/blank.png width =""200"" height = ""200"" style = ""float:right""></p><p><img src=images/blank.png width =""800"" height = ""200""></p>","","","","","","","","","","","",""
"","297.69999999552965","sequential-stimulus-presentation","245","331098","0.0-47.0-1.1","SS1613171712768","trial","","40","800","1097.6999999955297","images/stimuli/spore_stims/simple_17_B_a.gif","images/stimuli/spore_stims/simple_03_A_d.gif","","","","","13","simple_dissimilar","images/stimuli/spore_stims/simple_03_A_d.gif","right","","","","",""
"","null","html-keyboard-response","246","332415","0.0-47.0-0.2","SS1613171712768","","","null","","","","","<p><img src= images/blank.png width =""200"" height = ""200"" style = ""float:right""></p><p><img src=images/blank.png width =""800"" height = ""200""></p>","","","","","","","","","","","",""
"","572.2149999928661","sequential-stimulus-presentation","247","333809","0.0-47.0-1.2","SS1613171712768","trial","","40","800","1372.214999992866","images/stimuli/spore_stims/simple_17_B_a.gif","images/stimuli/spore_stims/simple_03_A_d.gif","","","","","13","simple_dissimilar","images/stimuli/spore_stims/simple_03_A_d.gif","right","","","","",""
"","null","html-keyboard-response","248","335017","0.0-47.0-0.3","SS1613171712768","","","null","","","","","<p><img src= images/blank.png width =""200"" height = ""200"" style = ""float:right""></p><p><img src=images/blank.png width =""800"" height = ""200""></p>","","","","","","","","","","","",""
"","400.87000001221895","sequential-stimulus-presentation","249","336242","0.0-47.0-1.3","SS1613171712768","trial","","40","800","1200.870000012219","images/stimuli/spore_stims/simple_17_B_a.gif","images/stimuli/spore_stims/simple_03_A_d.gif","","","","","13","simple_dissimilar","images/stimuli/spore_stims/simple_03_A_d.gif","right","","","","",""
"","null","html-keyboard-response","250","337516","0.0-47.0-0.4","SS1613171712768","","","null","","","","","<p><img src= images/blank.png width =""200"" height = ""200"" style = ""float:right""></p><p><img src=images/blank.png width =""800"" height = ""200""></p>","","","","","","","","","","","",""
"","421.18499998468906","sequential-stimulus-presentation","251","338761","0.0-47.0-1.4","SS1613171712768","trial","","40","800","1221.184999984689","images/stimuli/spore_stims/simple_17_B_a.gif","images/stimuli/spore_stims/simple_03_A_d.gif","","","","","13","simple_dissimilar","images/stimuli/spore_stims/simple_03_A_d.gif","right","","","","",""
"","null","html-keyboard-response","252","339645","0.0-47.0-0.5","SS1613171712768","","","null","","","","","<p><img src= images/blank.png width =""200"" height = ""200"" style = ""float:right""></p><p><img src=images/blank.png width =""800"" height = ""200""></p>","","","","","","","","","","","",""
"","955.7999999960884","sequential-stimulus-presentation","253","341424","0.0-47.0-1.5","SS1613171712768","trial","","40","800","1755.7999999960884","images/stimuli/spore_stims/simple_17_B_a.gif","images/stimuli/spore_stims/simple_03_A_d.gif","","","","","13","simple_dissimilar","images/stimuli/spore_stims/simple_03_A_d.gif","right","","","","",""
"","null","html-keyboard-response","254","342261","0.0-47.0-0.6","SS1613171712768","","","null","","","","","<p><img src= images/blank.png width =""200"" height = ""200"" style = ""float:right""></p><p><img src=images/blank.png width =""800"" height = ""200""></p>","","","","","","","","","","","",""
"","188.4299999801442","sequential-stimulus-presentation","255","343272","0.0-47.0-1.6","SS1613171712768","trial","","40","800","988.4299999801442","images/stimuli/spore_stims/simple_17_B_a.gif","images/stimuli/spore_stims/simple_03_A_d.gif","","","","","13","simple_dissimilar","images/stimuli/spore_stims/simple_03_A_d.gif","right","","","","",""
"","null","html-keyboard-response","256","344307","0.0-47.0-0.7","SS1613171712768","","","null","","","","","<p><img src= images/blank.png width =""200"" height = ""200"" style = ""float:right""></p><p><img src=images/blank.png width =""800"" height = ""200""></p>","","","","","","","","","","","",""
"","1405.869999958668","sequential-stimulus-presentation","257","346537","0.0-47.0-1.7","SS1613171712768","trial","","40","800","2205.869999958668","images/stimuli/spore_stims/simple_17_B_a.gif","images/stimuli/spore_stims/simple_03_A_d.gif","","","","","13","simple_dissimilar","images/stimuli/spore_stims/simple_17_B_a.gif","left","","","","",""
"","1303.1150000169873","html-keyboard-response","258","347863","0.0-48.0","SS1613171712768","pref_question","","97","","","","","<video width ='960' height = '540' style='padding-top:8%' autoplay muted><source src='images/stimuli/wall_pref.mp4' type='video/mp4'></video>","1","left","25%","13","","","","","","","",""
"","247.1450000302866","sequential-stimulus-presentation","259","348935","0.0-49.0","SS1613171712768","pref_reveal","","40","800","1047.1450000302866","null","null","","","","","13","","","","deviant","","","",""
"","null","html-keyboard-response","260","350283","0.0-50.0-0.0","SS1613171712768","","","null","","","","","<p><img src= images/blank.png width =""200"" height = ""200"" style = ""float:right""></p><p><img src=images/blank.png width =""800"" height = ""200""></p>","","","","","","","","","","","",""
"","296.0600000224076","sequential-stimulus-presentation","261","351407","0.0-50.0-1.0","SS1613171712768","trial","","40","800","1096.0600000224076","images/stimuli/spore_stims/complex_02_A_a.gif","images/stimuli/spore_stims/complex_16_A_d.gif","","","","","14","complex_dissimilar","images/stimuli/spore_stims/complex_16_A_d.gif","right","","","","",""
"","null","html-keyboard-response","262","352586","0.0-50.0-0.1","SS1613171712768","","","null","","","","","<p><img src= images/blank.png width =""200"" height = ""200"" style = ""float:right""></p><p><img src=images/blank.png width =""800"" height = ""200""></p>","","","","","","","","","","","",""
"","60.600000026170164","sequential-stimulus-presentation","263","353471","0.0-50.0-1.1","SS1613171712768","trial","","40","800","860.6000000261702","images/stimuli/spore_stims/complex_02_A_a.gif","images/stimuli/spore_stims/complex_16_A_d.gif","","","","","14","complex_dissimilar","images/stimuli/spore_stims/complex_16_A_d.gif","right","","","","",""
"","null","html-keyboard-response","264","354791","0.0-50.0-0.2","SS1613171712768","","","null","","","","","<p><img src= images/blank.png width =""200"" height = ""200"" style = ""float:right""></p><p><img src=images/blank.png width =""800"" height = ""200""></p>","","","","","","","","","","","",""
"","647.095000022091","sequential-stimulus-presentation","265","356263","0.0-50.0-1.2","SS1613171712768","trial","","40","800","1447.095000022091","images/stimuli/spore_stims/complex_02_A_a.gif","images/stimuli/spore_stims/complex_16_A_d.gif","","","","","14","complex_dissimilar","images/stimuli/spore_stims/complex_02_A_a.gif","middle","","","","",""
"","null","html-keyboard-response","266","357486","0.0-50.0-0.3","SS1613171712768","","","null","","","","","<p><img src= images/blank.png width =""200"" height = ""200"" style = ""float:right""></p><p><img src=images/blank.png width =""800"" height = ""200""></p>","","","","","","","","","","","",""
"","1541.1949999979697","sequential-stimulus-presentation","267","359855","0.0-50.0-1.3","SS1613171712768","trial","","40","800","2341.1949999979697","images/stimuli/spore_stims/complex_02_A_a.gif","images/stimuli/spore_stims/complex_16_A_d.gif","","","","","14","complex_dissimilar","images/stimuli/spore_stims/complex_16_A_d.gif","right","","","","",""
"","null","html-keyboard-response","268","360942","0.0-50.0-0.4","SS1613171712768","","","null","","","","","<p><img src= images/blank.png width =""200"" height = ""200"" style = ""float:right""></p><p><img src=images/blank.png width =""800"" height = ""200""></p>","","","","","","","","","","","",""
"","871.6150000109337","sequential-stimulus-presentation","269","362645","0.0-50.0-1.4","SS1613171712768","trial","","40","800","1671.6150000109337","images/stimuli/spore_stims/complex_02_A_a.gif","images/stimuli/spore_stims/complex_16_A_d.gif","","","","","14","complex_dissimilar","images/stimuli/spore_stims/complex_16_A_d.gif","right","","","","",""
"","null","html-keyboard-response","270","363783","0.0-50.0-0.5","SS1613171712768","","","null","","","","","<p><img src= images/blank.png width =""200"" height = ""200"" style = ""float:right""></p><p><img src=images/blank.png width =""800"" height = ""200""></p>","","","","","","","","","","","",""
"","508.9699999662116","sequential-stimulus-presentation","271","365117","0.0-50.0-1.5","SS1613171712768","trial","","40","800","1308.9699999662116","images/stimuli/spore_stims/complex_02_A_a.gif","images/stimuli/spore_stims/complex_16_A_d.gif","","","","","14","complex_dissimilar","images/stimuli/spore_stims/complex_16_A_d.gif","right","","","","",""
"","null","html-keyboard-response","272","366366","0.0-50.0-0.6","SS1613171712768","","","null","","","","","<p><img src= images/blank.png width =""200"" height = ""200"" style = ""float:right""></p><p><img src=images/blank.png width =""800"" height = ""200""></p>","","","","","","","","","","","",""
"","678.0600000056438","sequential-stimulus-presentation","273","367869","0.0-50.0-1.6","SS1613171712768","trial","","40","800","1478.0600000056438","images/stimuli/spore_stims/complex_02_A_a.gif","images/stimuli/spore_stims/complex_16_A_d.gif","","","","","14","complex_dissimilar","images/stimuli/spore_stims/complex_16_A_d.gif","right","","","","",""
"","null","html-keyboard-response","274","369188","0.0-50.0-0.7","SS1613171712768","","","null","","","","","<p><img src= images/blank.png width =""200"" height = ""200"" style = ""float:right""></p><p><img src=images/blank.png width =""800"" height = ""200""></p>","","","","","","","","","","","",""
"","327.4150000070222","sequential-stimulus-presentation","275","370341","0.0-50.0-1.7","SS1613171712768","trial","","40","800","1127.4150000070222","images/stimuli/spore_stims/complex_02_A_a.gif","images/stimuli/spore_stims/complex_16_A_d.gif","","","","","14","complex_dissimilar","images/stimuli/spore_stims/complex_16_A_d.gif","right","","","","",""
"","1174.639999982901","html-keyboard-response","276","371541","0.0-51.0","SS1613171712768","pref_question","","97","","","","","<video width ='960' height = '540' style='padding-top:8%' autoplay muted><source src='images/stimuli/wall_pref.mp4' type='video/mp4'></video>","1","left","25%","14","","","","","","","",""
"","486.81500001112","sequential-stimulus-presentation","277","372853","0.0-52.0","SS1613171712768","pref_reveal","","40","800","1286.81500001112","null","null","","","","","14","","","","novel","","","",""
"","null","html-keyboard-response","278","373803","0.0-53.0-0.0","SS1613171712768","","","null","","","","","<p><img src= images/blank.png width =""200"" height = ""200"" style = ""float:right""></p><p><img src=images/blank.png width =""800"" height = ""200""></p>","","","","","","","","","","","",""
"","450.539999990724","sequential-stimulus-presentation","279","375077","0.0-53.0-1.0","SS1613171712768","trial","","40","800","1250.539999990724","images/stimuli/spore_stims/simple_14_A_d.gif","images/stimuli/spore_stims/simple_14_B_d.gif","","","","","15","simple_similar","images/stimuli/spore_stims/simple_14_B_d.gif","right","","","","",""
"","null","html-keyboard-response","280","376015","0.0-53.0-0.1","SS1613171712768","","","null","","","","","<p><img src= images/blank.png width =""200"" height = ""200"" style = ""float:right""></p><p><img src=images/blank.png width =""800"" height = ""200""></p>","","","","","","","","","","","",""
"","131.98999996529892","sequential-stimulus-presentation","281","376973","0.0-53.0-1.1","SS1613171712768","trial","","40","800","931.9899999652989","images/stimuli/spore_stims/simple_14_A_d.gif","images/stimuli/spore_stims/simple_14_B_d.gif","","","","","15","simple_similar","images/stimuli/spore_stims/simple_14_B_d.gif","right","","","","",""
"","null","html-keyboard-response","282","377908","0.0-53.0-0.2","SS1613171712768","","","null","","","","","<p><img src= images/blank.png width =""200"" height = ""200"" style = ""float:right""></p><p><img src=images/blank.png width =""800"" height = ""200""></p>","","","","","","","","","","","",""
"","303.17500000819564","sequential-stimulus-presentation","283","379035","0.0-53.0-1.2","SS1613171712768","trial","","40","800","1103.1750000081956","images/stimuli/spore_stims/simple_14_A_d.gif","images/stimuli/spore_stims/simple_14_B_d.gif","","","","","15","simple_similar","images/stimuli/spore_stims/simple_14_B_d.gif","right","","","","",""
"","null","html-keyboard-response","284","379885","0.0-53.0-0.3","SS1613171712768","","","null","","","","","<p><img src= images/blank.png width =""200"" height = ""200"" style = ""float:right""></p><p><img src=images/blank.png width =""800"" height = ""200""></p>","","","","","","","","","","","",""
"","247.7699999581091","sequential-stimulus-presentation","285","380955","0.0-53.0-1.3","SS1613171712768","trial","","40","800","1047.769999958109","images/stimuli/spore_stims/simple_14_A_d.gif","images/stimuli/spore_stims/simple_14_B_d.gif","","","","","15","simple_similar","images/stimuli/spore_stims/simple_14_B_d.gif","right","","","","",""
"","null","html-keyboard-response","286","382258","0.0-53.0-0.4","SS1613171712768","","","null","","","","","<p><img src= images/blank.png width =""200"" height = ""200"" style = ""float:right""></p><p><img src=images/blank.png width =""800"" height = ""200""></p>","","","","","","","","","","","",""
"","89.44000001065433","sequential-stimulus-presentation","287","383171","0.0-53.0-1.4","SS1613171712768","trial","","40","800","889.4400000106543","images/stimuli/spore_stims/simple_14_A_d.gif","images/stimuli/spore_stims/simple_14_B_d.gif","","","","","15","simple_similar","images/stimuli/spore_stims/simple_14_B_d.gif","right","","","","",""
"","null","html-keyboard-response","288","384130","0.0-53.0-0.5","SS1613171712768","","","null","","","","","<p><img src= images/blank.png width =""200"" height = ""200"" style = ""float:right""></p><p><img src=images/blank.png width =""800"" height = ""200""></p>","","","","","","","","","","","",""
"","257.1650000172667","sequential-stimulus-presentation","289","385211","0.0-53.0-1.5","SS1613171712768","trial","","40","800","1057.1650000172667","images/stimuli/spore_stims/simple_14_A_d.gif","images/stimuli/spore_stims/simple_14_B_d.gif","","","","","15","simple_similar","images/stimuli/spore_stims/simple_14_A_d.gif","middle","","","","",""
"","null","html-keyboard-response","290","386085","0.0-53.0-0.6","SS1613171712768","","","null","","","","","<p><img src= images/blank.png width =""200"" height = ""200"" style = ""float:right""></p><p><img src=images/blank.png width =""800"" height = ""200""></p>","","","","","","","","","","","",""
"","116.2250000052154","sequential-stimulus-presentation","291","387028","0.0-53.0-1.6","SS1613171712768","trial","","40","800","916.2250000052154","images/stimuli/spore_stims/simple_14_A_d.gif","images/stimuli/spore_stims/simple_14_B_d.gif","","","","","15","simple_similar","images/stimuli/spore_stims/simple_14_B_d.gif","right","","","","",""
"","null","html-keyboard-response","292","388227","0.0-53.0-0.7","SS1613171712768","","","null","","","","","<p><img src= images/blank.png width =""200"" height = ""200"" style = ""float:right""></p><p><img src=images/blank.png width =""800"" height = ""200""></p>","","","","","","","","","","","",""
"","542.6300000399351","sequential-stimulus-presentation","293","389595","0.0-53.0-1.7","SS1613171712768","trial","","40","800","1342.630000039935","images/stimuli/spore_stims/simple_14_A_d.gif","images/stimuli/spore_stims/simple_14_B_d.gif","","","","","15","simple_similar","images/stimuli/spore_stims/simple_14_B_d.gif","right","","","","",""
"","1521.1450000060722","html-keyboard-response","294","391139","0.0-54.0","SS1613171712768","pref_question","","98","","","","","<video width ='960' height = '540' style='padding-top:8%' autoplay muted><source src='images/stimuli/wall_pref.mp4' type='video/mp4'></video>","2","middle","45%","15","","","","","","","",""
"","300.4549999604933","sequential-stimulus-presentation","295","392266","0.0-55.0","SS1613171712768","pref_reveal","","40","800","1100.4549999604933","null","null","","","","","15","","","","deviant","","","",""
"","null","html-keyboard-response","296","393292","0.0-56.0-0.0","SS1613171712768","","","null","","","","","<p><img src= images/blank.png width =""200"" height = ""200"" style = ""float:right""></p><p><img src=images/blank.png width =""800"" height = ""200""></p>","","","","","","","","","","","",""
"","331.70500001870096","sequential-stimulus-presentation","297","394450","0.0-56.0-1.0","SS1613171712768","trial","","40","800","1131.705000018701","images/stimuli/spore_stims/complex_19_B_c.gif","images/stimuli/spore_stims/complex_19_A_c.gif","","","","","16","complex_similar","images/stimuli/spore_stims/complex_19_A_c.gif","left","","","","",""
"","null","html-keyboard-response","298","395418","0.0-56.0-0.1","SS1613171712768","","","null","","","","","<p><img src= images/blank.png width =""200"" height = ""200"" style = ""float:right""></p><p><img src=images/blank.png width =""800"" height = ""200""></p>","","","","","","","","","","","",""
"","44.8449999676086","sequential-stimulus-presentation","299","396289","0.0-56.0-1.1","SS1613171712768","trial","","40","800","844.8449999676086","images/stimuli/spore_stims/complex_19_B_c.gif","images/stimuli/spore_stims/complex_19_A_c.gif","","","","","16","complex_similar","images/stimuli/spore_stims/complex_19_A_c.gif","left","","","","",""
"","null","html-keyboard-response","300","397223","0.0-56.0-0.2","SS1613171712768","","","null","","","","","<p><img src= images/blank.png width =""200"" height = ""200"" style = ""float:right""></p><p><img src=images/blank.png width =""800"" height = ""200""></p>","","","","","","","","","","","",""
"","129.0249999728985","sequential-stimulus-presentation","301","398177","0.0-56.0-1.2","SS1613171712768","trial","","40","800","929.0249999728985","images/stimuli/spore_stims/complex_19_B_c.gif","images/stimuli/spore_stims/complex_19_A_c.gif","","","","","16","complex_similar","images/stimuli/spore_stims/complex_19_A_c.gif","left","","","","",""
"","null","html-keyboard-response","302","399059","0.0-56.0-0.3","SS1613171712768","","","null","","","","","<p><img src= images/blank.png width =""200"" height = ""200"" style = ""float:right""></p><p><img src=images/blank.png width =""800"" height = ""200""></p>","","","","","","","","","","","",""
"","62.39000003552064","sequential-stimulus-presentation","303","399945","0.0-56.0-1.3","SS1613171712768","trial","","40","800","862.3900000355206","images/stimuli/spore_stims/complex_19_B_c.gif","images/stimuli/spore_stims/complex_19_A_c.gif","","","","","16","complex_similar","images/stimuli/spore_stims/complex_19_A_c.gif","left","","","","",""
"","null","html-keyboard-response","304","400870","0.0-56.0-0.4","SS1613171712768","","","null","","","","","<p><img src= images/blank.png width =""200"" height = ""200"" style = ""float:right""></p><p><img src=images/blank.png width =""800"" height = ""200""></p>","","","","","","","","","","","",""
"","296.23500001616776","sequential-stimulus-presentation","305","401993","0.0-56.0-1.4","SS1613171712768","trial","","40","800","1096.2350000161678","images/stimuli/spore_stims/complex_19_B_c.gif","images/stimuli/spore_stims/complex_19_A_c.gif","","","","","16","complex_similar","images/stimuli/spore_stims/complex_19_A_c.gif","left","","","","",""
"","null","html-keyboard-response","306","402817","0.0-56.0-0.5","SS1613171712768","","","null","","","","","<p><img src= images/blank.png width =""200"" height = ""200"" style = ""float:right""></p><p><img src=images/blank.png width =""800"" height = ""200""></p>","","","","","","","","","","","",""
"","130.85000001592562","sequential-stimulus-presentation","307","403768","0.0-56.0-1.5","SS1613171712768","trial","","40","800","930.8500000159256","images/stimuli/spore_stims/complex_19_B_c.gif","images/stimuli/spore_stims/complex_19_A_c.gif","","","","","16","complex_similar","images/stimuli/spore_stims/complex_19_A_c.gif","left","","","","",""
"","null","html-keyboard-response","308","404814","0.0-56.0-0.6","SS1613171712768","","","null","","","","","<p><img src= images/blank.png width =""200"" height = ""200"" style = ""float:right""></p><p><img src=images/blank.png width =""800"" height = ""200""></p>","","","","","","","","","","","",""
"","586.8349999655038","sequential-stimulus-presentation","309","406215","0.0-56.0-1.6","SS1613171712768","trial","","40","800","1386.8349999655038","images/stimuli/spore_stims/complex_19_B_c.gif","images/stimuli/spore_stims/complex_19_A_c.gif","","","","","16","complex_similar","images/stimuli/spore_stims/complex_19_A_c.gif","left","","","","",""
"","null","html-keyboard-response","310","407059","0.0-56.0-0.7","SS1613171712768","","","null","","","","","<p><img src= images/blank.png width =""200"" height = ""200"" style = ""float:right""></p><p><img src=images/blank.png width =""800"" height = ""200""></p>","","","","","","","","","","","",""
"","248.54999996023253","sequential-stimulus-presentation","311","408127","0.0-56.0-1.7","SS1613171712768","trial","","40","800","1048.5499999602325","images/stimuli/spore_stims/complex_19_B_c.gif","images/stimuli/spore_stims/complex_19_A_c.gif","","","","","16","complex_similar","images/stimuli/spore_stims/complex_19_B_c.gif","right","","","","",""
"","2083.4600000525825","html-keyboard-response","312","410255","0.0-57.0","SS1613171712768","pref_question","","98","","","","","<video width ='960' height = '540' style='padding-top:8%' autoplay muted><source src='images/stimuli/wall_pref.mp4' type='video/mp4'></video>","2","middle","45%","16","","","","","","","",""
