"view_history","rt","trial_type","trial_index","time_elapsed","internal_node_id","subject","stimulus_type","trial_stimulus","key_press","minimum_viewing_duration","trial_looking_time","block_deviant","block_background","stimulus","wall_pref","location","location_percent","block_number","block_type","stimulus_displayed","position_displayed","stim_type_selected","responses","question_order","stimulus_left","stimulus_right"
"[{""page_index"":0,""viewing_time"":69643.57500000187}]","69643.97499999905","instructions","0","69651","0.0-0.0","SS1613172052436","","","","","","","","","","","","","","","","","","","",""
"[{""page_index"":0,""viewing_time"":1202.160000000731},{""page_index"":1,""viewing_time"":5992.064999998547}]","7194.644999995944","instructions","1","78848","0.0-1.0","SS1613172052436","instructions","","","","","","","","","","","","","","","","","","",""
"","5646.339999999327","sequential-stimulus-presentation","2","85302","0.0-2.0","SS1613172052436","","","40","800","6446.339999999327","null","null","","","","","","","","","","","","",""
"","5110.714999995253","sequential-stimulus-presentation","3","91216","0.0-3.0","SS1613172052436","","","40","800","5910.714999995253","null","null","","","","","","","","","","","","",""
"[{""page_index"":0,""viewing_time"":844.969999998284}]","845.1099999947473","instructions","4","92062","0.0-4.0","SS1613172052436","instructions","","","","","","","","","","","","","","","","","","",""
"","5371.570000002976","html-keyboard-response","5","97438","0.0-5.0","SS1613172052436","instructions","","50","","","","","<video width ='960' height = '540' autoplay muted><source src='images/stimuli/wall_pref.mp4' type='video/mp4'></video>","2","middle","45%","","","","","","","","",""
"","1161.804999996093","sequential-stimulus-presentation","6","99405","0.0-6.0","SS1613172052436","pref_reveal","","40","800","1961.804999996093","null","null","","","","","","","","","","","","",""
"[{""page_index"":0,""viewing_time"":955.8500000057393},{""page_index"":1,""viewing_time"":833.6999999955879},{""page_index"":2,""viewing_time"":1123.3649999994668},{""page_index"":3,""viewing_time"":996.7299999989336}]","3909.940000005008","instructions","7","103317","0.0-7.0","SS1613172052436","instructions","","","","","","","","","","","","","","","","","","",""
"","null","html-keyboard-response","8","104198","0.0-8.0-0.0","SS1613172052436","","","null","","","","","<p><img src= images/blank.png width =""200"" height = ""200"" style = ""float:right""></p><p><img src=images/blank.png width =""800"" height = ""200""></p>","","","","","","","","","","","",""
"","1264.6850000019185","sequential-stimulus-presentation","9","106269","0.0-8.0-1.0","SS1613172052436","trial","","40","800","2064.6850000019185","images/stimuli/spore_stims/simple_12_A_d.gif","images/stimuli/spore_stims/simple_12_B_d.gif","","","","","0","simple_similar","images/stimuli/spore_stims/simple_12_B_d.gif","middle","","","","",""
"","null","html-keyboard-response","10","107333","0.0-8.0-0.1","SS1613172052436","","","null","","","","","<p><img src= images/blank.png width =""200"" height = ""200"" style = ""float:right""></p><p><img src=images/blank.png width =""800"" height = ""200""></p>","","","","","","","","","","","",""
"","4027.0950000049197","sequential-stimulus-presentation","11","112164","0.0-8.0-1.1","SS1613172052436","trial","","40","800","4827.09500000492","images/stimuli/spore_stims/simple_12_A_d.gif","images/stimuli/spore_stims/simple_12_B_d.gif","","","","","0","simple_similar","images/stimuli/spore_stims/simple_12_B_d.gif","middle","","","","",""
"","null","html-keyboard-response","12","113352","0.0-8.0-0.2","SS1613172052436","","","null","","","","","<p><img src= images/blank.png width =""200"" height = ""200"" style = ""float:right""></p><p><img src=images/blank.png width =""800"" height = ""200""></p>","","","","","","","","","","","",""
"","2948.710000004212","sequential-stimulus-presentation","13","117116","0.0-8.0-1.2","SS1613172052436","trial","","40","800","3748.710000004212","images/stimuli/spore_stims/simple_12_A_d.gif","images/stimuli/spore_stims/simple_12_B_d.gif","","","","","0","simple_similar","images/stimuli/spore_stims/simple_12_B_d.gif","middle","","","","",""
"","null","html-keyboard-response","14","118215","0.0-8.0-0.3","SS1613172052436","","","null","","","","","<p><img src= images/blank.png width =""200"" height = ""200"" style = ""float:right""></p><p><img src=images/blank.png width =""800"" height = ""200""></p>","","","","","","","","","","","",""
"","3743.3149999997113","sequential-stimulus-presentation","15","122764","0.0-8.0-1.3","SS1613172052436","trial","","40","800","4543.314999999711","images/stimuli/spore_stims/simple_12_A_d.gif","images/stimuli/spore_stims/simple_12_B_d.gif","","","","","0","simple_similar","images/stimuli/spore_stims/simple_12_B_d.gif","middle","","","","",""
"","null","html-keyboard-response","16","123662","0.0-8.0-0.4","SS1613172052436","","","null","","","","","<p><img src= images/blank.png width =""200"" height = ""200"" style = ""float:right""></p><p><img src=images/blank.png width =""800"" height = ""200""></p>","","","","","","","","","","","",""
"","879.9500000022817","sequential-stimulus-presentation","17","125347","0.0-8.0-1.4","SS1613172052436","trial","","40","800","1679.9500000022817","images/stimuli/spore_stims/simple_12_A_d.gif","images/stimuli/spore_stims/simple_12_B_d.gif","","","","","0","simple_similar","images/stimuli/spore_stims/simple_12_B_d.gif","middle","","","","",""
"","null","html-keyboard-response","18","126615","0.0-8.0-0.5","SS1613172052436","","","null","","","","","<p><img src= images/blank.png width =""200"" height = ""200"" style = ""float:right""></p><p><img src=images/blank.png width =""800"" height = ""200""></p>","","","","","","","","","","","",""
"","153.08999999979278","sequential-stimulus-presentation","19","127574","0.0-8.0-1.5","SS1613172052436","trial","","40","800","953.0899999997928","images/stimuli/spore_stims/simple_12_A_d.gif","images/stimuli/spore_stims/simple_12_B_d.gif","","","","","0","simple_similar","images/stimuli/spore_stims/simple_12_B_d.gif","middle","","","","",""
"","null","html-keyboard-response","20","128669","0.0-8.0-0.6","SS1613172052436","","","null","","","","","<p><img src= images/blank.png width =""200"" height = ""200"" style = ""float:right""></p><p><img src=images/blank.png width =""800"" height = ""200""></p>","","","","","","","","","","","",""
"","139.8750000007567","sequential-stimulus-presentation","21","129614","0.0-8.0-1.6","SS1613172052436","trial","","40","800","939.8750000007567","images/stimuli/spore_stims/simple_12_A_d.gif","images/stimuli/spore_stims/simple_12_B_d.gif","","","","","0","simple_similar","images/stimuli/spore_stims/simple_12_A_d.gif","right","","","","",""
"","null","html-keyboard-response","22","130436","0.0-8.0-0.7","SS1613172052436","","","null","","","","","<p><img src= images/blank.png width =""200"" height = ""200"" style = ""float:right""></p><p><img src=images/blank.png width =""800"" height = ""200""></p>","","","","","","","","","","","",""
"","1990.4900000037742","sequential-stimulus-presentation","23","133232","0.0-8.0-1.7","SS1613172052436","trial","","40","800","2790.490000003774","images/stimuli/spore_stims/simple_12_A_d.gif","images/stimuli/spore_stims/simple_12_B_d.gif","","","","","0","simple_similar","images/stimuli/spore_stims/simple_12_B_d.gif","middle","","","","",""
"","1362.1750000020256","html-keyboard-response","24","134598","0.0-9.0","SS1613172052436","pref_question","","50","","","","","<video width ='960' height = '540' style='padding-top:8%' autoplay muted><source src='images/stimuli/wall_pref.mp4' type='video/mp4'></video>","2","middle","45%","0","","","","","","","",""
"","786.485000004177","sequential-stimulus-presentation","25","136190","0.0-10.0","SS1613172052436","pref_reveal","","40","800","1586.485000004177","null","null","","","","","0","","","","background","","","",""
"","null","html-keyboard-response","26","137253","0.0-11.0-0.0","SS1613172052436","","","null","","","","","<p><img src= images/blank.png width =""200"" height = ""200"" style = ""float:right""></p><p><img src=images/blank.png width =""800"" height = ""200""></p>","","","","","","","","","","","",""
"","7861.394999999902","sequential-stimulus-presentation","27","145920","0.0-11.0-1.0","SS1613172052436","trial","","40","800","8661.394999999902","images/stimuli/spore_stims/simple_15_B_d.gif","images/stimuli/spore_stims/simple_15_A_d.gif","","","","","1","simple_similar","images/stimuli/spore_stims/simple_15_A_d.gif","middle","","","","",""
"","null","html-keyboard-response","28","146933","0.0-11.0-0.1","SS1613172052436","","","null","","","","","<p><img src= images/blank.png width =""200"" height = ""200"" style = ""float:right""></p><p><img src=images/blank.png width =""800"" height = ""200""></p>","","","","","","","","","","","",""
"","109703.0900000027","sequential-stimulus-presentation","29","257446","0.0-11.0-1.1","SS1613172052436","trial","","40","800","110503.0900000027","images/stimuli/spore_stims/simple_15_B_d.gif","images/stimuli/spore_stims/simple_15_A_d.gif","","","","","1","simple_similar","images/stimuli/spore_stims/simple_15_A_d.gif","middle","","","","",""
"","null","html-keyboard-response","30","258668","0.0-11.0-0.2","SS1613172052436","","","null","","","","","<p><img src= images/blank.png width =""200"" height = ""200"" style = ""float:right""></p><p><img src=images/blank.png width =""800"" height = ""200""></p>","","","","","","","","","","","",""
"","162.10500000306638","sequential-stimulus-presentation","31","259635","0.0-11.0-1.2","SS1613172052436","trial","","40","800","962.1050000030664","images/stimuli/spore_stims/simple_15_B_d.gif","images/stimuli/spore_stims/simple_15_A_d.gif","","","","","1","simple_similar","images/stimuli/spore_stims/simple_15_A_d.gif","middle","","","","",""
"","null","html-keyboard-response","32","260752","0.0-11.0-0.3","SS1613172052436","","","null","","","","","<p><img src= images/blank.png width =""200"" height = ""200"" style = ""float:right""></p><p><img src=images/blank.png width =""800"" height = ""200""></p>","","","","","","","","","","","",""
"","565.905000003113","sequential-stimulus-presentation","33","262122","0.0-11.0-1.3","SS1613172052436","trial","","40","800","1365.905000003113","images/stimuli/spore_stims/simple_15_B_d.gif","images/stimuli/spore_stims/simple_15_A_d.gif","","","","","1","simple_similar","images/stimuli/spore_stims/simple_15_A_d.gif","middle","","","","",""
"","null","html-keyboard-response","34","263162","0.0-11.0-0.4","SS1613172052436","","","null","","","","","<p><img src= images/blank.png width =""200"" height = ""200"" style = ""float:right""></p><p><img src=images/blank.png width =""800"" height = ""200""></p>","","","","","","","","","","","",""
"","6812.814999997499","sequential-stimulus-presentation","35","270781","0.0-11.0-1.4","SS1613172052436","trial","","40","800","7612.814999997499","images/stimuli/spore_stims/simple_15_B_d.gif","images/stimuli/spore_stims/simple_15_A_d.gif","","","","","1","simple_similar","images/stimuli/spore_stims/simple_15_B_d.gif","left","","","","",""
"","null","html-keyboard-response","36","271723","0.0-11.0-0.5","SS1613172052436","","","null","","","","","<p><img src= images/blank.png width =""200"" height = ""200"" style = ""float:right""></p><p><img src=images/blank.png width =""800"" height = ""200""></p>","","","","","","","","","","","",""
"","416.04999999981374","sequential-stimulus-presentation","37","272946","0.0-11.0-1.5","SS1613172052436","trial","","40","800","1216.0499999998137","images/stimuli/spore_stims/simple_15_B_d.gif","images/stimuli/spore_stims/simple_15_A_d.gif","","","","","1","simple_similar","images/stimuli/spore_stims/simple_15_A_d.gif","middle","","","","",""
"","null","html-keyboard-response","38","274148","0.0-11.0-0.6","SS1613172052436","","","null","","","","","<p><img src= images/blank.png width =""200"" height = ""200"" style = ""float:right""></p><p><img src=images/blank.png width =""800"" height = ""200""></p>","","","","","","","","","","","",""
"","42904.694999997446","sequential-stimulus-presentation","39","317861","0.0-11.0-1.6","SS1613172052436","trial","","40","800","43704.694999997446","images/stimuli/spore_stims/simple_15_B_d.gif","images/stimuli/spore_stims/simple_15_A_d.gif","","","","","1","simple_similar","images/stimuli/spore_stims/simple_15_A_d.gif","middle","","","","",""
"","null","html-keyboard-response","40","318731","0.0-11.0-0.7","SS1613172052436","","","null","","","","","<p><img src= images/blank.png width =""200"" height = ""200"" style = ""float:right""></p><p><img src=images/blank.png width =""800"" height = ""200""></p>","","","","","","","","","","","",""
"","15971.339999996417","sequential-stimulus-presentation","41","335509","0.0-11.0-1.7","SS1613172052436","trial","","40","800","16771.339999996417","images/stimuli/spore_stims/simple_15_B_d.gif","images/stimuli/spore_stims/simple_15_A_d.gif","","","","","1","simple_similar","images/stimuli/spore_stims/simple_15_A_d.gif","middle","","","","",""
"","59498.35500000336","html-keyboard-response","42","395014","0.0-12.0","SS1613172052436","pref_question","","50","","","","","<video width ='960' height = '540' style='padding-top:8%' autoplay muted><source src='images/stimuli/wall_pref.mp4' type='video/mp4'></video>","2","middle","45%","1","","","","","","","",""
"","1658.7999999974272","sequential-stimulus-presentation","43","397482","0.0-13.0","SS1613172052436","pref_reveal","","40","800","2458.799999997427","null","null","","","","","1","","","","background","","","",""
"","null","html-keyboard-response","44","398642","0.0-14.0-0.0","SS1613172052436","","","null","","","","","<p><img src= images/blank.png width =""200"" height = ""200"" style = ""float:right""></p><p><img src=images/blank.png width =""800"" height = ""200""></p>","","","","","","","","","","","",""
"","214974.04000000097","sequential-stimulus-presentation","45","614437","0.0-14.0-1.0","SS1613172052436","trial","","40","800","215774.04000000097","images/stimuli/spore_stims/complex_17_B_b.gif","images/stimuli/spore_stims/complex_06_A_d.gif","","","","","2","complex_dissimilar","images/stimuli/spore_stims/complex_06_A_d.gif","left","","","","",""
"","null","html-keyboard-response","46","615683","0.0-14.0-0.1","SS1613172052436","","","null","","","","","<p><img src= images/blank.png width =""200"" height = ""200"" style = ""float:right""></p><p><img src=images/blank.png width =""800"" height = ""200""></p>","","","","","","","","","","","",""
"","472.179999996908","sequential-stimulus-presentation","47","616962","0.0-14.0-1.1","SS1613172052436","trial","","40","800","1272.179999996908","images/stimuli/spore_stims/complex_17_B_b.gif","images/stimuli/spore_stims/complex_06_A_d.gif","","","","","2","complex_dissimilar","images/stimuli/spore_stims/complex_06_A_d.gif","left","","","","",""
"","null","html-keyboard-response","48","617831","0.0-14.0-0.2","SS1613172052436","","","null","","","","","<p><img src= images/blank.png width =""200"" height = ""200"" style = ""float:right""></p><p><img src=images/blank.png width =""800"" height = ""200""></p>","","","","","","","","","","","",""
"","110.11000000138301","sequential-stimulus-presentation","49","618746","0.0-14.0-1.2","SS1613172052436","trial","","40","800","910.110000001383","images/stimuli/spore_stims/complex_17_B_b.gif","images/stimuli/spore_stims/complex_06_A_d.gif","","","","","2","complex_dissimilar","images/stimuli/spore_stims/complex_06_A_d.gif","left","","","","",""
"","null","html-keyboard-response","50","619964","0.0-14.0-0.3","SS1613172052436","","","null","","","","","<p><img src= images/blank.png width =""200"" height = ""200"" style = ""float:right""></p><p><img src=images/blank.png width =""800"" height = ""200""></p>","","","","","","","","","","","",""
"","105.09499999892432","sequential-stimulus-presentation","51","620874","0.0-14.0-1.3","SS1613172052436","trial","","40","800","905.0949999989243","images/stimuli/spore_stims/complex_17_B_b.gif","images/stimuli/spore_stims/complex_06_A_d.gif","","","","","2","complex_dissimilar","images/stimuli/spore_stims/complex_17_B_b.gif","middle","","","","",""
"","null","html-keyboard-response","52","621991","0.0-14.0-0.4","SS1613172052436","","","null","","","","","<p><img src= images/blank.png width =""200"" height = ""200"" style = ""float:right""></p><p><img src=images/blank.png width =""800"" height = ""200""></p>","","","","","","","","","","","",""
"","173.96000000019558","sequential-stimulus-presentation","53","622970","0.0-14.0-1.4","SS1613172052436","trial","","40","800","973.9600000001956","images/stimuli/spore_stims/complex_17_B_b.gif","images/stimuli/spore_stims/complex_06_A_d.gif","","","","","2","complex_dissimilar","images/stimuli/spore_stims/complex_06_A_d.gif","left","","","","",""
"","null","html-keyboard-response","54","623791","0.0-14.0-0.5","SS1613172052436","","","null","","","","","<p><img src= images/blank.png width =""200"" height = ""200"" style = ""float:right""></p><p><img src=images/blank.png width =""800"" height = ""200""></p>","","","","","","","","","","","",""
"","126.0199999960605","sequential-stimulus-presentation","55","624722","0.0-14.0-1.5","SS1613172052436","trial","","40","800","926.0199999960605","images/stimuli/spore_stims/complex_17_B_b.gif","images/stimuli/spore_stims/complex_06_A_d.gif","","","","","2","complex_dissimilar","images/stimuli/spore_stims/complex_06_A_d.gif","left","","","","",""
"","null","html-keyboard-response","56","625579","0.0-14.0-0.6","SS1613172052436","","","null","","","","","<p><img src= images/blank.png width =""200"" height = ""200"" style = ""float:right""></p><p><img src=images/blank.png width =""800"" height = ""200""></p>","","","","","","","","","","","",""
"","104.50999999733176","sequential-stimulus-presentation","57","626490","0.0-14.0-1.6","SS1613172052436","trial","","40","800","904.5099999973318","images/stimuli/spore_stims/complex_17_B_b.gif","images/stimuli/spore_stims/complex_06_A_d.gif","","","","","2","complex_dissimilar","images/stimuli/spore_stims/complex_06_A_d.gif","left","","","","",""
"","null","html-keyboard-response","58","627463","0.0-14.0-0.7","SS1613172052436","","","null","","","","","<p><img src= images/blank.png width =""200"" height = ""200"" style = ""float:right""></p><p><img src=images/blank.png width =""800"" height = ""200""></p>","","","","","","","","","","","",""
"","20.445000001927838","sequential-stimulus-presentation","59","628289","0.0-14.0-1.7","SS1613172052436","trial","","40","800","820.4450000019278","images/stimuli/spore_stims/complex_17_B_b.gif","images/stimuli/spore_stims/complex_06_A_d.gif","","","","","2","complex_dissimilar","images/stimuli/spore_stims/complex_06_A_d.gif","left","","","","",""
"","2332.844999997178","html-keyboard-response","60","630626","0.0-15.0","SS1613172052436","pref_question","","50","","","","","<video width ='960' height = '540' style='padding-top:8%' autoplay muted><source src='images/stimuli/wall_pref.mp4' type='video/mp4'></video>","2","middle","45%","2","","","","","","","",""
"","57.70000000484288","sequential-stimulus-presentation","61","631490","0.0-16.0","SS1613172052436","pref_reveal","","40","800","857.7000000048429","null","null","","","","","2","","","","deviant","","","",""
"","null","html-keyboard-response","62","632422","0.0-17.0-0.0","SS1613172052436","","","null","","","","","<p><img src= images/blank.png width =""200"" height = ""200"" style = ""float:right""></p><p><img src=images/blank.png width =""800"" height = ""200""></p>","","","","","","","","","","","",""
"","14.70999999588821","sequential-stimulus-presentation","63","633266","0.0-17.0-1.0","SS1613172052436","trial","","40","800","814.7099999958882","images/stimuli/spore_stims/simple_14_A_a.gif","images/stimuli/spore_stims/simple_03_B_a.gif","","","","","3","simple_dissimilar","images/stimuli/spore_stims/simple_03_B_a.gif","right","","","","",""
"","null","html-keyboard-response","64","634137","0.0-17.0-0.1","SS1613172052436","","","null","","","","","<p><img src= images/blank.png width =""200"" height = ""200"" style = ""float:right""></p><p><img src=images/blank.png width =""800"" height = ""200""></p>","","","","","","","","","","","",""
"","67.15999999875203","sequential-stimulus-presentation","65","635009","0.0-17.0-1.1","SS1613172052436","trial","","40","800","867.159999998752","images/stimuli/spore_stims/simple_14_A_a.gif","images/stimuli/spore_stims/simple_03_B_a.gif","","","","","3","simple_dissimilar","images/stimuli/spore_stims/simple_03_B_a.gif","right","","","","",""
"","null","html-keyboard-response","66","635913","0.0-17.0-0.2","SS1613172052436","","","null","","","","","<p><img src= images/blank.png width =""200"" height = ""200"" style = ""float:right""></p><p><img src=images/blank.png width =""800"" height = ""200""></p>","","","","","","","","","","","",""
"","107.05500000040047","sequential-stimulus-presentation","67","636825","0.0-17.0-1.2","SS1613172052436","trial","","40","800","907.0550000004005","images/stimuli/spore_stims/simple_14_A_a.gif","images/stimuli/spore_stims/simple_03_B_a.gif","","","","","3","simple_dissimilar","images/stimuli/spore_stims/simple_03_B_a.gif","right","","","","",""
"","null","html-keyboard-response","68","637655","0.0-17.0-0.3","SS1613172052436","","","null","","","","","<p><img src= images/blank.png width =""200"" height = ""200"" style = ""float:right""></p><p><img src=images/blank.png width =""800"" height = ""200""></p>","","","","","","","","","","","",""
"","149.08500000461936","sequential-stimulus-presentation","69","638609","0.0-17.0-1.3","SS1613172052436","trial","","40","800","949.0850000046194","images/stimuli/spore_stims/simple_14_A_a.gif","images/stimuli/spore_stims/simple_03_B_a.gif","","","","","3","simple_dissimilar","images/stimuli/spore_stims/simple_03_B_a.gif","right","","","","",""
"","null","html-keyboard-response","70","639512","0.0-17.0-0.4","SS1613172052436","","","null","","","","","<p><img src= images/blank.png width =""200"" height = ""200"" style = ""float:right""></p><p><img src=images/blank.png width =""800"" height = ""200""></p>","","","","","","","","","","","",""
"","107.04500000423286","sequential-stimulus-presentation","71","640425","0.0-17.0-1.4","SS1613172052436","trial","","40","800","907.0450000042329","images/stimuli/spore_stims/simple_14_A_a.gif","images/stimuli/spore_stims/simple_03_B_a.gif","","","","","3","simple_dissimilar","images/stimuli/spore_stims/simple_03_B_a.gif","right","","","","",""
"","null","html-keyboard-response","72","641428","0.0-17.0-0.5","SS1613172052436","","","null","","","","","<p><img src= images/blank.png width =""200"" height = ""200"" style = ""float:right""></p><p><img src=images/blank.png width =""800"" height = ""200""></p>","","","","","","","","","","","",""
"","143.86499999812804","sequential-stimulus-presentation","73","642377","0.0-17.0-1.5","SS1613172052436","trial","","40","800","943.864999998128","images/stimuli/spore_stims/simple_14_A_a.gif","images/stimuli/spore_stims/simple_03_B_a.gif","","","","","3","simple_dissimilar","images/stimuli/spore_stims/simple_03_B_a.gif","right","","","","",""
"","null","html-keyboard-response","74","643637","0.0-17.0-0.6","SS1613172052436","","","null","","","","","<p><img src= images/blank.png width =""200"" height = ""200"" style = ""float:right""></p><p><img src=images/blank.png width =""800"" height = ""200""></p>","","","","","","","","","","","",""
"","126.61500000092201","sequential-stimulus-presentation","75","644569","0.0-17.0-1.6","SS1613172052436","trial","","40","800","926.615000000922","images/stimuli/spore_stims/simple_14_A_a.gif","images/stimuli/spore_stims/simple_03_B_a.gif","","","","","3","simple_dissimilar","images/stimuli/spore_stims/simple_03_B_a.gif","right","","","","",""
"","null","html-keyboard-response","76","645380","0.0-17.0-0.7","SS1613172052436","","","null","","","","","<p><img src= images/blank.png width =""200"" height = ""200"" style = ""float:right""></p><p><img src=images/blank.png width =""800"" height = ""200""></p>","","","","","","","","","","","",""
"","143.30999999959022","sequential-stimulus-presentation","77","646329","0.0-17.0-1.7","SS1613172052436","trial","","40","800","943.3099999995902","images/stimuli/spore_stims/simple_14_A_a.gif","images/stimuli/spore_stims/simple_03_B_a.gif","","","","","3","simple_dissimilar","images/stimuli/spore_stims/simple_14_A_a.gif","middle","","","","",""
"","2460.2549999982584","html-keyboard-response","78","648792","0.0-18.0","SS1613172052436","pref_question","","51","","","","","<video width ='960' height = '540' style='padding-top:8%' autoplay muted><source src='images/stimuli/wall_pref.mp4' type='video/mp4'></video>","3","right","66%","3","","","","","","","",""
"","68.24000000057276","sequential-stimulus-presentation","79","649664","0.0-19.0","SS1613172052436","pref_reveal","","40","800","868.2400000005728","null","null","","","","","3","","","","background","","","",""
"","null","html-keyboard-response","80","650839","0.0-20.0-0.0","SS1613172052436","","","null","","","","","<p><img src= images/blank.png width =""200"" height = ""200"" style = ""float:right""></p><p><img src=images/blank.png width =""800"" height = ""200""></p>","","","","","","","","","","","",""
"","93.08500000042841","sequential-stimulus-presentation","81","651890","0.0-20.0-1.0","SS1613172052436","trial","","40","800","893.0850000004284","images/stimuli/spore_stims/simple_07_B_c.gif","images/stimuli/spore_stims/simple_06_A_b.gif","","","","","4","simple_dissimilar","images/stimuli/spore_stims/simple_06_A_b.gif","left","","","","",""
"","null","html-keyboard-response","82","653084","0.0-20.0-0.1","SS1613172052436","","","null","","","","","<p><img src= images/blank.png width =""200"" height = ""200"" style = ""float:right""></p><p><img src=images/blank.png width =""800"" height = ""200""></p>","","","","","","","","","","","",""
"","31.979999999748543","sequential-stimulus-presentation","83","653920","0.0-20.0-1.1","SS1613172052436","trial","","40","800","831.9799999997485","images/stimuli/spore_stims/simple_07_B_c.gif","images/stimuli/spore_stims/simple_06_A_b.gif","","","","","4","simple_dissimilar","images/stimuli/spore_stims/simple_06_A_b.gif","left","","","","",""
"","null","html-keyboard-response","84","654900","0.0-20.0-0.2","SS1613172052436","","","null","","","","","<p><img src= images/blank.png width =""200"" height = ""200"" style = ""float:right""></p><p><img src=images/blank.png width =""800"" height = ""200""></p>","","","","","","","","","","","",""
"","23.090000002412125","sequential-stimulus-presentation","85","655729","0.0-20.0-1.2","SS1613172052436","trial","","40","800","823.0900000024121","images/stimuli/spore_stims/simple_07_B_c.gif","images/stimuli/spore_stims/simple_06_A_b.gif","","","","","4","simple_dissimilar","images/stimuli/spore_stims/simple_07_B_c.gif","middle","","","","",""
"","null","html-keyboard-response","86","656959","0.0-20.0-0.3","SS1613172052436","","","null","","","","","<p><img src= images/blank.png width =""200"" height = ""200"" style = ""float:right""></p><p><img src=images/blank.png width =""800"" height = ""200""></p>","","","","","","","","","","","",""
"","155.5450000014389","sequential-stimulus-presentation","87","657920","0.0-20.0-1.3","SS1613172052436","trial","","40","800","955.5450000014389","images/stimuli/spore_stims/simple_07_B_c.gif","images/stimuli/spore_stims/simple_06_A_b.gif","","","","","4","simple_dissimilar","images/stimuli/spore_stims/simple_06_A_b.gif","left","","","","",""
"","null","html-keyboard-response","88","658802","0.0-20.0-0.4","SS1613172052436","","","null","","","","","<p><img src= images/blank.png width =""200"" height = ""200"" style = ""float:right""></p><p><img src=images/blank.png width =""800"" height = ""200""></p>","","","","","","","","","","","",""
"","130.48999999579974","sequential-stimulus-presentation","89","659752","0.0-20.0-1.4","SS1613172052436","trial","","40","800","930.4899999957997","images/stimuli/spore_stims/simple_07_B_c.gif","images/stimuli/spore_stims/simple_06_A_b.gif","","","","","4","simple_dissimilar","images/stimuli/spore_stims/simple_06_A_b.gif","left","","","","",""
"","null","html-keyboard-response","90","660566","0.0-20.0-0.5","SS1613172052436","","","null","","","","","<p><img src= images/blank.png width =""200"" height = ""200"" style = ""float:right""></p><p><img src=images/blank.png width =""800"" height = ""200""></p>","","","","","","","","","","","",""
"","45.31000000133645","sequential-stimulus-presentation","91","661416","0.0-20.0-1.5","SS1613172052436","trial","","40","800","845.3100000013364","images/stimuli/spore_stims/simple_07_B_c.gif","images/stimuli/spore_stims/simple_06_A_b.gif","","","","","4","simple_dissimilar","images/stimuli/spore_stims/simple_06_A_b.gif","left","","","","",""
"","null","html-keyboard-response","92","662354","0.0-20.0-0.6","SS1613172052436","","","null","","","","","<p><img src= images/blank.png width =""200"" height = ""200"" style = ""float:right""></p><p><img src=images/blank.png width =""800"" height = ""200""></p>","","","","","","","","","","","",""
"","127.91500000446104","sequential-stimulus-presentation","93","663293","0.0-20.0-1.6","SS1613172052436","trial","","40","800","927.915000004461","images/stimuli/spore_stims/simple_07_B_c.gif","images/stimuli/spore_stims/simple_06_A_b.gif","","","","","4","simple_dissimilar","images/stimuli/spore_stims/simple_06_A_b.gif","left","","","","",""
"","null","html-keyboard-response","94","664116","0.0-20.0-0.7","SS1613172052436","","","null","","","","","<p><img src= images/blank.png width =""200"" height = ""200"" style = ""float:right""></p><p><img src=images/blank.png width =""800"" height = ""200""></p>","","","","","","","","","","","",""
"","118.73500000371132","sequential-stimulus-presentation","95","665107","0.0-20.0-1.7","SS1613172052436","trial","","40","800","918.7350000037113","images/stimuli/spore_stims/simple_07_B_c.gif","images/stimuli/spore_stims/simple_06_A_b.gif","","","","","4","simple_dissimilar","images/stimuli/spore_stims/simple_06_A_b.gif","left","","","","",""
"","6792.04499999457","html-keyboard-response","96","671904","0.0-21.0","SS1613172052436","pref_question","","97","","","","","<video width ='960' height = '540' style='padding-top:8%' autoplay muted><source src='images/stimuli/wall_pref.mp4' type='video/mp4'></video>","1","left","25%","4","","","","","","","",""
"","1336.6999999999534","sequential-stimulus-presentation","97","674049","0.0-22.0","SS1613172052436","pref_reveal","","40","800","2136.6999999999534","null","null","","","","","4","","","","background","","","",""
"","null","html-keyboard-response","98","675172","0.0-23.0-0.0","SS1613172052436","","","null","","","","","<p><img src= images/blank.png width =""200"" height = ""200"" style = ""float:right""></p><p><img src=images/blank.png width =""800"" height = ""200""></p>","","","","","","","","","","","",""
"","108.22499999636784","sequential-stimulus-presentation","99","676089","0.0-23.0-1.0","SS1613172052436","trial","","40","800","908.2249999963678","images/stimuli/spore_stims/complex_13_B_a.gif","images/stimuli/spore_stims/complex_13_A_a.gif","","","","","5","complex_similar","images/stimuli/spore_stims/complex_13_A_a.gif","right","","","","",""
"","null","html-keyboard-response","100","677377","0.0-23.0-0.1","SS1613172052436","","","null","","","","","<p><img src= images/blank.png width =""200"" height = ""200"" style = ""float:right""></p><p><img src=images/blank.png width =""800"" height = ""200""></p>","","","","","","","","","","","",""
"","19.435000001918525","sequential-stimulus-presentation","101","678201","0.0-23.0-1.1","SS1613172052436","trial","","40","800","819.4350000019185","images/stimuli/spore_stims/complex_13_B_a.gif","images/stimuli/spore_stims/complex_13_A_a.gif","","","","","5","complex_similar","images/stimuli/spore_stims/complex_13_A_a.gif","right","","","","",""
"","null","html-keyboard-response","102","679373","0.0-23.0-0.2","SS1613172052436","","","null","","","","","<p><img src= images/blank.png width =""200"" height = ""200"" style = ""float:right""></p><p><img src=images/blank.png width =""800"" height = ""200""></p>","","","","","","","","","","","",""
"","473984.80500000017","sequential-stimulus-presentation","103","1154184","0.0-23.0-1.2","SS1613172052436","trial","","40","800","474784.80500000017","images/stimuli/spore_stims/complex_13_B_a.gif","images/stimuli/spore_stims/complex_13_A_a.gif","","","","","5","complex_similar","images/stimuli/spore_stims/complex_13_A_a.gif","right","","","","",""
"","null","html-keyboard-response","104","1155212","0.0-23.0-0.3","SS1613172052436","","","null","","","","","<p><img src= images/blank.png width =""200"" height = ""200"" style = ""float:right""></p><p><img src=images/blank.png width =""800"" height = ""200""></p>","","","","","","","","","","","",""
"","139.28500000480562","sequential-stimulus-presentation","105","1156165","0.0-23.0-1.3","SS1613172052436","trial","","40","800","939.2850000048056","images/stimuli/spore_stims/complex_13_B_a.gif","images/stimuli/spore_stims/complex_13_A_a.gif","","","","","5","complex_similar","images/stimuli/spore_stims/complex_13_A_a.gif","right","","","","",""
"","null","html-keyboard-response","106","1157041","0.0-23.0-0.4","SS1613172052436","","","null","","","","","<p><img src= images/blank.png width =""200"" height = ""200"" style = ""float:right""></p><p><img src=images/blank.png width =""800"" height = ""200""></p>","","","","","","","","","","","",""
"","126.93500000028871","sequential-stimulus-presentation","107","1157997","0.0-23.0-1.4","SS1613172052436","trial","","40","800","926.9350000002887","images/stimuli/spore_stims/complex_13_B_a.gif","images/stimuli/spore_stims/complex_13_A_a.gif","","","","","5","complex_similar","images/stimuli/spore_stims/complex_13_A_a.gif","right","","","","",""
"","null","html-keyboard-response","108","1159199","0.0-23.0-0.5","SS1613172052436","","","null","","","","","<p><img src= images/blank.png width =""200"" height = ""200"" style = ""float:right""></p><p><img src=images/blank.png width =""800"" height = ""200""></p>","","","","","","","","","","","",""
"","113.59000000078231","sequential-stimulus-presentation","109","1160118","0.0-23.0-1.5","SS1613172052436","trial","","40","800","913.5900000007823","images/stimuli/spore_stims/complex_13_B_a.gif","images/stimuli/spore_stims/complex_13_A_a.gif","","","","","5","complex_similar","images/stimuli/spore_stims/complex_13_A_a.gif","right","","","","",""
"","null","html-keyboard-response","110","1161347","0.0-23.0-0.6","SS1613172052436","","","null","","","","","<p><img src= images/blank.png width =""200"" height = ""200"" style = ""float:right""></p><p><img src=images/blank.png width =""800"" height = ""200""></p>","","","","","","","","","","","",""
"","2728.8849999967497","sequential-stimulus-presentation","111","1165493","0.0-23.0-1.6","SS1613172052436","trial","","40","800","3528.8849999967497","images/stimuli/spore_stims/complex_13_B_a.gif","images/stimuli/spore_stims/complex_13_A_a.gif","","","","","5","complex_similar","images/stimuli/spore_stims/complex_13_A_a.gif","right","","","","",""
"","null","html-keyboard-response","112","1166720","0.0-23.0-0.7","SS1613172052436","","","null","","","","","<p><img src= images/blank.png width =""200"" height = ""200"" style = ""float:right""></p><p><img src=images/blank.png width =""800"" height = ""200""></p>","","","","","","","","","","","",""
"","171687.6499999999","sequential-stimulus-presentation","113","1339225","0.0-23.0-1.7","SS1613172052436","trial","","40","800","172487.6499999999","images/stimuli/spore_stims/complex_13_B_a.gif","images/stimuli/spore_stims/complex_13_A_a.gif","","","","","5","complex_similar","images/stimuli/spore_stims/complex_13_B_a.gif","middle","","","","",""
"","1459.8699999987148","html-keyboard-response","114","1340694","0.0-24.0","SS1613172052436","pref_question","","51","","","","","<video width ='960' height = '540' style='padding-top:8%' autoplay muted><source src='images/stimuli/wall_pref.mp4' type='video/mp4'></video>","3","right","66%","5","","","","","","","",""
"","111.13999999361113","sequential-stimulus-presentation","115","1341613","0.0-25.0","SS1613172052436","pref_reveal","","40","800","911.1399999936111","null","null","","","","","5","","","","background","","","",""
"","null","html-keyboard-response","116","1342723","0.0-26.0-0.0","SS1613172052436","","","null","","","","","<p><img src= images/blank.png width =""200"" height = ""200"" style = ""float:right""></p><p><img src=images/blank.png width =""800"" height = ""200""></p>","","","","","","","","","","","",""
"","49.63500000303611","sequential-stimulus-presentation","117","1343580","0.0-26.0-1.0","SS1613172052436","trial","","40","800","849.6350000030361","images/stimuli/spore_stims/simple_18_A_c.gif","images/stimuli/spore_stims/simple_18_B_c.gif","","","","","6","simple_similar","images/stimuli/spore_stims/simple_18_B_c.gif","left","","","","",""
"","null","html-keyboard-response","118","1344502","0.0-26.0-0.1","SS1613172052436","","","null","","","","","<p><img src= images/blank.png width =""200"" height = ""200"" style = ""float:right""></p><p><img src=images/blank.png width =""800"" height = ""200""></p>","","","","","","","","","","","",""
"","137.8499999991618","sequential-stimulus-presentation","119","1345453","0.0-26.0-1.1","SS1613172052436","trial","","40","800","937.8499999991618","images/stimuli/spore_stims/simple_18_A_c.gif","images/stimuli/spore_stims/simple_18_B_c.gif","","","","","6","simple_similar","images/stimuli/spore_stims/simple_18_B_c.gif","left","","","","",""
"","null","html-keyboard-response","120","1346473","0.0-26.0-0.2","SS1613172052436","","","null","","","","","<p><img src= images/blank.png width =""200"" height = ""200"" style = ""float:right""></p><p><img src=images/blank.png width =""800"" height = ""200""></p>","","","","","","","","","","","",""
"","52.05500000016764","sequential-stimulus-presentation","121","1347333","0.0-26.0-1.2","SS1613172052436","trial","","40","800","852.0550000001676","images/stimuli/spore_stims/simple_18_A_c.gif","images/stimuli/spore_stims/simple_18_B_c.gif","","","","","6","simple_similar","images/stimuli/spore_stims/simple_18_A_c.gif","middle","","","","",""
"","null","html-keyboard-response","122","1348568","0.0-26.0-0.3","SS1613172052436","","","null","","","","","<p><img src= images/blank.png width =""200"" height = ""200"" style = ""float:right""></p><p><img src=images/blank.png width =""800"" height = ""200""></p>","","","","","","","","","","","",""
"","55.42499999864958","sequential-stimulus-presentation","123","1349444","0.0-26.0-1.3","SS1613172052436","trial","","40","800","855.4249999986496","images/stimuli/spore_stims/simple_18_A_c.gif","images/stimuli/spore_stims/simple_18_B_c.gif","","","","","6","simple_similar","images/stimuli/spore_stims/simple_18_B_c.gif","left","","","","",""
"","null","html-keyboard-response","124","1350387","0.0-26.0-0.4","SS1613172052436","","","null","","","","","<p><img src= images/blank.png width =""200"" height = ""200"" style = ""float:right""></p><p><img src=images/blank.png width =""800"" height = ""200""></p>","","","","","","","","","","","",""
"","27931.564999999013","sequential-stimulus-presentation","125","1379125","0.0-26.0-1.4","SS1613172052436","trial","","40","800","28731.564999999013","images/stimuli/spore_stims/simple_18_A_c.gif","images/stimuli/spore_stims/simple_18_B_c.gif","","","","","6","simple_similar","images/stimuli/spore_stims/simple_18_B_c.gif","left","","","","",""
"","null","html-keyboard-response","126","1380028","0.0-26.0-0.5","SS1613172052436","","","null","","","","","<p><img src= images/blank.png width =""200"" height = ""200"" style = ""float:right""></p><p><img src=images/blank.png width =""800"" height = ""200""></p>","","","","","","","","","","","",""
"","44872.66000000085","sequential-stimulus-presentation","127","1425712","0.0-26.0-1.5","SS1613172052436","trial","","40","800","45672.66000000085","images/stimuli/spore_stims/simple_18_A_c.gif","images/stimuli/spore_stims/simple_18_B_c.gif","","","","","6","simple_similar","images/stimuli/spore_stims/simple_18_B_c.gif","left","","","","",""
"","null","html-keyboard-response","128","1426728","0.0-26.0-0.6","SS1613172052436","","","null","","","","","<p><img src= images/blank.png width =""200"" height = ""200"" style = ""float:right""></p><p><img src=images/blank.png width =""800"" height = ""200""></p>","","","","","","","","","","","",""
"","260188.22999999998","sequential-stimulus-presentation","129","1687734","0.0-26.0-1.6","SS1613172052436","trial","","40","800","260988.22999999998","images/stimuli/spore_stims/simple_18_A_c.gif","images/stimuli/spore_stims/simple_18_B_c.gif","","","","","6","simple_similar","images/stimuli/spore_stims/simple_18_B_c.gif","left","","","","",""
"","null","html-keyboard-response","130","1688714","0.0-26.0-0.7","SS1613172052436","","","null","","","","","<p><img src= images/blank.png width =""200"" height = ""200"" style = ""float:right""></p><p><img src=images/blank.png width =""800"" height = ""200""></p>","","","","","","","","","","","",""
"","118.93499999842606","sequential-stimulus-presentation","131","1689642","0.0-26.0-1.7","SS1613172052436","trial","","40","800","918.9349999984261","images/stimuli/spore_stims/simple_18_A_c.gif","images/stimuli/spore_stims/simple_18_B_c.gif","","","","","6","simple_similar","images/stimuli/spore_stims/simple_18_B_c.gif","left","","","","",""
"","2146.6299999956973","html-keyboard-response","132","1691795","0.0-27.0","SS1613172052436","pref_question","","51","","","","","<video width ='960' height = '540' style='padding-top:8%' autoplay muted><source src='images/stimuli/wall_pref.mp4' type='video/mp4'></video>","3","right","66%","6","","","","","","","",""
"","173.8150000020396","sequential-stimulus-presentation","133","1692778","0.0-28.0","SS1613172052436","pref_reveal","","40","800","973.8150000020396","null","null","","","","","6","","","","novel","","","",""
"","null","html-keyboard-response","134","1693800","0.0-29.0-0.0","SS1613172052436","","","null","","","","","<p><img src= images/blank.png width =""200"" height = ""200"" style = ""float:right""></p><p><img src=images/blank.png width =""800"" height = ""200""></p>","","","","","","","","","","","",""
"","162.4099999971222","sequential-stimulus-presentation","135","1694770","0.0-29.0-1.0","SS1613172052436","trial","","40","800","962.4099999971222","images/stimuli/spore_stims/simple_05_A_a.gif","images/stimuli/spore_stims/simple_08_A_c.gif","","","","","7","simple_dissimilar","images/stimuli/spore_stims/simple_08_A_c.gif","middle","","","","",""
"","null","html-keyboard-response","136","1695810","0.0-29.0-0.1","SS1613172052436","","","null","","","","","<p><img src= images/blank.png width =""200"" height = ""200"" style = ""float:right""></p><p><img src=images/blank.png width =""800"" height = ""200""></p>","","","","","","","","","","","",""
"","129.410000001546","sequential-stimulus-presentation","137","1696762","0.0-29.0-1.1","SS1613172052436","trial","","40","800","929.410000001546","images/stimuli/spore_stims/simple_05_A_a.gif","images/stimuli/spore_stims/simple_08_A_c.gif","","","","","7","simple_dissimilar","images/stimuli/spore_stims/simple_08_A_c.gif","middle","","","","",""
"","null","html-keyboard-response","138","1697724","0.0-29.0-0.2","SS1613172052436","","","null","","","","","<p><img src= images/blank.png width =""200"" height = ""200"" style = ""float:right""></p><p><img src=images/blank.png width =""800"" height = ""200""></p>","","","","","","","","","","","",""
"","174.6149999962654","sequential-stimulus-presentation","139","1698706","0.0-29.0-1.2","SS1613172052436","trial","","40","800","974.6149999962654","images/stimuli/spore_stims/simple_05_A_a.gif","images/stimuli/spore_stims/simple_08_A_c.gif","","","","","7","simple_dissimilar","images/stimuli/spore_stims/simple_08_A_c.gif","middle","","","","",""
"","null","html-keyboard-response","140","1699767","0.0-29.0-0.3","SS1613172052436","","","null","","","","","<p><img src= images/blank.png width =""200"" height = ""200"" style = ""float:right""></p><p><img src=images/blank.png width =""800"" height = ""200""></p>","","","","","","","","","","","",""
"","58.25499999616295","sequential-stimulus-presentation","141","1700634","0.0-29.0-1.3","SS1613172052436","trial","","40","800","858.254999996163","images/stimuli/spore_stims/simple_05_A_a.gif","images/stimuli/spore_stims/simple_08_A_c.gif","","","","","7","simple_dissimilar","images/stimuli/spore_stims/simple_08_A_c.gif","middle","","","","",""
"","null","html-keyboard-response","142","1701587","0.0-29.0-0.4","SS1613172052436","","","null","","","","","<p><img src= images/blank.png width =""200"" height = ""200"" style = ""float:right""></p><p><img src=images/blank.png width =""800"" height = ""200""></p>","","","","","","","","","","","",""
"","119.96499999798834","sequential-stimulus-presentation","143","1702513","0.0-29.0-1.4","SS1613172052436","trial","","40","800","919.9649999979883","images/stimuli/spore_stims/simple_05_A_a.gif","images/stimuli/spore_stims/simple_08_A_c.gif","","","","","7","simple_dissimilar","images/stimuli/spore_stims/simple_08_A_c.gif","middle","","","","",""
"","null","html-keyboard-response","144","1703577","0.0-29.0-0.5","SS1613172052436","","","null","","","","","<p><img src= images/blank.png width =""200"" height = ""200"" style = ""float:right""></p><p><img src=images/blank.png width =""800"" height = ""200""></p>","","","","","","","","","","","",""
"","208.9300000006333","sequential-stimulus-presentation","145","1704593","0.0-29.0-1.5","SS1613172052436","trial","","40","800","1008.9300000006333","images/stimuli/spore_stims/simple_05_A_a.gif","images/stimuli/spore_stims/simple_08_A_c.gif","","","","","7","simple_dissimilar","images/stimuli/spore_stims/simple_08_A_c.gif","middle","","","","",""
"","null","html-keyboard-response","146","1705863","0.0-29.0-0.6","SS1613172052436","","","null","","","","","<p><img src= images/blank.png width =""200"" height = ""200"" style = ""float:right""></p><p><img src=images/blank.png width =""800"" height = ""200""></p>","","","","","","","","","","","",""
"","1876.1700000031851","sequential-stimulus-presentation","147","1708547","0.0-29.0-1.6","SS1613172052436","trial","","40","800","2676.170000003185","images/stimuli/spore_stims/simple_05_A_a.gif","images/stimuli/spore_stims/simple_08_A_c.gif","","","","","7","simple_dissimilar","images/stimuli/spore_stims/simple_08_A_c.gif","middle","","","","",""
"","null","html-keyboard-response","148","1709433","0.0-29.0-0.7","SS1613172052436","","","null","","","","","<p><img src= images/blank.png width =""200"" height = ""200"" style = ""float:right""></p><p><img src=images/blank.png width =""800"" height = ""200""></p>","","","","","","","","","","","",""
"","26.59500000299886","sequential-stimulus-presentation","149","1710265","0.0-29.0-1.7","SS1613172052436","trial","","40","800","826.5950000029989","images/stimuli/spore_stims/simple_05_A_a.gif","images/stimuli/spore_stims/simple_08_A_c.gif","","","","","7","simple_dissimilar","images/stimuli/spore_stims/simple_05_A_a.gif","left","","","","",""
"","6281.850000006612","html-keyboard-response","150","1716553","0.0-30.0","SS1613172052436","pref_question","","51","","","","","<video width ='960' height = '540' style='padding-top:8%' autoplay muted><source src='images/stimuli/wall_pref.mp4' type='video/mp4'></video>","3","right","66%","7","","","","","","","",""
"","150.9550000044983","sequential-stimulus-presentation","151","1717513","0.0-31.0","SS1613172052436","pref_reveal","","40","800","950.9550000044983","null","null","","","","","7","","","","novel","","","",""
"","null","html-keyboard-response","152","1718687","0.0-32.0-0.0","SS1613172052436","","","null","","","","","<p><img src= images/blank.png width =""200"" height = ""200"" style = ""float:right""></p><p><img src=images/blank.png width =""800"" height = ""200""></p>","","","","","","","","","","","",""
"","224.97500000451691","sequential-stimulus-presentation","153","1719720","0.0-32.0-1.0","SS1613172052436","trial","","40","800","1024.975000004517","images/stimuli/spore_stims/simple_19_B_a.gif","images/stimuli/spore_stims/simple_01_A_b.gif","","","","","8","simple_dissimilar","images/stimuli/spore_stims/simple_01_A_b.gif","middle","","","","",""
"","null","html-keyboard-response","154","1720651","0.0-32.0-0.1","SS1613172052436","","","null","","","","","<p><img src= images/blank.png width =""200"" height = ""200"" style = ""float:right""></p><p><img src=images/blank.png width =""800"" height = ""200""></p>","","","","","","","","","","","",""
"","12.764999999431893","sequential-stimulus-presentation","155","1721472","0.0-32.0-1.1","SS1613172052436","trial","","40","800","812.7649999994319","images/stimuli/spore_stims/simple_19_B_a.gif","images/stimuli/spore_stims/simple_01_A_b.gif","","","","","8","simple_dissimilar","images/stimuli/spore_stims/simple_01_A_b.gif","middle","","","","",""
"","null","html-keyboard-response","156","1722503","0.0-32.0-0.2","SS1613172052436","","","null","","","","","<p><img src= images/blank.png width =""200"" height = ""200"" style = ""float:right""></p><p><img src=images/blank.png width =""800"" height = ""200""></p>","","","","","","","","","","","",""
"","220.39999999850988","sequential-stimulus-presentation","157","1723529","0.0-32.0-1.2","SS1613172052436","trial","","40","800","1020.3999999985099","images/stimuli/spore_stims/simple_19_B_a.gif","images/stimuli/spore_stims/simple_01_A_b.gif","","","","","8","simple_dissimilar","images/stimuli/spore_stims/simple_01_A_b.gif","middle","","","","",""
"","null","html-keyboard-response","158","1724475","0.0-32.0-0.3","SS1613172052436","","","null","","","","","<p><img src= images/blank.png width =""200"" height = ""200"" style = ""float:right""></p><p><img src=images/blank.png width =""800"" height = ""200""></p>","","","","","","","","","","","",""
"","1.8249999994877726","sequential-stimulus-presentation","159","1725297","0.0-32.0-1.3","SS1613172052436","trial","","40","800","801.8249999994878","images/stimuli/spore_stims/simple_19_B_a.gif","images/stimuli/spore_stims/simple_01_A_b.gif","","","","","8","simple_dissimilar","images/stimuli/spore_stims/simple_19_B_a.gif","right","","","","",""
"","null","html-keyboard-response","160","1726436","0.0-32.0-0.4","SS1613172052436","","","null","","","","","<p><img src= images/blank.png width =""200"" height = ""200"" style = ""float:right""></p><p><img src=images/blank.png width =""800"" height = ""200""></p>","","","","","","","","","","","",""
"","108.43999999645166","sequential-stimulus-presentation","161","1727352","0.0-32.0-1.4","SS1613172052436","trial","","40","800","908.4399999964517","images/stimuli/spore_stims/simple_19_B_a.gif","images/stimuli/spore_stims/simple_01_A_b.gif","","","","","8","simple_dissimilar","images/stimuli/spore_stims/simple_01_A_b.gif","middle","","","","",""
"","null","html-keyboard-response","162","1728499","0.0-32.0-0.5","SS1613172052436","","","null","","","","","<p><img src= images/blank.png width =""200"" height = ""200"" style = ""float:right""></p><p><img src=images/blank.png width =""800"" height = ""200""></p>","","","","","","","","","","","",""
"","117.20500000240281","sequential-stimulus-presentation","163","1729424","0.0-32.0-1.5","SS1613172052436","trial","","40","800","917.2050000024028","images/stimuli/spore_stims/simple_19_B_a.gif","images/stimuli/spore_stims/simple_01_A_b.gif","","","","","8","simple_dissimilar","images/stimuli/spore_stims/simple_01_A_b.gif","middle","","","","",""
"","null","html-keyboard-response","164","1730597","0.0-32.0-0.6","SS1613172052436","","","null","","","","","<p><img src= images/blank.png width =""200"" height = ""200"" style = ""float:right""></p><p><img src=images/blank.png width =""800"" height = ""200""></p>","","","","","","","","","","","",""
"","481.93999999784864","sequential-stimulus-presentation","165","1731888","0.0-32.0-1.6","SS1613172052436","trial","","40","800","1281.9399999978486","images/stimuli/spore_stims/simple_19_B_a.gif","images/stimuli/spore_stims/simple_01_A_b.gif","","","","","8","simple_dissimilar","images/stimuli/spore_stims/simple_01_A_b.gif","middle","","","","",""
"","null","html-keyboard-response","166","1732853","0.0-32.0-0.7","SS1613172052436","","","null","","","","","<p><img src= images/blank.png width =""200"" height = ""200"" style = ""float:right""></p><p><img src=images/blank.png width =""800"" height = ""200""></p>","","","","","","","","","","","",""
"","48811.31000000471","sequential-stimulus-presentation","167","1782476","0.0-32.0-1.7","SS1613172052436","trial","","40","800","49611.31000000471","images/stimuli/spore_stims/simple_19_B_a.gif","images/stimuli/spore_stims/simple_01_A_b.gif","","","","","8","simple_dissimilar","images/stimuli/spore_stims/simple_01_A_b.gif","middle","","","","",""
"","2723.9300000001676","html-keyboard-response","168","1785208","0.0-33.0","SS1613172052436","pref_question","","50","","","","","<video width ='960' height = '540' style='padding-top:8%' autoplay muted><source src='images/stimuli/wall_pref.mp4' type='video/mp4'></video>","2","middle","45%","8","","","","","","","",""
"","134.9800000025425","sequential-stimulus-presentation","169","1786152","0.0-34.0","SS1613172052436","pref_reveal","","40","800","934.9800000025425","null","null","","","","","8","","","","background","","","",""
"","null","html-keyboard-response","170","1787246","0.0-35.0-0.0","SS1613172052436","","","null","","","","","<p><img src= images/blank.png width =""200"" height = ""200"" style = ""float:right""></p><p><img src=images/blank.png width =""800"" height = ""200""></p>","","","","","","","","","","","",""
"","64.50000000046566","sequential-stimulus-presentation","171","1788120","0.0-35.0-1.0","SS1613172052436","trial","","40","800","864.5000000004657","images/stimuli/spore_stims/complex_12_B_d.gif","images/stimuli/spore_stims/complex_12_A_d.gif","","","","","9","complex_similar","images/stimuli/spore_stims/complex_12_A_d.gif","left","","","","",""
"","null","html-keyboard-response","172","1789140","0.0-35.0-0.1","SS1613172052436","","","null","","","","","<p><img src= images/blank.png width =""200"" height = ""200"" style = ""float:right""></p><p><img src=images/blank.png width =""800"" height = ""200""></p>","","","","","","","","","","","",""
"","530588.8049999997","sequential-stimulus-presentation","173","2320562","0.0-35.0-1.1","SS1613172052436","trial","","40","800","531388.8049999997","images/stimuli/spore_stims/complex_12_B_d.gif","images/stimuli/spore_stims/complex_12_A_d.gif","","","","","9","complex_similar","images/stimuli/spore_stims/complex_12_A_d.gif","left","","","","",""
"","null","html-keyboard-response","174","2321560","0.0-35.0-0.2","SS1613172052436","","","null","","","","","<p><img src= images/blank.png width =""200"" height = ""200"" style = ""float:right""></p><p><img src=images/blank.png width =""800"" height = ""200""></p>","","","","","","","","","","","",""
"","188.07999999960884","sequential-stimulus-presentation","175","2322558","0.0-35.0-1.2","SS1613172052436","trial","","40","800","988.0799999996088","images/stimuli/spore_stims/complex_12_B_d.gif","images/stimuli/spore_stims/complex_12_A_d.gif","","","","","9","complex_similar","images/stimuli/spore_stims/complex_12_A_d.gif","left","","","","",""
"","null","html-keyboard-response","176","2323521","0.0-35.0-0.3","SS1613172052436","","","null","","","","","<p><img src= images/blank.png width =""200"" height = ""200"" style = ""float:right""></p><p><img src=images/blank.png width =""800"" height = ""200""></p>","","","","","","","","","","","",""
"","74.97499999590218","sequential-stimulus-presentation","177","2324406","0.0-35.0-1.3","SS1613172052436","trial","","40","800","874.9749999959022","images/stimuli/spore_stims/complex_12_B_d.gif","images/stimuli/spore_stims/complex_12_A_d.gif","","","","","9","complex_similar","images/stimuli/spore_stims/complex_12_B_d.gif","middle","","","","",""
"","null","html-keyboard-response","178","2325530","0.0-35.0-0.4","SS1613172052436","","","null","","","","","<p><img src= images/blank.png width =""200"" height = ""200"" style = ""float:right""></p><p><img src=images/blank.png width =""800"" height = ""200""></p>","","","","","","","","","","","",""
"","43.105000004637986","sequential-stimulus-presentation","179","2326382","0.0-35.0-1.4","SS1613172052436","trial","","40","800","843.105000004638","images/stimuli/spore_stims/complex_12_B_d.gif","images/stimuli/spore_stims/complex_12_A_d.gif","","","","","9","complex_similar","images/stimuli/spore_stims/complex_12_A_d.gif","left","","","","",""
"","null","html-keyboard-response","180","2327256","0.0-35.0-0.5","SS1613172052436","","","null","","","","","<p><img src= images/blank.png width =""200"" height = ""200"" style = ""float:right""></p><p><img src=images/blank.png width =""800"" height = ""200""></p>","","","","","","","","","","","",""
"","202.76000000024214","sequential-stimulus-presentation","181","2328279","0.0-35.0-1.5","SS1613172052436","trial","","40","800","1002.7600000002421","images/stimuli/spore_stims/complex_12_B_d.gif","images/stimuli/spore_stims/complex_12_A_d.gif","","","","","9","complex_similar","images/stimuli/spore_stims/complex_12_A_d.gif","left","","","","",""
"","null","html-keyboard-response","182","2329466","0.0-35.0-0.6","SS1613172052436","","","null","","","","","<p><img src= images/blank.png width =""200"" height = ""200"" style = ""float:right""></p><p><img src=images/blank.png width =""800"" height = ""200""></p>","","","","","","","","","","","",""
"","3617.4300000057556","sequential-stimulus-presentation","183","2333893","0.0-35.0-1.6","SS1613172052436","trial","","40","800","4417.430000005756","images/stimuli/spore_stims/complex_12_B_d.gif","images/stimuli/spore_stims/complex_12_A_d.gif","","","","","9","complex_similar","images/stimuli/spore_stims/complex_12_A_d.gif","left","","","","",""
"","null","html-keyboard-response","184","2334849","0.0-35.0-0.7","SS1613172052436","","","null","","","","","<p><img src= images/blank.png width =""200"" height = ""200"" style = ""float:right""></p><p><img src=images/blank.png width =""800"" height = ""200""></p>","","","","","","","","","","","",""
"","98.5500000026077","sequential-stimulus-presentation","185","2335758","0.0-35.0-1.7","SS1613172052436","trial","","40","800","898.5500000026077","images/stimuli/spore_stims/complex_12_B_d.gif","images/stimuli/spore_stims/complex_12_A_d.gif","","","","","9","complex_similar","images/stimuli/spore_stims/complex_12_A_d.gif","left","","","","",""
"","1703.4549999949522","html-keyboard-response","186","2337470","0.0-36.0","SS1613172052436","pref_question","","50","","","","","<video width ='960' height = '540' style='padding-top:8%' autoplay muted><source src='images/stimuli/wall_pref.mp4' type='video/mp4'></video>","2","middle","45%","9","","","","","","","",""
"","187.29000000143424","sequential-stimulus-presentation","187","2338469","0.0-37.0","SS1613172052436","pref_reveal","","40","800","987.2900000014342","null","null","","","","","9","","","","deviant","","","",""
"","null","html-keyboard-response","188","2339693","0.0-38.0-0.0","SS1613172052436","","","null","","","","","<p><img src= images/blank.png width =""200"" height = ""200"" style = ""float:right""></p><p><img src=images/blank.png width =""800"" height = ""200""></p>","","","","","","","","","","","",""
"","128.13000000454485","sequential-stimulus-presentation","189","2340629","0.0-38.0-1.0","SS1613172052436","trial","","40","800","928.1300000045449","images/stimuli/spore_stims/complex_06_B_b.gif","images/stimuli/spore_stims/complex_09_B_a.gif","","","","","10","complex_dissimilar","images/stimuli/spore_stims/complex_09_B_a.gif","right","","","","",""
"","null","html-keyboard-response","190","2341490","0.0-38.0-0.1","SS1613172052436","","","null","","","","","<p><img src= images/blank.png width =""200"" height = ""200"" style = ""float:right""></p><p><img src=images/blank.png width =""800"" height = ""200""></p>","","","","","","","","","","","",""
"","257.7049999963492","sequential-stimulus-presentation","191","2342557","0.0-38.0-1.1","SS1613172052436","trial","","40","800","1057.7049999963492","images/stimuli/spore_stims/complex_06_B_b.gif","images/stimuli/spore_stims/complex_09_B_a.gif","","","","","10","complex_dissimilar","images/stimuli/spore_stims/complex_09_B_a.gif","right","","","","",""
"","null","html-keyboard-response","192","2343836","0.0-38.0-0.2","SS1613172052436","","","null","","","","","<p><img src= images/blank.png width =""200"" height = ""200"" style = ""float:right""></p><p><img src=images/blank.png width =""800"" height = ""200""></p>","","","","","","","","","","","",""
"","203.0450000022538","sequential-stimulus-presentation","193","2344845","0.0-38.0-1.2","SS1613172052436","trial","","40","800","1003.0450000022538","images/stimuli/spore_stims/complex_06_B_b.gif","images/stimuli/spore_stims/complex_09_B_a.gif","","","","","10","complex_dissimilar","images/stimuli/spore_stims/complex_09_B_a.gif","right","","","","",""
"","null","html-keyboard-response","194","2346005","0.0-38.0-0.3","SS1613172052436","","","null","","","","","<p><img src= images/blank.png width =""200"" height = ""200"" style = ""float:right""></p><p><img src=images/blank.png width =""800"" height = ""200""></p>","","","","","","","","","","","",""
"","367.5650000004098","sequential-stimulus-presentation","195","2347181","0.0-38.0-1.3","SS1613172052436","trial","","40","800","1167.5650000004098","images/stimuli/spore_stims/complex_06_B_b.gif","images/stimuli/spore_stims/complex_09_B_a.gif","","","","","10","complex_dissimilar","images/stimuli/spore_stims/complex_09_B_a.gif","right","","","","",""
"","null","html-keyboard-response","196","2348259","0.0-38.0-0.4","SS1613172052436","","","null","","","","","<p><img src= images/blank.png width =""200"" height = ""200"" style = ""float:right""></p><p><img src=images/blank.png width =""800"" height = ""200""></p>","","","","","","","","","","","",""
"","9.254999997094274","sequential-stimulus-presentation","197","2349076","0.0-38.0-1.4","SS1613172052436","trial","","40","800","809.2549999970943","images/stimuli/spore_stims/complex_06_B_b.gif","images/stimuli/spore_stims/complex_09_B_a.gif","","","","","10","complex_dissimilar","images/stimuli/spore_stims/complex_09_B_a.gif","right","","","","",""
"","null","html-keyboard-response","198","2350248","0.0-38.0-0.5","SS1613172052436","","","null","","","","","<p><img src= images/blank.png width =""200"" height = ""200"" style = ""float:right""></p><p><img src=images/blank.png width =""800"" height = ""200""></p>","","","","","","","","","","","",""
"","387.320000001695","sequential-stimulus-presentation","199","2351445","0.0-38.0-1.5","SS1613172052436","trial","","40","800","1187.320000001695","images/stimuli/spore_stims/complex_06_B_b.gif","images/stimuli/spore_stims/complex_09_B_a.gif","","","","","10","complex_dissimilar","images/stimuli/spore_stims/complex_06_B_b.gif","middle","","","","",""
"","null","html-keyboard-response","200","2352524","0.0-38.0-0.6","SS1613172052436","","","null","","","","","<p><img src= images/blank.png width =""200"" height = ""200"" style = ""float:right""></p><p><img src=images/blank.png width =""800"" height = ""200""></p>","","","","","","","","","","","",""
"","240.42000000178814","sequential-stimulus-presentation","201","2353573","0.0-38.0-1.6","SS1613172052436","trial","","40","800","1040.4200000017881","images/stimuli/spore_stims/complex_06_B_b.gif","images/stimuli/spore_stims/complex_09_B_a.gif","","","","","10","complex_dissimilar","images/stimuli/spore_stims/complex_09_B_a.gif","right","","","","",""
"","null","html-keyboard-response","202","2354666","0.0-38.0-0.7","SS1613172052436","","","null","","","","","<p><img src= images/blank.png width =""200"" height = ""200"" style = ""float:right""></p><p><img src=images/blank.png width =""800"" height = ""200""></p>","","","","","","","","","","","",""
"","89.11000000080094","sequential-stimulus-presentation","203","2355564","0.0-38.0-1.7","SS1613172052436","trial","","40","800","889.1100000008009","images/stimuli/spore_stims/complex_06_B_b.gif","images/stimuli/spore_stims/complex_09_B_a.gif","","","","","10","complex_dissimilar","images/stimuli/spore_stims/complex_09_B_a.gif","right","","","","",""
"","455.6999999987893","html-keyboard-response","204","2356029","0.0-39.0","SS1613172052436","pref_question","","50","","","","","<video width ='960' height = '540' style='padding-top:8%' autoplay muted><source src='images/stimuli/wall_pref.mp4' type='video/mp4'></video>","2","middle","45%","10","","","","","","","",""
"","122.0400000018999","sequential-stimulus-presentation","205","2356956","0.0-40.0","SS1613172052436","pref_reveal","","40","800","922.0400000018999","null","null","","","","","10","","","","deviant","","","",""
"","null","html-keyboard-response","206","2357852","0.0-41.0-0.0","SS1613172052436","","","null","","","","","<p><img src= images/blank.png width =""200"" height = ""200"" style = ""float:right""></p><p><img src=images/blank.png width =""800"" height = ""200""></p>","","","","","","","","","","","",""
"","222.93999999947846","sequential-stimulus-presentation","207","2358884","0.0-41.0-1.0","SS1613172052436","trial","","40","800","1022.9399999994785","images/stimuli/spore_stims/complex_07_B_d.gif","images/stimuli/spore_stims/complex_07_A_d.gif","","","","","11","complex_similar","images/stimuli/spore_stims/complex_07_A_d.gif","middle","","","","",""
"","null","html-keyboard-response","208","2360076","0.0-41.0-0.1","SS1613172052436","","","null","","","","","<p><img src= images/blank.png width =""200"" height = ""200"" style = ""float:right""></p><p><img src=images/blank.png width =""800"" height = ""200""></p>","","","","","","","","","","","",""
"","318.79499999945983","sequential-stimulus-presentation","209","2361204","0.0-41.0-1.1","SS1613172052436","trial","","40","800","1118.7949999994598","images/stimuli/spore_stims/complex_07_B_d.gif","images/stimuli/spore_stims/complex_07_A_d.gif","","","","","11","complex_similar","images/stimuli/spore_stims/complex_07_A_d.gif","middle","","","","",""
"","null","html-keyboard-response","210","2362215","0.0-41.0-0.2","SS1613172052436","","","null","","","","","<p><img src= images/blank.png width =""200"" height = ""200"" style = ""float:right""></p><p><img src=images/blank.png width =""800"" height = ""200""></p>","","","","","","","","","","","",""
"","91.6900000013411","sequential-stimulus-presentation","211","2363116","0.0-41.0-1.2","SS1613172052436","trial","","40","800","891.6900000013411","images/stimuli/spore_stims/complex_07_B_d.gif","images/stimuli/spore_stims/complex_07_A_d.gif","","","","","11","complex_similar","images/stimuli/spore_stims/complex_07_A_d.gif","middle","","","","",""
"","null","html-keyboard-response","212","2364396","0.0-41.0-0.3","SS1613172052436","","","null","","","","","<p><img src= images/blank.png width =""200"" height = ""200"" style = ""float:right""></p><p><img src=images/blank.png width =""800"" height = ""200""></p>","","","","","","","","","","","",""
"","155.18499999586493","sequential-stimulus-presentation","213","2365357","0.0-41.0-1.3","SS1613172052436","trial","","40","800","955.1849999958649","images/stimuli/spore_stims/complex_07_B_d.gif","images/stimuli/spore_stims/complex_07_A_d.gif","","","","","11","complex_similar","images/stimuli/spore_stims/complex_07_A_d.gif","middle","","","","",""
"","null","html-keyboard-response","214","2366369","0.0-41.0-0.4","SS1613172052436","","","null","","","","","<p><img src= images/blank.png width =""200"" height = ""200"" style = ""float:right""></p><p><img src=images/blank.png width =""800"" height = ""200""></p>","","","","","","","","","","","",""
"","61.49000000022352","sequential-stimulus-presentation","215","2367236","0.0-41.0-1.4","SS1613172052436","trial","","40","800","861.4900000002235","images/stimuli/spore_stims/complex_07_B_d.gif","images/stimuli/spore_stims/complex_07_A_d.gif","","","","","11","complex_similar","images/stimuli/spore_stims/complex_07_A_d.gif","middle","","","","",""
"","null","html-keyboard-response","216","2368522","0.0-41.0-0.5","SS1613172052436","","","null","","","","","<p><img src= images/blank.png width =""200"" height = ""200"" style = ""float:right""></p><p><img src=images/blank.png width =""800"" height = ""200""></p>","","","","","","","","","","","",""
"","248.07500000298023","sequential-stimulus-presentation","217","2369596","0.0-41.0-1.5","SS1613172052436","trial","","40","800","1048.0750000029802","images/stimuli/spore_stims/complex_07_B_d.gif","images/stimuli/spore_stims/complex_07_A_d.gif","","","","","11","complex_similar","images/stimuli/spore_stims/complex_07_A_d.gif","middle","","","","",""
"","null","html-keyboard-response","218","2370766","0.0-41.0-0.6","SS1613172052436","","","null","","","","","<p><img src= images/blank.png width =""200"" height = ""200"" style = ""float:right""></p><p><img src=images/blank.png width =""800"" height = ""200""></p>","","","","","","","","","","","",""
"","131.0049999956973","sequential-stimulus-presentation","219","2371707","0.0-41.0-1.6","SS1613172052436","trial","","40","800","931.0049999956973","images/stimuli/spore_stims/complex_07_B_d.gif","images/stimuli/spore_stims/complex_07_A_d.gif","","","","","11","complex_similar","images/stimuli/spore_stims/complex_07_A_d.gif","middle","","","","",""
"","null","html-keyboard-response","220","2372790","0.0-41.0-0.7","SS1613172052436","","","null","","","","","<p><img src= images/blank.png width =""200"" height = ""200"" style = ""float:right""></p><p><img src=images/blank.png width =""800"" height = ""200""></p>","","","","","","","","","","","",""
"","75.89500000141561","sequential-stimulus-presentation","221","2373676","0.0-41.0-1.7","SS1613172052436","trial","","40","800","875.8950000014156","images/stimuli/spore_stims/complex_07_B_d.gif","images/stimuli/spore_stims/complex_07_A_d.gif","","","","","11","complex_similar","images/stimuli/spore_stims/complex_07_B_d.gif","right","","","","",""
"","166.96500000404194","html-keyboard-response","222","2373852","0.0-42.0","SS1613172052436","pref_question","","49","","","","","<video width ='960' height = '540' style='padding-top:8%' autoplay muted><source src='images/stimuli/wall_pref.mp4' type='video/mp4'></video>","1","left","25%","11","","","","","","","",""
"","24.680000002030283","sequential-stimulus-presentation","223","2374683","0.0-43.0","SS1613172052436","pref_reveal","","40","800","824.6800000020303","null","null","","","","","11","","","","novel","","","",""
"","null","html-keyboard-response","224","2375685","0.0-44.0-0.0","SS1613172052436","","","null","","","","","<p><img src= images/blank.png width =""200"" height = ""200"" style = ""float:right""></p><p><img src=images/blank.png width =""800"" height = ""200""></p>","","","","","","","","","","","",""
"","199.80499999644235","sequential-stimulus-presentation","225","2376691","0.0-44.0-1.0","SS1613172052436","trial","","40","800","999.8049999964423","images/stimuli/spore_stims/simple_11_A_a.gif","images/stimuli/spore_stims/simple_11_B_a.gif","","","","","12","simple_similar","images/stimuli/spore_stims/simple_11_B_a.gif","middle","","","","",""
"","null","html-keyboard-response","226","2377763","0.0-44.0-0.1","SS1613172052436","","","null","","","","","<p><img src= images/blank.png width =""200"" height = ""200"" style = ""float:right""></p><p><img src=images/blank.png width =""800"" height = ""200""></p>","","","","","","","","","","","",""
"","205.64000000013039","sequential-stimulus-presentation","227","2378781","0.0-44.0-1.1","SS1613172052436","trial","","40","800","1005.6400000001304","images/stimuli/spore_stims/simple_11_A_a.gif","images/stimuli/spore_stims/simple_11_B_a.gif","","","","","12","simple_similar","images/stimuli/spore_stims/simple_11_B_a.gif","middle","","","","",""
"","null","html-keyboard-response","228","2379913","0.0-44.0-0.2","SS1613172052436","","","null","","","","","<p><img src= images/blank.png width =""200"" height = ""200"" style = ""float:right""></p><p><img src=images/blank.png width =""800"" height = ""200""></p>","","","","","","","","","","","",""
"","1354.424999997951","sequential-stimulus-presentation","229","2382077","0.0-44.0-1.2","SS1613172052436","trial","","40","800","2154.424999997951","images/stimuli/spore_stims/simple_11_A_a.gif","images/stimuli/spore_stims/simple_11_B_a.gif","","","","","12","simple_similar","images/stimuli/spore_stims/simple_11_B_a.gif","middle","","","","",""
"","null","html-keyboard-response","230","2383323","0.0-44.0-0.3","SS1613172052436","","","null","","","","","<p><img src= images/blank.png width =""200"" height = ""200"" style = ""float:right""></p><p><img src=images/blank.png width =""800"" height = ""200""></p>","","","","","","","","","","","",""
"","159.33000000193715","sequential-stimulus-presentation","231","2384293","0.0-44.0-1.3","SS1613172052436","trial","","40","800","959.3300000019372","images/stimuli/spore_stims/simple_11_A_a.gif","images/stimuli/spore_stims/simple_11_B_a.gif","","","","","12","simple_similar","images/stimuli/spore_stims/simple_11_B_a.gif","middle","","","","",""
"","null","html-keyboard-response","232","2385204","0.0-44.0-0.4","SS1613172052436","","","null","","","","","<p><img src= images/blank.png width =""200"" height = ""200"" style = ""float:right""></p><p><img src=images/blank.png width =""800"" height = ""200""></p>","","","","","","","","","","","",""
"","246.06499999947846","sequential-stimulus-presentation","233","2386261","0.0-44.0-1.4","SS1613172052436","trial","","40","800","1046.0649999994785","images/stimuli/spore_stims/simple_11_A_a.gif","images/stimuli/spore_stims/simple_11_B_a.gif","","","","","12","simple_similar","images/stimuli/spore_stims/simple_11_A_a.gif","left","","","","",""
"","null","html-keyboard-response","234","2387236","0.0-44.0-0.5","SS1613172052436","","","null","","","","","<p><img src= images/blank.png width =""200"" height = ""200"" style = ""float:right""></p><p><img src=images/blank.png width =""800"" height = ""200""></p>","","","","","","","","","","","",""
"","170.05499999504536","sequential-stimulus-presentation","235","2388213","0.0-44.0-1.5","SS1613172052436","trial","","40","800","970.0549999950454","images/stimuli/spore_stims/simple_11_A_a.gif","images/stimuli/spore_stims/simple_11_B_a.gif","","","","","12","simple_similar","images/stimuli/spore_stims/simple_11_B_a.gif","middle","","","","",""
"","null","html-keyboard-response","236","2389204","0.0-44.0-0.6","SS1613172052436","","","null","","","","","<p><img src= images/blank.png width =""200"" height = ""200"" style = ""float:right""></p><p><img src=images/blank.png width =""800"" height = ""200""></p>","","","","","","","","","","","",""
"","2686.8699999977835","sequential-stimulus-presentation","237","2392701","0.0-44.0-1.6","SS1613172052436","trial","","40","800","3486.8699999977835","images/stimuli/spore_stims/simple_11_A_a.gif","images/stimuli/spore_stims/simple_11_B_a.gif","","","","","12","simple_similar","images/stimuli/spore_stims/simple_11_B_a.gif","middle","","","","",""
"","null","html-keyboard-response","238","2393890","0.0-44.0-0.7","SS1613172052436","","","null","","","","","<p><img src= images/blank.png width =""200"" height = ""200"" style = ""float:right""></p><p><img src=images/blank.png width =""800"" height = ""200""></p>","","","","","","","","","","","",""
"","184.56499999575317","sequential-stimulus-presentation","239","2394885","0.0-44.0-1.7","SS1613172052436","trial","","40","800","984.5649999957532","images/stimuli/spore_stims/simple_11_A_a.gif","images/stimuli/spore_stims/simple_11_B_a.gif","","","","","12","simple_similar","images/stimuli/spore_stims/simple_11_B_a.gif","middle","","","","",""
"","1979.76500000339","html-keyboard-response","240","2396872","0.0-45.0","SS1613172052436","pref_question","","50","","","","","<video width ='960' height = '540' style='padding-top:8%' autoplay muted><source src='images/stimuli/wall_pref.mp4' type='video/mp4'></video>","2","middle","45%","12","","","","","","","",""
"","213898.65499999747","sequential-stimulus-presentation","241","2611592","0.0-46.0","SS1613172052436","pref_reveal","","40","800","214698.65499999747","null","null","","","","","12","","","","background","","","",""
"","null","html-keyboard-response","242","2612806","0.0-47.0-0.0","SS1613172052436","","","null","","","","","<p><img src= images/blank.png width =""200"" height = ""200"" style = ""float:right""></p><p><img src=images/blank.png width =""800"" height = ""200""></p>","","","","","","","","","","","",""
"","193.82999999681488","sequential-stimulus-presentation","243","2613812","0.0-47.0-1.0","SS1613172052436","trial","","40","800","993.8299999968149","images/stimuli/spore_stims/complex_19_A_b.gif","images/stimuli/spore_stims/complex_19_B_b.gif","","","","","13","complex_similar","images/stimuli/spore_stims/complex_19_B_b.gif","right","","","","",""
"","null","html-keyboard-response","244","2614664","0.0-47.0-0.1","SS1613172052436","","","null","","","","","<p><img src= images/blank.png width =""200"" height = ""200"" style = ""float:right""></p><p><img src=images/blank.png width =""800"" height = ""200""></p>","","","","","","","","","","","",""
"","98.65499999420717","sequential-stimulus-presentation","245","2615575","0.0-47.0-1.1","SS1613172052436","trial","","40","800","898.6549999942072","images/stimuli/spore_stims/complex_19_A_b.gif","images/stimuli/spore_stims/complex_19_B_b.gif","","","","","13","complex_similar","images/stimuli/spore_stims/complex_19_B_b.gif","right","","","","",""
"","null","html-keyboard-response","246","2616715","0.0-47.0-0.2","SS1613172052436","","","null","","","","","<p><img src= images/blank.png width =""200"" height = ""200"" style = ""float:right""></p><p><img src=images/blank.png width =""800"" height = ""200""></p>","","","","","","","","","","","",""
"","118.24999999953434","sequential-stimulus-presentation","247","2617644","0.0-47.0-1.2","SS1613172052436","trial","","40","800","918.2499999995343","images/stimuli/spore_stims/complex_19_A_b.gif","images/stimuli/spore_stims/complex_19_B_b.gif","","","","","13","complex_similar","images/stimuli/spore_stims/complex_19_B_b.gif","right","","","","",""
"","null","html-keyboard-response","248","2618552","0.0-47.0-0.3","SS1613172052436","","","null","","","","","<p><img src= images/blank.png width =""200"" height = ""200"" style = ""float:right""></p><p><img src=images/blank.png width =""800"" height = ""200""></p>","","","","","","","","","","","",""
"","176.8800000064075","sequential-stimulus-presentation","249","2619540","0.0-47.0-1.3","SS1613172052436","trial","","40","800","976.8800000064075","images/stimuli/spore_stims/complex_19_A_b.gif","images/stimuli/spore_stims/complex_19_B_b.gif","","","","","13","complex_similar","images/stimuli/spore_stims/complex_19_A_b.gif","middle","","","","",""
"","null","html-keyboard-response","250","2620494","0.0-47.0-0.4","SS1613172052436","","","null","","","","","<p><img src= images/blank.png width =""200"" height = ""200"" style = ""float:right""></p><p><img src=images/blank.png width =""800"" height = ""200""></p>","","","","","","","","","","","",""
"","146.78499999688938","sequential-stimulus-presentation","251","2621452","0.0-47.0-1.4","SS1613172052436","trial","","40","800","946.7849999968894","images/stimuli/spore_stims/complex_19_A_b.gif","images/stimuli/spore_stims/complex_19_B_b.gif","","","","","13","complex_similar","images/stimuli/spore_stims/complex_19_B_b.gif","right","","","","",""
"","null","html-keyboard-response","252","2622736","0.0-47.0-0.5","SS1613172052436","","","null","","","","","<p><img src= images/blank.png width =""200"" height = ""200"" style = ""float:right""></p><p><img src=images/blank.png width =""800"" height = ""200""></p>","","","","","","","","","","","",""
"","145.44000000040978","sequential-stimulus-presentation","253","2623707","0.0-47.0-1.5","SS1613172052436","trial","","40","800","945.4400000004098","images/stimuli/spore_stims/complex_19_A_b.gif","images/stimuli/spore_stims/complex_19_B_b.gif","","","","","13","complex_similar","images/stimuli/spore_stims/complex_19_B_b.gif","right","","","","",""
"","null","html-keyboard-response","254","2624521","0.0-47.0-0.6","SS1613172052436","","","null","","","","","<p><img src= images/blank.png width =""200"" height = ""200"" style = ""float:right""></p><p><img src=images/blank.png width =""800"" height = ""200""></p>","","","","","","","","","","","",""
"","120.28999999910593","sequential-stimulus-presentation","255","2625451","0.0-47.0-1.6","SS1613172052436","trial","","40","800","920.2899999991059","images/stimuli/spore_stims/complex_19_A_b.gif","images/stimuli/spore_stims/complex_19_B_b.gif","","","","","13","complex_similar","images/stimuli/spore_stims/complex_19_B_b.gif","right","","","","",""
"","null","html-keyboard-response","256","2626322","0.0-47.0-0.7","SS1613172052436","","","null","","","","","<p><img src= images/blank.png width =""200"" height = ""200"" style = ""float:right""></p><p><img src=images/blank.png width =""800"" height = ""200""></p>","","","","","","","","","","","",""
"","239.2950000069104","sequential-stimulus-presentation","257","2627371","0.0-47.0-1.7","SS1613172052436","trial","","40","800","1039.2950000069104","images/stimuli/spore_stims/complex_19_A_b.gif","images/stimuli/spore_stims/complex_19_B_b.gif","","","","","13","complex_similar","images/stimuli/spore_stims/complex_19_B_b.gif","right","","","","",""
"","3686.090000002645","html-keyboard-response","258","2631068","0.0-48.0","SS1613172052436","pref_question","","51","","","","","<video width ='960' height = '540' style='padding-top:8%' autoplay muted><source src='images/stimuli/wall_pref.mp4' type='video/mp4'></video>","3","right","66%","13","","","","","","","",""
"","251.17999999923632","sequential-stimulus-presentation","259","2632131","0.0-49.0","SS1613172052436","pref_reveal","","40","800","1051.1799999992363","null","null","","","","","13","","","","background","","","",""
"","null","html-keyboard-response","260","2632967","0.0-50.0-0.0","SS1613172052436","","","null","","","","","<p><img src= images/blank.png width =""200"" height = ""200"" style = ""float:right""></p><p><img src=images/blank.png width =""800"" height = ""200""></p>","","","","","","","","","","","",""
"","88.55500000203028","sequential-stimulus-presentation","261","2633867","0.0-50.0-1.0","SS1613172052436","trial","","40","800","888.5550000020303","images/stimuli/spore_stims/complex_17_A_a.gif","images/stimuli/spore_stims/complex_11_A_d.gif","","","","","14","complex_dissimilar","images/stimuli/spore_stims/complex_11_A_d.gif","right","","","","",""
"","null","html-keyboard-response","262","2634866","0.0-50.0-0.1","SS1613172052436","","","null","","","","","<p><img src= images/blank.png width =""200"" height = ""200"" style = ""float:right""></p><p><img src=images/blank.png width =""800"" height = ""200""></p>","","","","","","","","","","","",""
"","221.8499999945052","sequential-stimulus-presentation","263","2635899","0.0-50.0-1.1","SS1613172052436","trial","","40","800","1021.8499999945052","images/stimuli/spore_stims/complex_17_A_a.gif","images/stimuli/spore_stims/complex_11_A_d.gif","","","","","14","complex_dissimilar","images/stimuli/spore_stims/complex_11_A_d.gif","right","","","","",""
"","null","html-keyboard-response","264","2637109","0.0-50.0-0.2","SS1613172052436","","","null","","","","","<p><img src= images/blank.png width =""200"" height = ""200"" style = ""float:right""></p><p><img src=images/blank.png width =""800"" height = ""200""></p>","","","","","","","","","","","",""
"","83.48999999696389","sequential-stimulus-presentation","265","2638003","0.0-50.0-1.2","SS1613172052436","trial","","40","800","883.4899999969639","images/stimuli/spore_stims/complex_17_A_a.gif","images/stimuli/spore_stims/complex_11_A_d.gif","","","","","14","complex_dissimilar","images/stimuli/spore_stims/complex_11_A_d.gif","right","","","","",""
"","null","html-keyboard-response","266","2639268","0.0-50.0-0.3","SS1613172052436","","","null","","","","","<p><img src= images/blank.png width =""200"" height = ""200"" style = ""float:right""></p><p><img src=images/blank.png width =""800"" height = ""200""></p>","","","","","","","","","","","",""
"","108.84499999508262","sequential-stimulus-presentation","267","2640187","0.0-50.0-1.3","SS1613172052436","trial","","40","800","908.8449999950826","images/stimuli/spore_stims/complex_17_A_a.gif","images/stimuli/spore_stims/complex_11_A_d.gif","","","","","14","complex_dissimilar","images/stimuli/spore_stims/complex_11_A_d.gif","right","","","","",""
"","null","html-keyboard-response","268","2641219","0.0-50.0-0.4","SS1613172052436","","","null","","","","","<p><img src= images/blank.png width =""200"" height = ""200"" style = ""float:right""></p><p><img src=images/blank.png width =""800"" height = ""200""></p>","","","","","","","","","","","",""
"","138.01500000385568","sequential-stimulus-presentation","269","2642171","0.0-50.0-1.4","SS1613172052436","trial","","40","800","938.0150000038557","images/stimuli/spore_stims/complex_17_A_a.gif","images/stimuli/spore_stims/complex_11_A_d.gif","","","","","14","complex_dissimilar","images/stimuli/spore_stims/complex_17_A_a.gif","middle","","","","",""
"","null","html-keyboard-response","270","2643102","0.0-50.0-0.5","SS1613172052436","","","null","","","","","<p><img src= images/blank.png width =""200"" height = ""200"" style = ""float:right""></p><p><img src=images/blank.png width =""800"" height = ""200""></p>","","","","","","","","","","","",""
"","111.33999999566004","sequential-stimulus-presentation","271","2644026","0.0-50.0-1.5","SS1613172052436","trial","","40","800","911.33999999566","images/stimuli/spore_stims/complex_17_A_a.gif","images/stimuli/spore_stims/complex_11_A_d.gif","","","","","14","complex_dissimilar","images/stimuli/spore_stims/complex_11_A_d.gif","right","","","","",""
"","null","html-keyboard-response","272","2644941","0.0-50.0-0.6","SS1613172052436","","","null","","","","","<p><img src= images/blank.png width =""200"" height = ""200"" style = ""float:right""></p><p><img src=images/blank.png width =""800"" height = ""200""></p>","","","","","","","","","","","",""
"","146.91000000294298","sequential-stimulus-presentation","273","2645898","0.0-50.0-1.6","SS1613172052436","trial","","40","800","946.910000002943","images/stimuli/spore_stims/complex_17_A_a.gif","images/stimuli/spore_stims/complex_11_A_d.gif","","","","","14","complex_dissimilar","images/stimuli/spore_stims/complex_11_A_d.gif","right","","","","",""
"","null","html-keyboard-response","274","2646930","0.0-50.0-0.7","SS1613172052436","","","null","","","","","<p><img src= images/blank.png width =""200"" height = ""200"" style = ""float:right""></p><p><img src=images/blank.png width =""800"" height = ""200""></p>","","","","","","","","","","","",""
"","86.22499999916181","sequential-stimulus-presentation","275","2647827","0.0-50.0-1.7","SS1613172052436","trial","","40","800","886.2249999991618","images/stimuli/spore_stims/complex_17_A_a.gif","images/stimuli/spore_stims/complex_11_A_d.gif","","","","","14","complex_dissimilar","images/stimuli/spore_stims/complex_11_A_d.gif","right","","","","",""
"","1901.415000000503","html-keyboard-response","276","2649738","0.0-51.0","SS1613172052436","pref_question","","50","","","","","<video width ='960' height = '540' style='padding-top:8%' autoplay muted><source src='images/stimuli/wall_pref.mp4' type='video/mp4'></video>","2","middle","45%","14","","","","","","","",""
"","38.58999999659136","sequential-stimulus-presentation","277","2650587","0.0-52.0","SS1613172052436","pref_reveal","","40","800","838.5899999965914","null","null","","","","","14","","","","deviant","","","",""
"","null","html-keyboard-response","278","2651527","0.0-53.0-0.0","SS1613172052436","","","null","","","","","<p><img src= images/blank.png width =""200"" height = ""200"" style = ""float:right""></p><p><img src=images/blank.png width =""800"" height = ""200""></p>","","","","","","","","","","","",""
"","53.674999995622784","sequential-stimulus-presentation","279","2652394","0.0-53.0-1.0","SS1613172052436","trial","","40","800","853.6749999956228","images/stimuli/spore_stims/complex_14_A_b.gif","images/stimuli/spore_stims/complex_14_B_b.gif","","","","","15","complex_similar","images/stimuli/spore_stims/complex_14_B_b.gif","middle","","","","",""
"","null","html-keyboard-response","280","2653432","0.0-53.0-0.1","SS1613172052436","","","null","","","","","<p><img src= images/blank.png width =""200"" height = ""200"" style = ""float:right""></p><p><img src=images/blank.png width =""800"" height = ""200""></p>","","","","","","","","","","","",""
"","215.34999999869615","sequential-stimulus-presentation","281","2654457","0.0-53.0-1.1","SS1613172052436","trial","","40","800","1015.3499999986961","images/stimuli/spore_stims/complex_14_A_b.gif","images/stimuli/spore_stims/complex_14_B_b.gif","","","","","15","complex_similar","images/stimuli/spore_stims/complex_14_B_b.gif","middle","","","","",""
"","null","html-keyboard-response","282","2655314","0.0-53.0-0.2","SS1613172052436","","","null","","","","","<p><img src= images/blank.png width =""200"" height = ""200"" style = ""float:right""></p><p><img src=images/blank.png width =""800"" height = ""200""></p>","","","","","","","","","","","",""
"","69.24000000441447","sequential-stimulus-presentation","283","2656194","0.0-53.0-1.2","SS1613172052436","trial","","40","800","869.2400000044145","images/stimuli/spore_stims/complex_14_A_b.gif","images/stimuli/spore_stims/complex_14_B_b.gif","","","","","15","complex_similar","images/stimuli/spore_stims/complex_14_A_b.gif","right","","","","",""
"","null","html-keyboard-response","284","2657468","0.0-53.0-0.3","SS1613172052436","","","null","","","","","<p><img src= images/blank.png width =""200"" height = ""200"" style = ""float:right""></p><p><img src=images/blank.png width =""800"" height = ""200""></p>","","","","","","","","","","","",""
"","19.09499999601394","sequential-stimulus-presentation","285","2658297","0.0-53.0-1.3","SS1613172052436","trial","","40","800","819.0949999960139","images/stimuli/spore_stims/complex_14_A_b.gif","images/stimuli/spore_stims/complex_14_B_b.gif","","","","","15","complex_similar","images/stimuli/spore_stims/complex_14_B_b.gif","middle","","","","",""
"","null","html-keyboard-response","286","2659292","0.0-53.0-0.4","SS1613172052436","","","null","","","","","<p><img src= images/blank.png width =""200"" height = ""200"" style = ""float:right""></p><p><img src=images/blank.png width =""800"" height = ""200""></p>","","","","","","","","","","","",""
"","43.26999999489635","sequential-stimulus-presentation","287","2660162","0.0-53.0-1.4","SS1613172052436","trial","","40","800","843.2699999948964","images/stimuli/spore_stims/complex_14_A_b.gif","images/stimuli/spore_stims/complex_14_B_b.gif","","","","","15","complex_similar","images/stimuli/spore_stims/complex_14_B_b.gif","middle","","","","",""
"","null","html-keyboard-response","288","2661333","0.0-53.0-0.5","SS1613172052436","","","null","","","","","<p><img src= images/blank.png width =""200"" height = ""200"" style = ""float:right""></p><p><img src=images/blank.png width =""800"" height = ""200""></p>","","","","","","","","","","","",""
"","65.11499999742955","sequential-stimulus-presentation","289","2662210","0.0-53.0-1.5","SS1613172052436","trial","","40","800","865.1149999974295","images/stimuli/spore_stims/complex_14_A_b.gif","images/stimuli/spore_stims/complex_14_B_b.gif","","","","","15","complex_similar","images/stimuli/spore_stims/complex_14_B_b.gif","middle","","","","",""
"","null","html-keyboard-response","290","2663237","0.0-53.0-0.6","SS1613172052436","","","null","","","","","<p><img src= images/blank.png width =""200"" height = ""200"" style = ""float:right""></p><p><img src=images/blank.png width =""800"" height = ""200""></p>","","","","","","","","","","","",""
"","139.03999999444932","sequential-stimulus-presentation","291","2664186","0.0-53.0-1.6","SS1613172052436","trial","","40","800","939.0399999944493","images/stimuli/spore_stims/complex_14_A_b.gif","images/stimuli/spore_stims/complex_14_B_b.gif","","","","","15","complex_similar","images/stimuli/spore_stims/complex_14_B_b.gif","middle","","","","",""
"","null","html-keyboard-response","292","2665126","0.0-53.0-0.7","SS1613172052436","","","null","","","","","<p><img src= images/blank.png width =""200"" height = ""200"" style = ""float:right""></p><p><img src=images/blank.png width =""800"" height = ""200""></p>","","","","","","","","","","","",""
"","45.62499999906868","sequential-stimulus-presentation","293","2665985","0.0-53.0-1.7","SS1613172052436","trial","","40","800","845.6249999990687","images/stimuli/spore_stims/complex_14_A_b.gif","images/stimuli/spore_stims/complex_14_B_b.gif","","","","","15","complex_similar","images/stimuli/spore_stims/complex_14_B_b.gif","middle","","","","",""
"","6108.299999999814","html-keyboard-response","294","2672111","0.0-54.0","SS1613172052436","pref_question","","50","","","","","<video width ='960' height = '540' style='padding-top:8%' autoplay muted><source src='images/stimuli/wall_pref.mp4' type='video/mp4'></video>","2","middle","45%","15","","","","","","","",""
"","25.464999998919666","sequential-stimulus-presentation","295","2672948","0.0-55.0","SS1613172052436","pref_reveal","","40","800","825.4649999989197","null","null","","","","","15","","","","background","","","",""
"","null","html-keyboard-response","296","2673878","0.0-56.0-0.0","SS1613172052436","","","null","","","","","<p><img src= images/blank.png width =""200"" height = ""200"" style = ""float:right""></p><p><img src=images/blank.png width =""800"" height = ""200""></p>","","","","","","","","","","","",""
"","130.1400000010617","sequential-stimulus-presentation","297","2674820","0.0-56.0-1.0","SS1613172052436","trial","","40","800","930.1400000010617","images/stimuli/spore_stims/simple_02_A_d.gif","images/stimuli/spore_stims/simple_06_B_c.gif","","","","","16","simple_dissimilar","images/stimuli/spore_stims/simple_06_B_c.gif","middle","","","","",""
"","null","html-keyboard-response","298","2675989","0.0-56.0-0.1","SS1613172052436","","","null","","","","","<p><img src= images/blank.png width =""200"" height = ""200"" style = ""float:right""></p><p><img src=images/blank.png width =""800"" height = ""200""></p>","","","","","","","","","","","",""
"","282.98999999975786","sequential-stimulus-presentation","299","2677083","0.0-56.0-1.1","SS1613172052436","trial","","40","800","1082.9899999997579","images/stimuli/spore_stims/simple_02_A_d.gif","images/stimuli/spore_stims/simple_06_B_c.gif","","","","","16","simple_dissimilar","images/stimuli/spore_stims/simple_06_B_c.gif","middle","","","","",""
"","null","html-keyboard-response","300","2678003","0.0-56.0-0.2","SS1613172052436","","","null","","","","","<p><img src= images/blank.png width =""200"" height = ""200"" style = ""float:right""></p><p><img src=images/blank.png width =""800"" height = ""200""></p>","","","","","","","","","","","",""
"","231.98000000417233","sequential-stimulus-presentation","301","2679044","0.0-56.0-1.2","SS1613172052436","trial","","40","800","1031.9800000041723","images/stimuli/spore_stims/simple_02_A_d.gif","images/stimuli/spore_stims/simple_06_B_c.gif","","","","","16","simple_dissimilar","images/stimuli/spore_stims/simple_06_B_c.gif","middle","","","","",""
"","null","html-keyboard-response","302","2679901","0.0-56.0-0.3","SS1613172052436","","","null","","","","","<p><img src= images/blank.png width =""200"" height = ""200"" style = ""float:right""></p><p><img src=images/blank.png width =""800"" height = ""200""></p>","","","","","","","","","","","",""
"","11.830000002868474","sequential-stimulus-presentation","303","2680723","0.0-56.0-1.3","SS1613172052436","trial","","40","800","811.8300000028685","images/stimuli/spore_stims/simple_02_A_d.gif","images/stimuli/spore_stims/simple_06_B_c.gif","","","","","16","simple_dissimilar","images/stimuli/spore_stims/simple_02_A_d.gif","left","","","","",""
"","null","html-keyboard-response","304","2681986","0.0-56.0-0.4","SS1613172052436","","","null","","","","","<p><img src= images/blank.png width =""200"" height = ""200"" style = ""float:right""></p><p><img src=images/blank.png width =""800"" height = ""200""></p>","","","","","","","","","","","",""
"","182.95499999681488","sequential-stimulus-presentation","305","2682980","0.0-56.0-1.4","SS1613172052436","trial","","40","800","982.9549999968149","images/stimuli/spore_stims/simple_02_A_d.gif","images/stimuli/spore_stims/simple_06_B_c.gif","","","","","16","simple_dissimilar","images/stimuli/spore_stims/simple_06_B_c.gif","middle","","","","",""
"","null","html-keyboard-response","306","2683815","0.0-56.0-0.5","SS1613172052436","","","null","","","","","<p><img src= images/blank.png width =""200"" height = ""200"" style = ""float:right""></p><p><img src=images/blank.png width =""800"" height = ""200""></p>","","","","","","","","","","","",""
"","120.57500000111759","sequential-stimulus-presentation","307","2684747","0.0-56.0-1.5","SS1613172052436","trial","","40","800","920.5750000011176","images/stimuli/spore_stims/simple_02_A_d.gif","images/stimuli/spore_stims/simple_06_B_c.gif","","","","","16","simple_dissimilar","images/stimuli/spore_stims/simple_06_B_c.gif","middle","","","","",""
"","null","html-keyboard-response","308","2685635","0.0-56.0-0.6","SS1613172052436","","","null","","","","","<p><img src= images/blank.png width =""200"" height = ""200"" style = ""float:right""></p><p><img src=images/blank.png width =""800"" height = ""200""></p>","","","","","","","","","","","",""
"","180.39000000152737","sequential-stimulus-presentation","309","2686627","0.0-56.0-1.6","SS1613172052436","trial","","40","800","980.3900000015274","images/stimuli/spore_stims/simple_02_A_d.gif","images/stimuli/spore_stims/simple_06_B_c.gif","","","","","16","simple_dissimilar","images/stimuli/spore_stims/simple_06_B_c.gif","middle","","","","",""
"","null","html-keyboard-response","310","2687869","0.0-56.0-0.7","SS1613172052436","","","null","","","","","<p><img src= images/blank.png width =""200"" height = ""200"" style = ""float:right""></p><p><img src=images/blank.png width =""800"" height = ""200""></p>","","","","","","","","","","","",""
"","121.36499999882653","sequential-stimulus-presentation","311","2688803","0.0-56.0-1.7","SS1613172052436","trial","","40","800","921.3649999988265","images/stimuli/spore_stims/simple_02_A_d.gif","images/stimuli/spore_stims/simple_06_B_c.gif","","","","","16","simple_dissimilar","images/stimuli/spore_stims/simple_06_B_c.gif","middle","","","","",""
