"view_history","rt","trial_type","trial_index","time_elapsed","internal_node_id","subject","stimulus_type","trial_stimulus","key_press","minimum_viewing_duration","trial_looking_time","block_deviant","block_background","stimulus","wall_pref","location","location_percent","block_number","block_type","stimulus_displayed","position_displayed","stim_type_selected","responses","question_order","stimulus_left","stimulus_right"
"[{""page_index"":0,""viewing_time"":68365.45499999989}]","68366.09999999996","instructions","0","68376","0.0-0.0","SS1613138226890","","","","","","","","","","","","","","","","","","","",""
"[{""page_index"":0,""viewing_time"":12609.36500000002},{""page_index"":1,""viewing_time"":4253.539999999935}]","16863.434999999983","instructions","1","87252","0.0-1.0","SS1613138226890","instructions","","","","","","","","","","","","","","","","","","",""
"","4122.569999999992","sequential-stimulus-presentation","2","92197","0.0-2.0","SS1613138226890","","","40","800","4922.569999999992","null","null","","","","","","","","","","","","",""
"","4233.384999999995","sequential-stimulus-presentation","3","97239","0.0-3.0","SS1613138226890","","","40","800","5033.384999999995","null","null","","","","","","","","","","","","",""
"[{""page_index"":0,""viewing_time"":2768.3200000001234}]","2769.155000000188","instructions","4","100009","0.0-4.0","SS1613138226890","instructions","","","","","","","","","","","","","","","","","","",""
"","9221.039999999906","html-keyboard-response","5","109238","0.0-5.0","SS1613138226890","instructions","","50","","","","","<video width ='960' height = '540' autoplay muted><source src='images/stimuli/wall_pref.mp4' type='video/mp4'></video>","2","middle","45%","","","","","","","","",""
"","1752.6299999999464","sequential-stimulus-presentation","6","111806","0.0-6.0","SS1613138226890","pref_reveal","","40","800","2552.6299999999464","null","null","","","","","","","","","","","","",""
"[{""page_index"":0,""viewing_time"":7947.394999999902},{""page_index"":1,""viewing_time"":4455.114999999991},{""page_index"":2,""viewing_time"":1102.7650000001013},{""page_index"":3,""viewing_time"":1255.5350000000035}]","14761.330000000045","instructions","7","126569","0.0-7.0","SS1613138226890","instructions","","","","","","","","","","","","","","","","","","",""
"","null","html-keyboard-response","8","127730","0.0-8.0-0.0","SS1613138226890","","","null","","","","","<p><img src= images/blank.png width =""200"" height = ""200"" style = ""float:right""></p><p><img src=images/blank.png width =""800"" height = ""200""></p>","","","","","","","","","","","",""
"","1501.8699999998207","sequential-stimulus-presentation","9","130043","0.0-8.0-1.0","SS1613138226890","trial","","40","800","2301.8699999998207","images/stimuli/spore_stims/simple_14_B_c.gif","images/stimuli/spore_stims/simple_02_A_c.gif","","","","","0","simple_dissimilar","images/stimuli/spore_stims/simple_02_A_c.gif","middle","","","","",""
"","null","html-keyboard-response","10","130949","0.0-8.0-0.1","SS1613138226890","","","null","","","","","<p><img src= images/blank.png width =""200"" height = ""200"" style = ""float:right""></p><p><img src=images/blank.png width =""800"" height = ""200""></p>","","","","","","","","","","","",""
"","813.6999999999243","sequential-stimulus-presentation","11","132579","0.0-8.0-1.1","SS1613138226890","trial","","40","800","1613.6999999999243","images/stimuli/spore_stims/simple_14_B_c.gif","images/stimuli/spore_stims/simple_02_A_c.gif","","","","","0","simple_dissimilar","images/stimuli/spore_stims/simple_02_A_c.gif","middle","","","","",""
"","null","html-keyboard-response","12","133868","0.0-8.0-0.2","SS1613138226890","","","null","","","","","<p><img src= images/blank.png width =""200"" height = ""200"" style = ""float:right""></p><p><img src=images/blank.png width =""800"" height = ""200""></p>","","","","","","","","","","","",""
"","1595.1000000000058","sequential-stimulus-presentation","13","136279","0.0-8.0-1.2","SS1613138226890","trial","","40","800","2395.100000000006","images/stimuli/spore_stims/simple_14_B_c.gif","images/stimuli/spore_stims/simple_02_A_c.gif","","","","","0","simple_dissimilar","images/stimuli/spore_stims/simple_02_A_c.gif","middle","","","","",""
"","null","html-keyboard-response","14","137200","0.0-8.0-0.3","SS1613138226890","","","null","","","","","<p><img src= images/blank.png width =""200"" height = ""200"" style = ""float:right""></p><p><img src=images/blank.png width =""800"" height = ""200""></p>","","","","","","","","","","","",""
"","3221.645000000077","sequential-stimulus-presentation","15","141230","0.0-8.0-1.3","SS1613138226890","trial","","40","800","4021.645000000077","images/stimuli/spore_stims/simple_14_B_c.gif","images/stimuli/spore_stims/simple_02_A_c.gif","","","","","0","simple_dissimilar","images/stimuli/spore_stims/simple_02_A_c.gif","middle","","","","",""
"","null","html-keyboard-response","16","142494","0.0-8.0-0.4","SS1613138226890","","","null","","","","","<p><img src= images/blank.png width =""200"" height = ""200"" style = ""float:right""></p><p><img src=images/blank.png width =""800"" height = ""200""></p>","","","","","","","","","","","",""
"","28.824999999866122","sequential-stimulus-presentation","17","143334","0.0-8.0-1.4","SS1613138226890","trial","","40","800","828.8249999998661","images/stimuli/spore_stims/simple_14_B_c.gif","images/stimuli/spore_stims/simple_02_A_c.gif","","","","","0","simple_dissimilar","images/stimuli/spore_stims/simple_02_A_c.gif","middle","","","","",""
"","null","html-keyboard-response","18","144287","0.0-8.0-0.5","SS1613138226890","","","null","","","","","<p><img src= images/blank.png width =""200"" height = ""200"" style = ""float:right""></p><p><img src=images/blank.png width =""800"" height = ""200""></p>","","","","","","","","","","","",""
"","1509.7449999998498","sequential-stimulus-presentation","19","146606","0.0-8.0-1.5","SS1613138226890","trial","","40","800","2309.74499999985","images/stimuli/spore_stims/simple_14_B_c.gif","images/stimuli/spore_stims/simple_02_A_c.gif","","","","","0","simple_dissimilar","images/stimuli/spore_stims/simple_02_A_c.gif","middle","","","","",""
"","null","html-keyboard-response","20","147824","0.0-8.0-0.6","SS1613138226890","","","null","","","","","<p><img src= images/blank.png width =""200"" height = ""200"" style = ""float:right""></p><p><img src=images/blank.png width =""800"" height = ""200""></p>","","","","","","","","","","","",""
"","1951.1549999999697","sequential-stimulus-presentation","21","150586","0.0-8.0-1.6","SS1613138226890","trial","","40","800","2751.1549999999697","images/stimuli/spore_stims/simple_14_B_c.gif","images/stimuli/spore_stims/simple_02_A_c.gif","","","","","0","simple_dissimilar","images/stimuli/spore_stims/simple_02_A_c.gif","middle","","","","",""
"","null","html-keyboard-response","22","151514","0.0-8.0-0.7","SS1613138226890","","","null","","","","","<p><img src= images/blank.png width =""200"" height = ""200"" style = ""float:right""></p><p><img src=images/blank.png width =""800"" height = ""200""></p>","","","","","","","","","","","",""
"","1840.1249999999418","sequential-stimulus-presentation","23","154163","0.0-8.0-1.7","SS1613138226890","trial","","40","800","2640.124999999942","images/stimuli/spore_stims/simple_14_B_c.gif","images/stimuli/spore_stims/simple_02_A_c.gif","","","","","0","simple_dissimilar","images/stimuli/spore_stims/simple_14_B_c.gif","right","","","","",""
"","1783.7199999998847","html-keyboard-response","24","155951","0.0-9.0","SS1613138226890","pref_question","","49","","","","","<video width ='960' height = '540' style='padding-top:8%' autoplay muted><source src='images/stimuli/wall_pref.mp4' type='video/mp4'></video>","1","left","25%","0","","","","","","","",""
"","2111.91499999995","sequential-stimulus-presentation","25","158875","0.0-10.0","SS1613138226890","pref_reveal","","40","800","2911.91499999995","null","null","","","","","0","","","","novel","","","",""
"","null","html-keyboard-response","26","159758","0.0-11.0-0.0","SS1613138226890","","","null","","","","","<p><img src= images/blank.png width =""200"" height = ""200"" style = ""float:right""></p><p><img src=images/blank.png width =""800"" height = ""200""></p>","","","","","","","","","","","",""
"","1785.6899999999441","sequential-stimulus-presentation","27","162351","0.0-11.0-1.0","SS1613138226890","trial","","40","800","2585.689999999944","images/stimuli/spore_stims/complex_10_B_c.gif","images/stimuli/spore_stims/complex_10_A_c.gif","","","","","1","complex_similar","images/stimuli/spore_stims/complex_10_A_c.gif","middle","","","","",""
"","null","html-keyboard-response","28","163336","0.0-11.0-0.1","SS1613138226890","","","null","","","","","<p><img src= images/blank.png width =""200"" height = ""200"" style = ""float:right""></p><p><img src=images/blank.png width =""800"" height = ""200""></p>","","","","","","","","","","","",""
"","2306.8550000000396","sequential-stimulus-presentation","29","166452","0.0-11.0-1.1","SS1613138226890","trial","","40","800","3106.8550000000396","images/stimuli/spore_stims/complex_10_B_c.gif","images/stimuli/spore_stims/complex_10_A_c.gif","","","","","1","complex_similar","images/stimuli/spore_stims/complex_10_A_c.gif","middle","","","","",""
"","null","html-keyboard-response","30","167728","0.0-11.0-0.2","SS1613138226890","","","null","","","","","<p><img src= images/blank.png width =""200"" height = ""200"" style = ""float:right""></p><p><img src=images/blank.png width =""800"" height = ""200""></p>","","","","","","","","","","","",""
"","2530.065000000148","sequential-stimulus-presentation","31","171069","0.0-11.0-1.2","SS1613138226890","trial","","40","800","3330.065000000148","images/stimuli/spore_stims/complex_10_B_c.gif","images/stimuli/spore_stims/complex_10_A_c.gif","","","","","1","complex_similar","images/stimuli/spore_stims/complex_10_B_c.gif","right","","","","",""
"","null","html-keyboard-response","32","172334","0.0-11.0-0.3","SS1613138226890","","","null","","","","","<p><img src= images/blank.png width =""200"" height = ""200"" style = ""float:right""></p><p><img src=images/blank.png width =""800"" height = ""200""></p>","","","","","","","","","","","",""
"","36.90000000005239","sequential-stimulus-presentation","33","173183","0.0-11.0-1.3","SS1613138226890","trial","","40","800","836.9000000000524","images/stimuli/spore_stims/complex_10_B_c.gif","images/stimuli/spore_stims/complex_10_A_c.gif","","","","","1","complex_similar","images/stimuli/spore_stims/complex_10_A_c.gif","middle","","","","",""
"","null","html-keyboard-response","34","174198","0.0-11.0-0.4","SS1613138226890","","","null","","","","","<p><img src= images/blank.png width =""200"" height = ""200"" style = ""float:right""></p><p><img src=images/blank.png width =""800"" height = ""200""></p>","","","","","","","","","","","",""
"","2279.310000000114","sequential-stimulus-presentation","35","177288","0.0-11.0-1.4","SS1613138226890","trial","","40","800","3079.310000000114","images/stimuli/spore_stims/complex_10_B_c.gif","images/stimuli/spore_stims/complex_10_A_c.gif","","","","","1","complex_similar","images/stimuli/spore_stims/complex_10_A_c.gif","middle","","","","",""
"","null","html-keyboard-response","36","178143","0.0-11.0-0.5","SS1613138226890","","","null","","","","","<p><img src= images/blank.png width =""200"" height = ""200"" style = ""float:right""></p><p><img src=images/blank.png width =""800"" height = ""200""></p>","","","","","","","","","","","",""
"","2332.850000000006","sequential-stimulus-presentation","37","181289","0.0-11.0-1.5","SS1613138226890","trial","","40","800","3132.850000000006","images/stimuli/spore_stims/complex_10_B_c.gif","images/stimuli/spore_stims/complex_10_A_c.gif","","","","","1","complex_similar","images/stimuli/spore_stims/complex_10_A_c.gif","middle","","","","",""
"","null","html-keyboard-response","38","182345","0.0-11.0-0.6","SS1613138226890","","","null","","","","","<p><img src= images/blank.png width =""200"" height = ""200"" style = ""float:right""></p><p><img src=images/blank.png width =""800"" height = ""200""></p>","","","","","","","","","","","",""
"","929.8400000000256","sequential-stimulus-presentation","39","184083","0.0-11.0-1.6","SS1613138226890","trial","","40","800","1729.8400000000256","images/stimuli/spore_stims/complex_10_B_c.gif","images/stimuli/spore_stims/complex_10_A_c.gif","","","","","1","complex_similar","images/stimuli/spore_stims/complex_10_A_c.gif","middle","","","","",""
"","null","html-keyboard-response","40","184955","0.0-11.0-0.7","SS1613138226890","","","null","","","","","<p><img src= images/blank.png width =""200"" height = ""200"" style = ""float:right""></p><p><img src=images/blank.png width =""800"" height = ""200""></p>","","","","","","","","","","","",""
"","1957.3050000001385","sequential-stimulus-presentation","41","187731","0.0-11.0-1.7","SS1613138226890","trial","","40","800","2757.3050000001385","images/stimuli/spore_stims/complex_10_B_c.gif","images/stimuli/spore_stims/complex_10_A_c.gif","","","","","1","complex_similar","images/stimuli/spore_stims/complex_10_A_c.gif","middle","","","","",""
"","2909.2849999999453","html-keyboard-response","42","190646","0.0-12.0","SS1613138226890","pref_question","","49","","","","","<video width ='960' height = '540' style='padding-top:8%' autoplay muted><source src='images/stimuli/wall_pref.mp4' type='video/mp4'></video>","1","left","25%","1","","","","","","","",""
"","1283.2849999999744","sequential-stimulus-presentation","43","192740","0.0-13.0","SS1613138226890","pref_reveal","","40","800","2083.2849999999744","null","null","","","","","1","","","","novel","","","",""
"","null","html-keyboard-response","44","193636","0.0-14.0-0.0","SS1613138226890","","","null","","","","","<p><img src= images/blank.png width =""200"" height = ""200"" style = ""float:right""></p><p><img src=images/blank.png width =""800"" height = ""200""></p>","","","","","","","","","","","",""
"","2230.6699999999255","sequential-stimulus-presentation","45","196679","0.0-14.0-1.0","SS1613138226890","trial","","40","800","3030.6699999999255","images/stimuli/spore_stims/simple_02_B_d.gif","images/stimuli/spore_stims/simple_03_A_b.gif","","","","","2","simple_dissimilar","images/stimuli/spore_stims/simple_03_A_b.gif","left","","","","",""
"","null","html-keyboard-response","46","197756","0.0-14.0-0.1","SS1613138226890","","","null","","","","","<p><img src= images/blank.png width =""200"" height = ""200"" style = ""float:right""></p><p><img src=images/blank.png width =""800"" height = ""200""></p>","","","","","","","","","","","",""
"","1715.549999999901","sequential-stimulus-presentation","47","200288","0.0-14.0-1.1","SS1613138226890","trial","","40","800","2515.549999999901","images/stimuli/spore_stims/simple_02_B_d.gif","images/stimuli/spore_stims/simple_03_A_b.gif","","","","","2","simple_dissimilar","images/stimuli/spore_stims/simple_03_A_b.gif","left","","","","",""
"","null","html-keyboard-response","48","201286","0.0-14.0-0.2","SS1613138226890","","","null","","","","","<p><img src= images/blank.png width =""200"" height = ""200"" style = ""float:right""></p><p><img src=images/blank.png width =""800"" height = ""200""></p>","","","","","","","","","","","",""
"","1385.1650000001246","sequential-stimulus-presentation","49","203480","0.0-14.0-1.2","SS1613138226890","trial","","40","800","2185.1650000001246","images/stimuli/spore_stims/simple_02_B_d.gif","images/stimuli/spore_stims/simple_03_A_b.gif","","","","","2","simple_dissimilar","images/stimuli/spore_stims/simple_03_A_b.gif","left","","","","",""
"","null","html-keyboard-response","50","204741","0.0-14.0-0.3","SS1613138226890","","","null","","","","","<p><img src= images/blank.png width =""200"" height = ""200"" style = ""float:right""></p><p><img src=images/blank.png width =""800"" height = ""200""></p>","","","","","","","","","","","",""
"","1696.4649999999965","sequential-stimulus-presentation","51","207249","0.0-14.0-1.3","SS1613138226890","trial","","40","800","2496.4649999999965","images/stimuli/spore_stims/simple_02_B_d.gif","images/stimuli/spore_stims/simple_03_A_b.gif","","","","","2","simple_dissimilar","images/stimuli/spore_stims/simple_03_A_b.gif","left","","","","",""
"","null","html-keyboard-response","52","208464","0.0-14.0-0.4","SS1613138226890","","","null","","","","","<p><img src= images/blank.png width =""200"" height = ""200"" style = ""float:right""></p><p><img src=images/blank.png width =""800"" height = ""200""></p>","","","","","","","","","","","",""
"","1596.365000000107","sequential-stimulus-presentation","53","210883","0.0-14.0-1.4","SS1613138226890","trial","","40","800","2396.365000000107","images/stimuli/spore_stims/simple_02_B_d.gif","images/stimuli/spore_stims/simple_03_A_b.gif","","","","","2","simple_dissimilar","images/stimuli/spore_stims/simple_03_A_b.gif","left","","","","",""
"","null","html-keyboard-response","54","212177","0.0-14.0-0.5","SS1613138226890","","","null","","","","","<p><img src= images/blank.png width =""200"" height = ""200"" style = ""float:right""></p><p><img src=images/blank.png width =""800"" height = ""200""></p>","","","","","","","","","","","",""
"","1250.6800000001094","sequential-stimulus-presentation","55","214237","0.0-14.0-1.5","SS1613138226890","trial","","40","800","2050.6800000001094","images/stimuli/spore_stims/simple_02_B_d.gif","images/stimuli/spore_stims/simple_03_A_b.gif","","","","","2","simple_dissimilar","images/stimuli/spore_stims/simple_03_A_b.gif","left","","","","",""
"","null","html-keyboard-response","56","215437","0.0-14.0-0.6","SS1613138226890","","","null","","","","","<p><img src= images/blank.png width =""200"" height = ""200"" style = ""float:right""></p><p><img src=images/blank.png width =""800"" height = ""200""></p>","","","","","","","","","","","",""
"","1286.515000000014","sequential-stimulus-presentation","57","217531","0.0-14.0-1.6","SS1613138226890","trial","","40","800","2086.515000000014","images/stimuli/spore_stims/simple_02_B_d.gif","images/stimuli/spore_stims/simple_03_A_b.gif","","","","","2","simple_dissimilar","images/stimuli/spore_stims/simple_02_B_d.gif","right","","","","",""
"","null","html-keyboard-response","58","218722","0.0-14.0-0.7","SS1613138226890","","","null","","","","","<p><img src= images/blank.png width =""200"" height = ""200"" style = ""float:right""></p><p><img src=images/blank.png width =""800"" height = ""200""></p>","","","","","","","","","","","",""
"","1520.115000000049","sequential-stimulus-presentation","59","221056","0.0-14.0-1.7","SS1613138226890","trial","","40","800","2320.115000000049","images/stimuli/spore_stims/simple_02_B_d.gif","images/stimuli/spore_stims/simple_03_A_b.gif","","","","","2","simple_dissimilar","images/stimuli/spore_stims/simple_03_A_b.gif","left","","","","",""
"","2063.6699999999837","html-keyboard-response","60","223127","0.0-15.0","SS1613138226890","pref_question","","50","","","","","<video width ='960' height = '540' style='padding-top:8%' autoplay muted><source src='images/stimuli/wall_pref.mp4' type='video/mp4'></video>","2","middle","45%","2","","","","","","","",""
"","2200.2000000000116","sequential-stimulus-presentation","61","226133","0.0-16.0","SS1613138226890","pref_reveal","","40","800","3000.2000000000116","null","null","","","","","2","","","","novel","","","",""
"","null","html-keyboard-response","62","227038","0.0-17.0-0.0","SS1613138226890","","","null","","","","","<p><img src= images/blank.png width =""200"" height = ""200"" style = ""float:right""></p><p><img src=images/blank.png width =""800"" height = ""200""></p>","","","","","","","","","","","",""
"","1276.4799999999814","sequential-stimulus-presentation","63","229127","0.0-17.0-1.0","SS1613138226890","trial","","40","800","2076.4799999999814","images/stimuli/spore_stims/simple_15_B_a.gif","images/stimuli/spore_stims/simple_15_A_a.gif","","","","","3","simple_similar","images/stimuli/spore_stims/simple_15_A_a.gif","left","","","","",""
"","null","html-keyboard-response","64","230429","0.0-17.0-0.1","SS1613138226890","","","null","","","","","<p><img src= images/blank.png width =""200"" height = ""200"" style = ""float:right""></p><p><img src=images/blank.png width =""800"" height = ""200""></p>","","","","","","","","","","","",""
"","924.4850000000151","sequential-stimulus-presentation","65","232167","0.0-17.0-1.1","SS1613138226890","trial","","40","800","1724.4850000000151","images/stimuli/spore_stims/simple_15_B_a.gif","images/stimuli/spore_stims/simple_15_A_a.gif","","","","","3","simple_similar","images/stimuli/spore_stims/simple_15_A_a.gif","left","","","","",""
"","null","html-keyboard-response","66","233031","0.0-17.0-0.2","SS1613138226890","","","null","","","","","<p><img src= images/blank.png width =""200"" height = ""200"" style = ""float:right""></p><p><img src=images/blank.png width =""800"" height = ""200""></p>","","","","","","","","","","","",""
"","1018.0450000000128","sequential-stimulus-presentation","67","234860","0.0-17.0-1.2","SS1613138226890","trial","","40","800","1818.0450000000128","images/stimuli/spore_stims/simple_15_B_a.gif","images/stimuli/spore_stims/simple_15_A_a.gif","","","","","3","simple_similar","images/stimuli/spore_stims/simple_15_B_a.gif","right","","","","",""
"","null","html-keyboard-response","68","235825","0.0-17.0-0.3","SS1613138226890","","","null","","","","","<p><img src= images/blank.png width =""200"" height = ""200"" style = ""float:right""></p><p><img src=images/blank.png width =""800"" height = ""200""></p>","","","","","","","","","","","",""
"","1289.6849999999686","sequential-stimulus-presentation","69","237936","0.0-17.0-1.3","SS1613138226890","trial","","40","800","2089.6849999999686","images/stimuli/spore_stims/simple_15_B_a.gif","images/stimuli/spore_stims/simple_15_A_a.gif","","","","","3","simple_similar","images/stimuli/spore_stims/simple_15_A_a.gif","left","","","","",""
"","null","html-keyboard-response","70","238771","0.0-17.0-0.4","SS1613138226890","","","null","","","","","<p><img src= images/blank.png width =""200"" height = ""200"" style = ""float:right""></p><p><img src=images/blank.png width =""800"" height = ""200""></p>","","","","","","","","","","","",""
"","2185.8199999999197","sequential-stimulus-presentation","71","241776","0.0-17.0-1.4","SS1613138226890","trial","","40","800","2985.8199999999197","images/stimuli/spore_stims/simple_15_B_a.gif","images/stimuli/spore_stims/simple_15_A_a.gif","","","","","3","simple_similar","images/stimuli/spore_stims/simple_15_A_a.gif","left","","","","",""
"","null","html-keyboard-response","72","242859","0.0-17.0-0.5","SS1613138226890","","","null","","","","","<p><img src= images/blank.png width =""200"" height = ""200"" style = ""float:right""></p><p><img src=images/blank.png width =""800"" height = ""200""></p>","","","","","","","","","","","",""
"","876.0949999998556","sequential-stimulus-presentation","73","244547","0.0-17.0-1.5","SS1613138226890","trial","","40","800","1676.0949999998556","images/stimuli/spore_stims/simple_15_B_a.gif","images/stimuli/spore_stims/simple_15_A_a.gif","","","","","3","simple_similar","images/stimuli/spore_stims/simple_15_A_a.gif","left","","","","",""
"","null","html-keyboard-response","74","245397","0.0-17.0-0.6","SS1613138226890","","","null","","","","","<p><img src= images/blank.png width =""200"" height = ""200"" style = ""float:right""></p><p><img src=images/blank.png width =""800"" height = ""200""></p>","","","","","","","","","","","",""
"","474.44000000017695","sequential-stimulus-presentation","75","246683","0.0-17.0-1.6","SS1613138226890","trial","","40","800","1274.440000000177","images/stimuli/spore_stims/simple_15_B_a.gif","images/stimuli/spore_stims/simple_15_A_a.gif","","","","","3","simple_similar","images/stimuli/spore_stims/simple_15_A_a.gif","left","","","","",""
"","null","html-keyboard-response","76","247781","0.0-17.0-0.7","SS1613138226890","","","null","","","","","<p><img src= images/blank.png width =""200"" height = ""200"" style = ""float:right""></p><p><img src=images/blank.png width =""800"" height = ""200""></p>","","","","","","","","","","","",""
"","472.70999999999185","sequential-stimulus-presentation","77","249064","0.0-17.0-1.7","SS1613138226890","trial","","40","800","1272.7099999999919","images/stimuli/spore_stims/simple_15_B_a.gif","images/stimuli/spore_stims/simple_15_A_a.gif","","","","","3","simple_similar","images/stimuli/spore_stims/simple_15_A_a.gif","left","","","","",""
"","1537.2350000000442","html-keyboard-response","78","250609","0.0-18.0","SS1613138226890","pref_question","","51","","","","","<video width ='960' height = '540' style='padding-top:8%' autoplay muted><source src='images/stimuli/wall_pref.mp4' type='video/mp4'></video>","3","right","66%","3","","","","","","","",""
"","1423.8700000001118","sequential-stimulus-presentation","79","252839","0.0-19.0","SS1613138226890","pref_reveal","","40","800","2223.8700000001118","null","null","","","","","3","","","","deviant","","","",""
"","null","html-keyboard-response","80","254116","0.0-20.0-0.0","SS1613138226890","","","null","","","","","<p><img src= images/blank.png width =""200"" height = ""200"" style = ""float:right""></p><p><img src=images/blank.png width =""800"" height = ""200""></p>","","","","","","","","","","","",""
"","1250.8250000000698","sequential-stimulus-presentation","81","256177","0.0-20.0-1.0","SS1613138226890","trial","","40","800","2050.82500000007","images/stimuli/spore_stims/complex_05_B_c.gif","images/stimuli/spore_stims/complex_05_A_c.gif","","","","","4","complex_similar","images/stimuli/spore_stims/complex_05_A_c.gif","left","","","","",""
"","null","html-keyboard-response","82","257032","0.0-20.0-0.1","SS1613138226890","","","null","","","","","<p><img src= images/blank.png width =""200"" height = ""200"" style = ""float:right""></p><p><img src=images/blank.png width =""800"" height = ""200""></p>","","","","","","","","","","","",""
"","1407.850000000035","sequential-stimulus-presentation","83","259266","0.0-20.0-1.1","SS1613138226890","trial","","40","800","2207.850000000035","images/stimuli/spore_stims/complex_05_B_c.gif","images/stimuli/spore_stims/complex_05_A_c.gif","","","","","4","complex_similar","images/stimuli/spore_stims/complex_05_A_c.gif","left","","","","",""
"","null","html-keyboard-response","84","260407","0.0-20.0-0.2","SS1613138226890","","","null","","","","","<p><img src= images/blank.png width =""200"" height = ""200"" style = ""float:right""></p><p><img src=images/blank.png width =""800"" height = ""200""></p>","","","","","","","","","","","",""
"","708.0249999999069","sequential-stimulus-presentation","85","261929","0.0-20.0-1.2","SS1613138226890","trial","","40","800","1508.0249999999069","images/stimuli/spore_stims/complex_05_B_c.gif","images/stimuli/spore_stims/complex_05_A_c.gif","","","","","4","complex_similar","images/stimuli/spore_stims/complex_05_B_c.gif","right","","","","",""
"","null","html-keyboard-response","86","262961","0.0-20.0-0.3","SS1613138226890","","","null","","","","","<p><img src= images/blank.png width =""200"" height = ""200"" style = ""float:right""></p><p><img src=images/blank.png width =""800"" height = ""200""></p>","","","","","","","","","","","",""
"","653.2950000001001","sequential-stimulus-presentation","87","264427","0.0-20.0-1.3","SS1613138226890","trial","","40","800","1453.2950000001001","images/stimuli/spore_stims/complex_05_B_c.gif","images/stimuli/spore_stims/complex_05_A_c.gif","","","","","4","complex_similar","images/stimuli/spore_stims/complex_05_A_c.gif","left","","","","",""
"","null","html-keyboard-response","88","265253","0.0-20.0-0.4","SS1613138226890","","","null","","","","","<p><img src= images/blank.png width =""200"" height = ""200"" style = ""float:right""></p><p><img src=images/blank.png width =""800"" height = ""200""></p>","","","","","","","","","","","",""
"","1400.384999999893","sequential-stimulus-presentation","89","267463","0.0-20.0-1.4","SS1613138226890","trial","","40","800","2200.384999999893","images/stimuli/spore_stims/complex_05_B_c.gif","images/stimuli/spore_stims/complex_05_A_c.gif","","","","","4","complex_similar","images/stimuli/spore_stims/complex_05_A_c.gif","left","","","","",""
"","null","html-keyboard-response","90","268477","0.0-20.0-0.5","SS1613138226890","","","null","","","","","<p><img src= images/blank.png width =""200"" height = ""200"" style = ""float:right""></p><p><img src=images/blank.png width =""800"" height = ""200""></p>","","","","","","","","","","","",""
"","723.0099999999511","sequential-stimulus-presentation","91","270014","0.0-20.0-1.5","SS1613138226890","trial","","40","800","1523.009999999951","images/stimuli/spore_stims/complex_05_B_c.gif","images/stimuli/spore_stims/complex_05_A_c.gif","","","","","4","complex_similar","images/stimuli/spore_stims/complex_05_A_c.gif","left","","","","",""
"","null","html-keyboard-response","92","271196","0.0-20.0-0.6","SS1613138226890","","","null","","","","","<p><img src= images/blank.png width =""200"" height = ""200"" style = ""float:right""></p><p><img src=images/blank.png width =""800"" height = ""200""></p>","","","","","","","","","","","",""
"","683.835000000021","sequential-stimulus-presentation","93","272687","0.0-20.0-1.6","SS1613138226890","trial","","40","800","1483.835000000021","images/stimuli/spore_stims/complex_05_B_c.gif","images/stimuli/spore_stims/complex_05_A_c.gif","","","","","4","complex_similar","images/stimuli/spore_stims/complex_05_A_c.gif","left","","","","",""
"","null","html-keyboard-response","94","273673","0.0-20.0-0.7","SS1613138226890","","","null","","","","","<p><img src= images/blank.png width =""200"" height = ""200"" style = ""float:right""></p><p><img src=images/blank.png width =""800"" height = ""200""></p>","","","","","","","","","","","",""
"","1690.335000000021","sequential-stimulus-presentation","95","276173","0.0-20.0-1.7","SS1613138226890","trial","","40","800","2490.335000000021","images/stimuli/spore_stims/complex_05_B_c.gif","images/stimuli/spore_stims/complex_05_A_c.gif","","","","","4","complex_similar","images/stimuli/spore_stims/complex_05_A_c.gif","left","","","","",""
"","1722.3400000000256","html-keyboard-response","96","277904","0.0-21.0","SS1613138226890","pref_question","","51","","","","","<video width ='960' height = '540' style='padding-top:8%' autoplay muted><source src='images/stimuli/wall_pref.mp4' type='video/mp4'></video>","3","right","66%","4","","","","","","","",""
"","113.7599999999511","sequential-stimulus-presentation","97","278830","0.0-22.0","SS1613138226890","pref_reveal","","40","800","913.7599999999511","null","null","","","","","4","","","","deviant","","","",""
"","null","html-keyboard-response","98","280056","0.0-23.0-0.0","SS1613138226890","","","null","","","","","<p><img src= images/blank.png width =""200"" height = ""200"" style = ""float:right""></p><p><img src=images/blank.png width =""800"" height = ""200""></p>","","","","","","","","","","","",""
"","967.2000000000698","sequential-stimulus-presentation","99","281838","0.0-23.0-1.0","SS1613138226890","trial","","40","800","1767.2000000000698","images/stimuli/spore_stims/simple_12_B_c.gif","images/stimuli/spore_stims/simple_12_A_c.gif","","","","","5","simple_similar","images/stimuli/spore_stims/simple_12_A_c.gif","right","","","","",""
"","null","html-keyboard-response","100","282888","0.0-23.0-0.1","SS1613138226890","","","null","","","","","<p><img src= images/blank.png width =""200"" height = ""200"" style = ""float:right""></p><p><img src=images/blank.png width =""800"" height = ""200""></p>","","","","","","","","","","","",""
"","561.0900000002002","sequential-stimulus-presentation","101","284259","0.0-23.0-1.1","SS1613138226890","trial","","40","800","1361.0900000002002","images/stimuli/spore_stims/simple_12_B_c.gif","images/stimuli/spore_stims/simple_12_A_c.gif","","","","","5","simple_similar","images/stimuli/spore_stims/simple_12_A_c.gif","right","","","","",""
"","null","html-keyboard-response","102","285351","0.0-23.0-0.2","SS1613138226890","","","null","","","","","<p><img src= images/blank.png width =""200"" height = ""200"" style = ""float:right""></p><p><img src=images/blank.png width =""800"" height = ""200""></p>","","","","","","","","","","","",""
"","644.4349999999395","sequential-stimulus-presentation","103","286819","0.0-23.0-1.2","SS1613138226890","trial","","40","800","1444.4349999999395","images/stimuli/spore_stims/simple_12_B_c.gif","images/stimuli/spore_stims/simple_12_A_c.gif","","","","","5","simple_similar","images/stimuli/spore_stims/simple_12_A_c.gif","right","","","","",""
"","null","html-keyboard-response","104","287956","0.0-23.0-0.3","SS1613138226890","","","null","","","","","<p><img src= images/blank.png width =""200"" height = ""200"" style = ""float:right""></p><p><img src=images/blank.png width =""800"" height = ""200""></p>","","","","","","","","","","","",""
"","664.480000000156","sequential-stimulus-presentation","105","289431","0.0-23.0-1.3","SS1613138226890","trial","","40","800","1464.480000000156","images/stimuli/spore_stims/simple_12_B_c.gif","images/stimuli/spore_stims/simple_12_A_c.gif","","","","","5","simple_similar","images/stimuli/spore_stims/simple_12_A_c.gif","right","","","","",""
"","null","html-keyboard-response","106","290486","0.0-23.0-0.4","SS1613138226890","","","null","","","","","<p><img src= images/blank.png width =""200"" height = ""200"" style = ""float:right""></p><p><img src=images/blank.png width =""800"" height = ""200""></p>","","","","","","","","","","","",""
"","903.7900000000373","sequential-stimulus-presentation","107","292202","0.0-23.0-1.4","SS1613138226890","trial","","40","800","1703.7900000000373","images/stimuli/spore_stims/simple_12_B_c.gif","images/stimuli/spore_stims/simple_12_A_c.gif","","","","","5","simple_similar","images/stimuli/spore_stims/simple_12_A_c.gif","right","","","","",""
"","null","html-keyboard-response","108","293376","0.0-23.0-0.5","SS1613138226890","","","null","","","","","<p><img src= images/blank.png width =""200"" height = ""200"" style = ""float:right""></p><p><img src=images/blank.png width =""800"" height = ""200""></p>","","","","","","","","","","","",""
"","895.8649999999907","sequential-stimulus-presentation","109","295083","0.0-23.0-1.5","SS1613138226890","trial","","40","800","1695.8649999999907","images/stimuli/spore_stims/simple_12_B_c.gif","images/stimuli/spore_stims/simple_12_A_c.gif","","","","","5","simple_similar","images/stimuli/spore_stims/simple_12_A_c.gif","right","","","","",""
"","null","html-keyboard-response","110","296236","0.0-23.0-0.6","SS1613138226890","","","null","","","","","<p><img src= images/blank.png width =""200"" height = ""200"" style = ""float:right""></p><p><img src=images/blank.png width =""800"" height = ""200""></p>","","","","","","","","","","","",""
"","900.3250000000698","sequential-stimulus-presentation","111","297951","0.0-23.0-1.6","SS1613138226890","trial","","40","800","1700.3250000000698","images/stimuli/spore_stims/simple_12_B_c.gif","images/stimuli/spore_stims/simple_12_A_c.gif","","","","","5","simple_similar","images/stimuli/spore_stims/simple_12_A_c.gif","right","","","","",""
"","null","html-keyboard-response","112","299112","0.0-23.0-0.7","SS1613138226890","","","null","","","","","<p><img src= images/blank.png width =""200"" height = ""200"" style = ""float:right""></p><p><img src=images/blank.png width =""800"" height = ""200""></p>","","","","","","","","","","","",""
"","715.4000000000233","sequential-stimulus-presentation","113","300639","0.0-23.0-1.7","SS1613138226890","trial","","40","800","1515.4000000000233","images/stimuli/spore_stims/simple_12_B_c.gif","images/stimuli/spore_stims/simple_12_A_c.gif","","","","","5","simple_similar","images/stimuli/spore_stims/simple_12_B_c.gif","middle","","","","",""
"","1957.925000000163","html-keyboard-response","114","302606","0.0-24.0","SS1613138226890","pref_question","","49","","","","","<video width ='960' height = '540' style='padding-top:8%' autoplay muted><source src='images/stimuli/wall_pref.mp4' type='video/mp4'></video>","1","left","25%","5","","","","","","","",""
"","1535.6149999999907","sequential-stimulus-presentation","115","304949","0.0-25.0","SS1613138226890","pref_reveal","","40","800","2335.6149999999907","null","null","","","","","5","","","","novel","","","",""
"","null","html-keyboard-response","116","306146","0.0-26.0-0.0","SS1613138226890","","","null","","","","","<p><img src= images/blank.png width =""200"" height = ""200"" style = ""float:right""></p><p><img src=images/blank.png width =""800"" height = ""200""></p>","","","","","","","","","","","",""
"","1124.2799999999697","sequential-stimulus-presentation","117","308081","0.0-26.0-1.0","SS1613138226890","trial","","40","800","1924.2799999999697","images/stimuli/spore_stims/simple_13_A_c.gif","images/stimuli/spore_stims/simple_13_B_c.gif","","","","","6","simple_similar","images/stimuli/spore_stims/simple_13_B_c.gif","middle","","","","",""
"","null","html-keyboard-response","118","309084","0.0-26.0-0.1","SS1613138226890","","","null","","","","","<p><img src= images/blank.png width =""200"" height = ""200"" style = ""float:right""></p><p><img src=images/blank.png width =""800"" height = ""200""></p>","","","","","","","","","","","",""
"","756.8200000000652","sequential-stimulus-presentation","119","310656","0.0-26.0-1.1","SS1613138226890","trial","","40","800","1556.8200000000652","images/stimuli/spore_stims/simple_13_A_c.gif","images/stimuli/spore_stims/simple_13_B_c.gif","","","","","6","simple_similar","images/stimuli/spore_stims/simple_13_B_c.gif","middle","","","","",""
"","null","html-keyboard-response","120","311526","0.0-26.0-0.2","SS1613138226890","","","null","","","","","<p><img src= images/blank.png width =""200"" height = ""200"" style = ""float:right""></p><p><img src=images/blank.png width =""800"" height = ""200""></p>","","","","","","","","","","","",""
"","661.6850000000559","sequential-stimulus-presentation","121","313001","0.0-26.0-1.2","SS1613138226890","trial","","40","800","1461.6850000000559","images/stimuli/spore_stims/simple_13_A_c.gif","images/stimuli/spore_stims/simple_13_B_c.gif","","","","","6","simple_similar","images/stimuli/spore_stims/simple_13_B_c.gif","middle","","","","",""
"","null","html-keyboard-response","122","314049","0.0-26.0-0.3","SS1613138226890","","","null","","","","","<p><img src= images/blank.png width =""200"" height = ""200"" style = ""float:right""></p><p><img src=images/blank.png width =""800"" height = ""200""></p>","","","","","","","","","","","",""
"","768.3199999998906","sequential-stimulus-presentation","123","315626","0.0-26.0-1.3","SS1613138226890","trial","","40","800","1568.3199999998906","images/stimuli/spore_stims/simple_13_A_c.gif","images/stimuli/spore_stims/simple_13_B_c.gif","","","","","6","simple_similar","images/stimuli/spore_stims/simple_13_B_c.gif","middle","","","","",""
"","null","html-keyboard-response","124","316505","0.0-26.0-0.4","SS1613138226890","","","null","","","","","<p><img src= images/blank.png width =""200"" height = ""200"" style = ""float:right""></p><p><img src=images/blank.png width =""800"" height = ""200""></p>","","","","","","","","","","","",""
"","857.9199999999255","sequential-stimulus-presentation","125","318175","0.0-26.0-1.4","SS1613138226890","trial","","40","800","1657.9199999999255","images/stimuli/spore_stims/simple_13_A_c.gif","images/stimuli/spore_stims/simple_13_B_c.gif","","","","","6","simple_similar","images/stimuli/spore_stims/simple_13_B_c.gif","middle","","","","",""
"","null","html-keyboard-response","126","319325","0.0-26.0-0.5","SS1613138226890","","","null","","","","","<p><img src= images/blank.png width =""200"" height = ""200"" style = ""float:right""></p><p><img src=images/blank.png width =""800"" height = ""200""></p>","","","","","","","","","","","",""
"","655.7800000000279","sequential-stimulus-presentation","127","320789","0.0-26.0-1.5","SS1613138226890","trial","","40","800","1455.780000000028","images/stimuli/spore_stims/simple_13_A_c.gif","images/stimuli/spore_stims/simple_13_B_c.gif","","","","","6","simple_similar","images/stimuli/spore_stims/simple_13_A_c.gif","left","","","","",""
"","null","html-keyboard-response","128","321775","0.0-26.0-0.6","SS1613138226890","","","null","","","","","<p><img src= images/blank.png width =""200"" height = ""200"" style = ""float:right""></p><p><img src=images/blank.png width =""800"" height = ""200""></p>","","","","","","","","","","","",""
"","716.3300000000163","sequential-stimulus-presentation","129","323300","0.0-26.0-1.6","SS1613138226890","trial","","40","800","1516.3300000000163","images/stimuli/spore_stims/simple_13_A_c.gif","images/stimuli/spore_stims/simple_13_B_c.gif","","","","","6","simple_similar","images/stimuli/spore_stims/simple_13_B_c.gif","middle","","","","",""
"","null","html-keyboard-response","130","324205","0.0-26.0-0.7","SS1613138226890","","","null","","","","","<p><img src= images/blank.png width =""200"" height = ""200"" style = ""float:right""></p><p><img src=images/blank.png width =""800"" height = ""200""></p>","","","","","","","","","","","",""
"","753.7550000000047","sequential-stimulus-presentation","131","325769","0.0-26.0-1.7","SS1613138226890","trial","","40","800","1553.7550000000047","images/stimuli/spore_stims/simple_13_A_c.gif","images/stimuli/spore_stims/simple_13_B_c.gif","","","","","6","simple_similar","images/stimuli/spore_stims/simple_13_B_c.gif","middle","","","","",""
"","1531.3699999999371","html-keyboard-response","132","327310","0.0-27.0","SS1613138226890","pref_question","","49","","","","","<video width ='960' height = '540' style='padding-top:8%' autoplay muted><source src='images/stimuli/wall_pref.mp4' type='video/mp4'></video>","1","left","25%","6","","","","","","","",""
"","1110.625","sequential-stimulus-presentation","133","329231","0.0-28.0","SS1613138226890","pref_reveal","","40","800","1910.625","null","null","","","","","6","","","","deviant","","","",""
"","null","html-keyboard-response","134","330490","0.0-29.0-0.0","SS1613138226890","","","null","","","","","<p><img src= images/blank.png width =""200"" height = ""200"" style = ""float:right""></p><p><img src=images/blank.png width =""800"" height = ""200""></p>","","","","","","","","","","","",""
"","1017.9550000000163","sequential-stimulus-presentation","135","332325","0.0-29.0-1.0","SS1613138226890","trial","","40","800","1817.9550000000163","images/stimuli/spore_stims/complex_14_A_a.gif","images/stimuli/spore_stims/complex_18_B_b.gif","","","","","7","complex_dissimilar","images/stimuli/spore_stims/complex_18_B_b.gif","left","","","","",""
"","null","html-keyboard-response","136","333615","0.0-29.0-0.1","SS1613138226890","","","null","","","","","<p><img src= images/blank.png width =""200"" height = ""200"" style = ""float:right""></p><p><img src=images/blank.png width =""800"" height = ""200""></p>","","","","","","","","","","","",""
"","1030.769999999844","sequential-stimulus-presentation","137","335458","0.0-29.0-1.1","SS1613138226890","trial","","40","800","1830.769999999844","images/stimuli/spore_stims/complex_14_A_a.gif","images/stimuli/spore_stims/complex_18_B_b.gif","","","","","7","complex_dissimilar","images/stimuli/spore_stims/complex_18_B_b.gif","left","","","","",""
"","null","html-keyboard-response","138","336640","0.0-29.0-0.2","SS1613138226890","","","null","","","","","<p><img src= images/blank.png width =""200"" height = ""200"" style = ""float:right""></p><p><img src=images/blank.png width =""800"" height = ""200""></p>","","","","","","","","","","","",""
"","1705.8800000000047","sequential-stimulus-presentation","139","339159","0.0-29.0-1.2","SS1613138226890","trial","","40","800","2505.8800000000047","images/stimuli/spore_stims/complex_14_A_a.gif","images/stimuli/spore_stims/complex_18_B_b.gif","","","","","7","complex_dissimilar","images/stimuli/spore_stims/complex_14_A_a.gif","right","","","","",""
"","null","html-keyboard-response","140","340145","0.0-29.0-0.3","SS1613138226890","","","null","","","","","<p><img src= images/blank.png width =""200"" height = ""200"" style = ""float:right""></p><p><img src=images/blank.png width =""800"" height = ""200""></p>","","","","","","","","","","","",""
"","1503.8600000000442","sequential-stimulus-presentation","141","342463","0.0-29.0-1.3","SS1613138226890","trial","","40","800","2303.8600000000442","images/stimuli/spore_stims/complex_14_A_a.gif","images/stimuli/spore_stims/complex_18_B_b.gif","","","","","7","complex_dissimilar","images/stimuli/spore_stims/complex_18_B_b.gif","left","","","","",""
"","null","html-keyboard-response","142","343506","0.0-29.0-0.4","SS1613138226890","","","null","","","","","<p><img src= images/blank.png width =""200"" height = ""200"" style = ""float:right""></p><p><img src=images/blank.png width =""800"" height = ""200""></p>","","","","","","","","","","","",""
"","537.1500000001397","sequential-stimulus-presentation","143","344858","0.0-29.0-1.4","SS1613138226890","trial","","40","800","1337.1500000001397","images/stimuli/spore_stims/complex_14_A_a.gif","images/stimuli/spore_stims/complex_18_B_b.gif","","","","","7","complex_dissimilar","images/stimuli/spore_stims/complex_18_B_b.gif","left","","","","",""
"","null","html-keyboard-response","144","346060","0.0-29.0-0.5","SS1613138226890","","","null","","","","","<p><img src= images/blank.png width =""200"" height = ""200"" style = ""float:right""></p><p><img src=images/blank.png width =""800"" height = ""200""></p>","","","","","","","","","","","",""
"","589.6299999999464","sequential-stimulus-presentation","145","347466","0.0-29.0-1.5","SS1613138226890","trial","","40","800","1389.6299999999464","images/stimuli/spore_stims/complex_14_A_a.gif","images/stimuli/spore_stims/complex_18_B_b.gif","","","","","7","complex_dissimilar","images/stimuli/spore_stims/complex_18_B_b.gif","left","","","","",""
"","null","html-keyboard-response","146","348705","0.0-29.0-0.6","SS1613138226890","","","null","","","","","<p><img src= images/blank.png width =""200"" height = ""200"" style = ""float:right""></p><p><img src=images/blank.png width =""800"" height = ""200""></p>","","","","","","","","","","","",""
"","570.4249999998719","sequential-stimulus-presentation","147","350092","0.0-29.0-1.6","SS1613138226890","trial","","40","800","1370.424999999872","images/stimuli/spore_stims/complex_14_A_a.gif","images/stimuli/spore_stims/complex_18_B_b.gif","","","","","7","complex_dissimilar","images/stimuli/spore_stims/complex_18_B_b.gif","left","","","","",""
"","null","html-keyboard-response","148","351275","0.0-29.0-0.7","SS1613138226890","","","null","","","","","<p><img src= images/blank.png width =""200"" height = ""200"" style = ""float:right""></p><p><img src=images/blank.png width =""800"" height = ""200""></p>","","","","","","","","","","","",""
"","593.7650000000722","sequential-stimulus-presentation","149","352678","0.0-29.0-1.7","SS1613138226890","trial","","40","800","1393.7650000000722","images/stimuli/spore_stims/complex_14_A_a.gif","images/stimuli/spore_stims/complex_18_B_b.gif","","","","","7","complex_dissimilar","images/stimuli/spore_stims/complex_18_B_b.gif","left","","","","",""
"","1594.3199999998906","html-keyboard-response","150","354284","0.0-30.0","SS1613138226890","pref_question","","51","","","","","<video width ='960' height = '540' style='padding-top:8%' autoplay muted><source src='images/stimuli/wall_pref.mp4' type='video/mp4'></video>","3","right","66%","7","","","","","","","",""
"","1182.234999999986","sequential-stimulus-presentation","151","356281","0.0-31.0","SS1613138226890","pref_reveal","","40","800","1982.234999999986","null","null","","","","","7","","","","deviant","","","",""
"","null","html-keyboard-response","152","357186","0.0-32.0-0.0","SS1613138226890","","","null","","","","","<p><img src= images/blank.png width =""200"" height = ""200"" style = ""float:right""></p><p><img src=images/blank.png width =""800"" height = ""200""></p>","","","","","","","","","","","",""
"","840.2100000000792","sequential-stimulus-presentation","153","358842","0.0-32.0-1.0","SS1613138226890","trial","","40","800","1640.2100000000792","images/stimuli/spore_stims/complex_14_A_c.gif","images/stimuli/spore_stims/complex_14_B_c.gif","","","","","8","complex_similar","images/stimuli/spore_stims/complex_14_B_c.gif","left","","","","",""
"","null","html-keyboard-response","154","359665","0.0-32.0-0.1","SS1613138226890","","","null","","","","","<p><img src= images/blank.png width =""200"" height = ""200"" style = ""float:right""></p><p><img src=images/blank.png width =""800"" height = ""200""></p>","","","","","","","","","","","",""
"","698.7200000000885","sequential-stimulus-presentation","155","361176","0.0-32.0-1.1","SS1613138226890","trial","","40","800","1498.7200000000885","images/stimuli/spore_stims/complex_14_A_c.gif","images/stimuli/spore_stims/complex_14_B_c.gif","","","","","8","complex_similar","images/stimuli/spore_stims/complex_14_B_c.gif","left","","","","",""
"","null","html-keyboard-response","156","362188","0.0-32.0-0.2","SS1613138226890","","","null","","","","","<p><img src= images/blank.png width =""200"" height = ""200"" style = ""float:right""></p><p><img src=images/blank.png width =""800"" height = ""200""></p>","","","","","","","","","","","",""
"","964.2799999999115","sequential-stimulus-presentation","157","363963","0.0-32.0-1.2","SS1613138226890","trial","","40","800","1764.2799999999115","images/stimuli/spore_stims/complex_14_A_c.gif","images/stimuli/spore_stims/complex_14_B_c.gif","","","","","8","complex_similar","images/stimuli/spore_stims/complex_14_B_c.gif","left","","","","",""
"","null","html-keyboard-response","158","364930","0.0-32.0-0.3","SS1613138226890","","","null","","","","","<p><img src= images/blank.png width =""200"" height = ""200"" style = ""float:right""></p><p><img src=images/blank.png width =""800"" height = ""200""></p>","","","","","","","","","","","",""
"","1423.829999999958","sequential-stimulus-presentation","159","367168","0.0-32.0-1.3","SS1613138226890","trial","","40","800","2223.829999999958","images/stimuli/spore_stims/complex_14_A_c.gif","images/stimuli/spore_stims/complex_14_B_c.gif","","","","","8","complex_similar","images/stimuli/spore_stims/complex_14_A_c.gif","right","","","","",""
"","null","html-keyboard-response","160","368389","0.0-32.0-0.4","SS1613138226890","","","null","","","","","<p><img src= images/blank.png width =""200"" height = ""200"" style = ""float:right""></p><p><img src=images/blank.png width =""800"" height = ""200""></p>","","","","","","","","","","","",""
"","1386.5050000001793","sequential-stimulus-presentation","161","370590","0.0-32.0-1.4","SS1613138226890","trial","","40","800","2186.5050000001793","images/stimuli/spore_stims/complex_14_A_c.gif","images/stimuli/spore_stims/complex_14_B_c.gif","","","","","8","complex_similar","images/stimuli/spore_stims/complex_14_B_c.gif","left","","","","",""
"","null","html-keyboard-response","162","371817","0.0-32.0-0.5","SS1613138226890","","","null","","","","","<p><img src= images/blank.png width =""200"" height = ""200"" style = ""float:right""></p><p><img src=images/blank.png width =""800"" height = ""200""></p>","","","","","","","","","","","",""
"","761.5550000000512","sequential-stimulus-presentation","163","373392","0.0-32.0-1.5","SS1613138226890","trial","","40","800","1561.5550000000512","images/stimuli/spore_stims/complex_14_A_c.gif","images/stimuli/spore_stims/complex_14_B_c.gif","","","","","8","complex_similar","images/stimuli/spore_stims/complex_14_B_c.gif","left","","","","",""
"","null","html-keyboard-response","164","374564","0.0-32.0-0.6","SS1613138226890","","","null","","","","","<p><img src= images/blank.png width =""200"" height = ""200"" style = ""float:right""></p><p><img src=images/blank.png width =""800"" height = ""200""></p>","","","","","","","","","","","",""
"","968.8900000000722","sequential-stimulus-presentation","165","376347","0.0-32.0-1.6","SS1613138226890","trial","","40","800","1768.8900000000722","images/stimuli/spore_stims/complex_14_A_c.gif","images/stimuli/spore_stims/complex_14_B_c.gif","","","","","8","complex_similar","images/stimuli/spore_stims/complex_14_B_c.gif","left","","","","",""
"","null","html-keyboard-response","166","377179","0.0-32.0-0.7","SS1613138226890","","","null","","","","","<p><img src= images/blank.png width =""200"" height = ""200"" style = ""float:right""></p><p><img src=images/blank.png width =""800"" height = ""200""></p>","","","","","","","","","","","",""
"","479.22999999992317","sequential-stimulus-presentation","167","378473","0.0-32.0-1.7","SS1613138226890","trial","","40","800","1279.2299999999232","images/stimuli/spore_stims/complex_14_A_c.gif","images/stimuli/spore_stims/complex_14_B_c.gif","","","","","8","complex_similar","images/stimuli/spore_stims/complex_14_B_c.gif","left","","","","",""
"","1565.9150000001537","html-keyboard-response","168","380047","0.0-33.0","SS1613138226890","pref_question","","50","","","","","<video width ='960' height = '540' style='padding-top:8%' autoplay muted><source src='images/stimuli/wall_pref.mp4' type='video/mp4'></video>","2","middle","45%","8","","","","","","","",""
"","1121.0249999999069","sequential-stimulus-presentation","169","381982","0.0-34.0","SS1613138226890","pref_reveal","","40","800","1921.0249999999069","null","null","","","","","8","","","","novel","","","",""
"","null","html-keyboard-response","170","382970","0.0-35.0-0.0","SS1613138226890","","","null","","","","","<p><img src= images/blank.png width =""200"" height = ""200"" style = ""float:right""></p><p><img src=images/blank.png width =""800"" height = ""200""></p>","","","","","","","","","","","",""
"","1435.3200000000652","sequential-stimulus-presentation","171","385219","0.0-35.0-1.0","SS1613138226890","trial","","40","800","2235.320000000065","images/stimuli/spore_stims/complex_13_A_c.gif","images/stimuli/spore_stims/complex_13_B_c.gif","","","","","9","complex_similar","images/stimuli/spore_stims/complex_13_B_c.gif","left","","","","",""
"","null","html-keyboard-response","172","386454","0.0-35.0-0.1","SS1613138226890","","","null","","","","","<p><img src= images/blank.png width =""200"" height = ""200"" style = ""float:right""></p><p><img src=images/blank.png width =""800"" height = ""200""></p>","","","","","","","","","","","",""
"","1285.9349999998813","sequential-stimulus-presentation","173","388552","0.0-35.0-1.1","SS1613138226890","trial","","40","800","2085.9349999998813","images/stimuli/spore_stims/complex_13_A_c.gif","images/stimuli/spore_stims/complex_13_B_c.gif","","","","","9","complex_similar","images/stimuli/spore_stims/complex_13_B_c.gif","left","","","","",""
"","null","html-keyboard-response","174","389684","0.0-35.0-0.2","SS1613138226890","","","null","","","","","<p><img src= images/blank.png width =""200"" height = ""200"" style = ""float:right""></p><p><img src=images/blank.png width =""800"" height = ""200""></p>","","","","","","","","","","","",""
"","604.0249999998487","sequential-stimulus-presentation","175","391101","0.0-35.0-1.2","SS1613138226890","trial","","40","800","1404.0249999998487","images/stimuli/spore_stims/complex_13_A_c.gif","images/stimuli/spore_stims/complex_13_B_c.gif","","","","","9","complex_similar","images/stimuli/spore_stims/complex_13_B_c.gif","left","","","","",""
"","null","html-keyboard-response","176","392094","0.0-35.0-0.3","SS1613138226890","","","null","","","","","<p><img src= images/blank.png width =""200"" height = ""200"" style = ""float:right""></p><p><img src=images/blank.png width =""800"" height = ""200""></p>","","","","","","","","","","","",""
"","637.1749999998137","sequential-stimulus-presentation","177","393545","0.0-35.0-1.3","SS1613138226890","trial","","40","800","1437.1749999998137","images/stimuli/spore_stims/complex_13_A_c.gif","images/stimuli/spore_stims/complex_13_B_c.gif","","","","","9","complex_similar","images/stimuli/spore_stims/complex_13_B_c.gif","left","","","","",""
"","null","html-keyboard-response","178","394398","0.0-35.0-0.4","SS1613138226890","","","null","","","","","<p><img src= images/blank.png width =""200"" height = ""200"" style = ""float:right""></p><p><img src=images/blank.png width =""800"" height = ""200""></p>","","","","","","","","","","","",""
"","426.70000000001164","sequential-stimulus-presentation","179","395635","0.0-35.0-1.4","SS1613138226890","trial","","40","800","1226.7000000000116","images/stimuli/spore_stims/complex_13_A_c.gif","images/stimuli/spore_stims/complex_13_B_c.gif","","","","","9","complex_similar","images/stimuli/spore_stims/complex_13_B_c.gif","left","","","","",""
"","null","html-keyboard-response","180","396510","0.0-35.0-0.5","SS1613138226890","","","null","","","","","<p><img src= images/blank.png width =""200"" height = ""200"" style = ""float:right""></p><p><img src=images/blank.png width =""800"" height = ""200""></p>","","","","","","","","","","","",""
"","589.609999999986","sequential-stimulus-presentation","181","397922","0.0-35.0-1.5","SS1613138226890","trial","","40","800","1389.609999999986","images/stimuli/spore_stims/complex_13_A_c.gif","images/stimuli/spore_stims/complex_13_B_c.gif","","","","","9","complex_similar","images/stimuli/spore_stims/complex_13_A_c.gif","middle","","","","",""
"","null","html-keyboard-response","182","398845","0.0-35.0-0.6","SS1613138226890","","","null","","","","","<p><img src= images/blank.png width =""200"" height = ""200"" style = ""float:right""></p><p><img src=images/blank.png width =""800"" height = ""200""></p>","","","","","","","","","","","",""
"","513.609999999986","sequential-stimulus-presentation","183","400180","0.0-35.0-1.6","SS1613138226890","trial","","40","800","1313.609999999986","images/stimuli/spore_stims/complex_13_A_c.gif","images/stimuli/spore_stims/complex_13_B_c.gif","","","","","9","complex_similar","images/stimuli/spore_stims/complex_13_B_c.gif","left","","","","",""
"","null","html-keyboard-response","184","401249","0.0-35.0-0.7","SS1613138226890","","","null","","","","","<p><img src= images/blank.png width =""200"" height = ""200"" style = ""float:right""></p><p><img src=images/blank.png width =""800"" height = ""200""></p>","","","","","","","","","","","",""
"","1115.1449999999604","sequential-stimulus-presentation","185","403183","0.0-35.0-1.7","SS1613138226890","trial","","40","800","1915.1449999999604","images/stimuli/spore_stims/complex_13_A_c.gif","images/stimuli/spore_stims/complex_13_B_c.gif","","","","","9","complex_similar","images/stimuli/spore_stims/complex_13_B_c.gif","left","","","","",""
"","3171.280000000028","html-keyboard-response","186","406367","0.0-36.0","SS1613138226890","pref_question","","51","","","","","<video width ='960' height = '540' style='padding-top:8%' autoplay muted><source src='images/stimuli/wall_pref.mp4' type='video/mp4'></video>","3","right","66%","9","","","","","","","",""
"","1439.2550000000047","sequential-stimulus-presentation","187","408627","0.0-37.0","SS1613138226890","pref_reveal","","40","800","2239.2550000000047","null","null","","","","","9","","","","novel","","","",""
"","null","html-keyboard-response","188","409713","0.0-38.0-0.0","SS1613138226890","","","null","","","","","<p><img src= images/blank.png width =""200"" height = ""200"" style = ""float:right""></p><p><img src=images/blank.png width =""800"" height = ""200""></p>","","","","","","","","","","","",""
"","2215.3000000000466","sequential-stimulus-presentation","189","412742","0.0-38.0-1.0","SS1613138226890","trial","","40","800","3015.3000000000466","images/stimuli/spore_stims/simple_20_A_a.gif","images/stimuli/spore_stims/simple_03_B_a.gif","","","","","10","simple_dissimilar","images/stimuli/spore_stims/simple_03_B_a.gif","left","","","","",""
"","null","html-keyboard-response","190","413908","0.0-38.0-0.1","SS1613138226890","","","null","","","","","<p><img src= images/blank.png width =""200"" height = ""200"" style = ""float:right""></p><p><img src=images/blank.png width =""800"" height = ""200""></p>","","","","","","","","","","","",""
"","390.64500000013504","sequential-stimulus-presentation","191","415112","0.0-38.0-1.1","SS1613138226890","trial","","40","800","1190.645000000135","images/stimuli/spore_stims/simple_20_A_a.gif","images/stimuli/spore_stims/simple_03_B_a.gif","","","","","10","simple_dissimilar","images/stimuli/spore_stims/simple_03_B_a.gif","left","","","","",""
"","null","html-keyboard-response","192","416174","0.0-38.0-0.2","SS1613138226890","","","null","","","","","<p><img src= images/blank.png width =""200"" height = ""200"" style = ""float:right""></p><p><img src=images/blank.png width =""800"" height = ""200""></p>","","","","","","","","","","","",""
"","378.714999999851","sequential-stimulus-presentation","193","417368","0.0-38.0-1.2","SS1613138226890","trial","","40","800","1178.714999999851","images/stimuli/spore_stims/simple_20_A_a.gif","images/stimuli/spore_stims/simple_03_B_a.gif","","","","","10","simple_dissimilar","images/stimuli/spore_stims/simple_03_B_a.gif","left","","","","",""
"","null","html-keyboard-response","194","418239","0.0-38.0-0.3","SS1613138226890","","","null","","","","","<p><img src= images/blank.png width =""200"" height = ""200"" style = ""float:right""></p><p><img src=images/blank.png width =""800"" height = ""200""></p>","","","","","","","","","","","",""
"","605.230000000156","sequential-stimulus-presentation","195","419659","0.0-38.0-1.3","SS1613138226890","trial","","40","800","1405.230000000156","images/stimuli/spore_stims/simple_20_A_a.gif","images/stimuli/spore_stims/simple_03_B_a.gif","","","","","10","simple_dissimilar","images/stimuli/spore_stims/simple_03_B_a.gif","left","","","","",""
"","null","html-keyboard-response","196","420618","0.0-38.0-0.4","SS1613138226890","","","null","","","","","<p><img src= images/blank.png width =""200"" height = ""200"" style = ""float:right""></p><p><img src=images/blank.png width =""800"" height = ""200""></p>","","","","","","","","","","","",""
"","396.03000000014435","sequential-stimulus-presentation","197","421825","0.0-38.0-1.4","SS1613138226890","trial","","40","800","1196.0300000001444","images/stimuli/spore_stims/simple_20_A_a.gif","images/stimuli/spore_stims/simple_03_B_a.gif","","","","","10","simple_dissimilar","images/stimuli/spore_stims/simple_20_A_a.gif","right","","","","",""
"","null","html-keyboard-response","198","422828","0.0-38.0-0.5","SS1613138226890","","","null","","","","","<p><img src= images/blank.png width =""200"" height = ""200"" style = ""float:right""></p><p><img src=images/blank.png width =""800"" height = ""200""></p>","","","","","","","","","","","",""
"","411.6449999999604","sequential-stimulus-presentation","199","424051","0.0-38.0-1.5","SS1613138226890","trial","","40","800","1211.6449999999604","images/stimuli/spore_stims/simple_20_A_a.gif","images/stimuli/spore_stims/simple_03_B_a.gif","","","","","10","simple_dissimilar","images/stimuli/spore_stims/simple_03_B_a.gif","left","","","","",""
"","null","html-keyboard-response","200","425333","0.0-38.0-0.6","SS1613138226890","","","null","","","","","<p><img src= images/blank.png width =""200"" height = ""200"" style = ""float:right""></p><p><img src=images/blank.png width =""800"" height = ""200""></p>","","","","","","","","","","","",""
"","264.1149999999325","sequential-stimulus-presentation","201","426409","0.0-38.0-1.6","SS1613138226890","trial","","40","800","1064.1149999999325","images/stimuli/spore_stims/simple_20_A_a.gif","images/stimuli/spore_stims/simple_03_B_a.gif","","","","","10","simple_dissimilar","images/stimuli/spore_stims/simple_03_B_a.gif","left","","","","",""
"","null","html-keyboard-response","202","427238","0.0-38.0-0.7","SS1613138226890","","","null","","","","","<p><img src= images/blank.png width =""200"" height = ""200"" style = ""float:right""></p><p><img src=images/blank.png width =""800"" height = ""200""></p>","","","","","","","","","","","",""
"","317.3049999998184","sequential-stimulus-presentation","203","428372","0.0-38.0-1.7","SS1613138226890","trial","","40","800","1117.3049999998184","images/stimuli/spore_stims/simple_20_A_a.gif","images/stimuli/spore_stims/simple_03_B_a.gif","","","","","10","simple_dissimilar","images/stimuli/spore_stims/simple_03_B_a.gif","left","","","","",""
"","1943.9099999999744","html-keyboard-response","204","430326","0.0-39.0","SS1613138226890","pref_question","","49","","","","","<video width ='960' height = '540' style='padding-top:8%' autoplay muted><source src='images/stimuli/wall_pref.mp4' type='video/mp4'></video>","1","left","25%","10","","","","","","","",""
"","2202.929999999935","sequential-stimulus-presentation","205","433341","0.0-40.0","SS1613138226890","pref_reveal","","40","800","3002.929999999935","null","null","","","","","10","","","","background","","","",""
"","null","html-keyboard-response","206","434438","0.0-41.0-0.0","SS1613138226890","","","null","","","","","<p><img src= images/blank.png width =""200"" height = ""200"" style = ""float:right""></p><p><img src=images/blank.png width =""800"" height = ""200""></p>","","","","","","","","","","","",""
"","1270.9000000000233","sequential-stimulus-presentation","207","436526","0.0-41.0-1.0","SS1613138226890","trial","","40","800","2070.9000000000233","images/stimuli/spore_stims/complex_16_B_d.gif","images/stimuli/spore_stims/complex_16_A_d.gif","","","","","11","complex_similar","images/stimuli/spore_stims/complex_16_A_d.gif","left","","","","",""
"","null","html-keyboard-response","208","437529","0.0-41.0-0.1","SS1613138226890","","","null","","","","","<p><img src= images/blank.png width =""200"" height = ""200"" style = ""float:right""></p><p><img src=images/blank.png width =""800"" height = ""200""></p>","","","","","","","","","","","",""
"","1259.4099999999162","sequential-stimulus-presentation","209","439604","0.0-41.0-1.1","SS1613138226890","trial","","40","800","2059.409999999916","images/stimuli/spore_stims/complex_16_B_d.gif","images/stimuli/spore_stims/complex_16_A_d.gif","","","","","11","complex_similar","images/stimuli/spore_stims/complex_16_A_d.gif","left","","","","",""
"","null","html-keyboard-response","210","440465","0.0-41.0-0.2","SS1613138226890","","","null","","","","","<p><img src= images/blank.png width =""200"" height = ""200"" style = ""float:right""></p><p><img src=images/blank.png width =""800"" height = ""200""></p>","","","","","","","","","","","",""
"","1370.5400000000955","sequential-stimulus-presentation","211","442650","0.0-41.0-1.2","SS1613138226890","trial","","40","800","2170.5400000000955","images/stimuli/spore_stims/complex_16_B_d.gif","images/stimuli/spore_stims/complex_16_A_d.gif","","","","","11","complex_similar","images/stimuli/spore_stims/complex_16_A_d.gif","left","","","","",""
"","null","html-keyboard-response","212","443498","0.0-41.0-0.3","SS1613138226890","","","null","","","","","<p><img src= images/blank.png width =""200"" height = ""200"" style = ""float:right""></p><p><img src=images/blank.png width =""800"" height = ""200""></p>","","","","","","","","","","","",""
"","1980.3250000000116","sequential-stimulus-presentation","213","446295","0.0-41.0-1.3","SS1613138226890","trial","","40","800","2780.3250000000116","images/stimuli/spore_stims/complex_16_B_d.gif","images/stimuli/spore_stims/complex_16_A_d.gif","","","","","11","complex_similar","images/stimuli/spore_stims/complex_16_B_d.gif","right","","","","",""
"","null","html-keyboard-response","214","447318","0.0-41.0-0.4","SS1613138226890","","","null","","","","","<p><img src= images/blank.png width =""200"" height = ""200"" style = ""float:right""></p><p><img src=images/blank.png width =""800"" height = ""200""></p>","","","","","","","","","","","",""
"","3540.109999999928","sequential-stimulus-presentation","215","451671","0.0-41.0-1.4","SS1613138226890","trial","","40","800","4340.109999999928","images/stimuli/spore_stims/complex_16_B_d.gif","images/stimuli/spore_stims/complex_16_A_d.gif","","","","","11","complex_similar","images/stimuli/spore_stims/complex_16_A_d.gif","left","","","","",""
"","null","html-keyboard-response","216","452545","0.0-41.0-0.5","SS1613138226890","","","null","","","","","<p><img src= images/blank.png width =""200"" height = ""200"" style = ""float:right""></p><p><img src=images/blank.png width =""800"" height = ""200""></p>","","","","","","","","","","","",""
"","1827.1500000000815","sequential-stimulus-presentation","217","455194","0.0-41.0-1.5","SS1613138226890","trial","","40","800","2627.1500000000815","images/stimuli/spore_stims/complex_16_B_d.gif","images/stimuli/spore_stims/complex_16_A_d.gif","","","","","11","complex_similar","images/stimuli/spore_stims/complex_16_A_d.gif","left","","","","",""
"","null","html-keyboard-response","218","456088","0.0-41.0-0.6","SS1613138226890","","","null","","","","","<p><img src= images/blank.png width =""200"" height = ""200"" style = ""float:right""></p><p><img src=images/blank.png width =""800"" height = ""200""></p>","","","","","","","","","","","",""
"","443.1950000000652","sequential-stimulus-presentation","219","457351","0.0-41.0-1.6","SS1613138226890","trial","","40","800","1243.1950000000652","images/stimuli/spore_stims/complex_16_B_d.gif","images/stimuli/spore_stims/complex_16_A_d.gif","","","","","11","complex_similar","images/stimuli/spore_stims/complex_16_A_d.gif","left","","","","",""
"","null","html-keyboard-response","220","458593","0.0-41.0-0.7","SS1613138226890","","","null","","","","","<p><img src= images/blank.png width =""200"" height = ""200"" style = ""float:right""></p><p><img src=images/blank.png width =""800"" height = ""200""></p>","","","","","","","","","","","",""
"","410.70000000012806","sequential-stimulus-presentation","221","459817","0.0-41.0-1.7","SS1613138226890","trial","","40","800","1210.700000000128","images/stimuli/spore_stims/complex_16_B_d.gif","images/stimuli/spore_stims/complex_16_A_d.gif","","","","","11","complex_similar","images/stimuli/spore_stims/complex_16_A_d.gif","left","","","","",""
"","1385.7799999998533","html-keyboard-response","222","461215","0.0-42.0","SS1613138226890","pref_question","","51","","","","","<video width ='960' height = '540' style='padding-top:8%' autoplay muted><source src='images/stimuli/wall_pref.mp4' type='video/mp4'></video>","3","right","66%","11","","","","","","","",""
"","433.42499999993015","sequential-stimulus-presentation","223","462472","0.0-43.0","SS1613138226890","pref_reveal","","40","800","1233.4249999999302","null","null","","","","","11","","","","deviant","","","",""
"","null","html-keyboard-response","224","463398","0.0-44.0-0.0","SS1613138226890","","","null","","","","","<p><img src= images/blank.png width =""200"" height = ""200"" style = ""float:right""></p><p><img src=images/blank.png width =""800"" height = ""200""></p>","","","","","","","","","","","",""
"","988.8900000000722","sequential-stimulus-presentation","225","465205","0.0-44.0-1.0","SS1613138226890","trial","","40","800","1788.8900000000722","images/stimuli/spore_stims/complex_12_B_d.gif","images/stimuli/spore_stims/complex_09_A_b.gif","","","","","12","complex_dissimilar","images/stimuli/spore_stims/complex_09_A_b.gif","middle","","","","",""
"","null","html-keyboard-response","226","466058","0.0-44.0-0.1","SS1613138226890","","","null","","","","","<p><img src= images/blank.png width =""200"" height = ""200"" style = ""float:right""></p><p><img src=images/blank.png width =""800"" height = ""200""></p>","","","","","","","","","","","",""
"","845.5300000000861","sequential-stimulus-presentation","227","467719","0.0-44.0-1.1","SS1613138226890","trial","","40","800","1645.5300000000861","images/stimuli/spore_stims/complex_12_B_d.gif","images/stimuli/spore_stims/complex_09_A_b.gif","","","","","12","complex_dissimilar","images/stimuli/spore_stims/complex_09_A_b.gif","middle","","","","",""
"","null","html-keyboard-response","228","468878","0.0-44.0-0.2","SS1613138226890","","","null","","","","","<p><img src= images/blank.png width =""200"" height = ""200"" style = ""float:right""></p><p><img src=images/blank.png width =""800"" height = ""200""></p>","","","","","","","","","","","",""
"","870.8349999999627","sequential-stimulus-presentation","229","470583","0.0-44.0-1.2","SS1613138226890","trial","","40","800","1670.8349999999627","images/stimuli/spore_stims/complex_12_B_d.gif","images/stimuli/spore_stims/complex_09_A_b.gif","","","","","12","complex_dissimilar","images/stimuli/spore_stims/complex_09_A_b.gif","middle","","","","",""
"","null","html-keyboard-response","230","471658","0.0-44.0-0.3","SS1613138226890","","","null","","","","","<p><img src= images/blank.png width =""200"" height = ""200"" style = ""float:right""></p><p><img src=images/blank.png width =""800"" height = ""200""></p>","","","","","","","","","","","",""
"","597.125","sequential-stimulus-presentation","231","473071","0.0-44.0-1.3","SS1613138226890","trial","","40","800","1397.125","images/stimuli/spore_stims/complex_12_B_d.gif","images/stimuli/spore_stims/complex_09_A_b.gif","","","","","12","complex_dissimilar","images/stimuli/spore_stims/complex_09_A_b.gif","middle","","","","",""
"","null","html-keyboard-response","232","474296","0.0-44.0-0.4","SS1613138226890","","","null","","","","","<p><img src= images/blank.png width =""200"" height = ""200"" style = ""float:right""></p><p><img src=images/blank.png width =""800"" height = ""200""></p>","","","","","","","","","","","",""
"","491.0700000000652","sequential-stimulus-presentation","233","475600","0.0-44.0-1.4","SS1613138226890","trial","","40","800","1291.0700000000652","images/stimuli/spore_stims/complex_12_B_d.gif","images/stimuli/spore_stims/complex_09_A_b.gif","","","","","12","complex_dissimilar","images/stimuli/spore_stims/complex_09_A_b.gif","middle","","","","",""
"","null","html-keyboard-response","234","476539","0.0-44.0-0.5","SS1613138226890","","","null","","","","","<p><img src= images/blank.png width =""200"" height = ""200"" style = ""float:right""></p><p><img src=images/blank.png width =""800"" height = ""200""></p>","","","","","","","","","","","",""
"","649.8649999998743","sequential-stimulus-presentation","235","478006","0.0-44.0-1.5","SS1613138226890","trial","","40","800","1449.8649999998743","images/stimuli/spore_stims/complex_12_B_d.gif","images/stimuli/spore_stims/complex_09_A_b.gif","","","","","12","complex_dissimilar","images/stimuli/spore_stims/complex_09_A_b.gif","middle","","","","",""
"","null","html-keyboard-response","236","479028","0.0-44.0-0.6","SS1613138226890","","","null","","","","","<p><img src= images/blank.png width =""200"" height = ""200"" style = ""float:right""></p><p><img src=images/blank.png width =""800"" height = ""200""></p>","","","","","","","","","","","",""
"","1026.9450000000652","sequential-stimulus-presentation","237","480868","0.0-44.0-1.6","SS1613138226890","trial","","40","800","1826.9450000000652","images/stimuli/spore_stims/complex_12_B_d.gif","images/stimuli/spore_stims/complex_09_A_b.gif","","","","","12","complex_dissimilar","images/stimuli/spore_stims/complex_09_A_b.gif","middle","","","","",""
"","null","html-keyboard-response","238","481818","0.0-44.0-0.7","SS1613138226890","","","null","","","","","<p><img src= images/blank.png width =""200"" height = ""200"" style = ""float:right""></p><p><img src=images/blank.png width =""800"" height = ""200""></p>","","","","","","","","","","","",""
"","733.8549999999814","sequential-stimulus-presentation","239","483366","0.0-44.0-1.7","SS1613138226890","trial","","40","800","1533.8549999999814","images/stimuli/spore_stims/complex_12_B_d.gif","images/stimuli/spore_stims/complex_09_A_b.gif","","","","","12","complex_dissimilar","images/stimuli/spore_stims/complex_12_B_d.gif","left","","","","",""
"","1940.9199999999837","html-keyboard-response","240","485324","0.0-45.0","SS1613138226890","pref_question","","51","","","","","<video width ='960' height = '540' style='padding-top:8%' autoplay muted><source src='images/stimuli/wall_pref.mp4' type='video/mp4'></video>","3","right","66%","12","","","","","","","",""
"","491.0900000000256","sequential-stimulus-presentation","241","486638","0.0-46.0","SS1613138226890","pref_reveal","","40","800","1291.0900000000256","null","null","","","","","12","","","","novel","","","",""
"","null","html-keyboard-response","242","487737","0.0-47.0-0.0","SS1613138226890","","","null","","","","","<p><img src= images/blank.png width =""200"" height = ""200"" style = ""float:right""></p><p><img src=images/blank.png width =""800"" height = ""200""></p>","","","","","","","","","","","",""
"","739.4549999998999","sequential-stimulus-presentation","243","489295","0.0-47.0-1.0","SS1613138226890","trial","","40","800","1539.4549999998999","images/stimuli/spore_stims/simple_08_B_b.gif","images/stimuli/spore_stims/simple_08_A_b.gif","","","","","13","simple_similar","images/stimuli/spore_stims/simple_08_A_b.gif","middle","","","","",""
"","null","html-keyboard-response","244","490157","0.0-47.0-0.1","SS1613138226890","","","null","","","","","<p><img src= images/blank.png width =""200"" height = ""200"" style = ""float:right""></p><p><img src=images/blank.png width =""800"" height = ""200""></p>","","","","","","","","","","","",""
"","484.05500000016764","sequential-stimulus-presentation","245","491453","0.0-47.0-1.1","SS1613138226890","trial","","40","800","1284.0550000001676","images/stimuli/spore_stims/simple_08_B_b.gif","images/stimuli/spore_stims/simple_08_A_b.gif","","","","","13","simple_similar","images/stimuli/spore_stims/simple_08_A_b.gif","middle","","","","",""
"","null","html-keyboard-response","246","492417","0.0-47.0-0.2","SS1613138226890","","","null","","","","","<p><img src= images/blank.png width =""200"" height = ""200"" style = ""float:right""></p><p><img src=images/blank.png width =""800"" height = ""200""></p>","","","","","","","","","","","",""
"","694.6150000001071","sequential-stimulus-presentation","247","493944","0.0-47.0-1.2","SS1613138226890","trial","","40","800","1494.615000000107","images/stimuli/spore_stims/simple_08_B_b.gif","images/stimuli/spore_stims/simple_08_A_b.gif","","","","","13","simple_similar","images/stimuli/spore_stims/simple_08_A_b.gif","middle","","","","",""
"","null","html-keyboard-response","248","494827","0.0-47.0-0.3","SS1613138226890","","","null","","","","","<p><img src= images/blank.png width =""200"" height = ""200"" style = ""float:right""></p><p><img src=images/blank.png width =""800"" height = ""200""></p>","","","","","","","","","","","",""
"","396.71999999997206","sequential-stimulus-presentation","249","496037","0.0-47.0-1.3","SS1613138226890","trial","","40","800","1196.719999999972","images/stimuli/spore_stims/simple_08_B_b.gif","images/stimuli/spore_stims/simple_08_A_b.gif","","","","","13","simple_similar","images/stimuli/spore_stims/simple_08_A_b.gif","middle","","","","",""
"","null","html-keyboard-response","250","496937","0.0-47.0-0.4","SS1613138226890","","","null","","","","","<p><img src= images/blank.png width =""200"" height = ""200"" style = ""float:right""></p><p><img src=images/blank.png width =""800"" height = ""200""></p>","","","","","","","","","","","",""
"","567.0500000001048","sequential-stimulus-presentation","251","498319","0.0-47.0-1.4","SS1613138226890","trial","","40","800","1367.0500000001048","images/stimuli/spore_stims/simple_08_B_b.gif","images/stimuli/spore_stims/simple_08_A_b.gif","","","","","13","simple_similar","images/stimuli/spore_stims/simple_08_A_b.gif","middle","","","","",""
"","null","html-keyboard-response","252","499219","0.0-47.0-0.5","SS1613138226890","","","null","","","","","<p><img src= images/blank.png width =""200"" height = ""200"" style = ""float:right""></p><p><img src=images/blank.png width =""800"" height = ""200""></p>","","","","","","","","","","","",""
"","1648.024999999965","sequential-stimulus-presentation","253","501685","0.0-47.0-1.5","SS1613138226890","trial","","40","800","2448.024999999965","images/stimuli/spore_stims/simple_08_B_b.gif","images/stimuli/spore_stims/simple_08_A_b.gif","","","","","13","simple_similar","images/stimuli/spore_stims/simple_08_A_b.gif","middle","","","","",""
"","null","html-keyboard-response","254","502747","0.0-47.0-0.6","SS1613138226890","","","null","","","","","<p><img src= images/blank.png width =""200"" height = ""200"" style = ""float:right""></p><p><img src=images/blank.png width =""800"" height = ""200""></p>","","","","","","","","","","","",""
"","391.69000000017695","sequential-stimulus-presentation","255","503955","0.0-47.0-1.6","SS1613138226890","trial","","40","800","1191.690000000177","images/stimuli/spore_stims/simple_08_B_b.gif","images/stimuli/spore_stims/simple_08_A_b.gif","","","","","13","simple_similar","images/stimuli/spore_stims/simple_08_A_b.gif","middle","","","","",""
"","null","html-keyboard-response","256","504998","0.0-47.0-0.7","SS1613138226890","","","null","","","","","<p><img src= images/blank.png width =""200"" height = ""200"" style = ""float:right""></p><p><img src=images/blank.png width =""800"" height = ""200""></p>","","","","","","","","","","","",""
"","935.4799999999232","sequential-stimulus-presentation","257","506749","0.0-47.0-1.7","SS1613138226890","trial","","40","800","1735.4799999999232","images/stimuli/spore_stims/simple_08_B_b.gif","images/stimuli/spore_stims/simple_08_A_b.gif","","","","","13","simple_similar","images/stimuli/spore_stims/simple_08_B_b.gif","left","","","","",""
"","1999.3200000001234","html-keyboard-response","258","508761","0.0-48.0","SS1613138226890","pref_question","","49","","","","","<video width ='960' height = '540' style='padding-top:8%' autoplay muted><source src='images/stimuli/wall_pref.mp4' type='video/mp4'></video>","1","left","25%","13","","","","","","","",""
"","1027.934999999823","sequential-stimulus-presentation","259","510602","0.0-49.0","SS1613138226890","pref_reveal","","40","800","1827.934999999823","null","null","","","","","13","","","","deviant","","","",""
"","null","html-keyboard-response","260","511868","0.0-50.0-0.0","SS1613138226890","","","null","","","","","<p><img src= images/blank.png width =""200"" height = ""200"" style = ""float:right""></p><p><img src=images/blank.png width =""800"" height = ""200""></p>","","","","","","","","","","","",""
"","654.2149999999674","sequential-stimulus-presentation","261","513342","0.0-50.0-1.0","SS1613138226890","trial","","40","800","1454.2149999999674","images/stimuli/spore_stims/simple_08_B_a.gif","images/stimuli/spore_stims/simple_05_A_b.gif","","","","","14","simple_dissimilar","images/stimuli/spore_stims/simple_05_A_b.gif","middle","","","","",""
"","null","html-keyboard-response","262","514368","0.0-50.0-0.1","SS1613138226890","","","null","","","","","<p><img src= images/blank.png width =""200"" height = ""200"" style = ""float:right""></p><p><img src=images/blank.png width =""800"" height = ""200""></p>","","","","","","","","","","","",""
"","710.9700000000885","sequential-stimulus-presentation","263","515899","0.0-50.0-1.1","SS1613138226890","trial","","40","800","1510.9700000000885","images/stimuli/spore_stims/simple_08_B_a.gif","images/stimuli/spore_stims/simple_05_A_b.gif","","","","","14","simple_dissimilar","images/stimuli/spore_stims/simple_05_A_b.gif","middle","","","","",""
"","null","html-keyboard-response","264","516798","0.0-50.0-0.2","SS1613138226890","","","null","","","","","<p><img src= images/blank.png width =""200"" height = ""200"" style = ""float:right""></p><p><img src=images/blank.png width =""800"" height = ""200""></p>","","","","","","","","","","","",""
"","446.38999999978114","sequential-stimulus-presentation","265","518062","0.0-50.0-1.2","SS1613138226890","trial","","40","800","1246.3899999997811","images/stimuli/spore_stims/simple_08_B_a.gif","images/stimuli/spore_stims/simple_05_A_b.gif","","","","","14","simple_dissimilar","images/stimuli/spore_stims/simple_05_A_b.gif","middle","","","","",""
"","null","html-keyboard-response","266","519284","0.0-50.0-0.3","SS1613138226890","","","null","","","","","<p><img src= images/blank.png width =""200"" height = ""200"" style = ""float:right""></p><p><img src=images/blank.png width =""800"" height = ""200""></p>","","","","","","","","","","","",""
"","379.679999999702","sequential-stimulus-presentation","267","520483","0.0-50.0-1.3","SS1613138226890","trial","","40","800","1179.679999999702","images/stimuli/spore_stims/simple_08_B_a.gif","images/stimuli/spore_stims/simple_05_A_b.gif","","","","","14","simple_dissimilar","images/stimuli/spore_stims/simple_05_A_b.gif","middle","","","","",""
"","null","html-keyboard-response","268","521362","0.0-50.0-0.4","SS1613138226890","","","null","","","","","<p><img src= images/blank.png width =""200"" height = ""200"" style = ""float:right""></p><p><img src=images/blank.png width =""800"" height = ""200""></p>","","","","","","","","","","","",""
"","427.8100000000559","sequential-stimulus-presentation","269","522606","0.0-50.0-1.4","SS1613138226890","trial","","40","800","1227.8100000000559","images/stimuli/spore_stims/simple_08_B_a.gif","images/stimuli/spore_stims/simple_05_A_b.gif","","","","","14","simple_dissimilar","images/stimuli/spore_stims/simple_05_A_b.gif","middle","","","","",""
"","null","html-keyboard-response","270","523887","0.0-50.0-0.5","SS1613138226890","","","null","","","","","<p><img src= images/blank.png width =""200"" height = ""200"" style = ""float:right""></p><p><img src=images/blank.png width =""800"" height = ""200""></p>","","","","","","","","","","","",""
"","274.1800000000512","sequential-stimulus-presentation","271","524978","0.0-50.0-1.5","SS1613138226890","trial","","40","800","1074.1800000000512","images/stimuli/spore_stims/simple_08_B_a.gif","images/stimuli/spore_stims/simple_05_A_b.gif","","","","","14","simple_dissimilar","images/stimuli/spore_stims/simple_05_A_b.gif","middle","","","","",""
"","null","html-keyboard-response","272","525937","0.0-50.0-0.6","SS1613138226890","","","null","","","","","<p><img src= images/blank.png width =""200"" height = ""200"" style = ""float:right""></p><p><img src=images/blank.png width =""800"" height = ""200""></p>","","","","","","","","","","","",""
"","315.14500000013504","sequential-stimulus-presentation","273","527062","0.0-50.0-1.6","SS1613138226890","trial","","40","800","1115.145000000135","images/stimuli/spore_stims/simple_08_B_a.gif","images/stimuli/spore_stims/simple_05_A_b.gif","","","","","14","simple_dissimilar","images/stimuli/spore_stims/simple_05_A_b.gif","middle","","","","",""
"","null","html-keyboard-response","274","528028","0.0-50.0-0.7","SS1613138226890","","","null","","","","","<p><img src= images/blank.png width =""200"" height = ""200"" style = ""float:right""></p><p><img src=images/blank.png width =""800"" height = ""200""></p>","","","","","","","","","","","",""
"","595.1649999999208","sequential-stimulus-presentation","275","529452","0.0-50.0-1.7","SS1613138226890","trial","","40","800","1395.1649999999208","images/stimuli/spore_stims/simple_08_B_a.gif","images/stimuli/spore_stims/simple_05_A_b.gif","","","","","14","simple_dissimilar","images/stimuli/spore_stims/simple_08_B_a.gif","right","","","","",""
"","1558.1549999999115","html-keyboard-response","276","531020","0.0-51.0","SS1613138226890","pref_question","","49","","","","","<video width ='960' height = '540' style='padding-top:8%' autoplay muted><source src='images/stimuli/wall_pref.mp4' type='video/mp4'></video>","1","left","25%","14","","","","","","","",""
"","524.6949999998324","sequential-stimulus-presentation","277","532365","0.0-52.0","SS1613138226890","pref_reveal","","40","800","1324.6949999998324","null","null","","","","","14","","","","novel","","","",""
"","null","html-keyboard-response","278","533498","0.0-53.0-0.0","SS1613138226890","","","null","","","","","<p><img src= images/blank.png width =""200"" height = ""200"" style = ""float:right""></p><p><img src=images/blank.png width =""800"" height = ""200""></p>","","","","","","","","","","","",""
"","523.1150000001071","sequential-stimulus-presentation","279","534836","0.0-53.0-1.0","SS1613138226890","trial","","40","800","1323.115000000107","images/stimuli/spore_stims/simple_09_A_c.gif","images/stimuli/spore_stims/simple_07_B_c.gif","","","","","15","simple_dissimilar","images/stimuli/spore_stims/simple_07_B_c.gif","left","","","","",""
"","null","html-keyboard-response","280","535728","0.0-53.0-0.1","SS1613138226890","","","null","","","","","<p><img src= images/blank.png width =""200"" height = ""200"" style = ""float:right""></p><p><img src=images/blank.png width =""800"" height = ""200""></p>","","","","","","","","","","","",""
"","469.86999999999534","sequential-stimulus-presentation","281","537014","0.0-53.0-1.1","SS1613138226890","trial","","40","800","1269.8699999999953","images/stimuli/spore_stims/simple_09_A_c.gif","images/stimuli/spore_stims/simple_07_B_c.gif","","","","","15","simple_dissimilar","images/stimuli/spore_stims/simple_07_B_c.gif","left","","","","",""
"","null","html-keyboard-response","282","538083","0.0-53.0-0.2","SS1613138226890","","","null","","","","","<p><img src= images/blank.png width =""200"" height = ""200"" style = ""float:right""></p><p><img src=images/blank.png width =""800"" height = ""200""></p>","","","","","","","","","","","",""
"","570.5899999999674","sequential-stimulus-presentation","283","539474","0.0-53.0-1.2","SS1613138226890","trial","","40","800","1370.5899999999674","images/stimuli/spore_stims/simple_09_A_c.gif","images/stimuli/spore_stims/simple_07_B_c.gif","","","","","15","simple_dissimilar","images/stimuli/spore_stims/simple_07_B_c.gif","left","","","","",""
"","null","html-keyboard-response","284","540607","0.0-53.0-0.3","SS1613138226890","","","null","","","","","<p><img src= images/blank.png width =""200"" height = ""200"" style = ""float:right""></p><p><img src=images/blank.png width =""800"" height = ""200""></p>","","","","","","","","","","","",""
"","331.8299999998417","sequential-stimulus-presentation","285","541748","0.0-53.0-1.3","SS1613138226890","trial","","40","800","1131.8299999998417","images/stimuli/spore_stims/simple_09_A_c.gif","images/stimuli/spore_stims/simple_07_B_c.gif","","","","","15","simple_dissimilar","images/stimuli/spore_stims/simple_07_B_c.gif","left","","","","",""
"","null","html-keyboard-response","286","542978","0.0-53.0-0.4","SS1613138226890","","","null","","","","","<p><img src= images/blank.png width =""200"" height = ""200"" style = ""float:right""></p><p><img src=images/blank.png width =""800"" height = ""200""></p>","","","","","","","","","","","",""
"","293.53999999992084","sequential-stimulus-presentation","287","544088","0.0-53.0-1.4","SS1613138226890","trial","","40","800","1093.5399999999208","images/stimuli/spore_stims/simple_09_A_c.gif","images/stimuli/spore_stims/simple_07_B_c.gif","","","","","15","simple_dissimilar","images/stimuli/spore_stims/simple_07_B_c.gif","left","","","","",""
"","null","html-keyboard-response","288","544978","0.0-53.0-0.5","SS1613138226890","","","null","","","","","<p><img src= images/blank.png width =""200"" height = ""200"" style = ""float:right""></p><p><img src=images/blank.png width =""800"" height = ""200""></p>","","","","","","","","","","","",""
"","346.0250000000233","sequential-stimulus-presentation","289","546139","0.0-53.0-1.5","SS1613138226890","trial","","40","800","1146.0250000000233","images/stimuli/spore_stims/simple_09_A_c.gif","images/stimuli/spore_stims/simple_07_B_c.gif","","","","","15","simple_dissimilar","images/stimuli/spore_stims/simple_07_B_c.gif","left","","","","",""
"","null","html-keyboard-response","290","547268","0.0-53.0-0.6","SS1613138226890","","","null","","","","","<p><img src= images/blank.png width =""200"" height = ""200"" style = ""float:right""></p><p><img src=images/blank.png width =""800"" height = ""200""></p>","","","","","","","","","","","",""
"","362.8050000000512","sequential-stimulus-presentation","291","548447","0.0-53.0-1.6","SS1613138226890","trial","","40","800","1162.8050000000512","images/stimuli/spore_stims/simple_09_A_c.gif","images/stimuli/spore_stims/simple_07_B_c.gif","","","","","15","simple_dissimilar","images/stimuli/spore_stims/simple_07_B_c.gif","left","","","","",""
"","null","html-keyboard-response","292","549322","0.0-53.0-0.7","SS1613138226890","","","null","","","","","<p><img src= images/blank.png width =""200"" height = ""200"" style = ""float:right""></p><p><img src=images/blank.png width =""800"" height = ""200""></p>","","","","","","","","","","","",""
"","512.5250000000233","sequential-stimulus-presentation","293","550651","0.0-53.0-1.7","SS1613138226890","trial","","40","800","1312.5250000000233","images/stimuli/spore_stims/simple_09_A_c.gif","images/stimuli/spore_stims/simple_07_B_c.gif","","","","","15","simple_dissimilar","images/stimuli/spore_stims/simple_09_A_c.gif","middle","","","","",""
"","1813.5050000000047","html-keyboard-response","294","552474","0.0-54.0","SS1613138226890","pref_question","","51","","","","","<video width ='960' height = '540' style='padding-top:8%' autoplay muted><source src='images/stimuli/wall_pref.mp4' type='video/mp4'></video>","3","right","66%","15","","","","","","","",""
"","395.1449999999022","sequential-stimulus-presentation","295","553689","0.0-55.0","SS1613138226890","pref_reveal","","40","800","1195.1449999999022","null","null","","","","","15","","","","novel","","","",""
"","null","html-keyboard-response","296","554999","0.0-56.0-0.0","SS1613138226890","","","null","","","","","<p><img src= images/blank.png width =""200"" height = ""200"" style = ""float:right""></p><p><img src=images/blank.png width =""800"" height = ""200""></p>","","","","","","","","","","","",""
"","1052.4950000001118","sequential-stimulus-presentation","297","556869","0.0-56.0-1.0","SS1613138226890","trial","","40","800","1852.4950000001118","images/stimuli/spore_stims/complex_08_A_a.gif","images/stimuli/spore_stims/complex_17_B_c.gif","","","","","16","complex_dissimilar","images/stimuli/spore_stims/complex_17_B_c.gif","middle","","","","",""
"","null","html-keyboard-response","298","557949","0.0-56.0-0.1","SS1613138226890","","","null","","","","","<p><img src= images/blank.png width =""200"" height = ""200"" style = ""float:right""></p><p><img src=images/blank.png width =""800"" height = ""200""></p>","","","","","","","","","","","",""
"","568.6500000002561","sequential-stimulus-presentation","299","559335","0.0-56.0-1.1","SS1613138226890","trial","","40","800","1368.6500000002561","images/stimuli/spore_stims/complex_08_A_a.gif","images/stimuli/spore_stims/complex_17_B_c.gif","","","","","16","complex_dissimilar","images/stimuli/spore_stims/complex_17_B_c.gif","middle","","","","",""
"","null","html-keyboard-response","300","560367","0.0-56.0-0.2","SS1613138226890","","","null","","","","","<p><img src= images/blank.png width =""200"" height = ""200"" style = ""float:right""></p><p><img src=images/blank.png width =""800"" height = ""200""></p>","","","","","","","","","","","",""
"","506.2499999998836","sequential-stimulus-presentation","301","561692","0.0-56.0-1.2","SS1613138226890","trial","","40","800","1306.2499999998836","images/stimuli/spore_stims/complex_08_A_a.gif","images/stimuli/spore_stims/complex_17_B_c.gif","","","","","16","complex_dissimilar","images/stimuli/spore_stims/complex_17_B_c.gif","middle","","","","",""
"","null","html-keyboard-response","302","562733","0.0-56.0-0.3","SS1613138226890","","","null","","","","","<p><img src= images/blank.png width =""200"" height = ""200"" style = ""float:right""></p><p><img src=images/blank.png width =""800"" height = ""200""></p>","","","","","","","","","","","",""
"","379.25500000000466","sequential-stimulus-presentation","303","563934","0.0-56.0-1.3","SS1613138226890","trial","","40","800","1179.2550000000047","images/stimuli/spore_stims/complex_08_A_a.gif","images/stimuli/spore_stims/complex_17_B_c.gif","","","","","16","complex_dissimilar","images/stimuli/spore_stims/complex_17_B_c.gif","middle","","","","",""
"","null","html-keyboard-response","304","565184","0.0-56.0-0.4","SS1613138226890","","","null","","","","","<p><img src= images/blank.png width =""200"" height = ""200"" style = ""float:right""></p><p><img src=images/blank.png width =""800"" height = ""200""></p>","","","","","","","","","","","",""
"","16.369999999995343","sequential-stimulus-presentation","305","566021","0.0-56.0-1.4","SS1613138226890","trial","","40","800","816.3699999999953","images/stimuli/spore_stims/complex_08_A_a.gif","images/stimuli/spore_stims/complex_17_B_c.gif","","","","","16","complex_dissimilar","images/stimuli/spore_stims/complex_17_B_c.gif","middle","","","","",""
"","null","html-keyboard-response","306","567079","0.0-56.0-0.5","SS1613138226890","","","null","","","","","<p><img src= images/blank.png width =""200"" height = ""200"" style = ""float:right""></p><p><img src=images/blank.png width =""800"" height = ""200""></p>","","","","","","","","","","","",""
"","609.4000000000233","sequential-stimulus-presentation","307","568522","0.0-56.0-1.5","SS1613138226890","trial","","40","800","1409.4000000000233","images/stimuli/spore_stims/complex_08_A_a.gif","images/stimuli/spore_stims/complex_17_B_c.gif","","","","","16","complex_dissimilar","images/stimuli/spore_stims/complex_17_B_c.gif","middle","","","","",""
"","null","html-keyboard-response","308","569776","0.0-56.0-0.6","SS1613138226890","","","null","","","","","<p><img src= images/blank.png width =""200"" height = ""200"" style = ""float:right""></p><p><img src=images/blank.png width =""800"" height = ""200""></p>","","","","","","","","","","","",""
"","755.9050000000279","sequential-stimulus-presentation","309","571355","0.0-56.0-1.6","SS1613138226890","trial","","40","800","1555.905000000028","images/stimuli/spore_stims/complex_08_A_a.gif","images/stimuli/spore_stims/complex_17_B_c.gif","","","","","16","complex_dissimilar","images/stimuli/spore_stims/complex_08_A_a.gif","right","","","","",""
"","null","html-keyboard-response","310","572204","0.0-56.0-0.7","SS1613138226890","","","null","","","","","<p><img src= images/blank.png width =""200"" height = ""200"" style = ""float:right""></p><p><img src=images/blank.png width =""800"" height = ""200""></p>","","","","","","","","","","","",""
"","852.3600000001024","sequential-stimulus-presentation","311","573880","0.0-56.0-1.7","SS1613138226890","trial","","40","800","1652.3600000001024","images/stimuli/spore_stims/complex_08_A_a.gif","images/stimuli/spore_stims/complex_17_B_c.gif","","","","","16","complex_dissimilar","images/stimuli/spore_stims/complex_17_B_c.gif","middle","","","","",""
"","1280.0999999998603","html-keyboard-response","312","575175","0.0-57.0","SS1613138226890","pref_question","","49","","","","","<video width ='960' height = '540' style='padding-top:8%' autoplay muted><source src='images/stimuli/wall_pref.mp4' type='video/mp4'></video>","1","left","25%","16","","","","","","","",""
