"view_history","rt","trial_type","trial_index","time_elapsed","internal_node_id","subject","stimulus_type","trial_stimulus","key_press","minimum_viewing_duration","trial_looking_time","block_deviant","block_background","stimulus","wall_pref","location","location_percent","block_number","block_type","stimulus_displayed","position_displayed","stim_type_selected","responses","question_order","stimulus_left","stimulus_right"
"[{""page_index"":0,""viewing_time"":3824.5800000149757}]","3827.045000041835","instructions","0","3831","0.0-0.0","SS1613138251747","","","","","","","","","","","","","","","","","","","",""
"[{""page_index"":0,""viewing_time"":2600.06499994779},{""page_index"":1,""viewing_time"":18115.560000005644}]","20716.589999967255","instructions","1","26556","0.0-1.0","SS1613138251747","instructions","","","","","","","","","","","","","","","","","","",""
"","6070.584999979474","sequential-stimulus-presentation","2","33456","0.0-2.0","SS1613138251747","","","40","800","6870.584999979474","null","null","","","","","","","","","","","","",""
"","1496.9149999669753","sequential-stimulus-presentation","3","35774","0.0-3.0","SS1613138251747","","","40","800","2296.9149999669753","null","null","","","","","","","","","","","","",""
"[{""page_index"":0,""viewing_time"":3460.3599999682046}]","3461.9049999746494","instructions","4","39241","0.0-4.0","SS1613138251747","instructions","","","","","","","","","","","","","","","","","","",""
"","10959.284999989904","html-keyboard-response","5","50213","0.0-5.0","SS1613138251747","instructions","","50","","","","","<video width ='960' height = '540' autoplay muted><source src='images/stimuli/wall_pref.mp4' type='video/mp4'></video>","2","middle","45%","","","","","","","","",""
"","2319.344999967143","sequential-stimulus-presentation","6","53375","0.0-6.0","SS1613138251747","pref_reveal","","40","800","3119.344999967143","null","null","","","","","","","","","","","","",""
"[{""page_index"":0,""viewing_time"":2531.69999999227},{""page_index"":1,""viewing_time"":1394.5199999725446},{""page_index"":2,""viewing_time"":1745.1449999934994},{""page_index"":3,""viewing_time"":1889.835000038147}]","7562.734999984968","instructions","7","60943","0.0-7.0","SS1613138251747","instructions","","","","","","","","","","","","","","","","","","",""
"","null","html-keyboard-response","8","61951","0.0-8.0-0.0","SS1613138251747","","","null","","","","","<p><img src= images/blank.png width =""200"" height = ""200"" style = ""float:right""></p><p><img src=images/blank.png width =""800"" height = ""200""></p>","","","","","","","","","","","",""
"","1528.0449999845587","sequential-stimulus-presentation","9","64342","0.0-8.0-1.0","SS1613138251747","trial","","40","800","2328.0449999845587","images/stimuli/spore_stims/simple_02_A_a.gif","images/stimuli/spore_stims/simple_09_B_c.gif","","","","","0","simple_dissimilar","images/stimuli/spore_stims/simple_09_B_c.gif","middle","","","","",""
"","null","html-keyboard-response","10","65427","0.0-8.0-0.1","SS1613138251747","","","null","","","","","<p><img src= images/blank.png width =""200"" height = ""200"" style = ""float:right""></p><p><img src=images/blank.png width =""800"" height = ""200""></p>","","","","","","","","","","","",""
"","4614.240000024438","sequential-stimulus-presentation","11","70909","0.0-8.0-1.1","SS1613138251747","trial","","40","800","5414.240000024438","images/stimuli/spore_stims/simple_02_A_a.gif","images/stimuli/spore_stims/simple_09_B_c.gif","","","","","0","simple_dissimilar","images/stimuli/spore_stims/simple_09_B_c.gif","middle","","","","",""
"","null","html-keyboard-response","12","71867","0.0-8.0-0.2","SS1613138251747","","","null","","","","","<p><img src= images/blank.png width =""200"" height = ""200"" style = ""float:right""></p><p><img src=images/blank.png width =""800"" height = ""200""></p>","","","","","","","","","","","",""
"","698.3599999803118","sequential-stimulus-presentation","13","73463","0.0-8.0-1.2","SS1613138251747","trial","","40","800","1498.3599999803118","images/stimuli/spore_stims/simple_02_A_a.gif","images/stimuli/spore_stims/simple_09_B_c.gif","","","","","0","simple_dissimilar","images/stimuli/spore_stims/simple_09_B_c.gif","middle","","","","",""
"","null","html-keyboard-response","14","74656","0.0-8.0-0.3","SS1613138251747","","","null","","","","","<p><img src= images/blank.png width =""200"" height = ""200"" style = ""float:right""></p><p><img src=images/blank.png width =""800"" height = ""200""></p>","","","","","","","","","","","",""
"","261.29500003298745","sequential-stimulus-presentation","15","75788","0.0-8.0-1.3","SS1613138251747","trial","","40","800","1061.2950000329874","images/stimuli/spore_stims/simple_02_A_a.gif","images/stimuli/spore_stims/simple_09_B_c.gif","","","","","0","simple_dissimilar","images/stimuli/spore_stims/simple_09_B_c.gif","middle","","","","",""
"","null","html-keyboard-response","16","77135","0.0-8.0-0.4","SS1613138251747","","","null","","","","","<p><img src= images/blank.png width =""200"" height = ""200"" style = ""float:right""></p><p><img src=images/blank.png width =""800"" height = ""200""></p>","","","","","","","","","","","",""
"","997.5350000313483","sequential-stimulus-presentation","17","78959","0.0-8.0-1.4","SS1613138251747","trial","","40","800","1797.5350000313483","images/stimuli/spore_stims/simple_02_A_a.gif","images/stimuli/spore_stims/simple_09_B_c.gif","","","","","0","simple_dissimilar","images/stimuli/spore_stims/simple_02_A_a.gif","right","","","","",""
"","null","html-keyboard-response","18","80139","0.0-8.0-0.5","SS1613138251747","","","null","","","","","<p><img src= images/blank.png width =""200"" height = ""200"" style = ""float:right""></p><p><img src=images/blank.png width =""800"" height = ""200""></p>","","","","","","","","","","","",""
"","953.7949999794364","sequential-stimulus-presentation","19","81918","0.0-8.0-1.5","SS1613138251747","trial","","40","800","1753.7949999794364","images/stimuli/spore_stims/simple_02_A_a.gif","images/stimuli/spore_stims/simple_09_B_c.gif","","","","","0","simple_dissimilar","images/stimuli/spore_stims/simple_09_B_c.gif","middle","","","","",""
"","null","html-keyboard-response","20","83076","0.0-8.0-0.6","SS1613138251747","","","null","","","","","<p><img src= images/blank.png width =""200"" height = ""200"" style = ""float:right""></p><p><img src=images/blank.png width =""800"" height = ""200""></p>","","","","","","","","","","","",""
"","683.0949999857694","sequential-stimulus-presentation","21","84578","0.0-8.0-1.6","SS1613138251747","trial","","40","800","1483.0949999857694","images/stimuli/spore_stims/simple_02_A_a.gif","images/stimuli/spore_stims/simple_09_B_c.gif","","","","","0","simple_dissimilar","images/stimuli/spore_stims/simple_09_B_c.gif","middle","","","","",""
"","null","html-keyboard-response","22","85708","0.0-8.0-0.7","SS1613138251747","","","null","","","","","<p><img src= images/blank.png width =""200"" height = ""200"" style = ""float:right""></p><p><img src=images/blank.png width =""800"" height = ""200""></p>","","","","","","","","","","","",""
"","16.30499999737367","sequential-stimulus-presentation","23","86551","0.0-8.0-1.7","SS1613138251747","trial","","40","800","816.3049999973737","images/stimuli/spore_stims/simple_02_A_a.gif","images/stimuli/spore_stims/simple_09_B_c.gif","","","","","0","simple_dissimilar","images/stimuli/spore_stims/simple_09_B_c.gif","middle","","","","",""
"","235.14000000432134","html-keyboard-response","24","86827","0.0-9.0","SS1613138251747","pref_question","","50","","","","","<video width ='960' height = '540' style='padding-top:8%' autoplay muted><source src='images/stimuli/wall_pref.mp4' type='video/mp4'></video>","2","middle","45%","0","","","","","","","",""
"","1208.4850000101142","sequential-stimulus-presentation","25","88932","0.0-10.0","SS1613138251747","pref_reveal","","40","800","2008.4850000101142","null","null","","","","","0","","","","background","","","",""
"","null","html-keyboard-response","26","90058","0.0-11.0-0.0","SS1613138251747","","","null","","","","","<p><img src= images/blank.png width =""200"" height = ""200"" style = ""float:right""></p><p><img src=images/blank.png width =""800"" height = ""200""></p>","","","","","","","","","","","",""
"","656.3849999802187","sequential-stimulus-presentation","27","91555","0.0-11.0-1.0","SS1613138251747","trial","","40","800","1456.3849999802187","images/stimuli/spore_stims/complex_16_B_a.gif","images/stimuli/spore_stims/complex_16_A_a.gif","","","","","1","complex_similar","images/stimuli/spore_stims/complex_16_A_a.gif","middle","","","","",""
"","null","html-keyboard-response","28","92378","0.0-11.0-0.1","SS1613138251747","","","null","","","","","<p><img src= images/blank.png width =""200"" height = ""200"" style = ""float:right""></p><p><img src=images/blank.png width =""800"" height = ""200""></p>","","","","","","","","","","","",""
"","1267.195000022184","sequential-stimulus-presentation","29","94483","0.0-11.0-1.1","SS1613138251747","trial","","40","800","2067.195000022184","images/stimuli/spore_stims/complex_16_B_a.gif","images/stimuli/spore_stims/complex_16_A_a.gif","","","","","1","complex_similar","images/stimuli/spore_stims/complex_16_A_a.gif","middle","","","","",""
"","null","html-keyboard-response","30","95554","0.0-11.0-0.2","SS1613138251747","","","null","","","","","<p><img src= images/blank.png width =""200"" height = ""200"" style = ""float:right""></p><p><img src=images/blank.png width =""800"" height = ""200""></p>","","","","","","","","","","","",""
"","257.95999995898455","sequential-stimulus-presentation","31","96653","0.0-11.0-1.2","SS1613138251747","trial","","40","800","1057.9599999589846","images/stimuli/spore_stims/complex_16_B_a.gif","images/stimuli/spore_stims/complex_16_A_a.gif","","","","","1","complex_similar","images/stimuli/spore_stims/complex_16_A_a.gif","middle","","","","",""
"","null","html-keyboard-response","32","97935","0.0-11.0-0.3","SS1613138251747","","","null","","","","","<p><img src= images/blank.png width =""200"" height = ""200"" style = ""float:right""></p><p><img src=images/blank.png width =""800"" height = ""200""></p>","","","","","","","","","","","",""
"","2159.9150000256486","sequential-stimulus-presentation","33","100950","0.0-11.0-1.3","SS1613138251747","trial","","40","800","2959.9150000256486","images/stimuli/spore_stims/complex_16_B_a.gif","images/stimuli/spore_stims/complex_16_A_a.gif","","","","","1","complex_similar","images/stimuli/spore_stims/complex_16_A_a.gif","middle","","","","",""
"","null","html-keyboard-response","34","102218","0.0-11.0-0.4","SS1613138251747","","","null","","","","","<p><img src= images/blank.png width =""200"" height = ""200"" style = ""float:right""></p><p><img src=images/blank.png width =""800"" height = ""200""></p>","","","","","","","","","","","",""
"","8.390000031795353","sequential-stimulus-presentation","35","103066","0.0-11.0-1.4","SS1613138251747","trial","","40","800","808.3900000317954","images/stimuli/spore_stims/complex_16_B_a.gif","images/stimuli/spore_stims/complex_16_A_a.gif","","","","","1","complex_similar","images/stimuli/spore_stims/complex_16_A_a.gif","middle","","","","",""
"","null","html-keyboard-response","36","103947","0.0-11.0-0.5","SS1613138251747","","","null","","","","","<p><img src= images/blank.png width =""200"" height = ""200"" style = ""float:right""></p><p><img src=images/blank.png width =""800"" height = ""200""></p>","","","","","","","","","","","",""
"","1063.8649999746121","sequential-stimulus-presentation","37","105837","0.0-11.0-1.5","SS1613138251747","trial","","40","800","1863.8649999746121","images/stimuli/spore_stims/complex_16_B_a.gif","images/stimuli/spore_stims/complex_16_A_a.gif","","","","","1","complex_similar","images/stimuli/spore_stims/complex_16_A_a.gif","middle","","","","",""
"","null","html-keyboard-response","38","106949","0.0-11.0-0.6","SS1613138251747","","","null","","","","","<p><img src= images/blank.png width =""200"" height = ""200"" style = ""float:right""></p><p><img src=images/blank.png width =""800"" height = ""200""></p>","","","","","","","","","","","",""
"","344.260000041686","sequential-stimulus-presentation","39","108117","0.0-11.0-1.6","SS1613138251747","trial","","40","800","1144.260000041686","images/stimuli/spore_stims/complex_16_B_a.gif","images/stimuli/spore_stims/complex_16_A_a.gif","","","","","1","complex_similar","images/stimuli/spore_stims/complex_16_A_a.gif","middle","","","","",""
"","null","html-keyboard-response","40","109172","0.0-11.0-0.7","SS1613138251747","","","null","","","","","<p><img src= images/blank.png width =""200"" height = ""200"" style = ""float:right""></p><p><img src=images/blank.png width =""800"" height = ""200""></p>","","","","","","","","","","","",""
"","85.85500001208857","sequential-stimulus-presentation","41","110078","0.0-11.0-1.7","SS1613138251747","trial","","40","800","885.8550000120886","images/stimuli/spore_stims/complex_16_B_a.gif","images/stimuli/spore_stims/complex_16_A_a.gif","","","","","1","complex_similar","images/stimuli/spore_stims/complex_16_B_a.gif","left","","","","",""
"","3527.650000003632","html-keyboard-response","42","113620","0.0-12.0","SS1613138251747","pref_question","","51","","","","","<video width ='960' height = '540' style='padding-top:8%' autoplay muted><source src='images/stimuli/wall_pref.mp4' type='video/mp4'></video>","3","right","66%","1","","","","","","","",""
"","1169.869999983348","sequential-stimulus-presentation","43","115647","0.0-13.0","SS1613138251747","pref_reveal","","40","800","1969.869999983348","null","null","","","","","1","","","","novel","","","",""
"","null","html-keyboard-response","44","116821","0.0-14.0-0.0","SS1613138251747","","","null","","","","","<p><img src= images/blank.png width =""200"" height = ""200"" style = ""float:right""></p><p><img src=images/blank.png width =""800"" height = ""200""></p>","","","","","","","","","","","",""
"","491.2850000546314","sequential-stimulus-presentation","45","118150","0.0-14.0-1.0","SS1613138251747","trial","","40","800","1291.2850000546314","images/stimuli/spore_stims/simple_10_B_c.gif","images/stimuli/spore_stims/simple_10_A_c.gif","","","","","2","simple_similar","images/stimuli/spore_stims/simple_10_A_c.gif","middle","","","","",""
"","null","html-keyboard-response","46","119438","0.0-14.0-0.1","SS1613138251747","","","null","","","","","<p><img src= images/blank.png width =""200"" height = ""200"" style = ""float:right""></p><p><img src=images/blank.png width =""800"" height = ""200""></p>","","","","","","","","","","","",""
"","106.95500002475455","sequential-stimulus-presentation","47","120378","0.0-14.0-1.1","SS1613138251747","trial","","40","800","906.9550000247546","images/stimuli/spore_stims/simple_10_B_c.gif","images/stimuli/spore_stims/simple_10_A_c.gif","","","","","2","simple_similar","images/stimuli/spore_stims/simple_10_A_c.gif","middle","","","","",""
"","null","html-keyboard-response","48","121374","0.0-14.0-0.2","SS1613138251747","","","null","","","","","<p><img src= images/blank.png width =""200"" height = ""200"" style = ""float:right""></p><p><img src=images/blank.png width =""800"" height = ""200""></p>","","","","","","","","","","","",""
"","129.5549999922514","sequential-stimulus-presentation","49","122401","0.0-14.0-1.2","SS1613138251747","trial","","40","800","929.5549999922514","images/stimuli/spore_stims/simple_10_B_c.gif","images/stimuli/spore_stims/simple_10_A_c.gif","","","","","2","simple_similar","images/stimuli/spore_stims/simple_10_A_c.gif","middle","","","","",""
"","null","html-keyboard-response","50","123545","0.0-14.0-0.3","SS1613138251747","","","null","","","","","<p><img src= images/blank.png width =""200"" height = ""200"" style = ""float:right""></p><p><img src=images/blank.png width =""800"" height = ""200""></p>","","","","","","","","","","","",""
"","37.89500001585111","sequential-stimulus-presentation","51","124477","0.0-14.0-1.3","SS1613138251747","trial","","40","800","837.8950000158511","images/stimuli/spore_stims/simple_10_B_c.gif","images/stimuli/spore_stims/simple_10_A_c.gif","","","","","2","simple_similar","images/stimuli/spore_stims/simple_10_B_c.gif","left","","","","",""
"","null","html-keyboard-response","52","125502","0.0-14.0-0.4","SS1613138251747","","","null","","","","","<p><img src= images/blank.png width =""200"" height = ""200"" style = ""float:right""></p><p><img src=images/blank.png width =""800"" height = ""200""></p>","","","","","","","","","","","",""
"","136.56499999342486","sequential-stimulus-presentation","53","126467","0.0-14.0-1.4","SS1613138251747","trial","","40","800","936.5649999934249","images/stimuli/spore_stims/simple_10_B_c.gif","images/stimuli/spore_stims/simple_10_A_c.gif","","","","","2","simple_similar","images/stimuli/spore_stims/simple_10_A_c.gif","middle","","","","",""
"","null","html-keyboard-response","54","127601","0.0-14.0-0.5","SS1613138251747","","","null","","","","","<p><img src= images/blank.png width =""200"" height = ""200"" style = ""float:right""></p><p><img src=images/blank.png width =""800"" height = ""200""></p>","","","","","","","","","","","",""
"","155.8599999989383","sequential-stimulus-presentation","55","128591","0.0-14.0-1.5","SS1613138251747","trial","","40","800","955.8599999989383","images/stimuli/spore_stims/simple_10_B_c.gif","images/stimuli/spore_stims/simple_10_A_c.gif","","","","","2","simple_similar","images/stimuli/spore_stims/simple_10_A_c.gif","middle","","","","",""
"","null","html-keyboard-response","56","129864","0.0-14.0-0.6","SS1613138251747","","","null","","","","","<p><img src= images/blank.png width =""200"" height = ""200"" style = ""float:right""></p><p><img src=images/blank.png width =""800"" height = ""200""></p>","","","","","","","","","","","",""
"","535.024999990128","sequential-stimulus-presentation","57","131219","0.0-14.0-1.6","SS1613138251747","trial","","40","800","1335.024999990128","images/stimuli/spore_stims/simple_10_B_c.gif","images/stimuli/spore_stims/simple_10_A_c.gif","","","","","2","simple_similar","images/stimuli/spore_stims/simple_10_A_c.gif","middle","","","","",""
"","null","html-keyboard-response","58","132409","0.0-14.0-0.7","SS1613138251747","","","null","","","","","<p><img src= images/blank.png width =""200"" height = ""200"" style = ""float:right""></p><p><img src=images/blank.png width =""800"" height = ""200""></p>","","","","","","","","","","","",""
"","351.7050000373274","sequential-stimulus-presentation","59","133594","0.0-14.0-1.7","SS1613138251747","trial","","40","800","1151.7050000373274","images/stimuli/spore_stims/simple_10_B_c.gif","images/stimuli/spore_stims/simple_10_A_c.gif","","","","","2","simple_similar","images/stimuli/spore_stims/simple_10_A_c.gif","middle","","","","",""
"","3734.760000021197","html-keyboard-response","60","137344","0.0-15.0","SS1613138251747","pref_question","","50","","","","","<video width ='960' height = '540' style='padding-top:8%' autoplay muted><source src='images/stimuli/wall_pref.mp4' type='video/mp4'></video>","2","middle","45%","2","","","","","","","",""
"","2136.3600000040606","sequential-stimulus-presentation","61","140325","0.0-16.0","SS1613138251747","pref_reveal","","40","800","2936.3600000040606","null","null","","","","","2","","","","background","","","",""
"","null","html-keyboard-response","62","141481","0.0-17.0-0.0","SS1613138251747","","","null","","","","","<p><img src= images/blank.png width =""200"" height = ""200"" style = ""float:right""></p><p><img src=images/blank.png width =""800"" height = ""200""></p>","","","","","","","","","","","",""
"","1096.399999980349","sequential-stimulus-presentation","63","143419","0.0-17.0-1.0","SS1613138251747","trial","","40","800","1896.399999980349","images/stimuli/spore_stims/complex_20_B_d.gif","images/stimuli/spore_stims/complex_09_A_d.gif","","","","","3","complex_dissimilar","images/stimuli/spore_stims/complex_09_A_d.gif","middle","","","","",""
"","null","html-keyboard-response","64","144482","0.0-17.0-0.1","SS1613138251747","","","null","","","","","<p><img src= images/blank.png width =""200"" height = ""200"" style = ""float:right""></p><p><img src=images/blank.png width =""800"" height = ""200""></p>","","","","","","","","","","","",""
"","100.60499998508021","sequential-stimulus-presentation","65","145415","0.0-17.0-1.1","SS1613138251747","trial","","40","800","900.6049999850802","images/stimuli/spore_stims/complex_20_B_d.gif","images/stimuli/spore_stims/complex_09_A_d.gif","","","","","3","complex_dissimilar","images/stimuli/spore_stims/complex_09_A_d.gif","middle","","","","",""
"","null","html-keyboard-response","66","146704","0.0-17.0-0.2","SS1613138251747","","","null","","","","","<p><img src= images/blank.png width =""200"" height = ""200"" style = ""float:right""></p><p><img src=images/blank.png width =""800"" height = ""200""></p>","","","","","","","","","","","",""
"","288.53499999968335","sequential-stimulus-presentation","67","147855","0.0-17.0-1.2","SS1613138251747","trial","","40","800","1088.5349999996834","images/stimuli/spore_stims/complex_20_B_d.gif","images/stimuli/spore_stims/complex_09_A_d.gif","","","","","3","complex_dissimilar","images/stimuli/spore_stims/complex_09_A_d.gif","middle","","","","",""
"","null","html-keyboard-response","68","149008","0.0-17.0-0.3","SS1613138251747","","","null","","","","","<p><img src= images/blank.png width =""200"" height = ""200"" style = ""float:right""></p><p><img src=images/blank.png width =""800"" height = ""200""></p>","","","","","","","","","","","",""
"","344.8199999984354","sequential-stimulus-presentation","69","150186","0.0-17.0-1.3","SS1613138251747","trial","","40","800","1144.8199999984354","images/stimuli/spore_stims/complex_20_B_d.gif","images/stimuli/spore_stims/complex_09_A_d.gif","","","","","3","complex_dissimilar","images/stimuli/spore_stims/complex_09_A_d.gif","middle","","","","",""
"","null","html-keyboard-response","70","151129","0.0-17.0-0.4","SS1613138251747","","","null","","","","","<p><img src= images/blank.png width =""200"" height = ""200"" style = ""float:right""></p><p><img src=images/blank.png width =""800"" height = ""200""></p>","","","","","","","","","","","",""
"","302.71000001812354","sequential-stimulus-presentation","71","152271","0.0-17.0-1.4","SS1613138251747","trial","","40","800","1102.7100000181235","images/stimuli/spore_stims/complex_20_B_d.gif","images/stimuli/spore_stims/complex_09_A_d.gif","","","","","3","complex_dissimilar","images/stimuli/spore_stims/complex_09_A_d.gif","middle","","","","",""
"","null","html-keyboard-response","72","153109","0.0-17.0-0.5","SS1613138251747","","","null","","","","","<p><img src= images/blank.png width =""200"" height = ""200"" style = ""float:right""></p><p><img src=images/blank.png width =""800"" height = ""200""></p>","","","","","","","","","","","",""
"","11.0199999762699","sequential-stimulus-presentation","73","153971","0.0-17.0-1.5","SS1613138251747","trial","","40","800","811.0199999762699","images/stimuli/spore_stims/complex_20_B_d.gif","images/stimuli/spore_stims/complex_09_A_d.gif","","","","","3","complex_dissimilar","images/stimuli/spore_stims/complex_09_A_d.gif","middle","","","","",""
"","null","html-keyboard-response","74","155103","0.0-17.0-0.6","SS1613138251747","","","null","","","","","<p><img src= images/blank.png width =""200"" height = ""200"" style = ""float:right""></p><p><img src=images/blank.png width =""800"" height = ""200""></p>","","","","","","","","","","","",""
"","615.2599999913946","sequential-stimulus-presentation","75","156550","0.0-17.0-1.6","SS1613138251747","trial","","40","800","1415.2599999913946","images/stimuli/spore_stims/complex_20_B_d.gif","images/stimuli/spore_stims/complex_09_A_d.gif","","","","","3","complex_dissimilar","images/stimuli/spore_stims/complex_20_B_d.gif","left","","","","",""
"","null","html-keyboard-response","76","157746","0.0-17.0-0.7","SS1613138251747","","","null","","","","","<p><img src= images/blank.png width =""200"" height = ""200"" style = ""float:right""></p><p><img src=images/blank.png width =""800"" height = ""200""></p>","","","","","","","","","","","",""
"","373.665000020992","sequential-stimulus-presentation","77","158955","0.0-17.0-1.7","SS1613138251747","trial","","40","800","1173.665000020992","images/stimuli/spore_stims/complex_20_B_d.gif","images/stimuli/spore_stims/complex_09_A_d.gif","","","","","3","complex_dissimilar","images/stimuli/spore_stims/complex_09_A_d.gif","middle","","","","",""
"","1.7349999980069697","html-keyboard-response","78","158974","0.0-18.0","SS1613138251747","pref_question","","49","","","","","<video width ='960' height = '540' style='padding-top:8%' autoplay muted><source src='images/stimuli/wall_pref.mp4' type='video/mp4'></video>","1","left","25%","3","","","","","","","",""
"","1301.9399999757297","sequential-stimulus-presentation","79","161137","0.0-19.0","SS1613138251747","pref_reveal","","40","800","2101.9399999757297","null","null","","","","","3","","","","deviant","","","",""
"","null","html-keyboard-response","80","162199","0.0-20.0-0.0","SS1613138251747","","","null","","","","","<p><img src= images/blank.png width =""200"" height = ""200"" style = ""float:right""></p><p><img src=images/blank.png width =""800"" height = ""200""></p>","","","","","","","","","","","",""
"","232.25000000093132","sequential-stimulus-presentation","81","163262","0.0-20.0-1.0","SS1613138251747","trial","","40","800","1032.2500000009313","images/stimuli/spore_stims/complex_15_A_a.gif","images/stimuli/spore_stims/complex_15_B_a.gif","","","","","4","complex_similar","images/stimuli/spore_stims/complex_15_B_a.gif","middle","","","","",""
"","null","html-keyboard-response","82","164604","0.0-20.0-0.1","SS1613138251747","","","null","","","","","<p><img src= images/blank.png width =""200"" height = ""200"" style = ""float:right""></p><p><img src=images/blank.png width =""800"" height = ""200""></p>","","","","","","","","","","","",""
"","171.84999998426065","sequential-stimulus-presentation","83","165631","0.0-20.0-1.1","SS1613138251747","trial","","40","800","971.8499999842606","images/stimuli/spore_stims/complex_15_A_a.gif","images/stimuli/spore_stims/complex_15_B_a.gif","","","","","4","complex_similar","images/stimuli/spore_stims/complex_15_B_a.gif","middle","","","","",""
"","null","html-keyboard-response","84","166467","0.0-20.0-0.2","SS1613138251747","","","null","","","","","<p><img src= images/blank.png width =""200"" height = ""200"" style = ""float:right""></p><p><img src=images/blank.png width =""800"" height = ""200""></p>","","","","","","","","","","","",""
"","464.24499998101965","sequential-stimulus-presentation","85","167769","0.0-20.0-1.2","SS1613138251747","trial","","40","800","1264.2449999810196","images/stimuli/spore_stims/complex_15_A_a.gif","images/stimuli/spore_stims/complex_15_B_a.gif","","","","","4","complex_similar","images/stimuli/spore_stims/complex_15_B_a.gif","middle","","","","",""
"","null","html-keyboard-response","86","168841","0.0-20.0-0.3","SS1613138251747","","","null","","","","","<p><img src= images/blank.png width =""200"" height = ""200"" style = ""float:right""></p><p><img src=images/blank.png width =""800"" height = ""200""></p>","","","","","","","","","","","",""
"","415.7349999877624","sequential-stimulus-presentation","87","170098","0.0-20.0-1.3","SS1613138251747","trial","","40","800","1215.7349999877624","images/stimuli/spore_stims/complex_15_A_a.gif","images/stimuli/spore_stims/complex_15_B_a.gif","","","","","4","complex_similar","images/stimuli/spore_stims/complex_15_B_a.gif","middle","","","","",""
"","null","html-keyboard-response","88","171223","0.0-20.0-0.4","SS1613138251747","","","null","","","","","<p><img src= images/blank.png width =""200"" height = ""200"" style = ""float:right""></p><p><img src=images/blank.png width =""800"" height = ""200""></p>","","","","","","","","","","","",""
"","236.18499998701736","sequential-stimulus-presentation","89","172296","0.0-20.0-1.4","SS1613138251747","trial","","40","800","1036.1849999870174","images/stimuli/spore_stims/complex_15_A_a.gif","images/stimuli/spore_stims/complex_15_B_a.gif","","","","","4","complex_similar","images/stimuli/spore_stims/complex_15_B_a.gif","middle","","","","",""
"","null","html-keyboard-response","90","173514","0.0-20.0-0.5","SS1613138251747","","","null","","","","","<p><img src= images/blank.png width =""200"" height = ""200"" style = ""float:right""></p><p><img src=images/blank.png width =""800"" height = ""200""></p>","","","","","","","","","","","",""
"","226.55999998096377","sequential-stimulus-presentation","91","174571","0.0-20.0-1.5","SS1613138251747","trial","","40","800","1026.5599999809638","images/stimuli/spore_stims/complex_15_A_a.gif","images/stimuli/spore_stims/complex_15_B_a.gif","","","","","4","complex_similar","images/stimuli/spore_stims/complex_15_B_a.gif","middle","","","","",""
"","null","html-keyboard-response","92","175718","0.0-20.0-0.6","SS1613138251747","","","null","","","","","<p><img src= images/blank.png width =""200"" height = ""200"" style = ""float:right""></p><p><img src=images/blank.png width =""800"" height = ""200""></p>","","","","","","","","","","","",""
"","71.34500000393018","sequential-stimulus-presentation","93","176610","0.0-20.0-1.6","SS1613138251747","trial","","40","800","871.3450000039302","images/stimuli/spore_stims/complex_15_A_a.gif","images/stimuli/spore_stims/complex_15_B_a.gif","","","","","4","complex_similar","images/stimuli/spore_stims/complex_15_B_a.gif","middle","","","","",""
"","null","html-keyboard-response","94","177904","0.0-20.0-0.7","SS1613138251747","","","null","","","","","<p><img src= images/blank.png width =""200"" height = ""200"" style = ""float:right""></p><p><img src=images/blank.png width =""800"" height = ""200""></p>","","","","","","","","","","","",""
"","418.1049999897368","sequential-stimulus-presentation","95","179190","0.0-20.0-1.7","SS1613138251747","trial","","40","800","1218.1049999897368","images/stimuli/spore_stims/complex_15_A_a.gif","images/stimuli/spore_stims/complex_15_B_a.gif","","","","","4","complex_similar","images/stimuli/spore_stims/complex_15_A_a.gif","left","","","","",""
"","191.43000000622123","html-keyboard-response","96","179401","0.0-21.0","SS1613138251747","pref_question","","49","","","","","<video width ='960' height = '540' style='padding-top:8%' autoplay muted><source src='images/stimuli/wall_pref.mp4' type='video/mp4'></video>","1","left","25%","4","","","","","","","",""
"","716.794999956619","sequential-stimulus-presentation","97","181026","0.0-22.0","SS1613138251747","pref_reveal","","40","800","1516.794999956619","null","null","","","","","4","","","","deviant","","","",""
"","null","html-keyboard-response","98","181987","0.0-23.0-0.0","SS1613138251747","","","null","","","","","<p><img src= images/blank.png width =""200"" height = ""200"" style = ""float:right""></p><p><img src=images/blank.png width =""800"" height = ""200""></p>","","","","","","","","","","","",""
"","623.1199999456294","sequential-stimulus-presentation","99","183449","0.0-23.0-1.0","SS1613138251747","trial","","40","800","1423.1199999456294","images/stimuli/spore_stims/simple_02_A_b.gif","images/stimuli/spore_stims/simple_02_B_b.gif","","","","","5","simple_similar","images/stimuli/spore_stims/simple_02_B_b.gif","right","","","","",""
"","null","html-keyboard-response","100","184525","0.0-23.0-0.1","SS1613138251747","","","null","","","","","<p><img src= images/blank.png width =""200"" height = ""200"" style = ""float:right""></p><p><img src=images/blank.png width =""800"" height = ""200""></p>","","","","","","","","","","","",""
"","28.785000031348318","sequential-stimulus-presentation","101","185391","0.0-23.0-1.1","SS1613138251747","trial","","40","800","828.7850000313483","images/stimuli/spore_stims/simple_02_A_b.gif","images/stimuli/spore_stims/simple_02_B_b.gif","","","","","5","simple_similar","images/stimuli/spore_stims/simple_02_B_b.gif","right","","","","",""
"","null","html-keyboard-response","102","186302","0.0-23.0-0.2","SS1613138251747","","","null","","","","","<p><img src= images/blank.png width =""200"" height = ""200"" style = ""float:right""></p><p><img src=images/blank.png width =""800"" height = ""200""></p>","","","","","","","","","","","",""
"","111.95500002941117","sequential-stimulus-presentation","103","187283","0.0-23.0-1.2","SS1613138251747","trial","","40","800","911.9550000294112","images/stimuli/spore_stims/simple_02_A_b.gif","images/stimuli/spore_stims/simple_02_B_b.gif","","","","","5","simple_similar","images/stimuli/spore_stims/simple_02_B_b.gif","right","","","","",""
"","null","html-keyboard-response","104","188478","0.0-23.0-0.3","SS1613138251747","","","null","","","","","<p><img src= images/blank.png width =""200"" height = ""200"" style = ""float:right""></p><p><img src=images/blank.png width =""800"" height = ""200""></p>","","","","","","","","","","","",""
"","14.714999997522682","sequential-stimulus-presentation","105","189324","0.0-23.0-1.3","SS1613138251747","trial","","40","800","814.7149999975227","images/stimuli/spore_stims/simple_02_A_b.gif","images/stimuli/spore_stims/simple_02_B_b.gif","","","","","5","simple_similar","images/stimuli/spore_stims/simple_02_A_b.gif","middle","","","","",""
"","null","html-keyboard-response","106","190335","0.0-23.0-0.4","SS1613138251747","","","null","","","","","<p><img src= images/blank.png width =""200"" height = ""200"" style = ""float:right""></p><p><img src=images/blank.png width =""800"" height = ""200""></p>","","","","","","","","","","","",""
"","76.54499995987862","sequential-stimulus-presentation","107","191261","0.0-23.0-1.4","SS1613138251747","trial","","40","800","876.5449999598786","images/stimuli/spore_stims/simple_02_A_b.gif","images/stimuli/spore_stims/simple_02_B_b.gif","","","","","5","simple_similar","images/stimuli/spore_stims/simple_02_B_b.gif","right","","","","",""
"","null","html-keyboard-response","108","192206","0.0-23.0-0.5","SS1613138251747","","","null","","","","","<p><img src= images/blank.png width =""200"" height = ""200"" style = ""float:right""></p><p><img src=images/blank.png width =""800"" height = ""200""></p>","","","","","","","","","","","",""
"","229.9549999879673","sequential-stimulus-presentation","109","193267","0.0-23.0-1.5","SS1613138251747","trial","","40","800","1029.9549999879673","images/stimuli/spore_stims/simple_02_A_b.gif","images/stimuli/spore_stims/simple_02_B_b.gif","","","","","5","simple_similar","images/stimuli/spore_stims/simple_02_B_b.gif","right","","","","",""
"","null","html-keyboard-response","110","194527","0.0-23.0-0.6","SS1613138251747","","","null","","","","","<p><img src= images/blank.png width =""200"" height = ""200"" style = ""float:right""></p><p><img src=images/blank.png width =""800"" height = ""200""></p>","","","","","","","","","","","",""
"","155.13500000815839","sequential-stimulus-presentation","111","195524","0.0-23.0-1.6","SS1613138251747","trial","","40","800","955.1350000081584","images/stimuli/spore_stims/simple_02_A_b.gif","images/stimuli/spore_stims/simple_02_B_b.gif","","","","","5","simple_similar","images/stimuli/spore_stims/simple_02_B_b.gif","right","","","","",""
"","null","html-keyboard-response","112","196762","0.0-23.0-0.7","SS1613138251747","","","null","","","","","<p><img src= images/blank.png width =""200"" height = ""200"" style = ""float:right""></p><p><img src=images/blank.png width =""800"" height = ""200""></p>","","","","","","","","","","","",""
"","150.60500003164634","sequential-stimulus-presentation","113","197789","0.0-23.0-1.7","SS1613138251747","trial","","40","800","950.6050000316463","images/stimuli/spore_stims/simple_02_A_b.gif","images/stimuli/spore_stims/simple_02_B_b.gif","","","","","5","simple_similar","images/stimuli/spore_stims/simple_02_B_b.gif","right","","","","",""
"","341.19500004453585","html-keyboard-response","114","198152","0.0-24.0","SS1613138251747","pref_question","","51","","","","","<video width ='960' height = '540' style='padding-top:8%' autoplay muted><source src='images/stimuli/wall_pref.mp4' type='video/mp4'></video>","3","right","66%","5","","","","","","","",""
"","148.22000003186986","sequential-stimulus-presentation","115","199122","0.0-25.0","SS1613138251747","pref_reveal","","40","800","948.2200000318699","null","null","","","","","5","","","","background","","","",""
"","null","html-keyboard-response","116","200401","0.0-26.0-0.0","SS1613138251747","","","null","","","","","<p><img src= images/blank.png width =""200"" height = ""200"" style = ""float:right""></p><p><img src=images/blank.png width =""800"" height = ""200""></p>","","","","","","","","","","","",""
"","454.26500000758097","sequential-stimulus-presentation","117","201702","0.0-26.0-1.0","SS1613138251747","trial","","40","800","1254.265000007581","images/stimuli/spore_stims/complex_12_B_b.gif","images/stimuli/spore_stims/complex_12_A_b.gif","","","","","6","complex_similar","images/stimuli/spore_stims/complex_12_A_b.gif","left","","","","",""
"","null","html-keyboard-response","118","202822","0.0-26.0-0.1","SS1613138251747","","","null","","","","","<p><img src= images/blank.png width =""200"" height = ""200"" style = ""float:right""></p><p><img src=images/blank.png width =""800"" height = ""200""></p>","","","","","","","","","","","",""
"","156.61000000545755","sequential-stimulus-presentation","119","203852","0.0-26.0-1.1","SS1613138251747","trial","","40","800","956.6100000054576","images/stimuli/spore_stims/complex_12_B_b.gif","images/stimuli/spore_stims/complex_12_A_b.gif","","","","","6","complex_similar","images/stimuli/spore_stims/complex_12_A_b.gif","left","","","","",""
"","null","html-keyboard-response","120","204696","0.0-26.0-0.2","SS1613138251747","","","null","","","","","<p><img src= images/blank.png width =""200"" height = ""200"" style = ""float:right""></p><p><img src=images/blank.png width =""800"" height = ""200""></p>","","","","","","","","","","","",""
"","575.5099999951199","sequential-stimulus-presentation","121","206116","0.0-26.0-1.2","SS1613138251747","trial","","40","800","1375.5099999951199","images/stimuli/spore_stims/complex_12_B_b.gif","images/stimuli/spore_stims/complex_12_A_b.gif","","","","","6","complex_similar","images/stimuli/spore_stims/complex_12_B_b.gif","right","","","","",""
"","null","html-keyboard-response","122","207135","0.0-26.0-0.3","SS1613138251747","","","null","","","","","<p><img src= images/blank.png width =""200"" height = ""200"" style = ""float:right""></p><p><img src=images/blank.png width =""800"" height = ""200""></p>","","","","","","","","","","","",""
"","234.73000002559274","sequential-stimulus-presentation","123","208197","0.0-26.0-1.3","SS1613138251747","trial","","40","800","1034.7300000255927","images/stimuli/spore_stims/complex_12_B_b.gif","images/stimuli/spore_stims/complex_12_A_b.gif","","","","","6","complex_similar","images/stimuli/spore_stims/complex_12_A_b.gif","left","","","","",""
"","null","html-keyboard-response","124","209374","0.0-26.0-0.4","SS1613138251747","","","null","","","","","<p><img src= images/blank.png width =""200"" height = ""200"" style = ""float:right""></p><p><img src=images/blank.png width =""800"" height = ""200""></p>","","","","","","","","","","","",""
"","308.4400000516325","sequential-stimulus-presentation","125","210516","0.0-26.0-1.4","SS1613138251747","trial","","40","800","1108.4400000516325","images/stimuli/spore_stims/complex_12_B_b.gif","images/stimuli/spore_stims/complex_12_A_b.gif","","","","","6","complex_similar","images/stimuli/spore_stims/complex_12_A_b.gif","left","","","","",""
"","null","html-keyboard-response","126","211781","0.0-26.0-0.5","SS1613138251747","","","null","","","","","<p><img src= images/blank.png width =""200"" height = ""200"" style = ""float:right""></p><p><img src=images/blank.png width =""800"" height = ""200""></p>","","","","","","","","","","","",""
"","171.80500004906207","sequential-stimulus-presentation","127","212830","0.0-26.0-1.5","SS1613138251747","trial","","40","800","971.8050000490621","images/stimuli/spore_stims/complex_12_B_b.gif","images/stimuli/spore_stims/complex_12_A_b.gif","","","","","6","complex_similar","images/stimuli/spore_stims/complex_12_A_b.gif","left","","","","",""
"","null","html-keyboard-response","128","213807","0.0-26.0-0.6","SS1613138251747","","","null","","","","","<p><img src= images/blank.png width =""200"" height = ""200"" style = ""float:right""></p><p><img src=images/blank.png width =""800"" height = ""200""></p>","","","","","","","","","","","",""
"","34.38499994808808","sequential-stimulus-presentation","129","214731","0.0-26.0-1.6","SS1613138251747","trial","","40","800","834.3849999480881","images/stimuli/spore_stims/complex_12_B_b.gif","images/stimuli/spore_stims/complex_12_A_b.gif","","","","","6","complex_similar","images/stimuli/spore_stims/complex_12_A_b.gif","left","","","","",""
"","null","html-keyboard-response","130","215687","0.0-26.0-0.7","SS1613138251747","","","null","","","","","<p><img src= images/blank.png width =""200"" height = ""200"" style = ""float:right""></p><p><img src=images/blank.png width =""800"" height = ""200""></p>","","","","","","","","","","","",""
"","51.749999984167516","sequential-stimulus-presentation","131","216623","0.0-26.0-1.7","SS1613138251747","trial","","40","800","851.7499999841675","images/stimuli/spore_stims/complex_12_B_b.gif","images/stimuli/spore_stims/complex_12_A_b.gif","","","","","6","complex_similar","images/stimuli/spore_stims/complex_12_A_b.gif","left","","","","",""
"","1.1099999537691474","html-keyboard-response","132","216657","0.0-27.0","SS1613138251747","pref_question","","49","","","","","<video width ='960' height = '540' style='padding-top:8%' autoplay muted><source src='images/stimuli/wall_pref.mp4' type='video/mp4'></video>","1","left","25%","6","","","","","","","",""
"","122.61999998008832","sequential-stimulus-presentation","133","217666","0.0-28.0","SS1613138251747","pref_reveal","","40","800","922.6199999800883","null","null","","","","","6","","","","background","","","",""
"","null","html-keyboard-response","134","218755","0.0-29.0-0.0","SS1613138251747","","","null","","","","","<p><img src= images/blank.png width =""200"" height = ""200"" style = ""float:right""></p><p><img src=images/blank.png width =""800"" height = ""200""></p>","","","","","","","","","","","",""
"","8.12499999301508","sequential-stimulus-presentation","135","219642","0.0-29.0-1.0","SS1613138251747","trial","","40","800","808.1249999930151","images/stimuli/spore_stims/simple_12_B_d.gif","images/stimuli/spore_stims/simple_08_B_b.gif","","","","","7","simple_dissimilar","images/stimuli/spore_stims/simple_08_B_b.gif","right","","","","",""
"","null","html-keyboard-response","136","220954","0.0-29.0-0.1","SS1613138251747","","","null","","","","","<p><img src= images/blank.png width =""200"" height = ""200"" style = ""float:right""></p><p><img src=images/blank.png width =""800"" height = ""200""></p>","","","","","","","","","","","",""
"","186.7750000092201","sequential-stimulus-presentation","137","221971","0.0-29.0-1.1","SS1613138251747","trial","","40","800","986.7750000092201","images/stimuli/spore_stims/simple_12_B_d.gif","images/stimuli/spore_stims/simple_08_B_b.gif","","","","","7","simple_dissimilar","images/stimuli/spore_stims/simple_08_B_b.gif","right","","","","",""
"","null","html-keyboard-response","138","222834","0.0-29.0-0.2","SS1613138251747","","","null","","","","","<p><img src= images/blank.png width =""200"" height = ""200"" style = ""float:right""></p><p><img src=images/blank.png width =""800"" height = ""200""></p>","","","","","","","","","","","",""
"","234.20999996596947","sequential-stimulus-presentation","139","223955","0.0-29.0-1.2","SS1613138251747","trial","","40","800","1034.2099999659695","images/stimuli/spore_stims/simple_12_B_d.gif","images/stimuli/spore_stims/simple_08_B_b.gif","","","","","7","simple_dissimilar","images/stimuli/spore_stims/simple_08_B_b.gif","right","","","","",""
"","null","html-keyboard-response","140","225020","0.0-29.0-0.3","SS1613138251747","","","null","","","","","<p><img src= images/blank.png width =""200"" height = ""200"" style = ""float:right""></p><p><img src=images/blank.png width =""800"" height = ""200""></p>","","","","","","","","","","","",""
"","66.5650000446476","sequential-stimulus-presentation","141","225905","0.0-29.0-1.3","SS1613138251747","trial","","40","800","866.5650000446476","images/stimuli/spore_stims/simple_12_B_d.gif","images/stimuli/spore_stims/simple_08_B_b.gif","","","","","7","simple_dissimilar","images/stimuli/spore_stims/simple_08_B_b.gif","right","","","","",""
"","null","html-keyboard-response","142","227123","0.0-29.0-0.4","SS1613138251747","","","null","","","","","<p><img src= images/blank.png width =""200"" height = ""200"" style = ""float:right""></p><p><img src=images/blank.png width =""800"" height = ""200""></p>","","","","","","","","","","","",""
"","55.954999988898635","sequential-stimulus-presentation","143","228017","0.0-29.0-1.4","SS1613138251747","trial","","40","800","855.9549999888986","images/stimuli/spore_stims/simple_12_B_d.gif","images/stimuli/spore_stims/simple_08_B_b.gif","","","","","7","simple_dissimilar","images/stimuli/spore_stims/simple_08_B_b.gif","right","","","","",""
"","null","html-keyboard-response","144","229084","0.0-29.0-0.5","SS1613138251747","","","null","","","","","<p><img src= images/blank.png width =""200"" height = ""200"" style = ""float:right""></p><p><img src=images/blank.png width =""800"" height = ""200""></p>","","","","","","","","","","","",""
"","498.18499997491017","sequential-stimulus-presentation","145","230409","0.0-29.0-1.5","SS1613138251747","trial","","40","800","1298.1849999749102","images/stimuli/spore_stims/simple_12_B_d.gif","images/stimuli/spore_stims/simple_08_B_b.gif","","","","","7","simple_dissimilar","images/stimuli/spore_stims/simple_12_B_d.gif","middle","","","","",""
"","null","html-keyboard-response","146","231580","0.0-29.0-0.6","SS1613138251747","","","null","","","","","<p><img src= images/blank.png width =""200"" height = ""200"" style = ""float:right""></p><p><img src=images/blank.png width =""800"" height = ""200""></p>","","","","","","","","","","","",""
"","357.929999998305","sequential-stimulus-presentation","147","232777","0.0-29.0-1.6","SS1613138251747","trial","","40","800","1157.929999998305","images/stimuli/spore_stims/simple_12_B_d.gif","images/stimuli/spore_stims/simple_08_B_b.gif","","","","","7","simple_dissimilar","images/stimuli/spore_stims/simple_08_B_b.gif","right","","","","",""
"","null","html-keyboard-response","148","233869","0.0-29.0-0.7","SS1613138251747","","","null","","","","","<p><img src= images/blank.png width =""200"" height = ""200"" style = ""float:right""></p><p><img src=images/blank.png width =""800"" height = ""200""></p>","","","","","","","","","","","",""
"","352.9749999870546","sequential-stimulus-presentation","149","235050","0.0-29.0-1.7","SS1613138251747","trial","","40","800","1152.9749999870546","images/stimuli/spore_stims/simple_12_B_d.gif","images/stimuli/spore_stims/simple_08_B_b.gif","","","","","7","simple_dissimilar","images/stimuli/spore_stims/simple_08_B_b.gif","right","","","","",""
"","2712.764999945648","html-keyboard-response","150","237781","0.0-30.0","SS1613138251747","pref_question","","50","","","","","<video width ='960' height = '540' style='padding-top:8%' autoplay muted><source src='images/stimuli/wall_pref.mp4' type='video/mp4'></video>","2","middle","45%","7","","","","","","","",""
"","75.57499996619299","sequential-stimulus-presentation","151","238696","0.0-31.0","SS1613138251747","pref_reveal","","40","800","875.574999966193","null","null","","","","","7","","","","deviant","","","",""
"","null","html-keyboard-response","152","240001","0.0-32.0-0.0","SS1613138251747","","","null","","","","","<p><img src= images/blank.png width =""200"" height = ""200"" style = ""float:right""></p><p><img src=images/blank.png width =""800"" height = ""200""></p>","","","","","","","","","","","",""
"","667.7849999978207","sequential-stimulus-presentation","153","241544","0.0-32.0-1.0","SS1613138251747","trial","","40","800","1467.7849999978207","images/stimuli/spore_stims/complex_14_A_b.gif","images/stimuli/spore_stims/complex_04_B_a.gif","","","","","8","complex_dissimilar","images/stimuli/spore_stims/complex_04_B_a.gif","left","","","","",""
"","null","html-keyboard-response","154","242717","0.0-32.0-0.1","SS1613138251747","","","null","","","","","<p><img src= images/blank.png width =""200"" height = ""200"" style = ""float:right""></p><p><img src=images/blank.png width =""800"" height = ""200""></p>","","","","","","","","","","","",""
"","560.4649999877438","sequential-stimulus-presentation","155","244139","0.0-32.0-1.1","SS1613138251747","trial","","40","800","1360.4649999877438","images/stimuli/spore_stims/complex_14_A_b.gif","images/stimuli/spore_stims/complex_04_B_a.gif","","","","","8","complex_dissimilar","images/stimuli/spore_stims/complex_04_B_a.gif","left","","","","",""
"","null","html-keyboard-response","156","245280","0.0-32.0-0.2","SS1613138251747","","","null","","","","","<p><img src= images/blank.png width =""200"" height = ""200"" style = ""float:right""></p><p><img src=images/blank.png width =""800"" height = ""200""></p>","","","","","","","","","","","",""
"","439.76500001735985","sequential-stimulus-presentation","157","246545","0.0-32.0-1.2","SS1613138251747","trial","","40","800","1239.7650000173599","images/stimuli/spore_stims/complex_14_A_b.gif","images/stimuli/spore_stims/complex_04_B_a.gif","","","","","8","complex_dissimilar","images/stimuli/spore_stims/complex_04_B_a.gif","left","","","","",""
"","null","html-keyboard-response","158","247540","0.0-32.0-0.3","SS1613138251747","","","null","","","","","<p><img src= images/blank.png width =""200"" height = ""200"" style = ""float:right""></p><p><img src=images/blank.png width =""800"" height = ""200""></p>","","","","","","","","","","","",""
"","145.01999999629334","sequential-stimulus-presentation","159","248522","0.0-32.0-1.3","SS1613138251747","trial","","40","800","945.0199999962933","images/stimuli/spore_stims/complex_14_A_b.gif","images/stimuli/spore_stims/complex_04_B_a.gif","","","","","8","complex_dissimilar","images/stimuli/spore_stims/complex_04_B_a.gif","left","","","","",""
"","null","html-keyboard-response","160","249748","0.0-32.0-0.4","SS1613138251747","","","null","","","","","<p><img src= images/blank.png width =""200"" height = ""200"" style = ""float:right""></p><p><img src=images/blank.png width =""800"" height = ""200""></p>","","","","","","","","","","","",""
"","320.04500000039116","sequential-stimulus-presentation","161","250895","0.0-32.0-1.4","SS1613138251747","trial","","40","800","1120.0450000003912","images/stimuli/spore_stims/complex_14_A_b.gif","images/stimuli/spore_stims/complex_04_B_a.gif","","","","","8","complex_dissimilar","images/stimuli/spore_stims/complex_04_B_a.gif","left","","","","",""
"","null","html-keyboard-response","162","251897","0.0-32.0-0.5","SS1613138251747","","","null","","","","","<p><img src= images/blank.png width =""200"" height = ""200"" style = ""float:right""></p><p><img src=images/blank.png width =""800"" height = ""200""></p>","","","","","","","","","","","",""
"","159.56499997992069","sequential-stimulus-presentation","163","252996","0.0-32.0-1.5","SS1613138251747","trial","","40","800","959.5649999799207","images/stimuli/spore_stims/complex_14_A_b.gif","images/stimuli/spore_stims/complex_04_B_a.gif","","","","","8","complex_dissimilar","images/stimuli/spore_stims/complex_04_B_a.gif","left","","","","",""
"","null","html-keyboard-response","164","254059","0.0-32.0-0.6","SS1613138251747","","","null","","","","","<p><img src= images/blank.png width =""200"" height = ""200"" style = ""float:right""></p><p><img src=images/blank.png width =""800"" height = ""200""></p>","","","","","","","","","","","",""
"","90.02000000327826","sequential-stimulus-presentation","165","254983","0.0-32.0-1.6","SS1613138251747","trial","","40","800","890.0200000032783","images/stimuli/spore_stims/complex_14_A_b.gif","images/stimuli/spore_stims/complex_04_B_a.gif","","","","","8","complex_dissimilar","images/stimuli/spore_stims/complex_04_B_a.gif","left","","","","",""
"","null","html-keyboard-response","166","256201","0.0-32.0-0.7","SS1613138251747","","","null","","","","","<p><img src= images/blank.png width =""200"" height = ""200"" style = ""float:right""></p><p><img src=images/blank.png width =""800"" height = ""200""></p>","","","","","","","","","","","",""
"","241.85499997111037","sequential-stimulus-presentation","167","257293","0.0-32.0-1.7","SS1613138251747","trial","","40","800","1041.8549999711104","images/stimuli/spore_stims/complex_14_A_b.gif","images/stimuli/spore_stims/complex_04_B_a.gif","","","","","8","complex_dissimilar","images/stimuli/spore_stims/complex_14_A_b.gif","right","","","","",""
"","2415.775000001304","html-keyboard-response","168","259757","0.0-33.0","SS1613138251747","pref_question","","49","","","","","<video width ='960' height = '540' style='padding-top:8%' autoplay muted><source src='images/stimuli/wall_pref.mp4' type='video/mp4'></video>","1","left","25%","8","","","","","","","",""
"","242.65999998897314","sequential-stimulus-presentation","169","260877","0.0-34.0","SS1613138251747","pref_reveal","","40","800","1042.6599999889731","null","null","","","","","8","","","","background","","","",""
"","null","html-keyboard-response","170","261961","0.0-35.0-0.0","SS1613138251747","","","null","","","","","<p><img src= images/blank.png width =""200"" height = ""200"" style = ""float:right""></p><p><img src=images/blank.png width =""800"" height = ""200""></p>","","","","","","","","","","","",""
"","29.159999976400286","sequential-stimulus-presentation","171","262829","0.0-35.0-1.0","SS1613138251747","trial","","40","800","829.1599999764003","images/stimuli/spore_stims/complex_17_B_b.gif","images/stimuli/spore_stims/complex_17_A_b.gif","","","","","9","complex_similar","images/stimuli/spore_stims/complex_17_A_b.gif","middle","","","","",""
"","null","html-keyboard-response","172","263705","0.0-35.0-0.1","SS1613138251747","","","null","","","","","<p><img src= images/blank.png width =""200"" height = ""200"" style = ""float:right""></p><p><img src=images/blank.png width =""800"" height = ""200""></p>","","","","","","","","","","","",""
"","185.04999997094274","sequential-stimulus-presentation","173","264721","0.0-35.0-1.1","SS1613138251747","trial","","40","800","985.0499999709427","images/stimuli/spore_stims/complex_17_B_b.gif","images/stimuli/spore_stims/complex_17_A_b.gif","","","","","9","complex_similar","images/stimuli/spore_stims/complex_17_A_b.gif","middle","","","","",""
"","null","html-keyboard-response","174","265814","0.0-35.0-0.2","SS1613138251747","","","null","","","","","<p><img src= images/blank.png width =""200"" height = ""200"" style = ""float:right""></p><p><img src=images/blank.png width =""800"" height = ""200""></p>","","","","","","","","","","","",""
"","39.91500003030524","sequential-stimulus-presentation","175","266685","0.0-35.0-1.2","SS1613138251747","trial","","40","800","839.9150000303052","images/stimuli/spore_stims/complex_17_B_b.gif","images/stimuli/spore_stims/complex_17_A_b.gif","","","","","9","complex_similar","images/stimuli/spore_stims/complex_17_A_b.gif","middle","","","","",""
"","null","html-keyboard-response","176","267681","0.0-35.0-0.3","SS1613138251747","","","null","","","","","<p><img src= images/blank.png width =""200"" height = ""200"" style = ""float:right""></p><p><img src=images/blank.png width =""800"" height = ""200""></p>","","","","","","","","","","","",""
"","138.76499998150393","sequential-stimulus-presentation","177","268837","0.0-35.0-1.3","SS1613138251747","trial","","40","800","938.7649999815039","images/stimuli/spore_stims/complex_17_B_b.gif","images/stimuli/spore_stims/complex_17_A_b.gif","","","","","9","complex_similar","images/stimuli/spore_stims/complex_17_A_b.gif","middle","","","","",""
"","null","html-keyboard-response","178","269895","0.0-35.0-0.4","SS1613138251747","","","null","","","","","<p><img src= images/blank.png width =""200"" height = ""200"" style = ""float:right""></p><p><img src=images/blank.png width =""800"" height = ""200""></p>","","","","","","","","","","","",""
"","420.86000001290813","sequential-stimulus-presentation","179","271152","0.0-35.0-1.4","SS1613138251747","trial","","40","800","1220.8600000129081","images/stimuli/spore_stims/complex_17_B_b.gif","images/stimuli/spore_stims/complex_17_A_b.gif","","","","","9","complex_similar","images/stimuli/spore_stims/complex_17_B_b.gif","left","","","","",""
"","null","html-keyboard-response","180","272272","0.0-35.0-0.5","SS1613138251747","","","null","","","","","<p><img src= images/blank.png width =""200"" height = ""200"" style = ""float:right""></p><p><img src=images/blank.png width =""800"" height = ""200""></p>","","","","","","","","","","","",""
"","174.3750000023283","sequential-stimulus-presentation","181","273293","0.0-35.0-1.5","SS1613138251747","trial","","40","800","974.3750000023283","images/stimuli/spore_stims/complex_17_B_b.gif","images/stimuli/spore_stims/complex_17_A_b.gif","","","","","9","complex_similar","images/stimuli/spore_stims/complex_17_A_b.gif","middle","","","","",""
"","null","html-keyboard-response","182","274623","0.0-35.0-0.6","SS1613138251747","","","null","","","","","<p><img src= images/blank.png width =""200"" height = ""200"" style = ""float:right""></p><p><img src=images/blank.png width =""800"" height = ""200""></p>","","","","","","","","","","","",""
"","198.73499998357147","sequential-stimulus-presentation","183","275651","0.0-35.0-1.6","SS1613138251747","trial","","40","800","998.7349999835715","images/stimuli/spore_stims/complex_17_B_b.gif","images/stimuli/spore_stims/complex_17_A_b.gif","","","","","9","complex_similar","images/stimuli/spore_stims/complex_17_A_b.gif","middle","","","","",""
"","null","html-keyboard-response","184","276918","0.0-35.0-0.7","SS1613138251747","","","null","","","","","<p><img src= images/blank.png width =""200"" height = ""200"" style = ""float:right""></p><p><img src=images/blank.png width =""800"" height = ""200""></p>","","","","","","","","","","","",""
"","202.72500003920868","sequential-stimulus-presentation","185","278061","0.0-35.0-1.7","SS1613138251747","trial","","40","800","1002.7250000392087","images/stimuli/spore_stims/complex_17_B_b.gif","images/stimuli/spore_stims/complex_17_A_b.gif","","","","","9","complex_similar","images/stimuli/spore_stims/complex_17_A_b.gif","middle","","","","",""
"","2095.885000017006","html-keyboard-response","186","280180","0.0-36.0","SS1613138251747","pref_question","","51","","","","","<video width ='960' height = '540' style='padding-top:8%' autoplay muted><source src='images/stimuli/wall_pref.mp4' type='video/mp4'></video>","3","right","66%","9","","","","","","","",""
"","123.03499999688938","sequential-stimulus-presentation","187","281182","0.0-37.0","SS1613138251747","pref_reveal","","40","800","923.0349999968894","null","null","","","","","9","","","","novel","","","",""
"","null","html-keyboard-response","188","282355","0.0-38.0-0.0","SS1613138251747","","","null","","","","","<p><img src= images/blank.png width =""200"" height = ""200"" style = ""float:right""></p><p><img src=images/blank.png width =""800"" height = ""200""></p>","","","","","","","","","","","",""
"","275.0400000368245","sequential-stimulus-presentation","189","283489","0.0-38.0-1.0","SS1613138251747","trial","","40","800","1075.0400000368245","images/stimuli/spore_stims/simple_05_B_a.gif","images/stimuli/spore_stims/simple_05_A_b.gif","","","","","10","simple_dissimilar","images/stimuli/spore_stims/simple_05_A_b.gif","middle","","","","",""
"","null","html-keyboard-response","190","284712","0.0-38.0-0.1","SS1613138251747","","","null","","","","","<p><img src= images/blank.png width =""200"" height = ""200"" style = ""float:right""></p><p><img src=images/blank.png width =""800"" height = ""200""></p>","","","","","","","","","","","",""
"","322.28000002214685","sequential-stimulus-presentation","191","285868","0.0-38.0-1.1","SS1613138251747","trial","","40","800","1122.2800000221469","images/stimuli/spore_stims/simple_05_B_a.gif","images/stimuli/spore_stims/simple_05_A_b.gif","","","","","10","simple_dissimilar","images/stimuli/spore_stims/simple_05_A_b.gif","middle","","","","",""
"","null","html-keyboard-response","192","287068","0.0-38.0-0.2","SS1613138251747","","","null","","","","","<p><img src= images/blank.png width =""200"" height = ""200"" style = ""float:right""></p><p><img src=images/blank.png width =""800"" height = ""200""></p>","","","","","","","","","","","",""
"","316.93000002996996","sequential-stimulus-presentation","193","288223","0.0-38.0-1.2","SS1613138251747","trial","","40","800","1116.93000002997","images/stimuli/spore_stims/simple_05_B_a.gif","images/stimuli/spore_stims/simple_05_A_b.gif","","","","","10","simple_dissimilar","images/stimuli/spore_stims/simple_05_A_b.gif","middle","","","","",""
"","null","html-keyboard-response","194","289121","0.0-38.0-0.3","SS1613138251747","","","null","","","","","<p><img src= images/blank.png width =""200"" height = ""200"" style = ""float:right""></p><p><img src=images/blank.png width =""800"" height = ""200""></p>","","","","","","","","","","","",""
"","107.4749999679625","sequential-stimulus-presentation","195","290056","0.0-38.0-1.3","SS1613138251747","trial","","40","800","907.4749999679625","images/stimuli/spore_stims/simple_05_B_a.gif","images/stimuli/spore_stims/simple_05_A_b.gif","","","","","10","simple_dissimilar","images/stimuli/spore_stims/simple_05_A_b.gif","middle","","","","",""
"","null","html-keyboard-response","196","291161","0.0-38.0-0.4","SS1613138251747","","","null","","","","","<p><img src= images/blank.png width =""200"" height = ""200"" style = ""float:right""></p><p><img src=images/blank.png width =""800"" height = ""200""></p>","","","","","","","","","","","",""
"","138.94000003347173","sequential-stimulus-presentation","197","292147","0.0-38.0-1.4","SS1613138251747","trial","","40","800","938.9400000334717","images/stimuli/spore_stims/simple_05_B_a.gif","images/stimuli/spore_stims/simple_05_A_b.gif","","","","","10","simple_dissimilar","images/stimuli/spore_stims/simple_05_B_a.gif","right","","","","",""
"","null","html-keyboard-response","198","293088","0.0-38.0-0.5","SS1613138251747","","","null","","","","","<p><img src= images/blank.png width =""200"" height = ""200"" style = ""float:right""></p><p><img src=images/blank.png width =""800"" height = ""200""></p>","","","","","","","","","","","",""
"","275.3149999771267","sequential-stimulus-presentation","199","294200","0.0-38.0-1.5","SS1613138251747","trial","","40","800","1075.3149999771267","images/stimuli/spore_stims/simple_05_B_a.gif","images/stimuli/spore_stims/simple_05_A_b.gif","","","","","10","simple_dissimilar","images/stimuli/spore_stims/simple_05_A_b.gif","middle","","","","",""
"","null","html-keyboard-response","200","295112","0.0-38.0-0.6","SS1613138251747","","","null","","","","","<p><img src= images/blank.png width =""200"" height = ""200"" style = ""float:right""></p><p><img src=images/blank.png width =""800"" height = ""200""></p>","","","","","","","","","","","",""
"","190.5900000128895","sequential-stimulus-presentation","201","296161","0.0-38.0-1.6","SS1613138251747","trial","","40","800","990.5900000128895","images/stimuli/spore_stims/simple_05_B_a.gif","images/stimuli/spore_stims/simple_05_A_b.gif","","","","","10","simple_dissimilar","images/stimuli/spore_stims/simple_05_A_b.gif","middle","","","","",""
"","null","html-keyboard-response","202","297455","0.0-38.0-0.7","SS1613138251747","","","null","","","","","<p><img src= images/blank.png width =""200"" height = ""200"" style = ""float:right""></p><p><img src=images/blank.png width =""800"" height = ""200""></p>","","","","","","","","","","","",""
"","136.35000004433095","sequential-stimulus-presentation","203","298453","0.0-38.0-1.7","SS1613138251747","trial","","40","800","936.350000044331","images/stimuli/spore_stims/simple_05_B_a.gif","images/stimuli/spore_stims/simple_05_A_b.gif","","","","","10","simple_dissimilar","images/stimuli/spore_stims/simple_05_A_b.gif","middle","","","","",""
"","2687.755000020843","html-keyboard-response","204","301163","0.0-39.0","SS1613138251747","pref_question","","50","","","","","<video width ='960' height = '540' style='padding-top:8%' autoplay muted><source src='images/stimuli/wall_pref.mp4' type='video/mp4'></video>","2","middle","45%","10","","","","","","","",""
"","205.85999998729676","sequential-stimulus-presentation","205","302203","0.0-40.0","SS1613138251747","pref_reveal","","40","800","1005.8599999872968","null","null","","","","","10","","","","background","","","",""
"","null","html-keyboard-response","206","303346","0.0-41.0-0.0","SS1613138251747","","","null","","","","","<p><img src= images/blank.png width =""200"" height = ""200"" style = ""float:right""></p><p><img src=images/blank.png width =""800"" height = ""200""></p>","","","","","","","","","","","",""
"","400.92500002356246","sequential-stimulus-presentation","207","304665","0.0-41.0-1.0","SS1613138251747","trial","","40","800","1200.9250000235625","images/stimuli/spore_stims/simple_16_B_c.gif","images/stimuli/spore_stims/simple_16_A_c.gif","","","","","11","simple_similar","images/stimuli/spore_stims/simple_16_A_c.gif","middle","","","","",""
"","null","html-keyboard-response","208","305558","0.0-41.0-0.1","SS1613138251747","","","null","","","","","<p><img src= images/blank.png width =""200"" height = ""200"" style = ""float:right""></p><p><img src=images/blank.png width =""800"" height = ""200""></p>","","","","","","","","","","","",""
"","112.56999999750406","sequential-stimulus-presentation","209","306522","0.0-41.0-1.1","SS1613138251747","trial","","40","800","912.569999997504","images/stimuli/spore_stims/simple_16_B_c.gif","images/stimuli/spore_stims/simple_16_A_c.gif","","","","","11","simple_similar","images/stimuli/spore_stims/simple_16_A_c.gif","middle","","","","",""
"","null","html-keyboard-response","210","307787","0.0-41.0-0.2","SS1613138251747","","","null","","","","","<p><img src= images/blank.png width =""200"" height = ""200"" style = ""float:right""></p><p><img src=images/blank.png width =""800"" height = ""200""></p>","","","","","","","","","","","",""
"","491.1599999759346","sequential-stimulus-presentation","211","309131","0.0-41.0-1.2","SS1613138251747","trial","","40","800","1291.1599999759346","images/stimuli/spore_stims/simple_16_B_c.gif","images/stimuli/spore_stims/simple_16_A_c.gif","","","","","11","simple_similar","images/stimuli/spore_stims/simple_16_A_c.gif","middle","","","","",""
"","null","html-keyboard-response","212","309998","0.0-41.0-0.3","SS1613138251747","","","null","","","","","<p><img src= images/blank.png width =""200"" height = ""200"" style = ""float:right""></p><p><img src=images/blank.png width =""800"" height = ""200""></p>","","","","","","","","","","","",""
"","238.3949999930337","sequential-stimulus-presentation","213","311078","0.0-41.0-1.3","SS1613138251747","trial","","40","800","1038.3949999930337","images/stimuli/spore_stims/simple_16_B_c.gif","images/stimuli/spore_stims/simple_16_A_c.gif","","","","","11","simple_similar","images/stimuli/spore_stims/simple_16_A_c.gif","middle","","","","",""
"","null","html-keyboard-response","214","311919","0.0-41.0-0.4","SS1613138251747","","","null","","","","","<p><img src= images/blank.png width =""200"" height = ""200"" style = ""float:right""></p><p><img src=images/blank.png width =""800"" height = ""200""></p>","","","","","","","","","","","",""
"","523.6199999926612","sequential-stimulus-presentation","215","313284","0.0-41.0-1.4","SS1613138251747","trial","","40","800","1323.6199999926612","images/stimuli/spore_stims/simple_16_B_c.gif","images/stimuli/spore_stims/simple_16_A_c.gif","","","","","11","simple_similar","images/stimuli/spore_stims/simple_16_B_c.gif","right","","","","",""
"","null","html-keyboard-response","216","314184","0.0-41.0-0.5","SS1613138251747","","","null","","","","","<p><img src= images/blank.png width =""200"" height = ""200"" style = ""float:right""></p><p><img src=images/blank.png width =""800"" height = ""200""></p>","","","","","","","","","","","",""
"","233.55500004254282","sequential-stimulus-presentation","217","315300","0.0-41.0-1.5","SS1613138251747","trial","","40","800","1033.5550000425428","images/stimuli/spore_stims/simple_16_B_c.gif","images/stimuli/spore_stims/simple_16_A_c.gif","","","","","11","simple_similar","images/stimuli/spore_stims/simple_16_A_c.gif","middle","","","","",""
"","null","html-keyboard-response","218","316199","0.0-41.0-0.6","SS1613138251747","","","null","","","","","<p><img src= images/blank.png width =""200"" height = ""200"" style = ""float:right""></p><p><img src=images/blank.png width =""800"" height = ""200""></p>","","","","","","","","","","","",""
"","244.1549999639392","sequential-stimulus-presentation","219","317282","0.0-41.0-1.6","SS1613138251747","trial","","40","800","1044.1549999639392","images/stimuli/spore_stims/simple_16_B_c.gif","images/stimuli/spore_stims/simple_16_A_c.gif","","","","","11","simple_similar","images/stimuli/spore_stims/simple_16_A_c.gif","middle","","","","",""
"","null","html-keyboard-response","220","318536","0.0-41.0-0.7","SS1613138251747","","","null","","","","","<p><img src= images/blank.png width =""200"" height = ""200"" style = ""float:right""></p><p><img src=images/blank.png width =""800"" height = ""200""></p>","","","","","","","","","","","",""
"","440.02499995986","sequential-stimulus-presentation","221","319811","0.0-41.0-1.7","SS1613138251747","trial","","40","800","1240.02499995986","images/stimuli/spore_stims/simple_16_B_c.gif","images/stimuli/spore_stims/simple_16_A_c.gif","","","","","11","simple_similar","images/stimuli/spore_stims/simple_16_A_c.gif","middle","","","","",""
"","3127.505000040401","html-keyboard-response","222","322966","0.0-42.0","SS1613138251747","pref_question","","51","","","","","<video width ='960' height = '540' style='padding-top:8%' autoplay muted><source src='images/stimuli/wall_pref.mp4' type='video/mp4'></video>","3","right","66%","11","","","","","","","",""
"","298.8699999987148","sequential-stimulus-presentation","223","324137","0.0-43.0","SS1613138251747","pref_reveal","","40","800","1098.8699999987148","null","null","","","","","11","","","","deviant","","","",""
"","null","html-keyboard-response","224","325046","0.0-44.0-0.0","SS1613138251747","","","null","","","","","<p><img src= images/blank.png width =""200"" height = ""200"" style = ""float:right""></p><p><img src=images/blank.png width =""800"" height = ""200""></p>","","","","","","","","","","","",""
"","11.785000038798898","sequential-stimulus-presentation","225","325937","0.0-44.0-1.0","SS1613138251747","trial","","40","800","811.7850000387989","images/stimuli/spore_stims/complex_09_B_d.gif","images/stimuli/spore_stims/complex_14_B_a.gif","","","","","12","complex_dissimilar","images/stimuli/spore_stims/complex_14_B_a.gif","left","","","","",""
"","null","html-keyboard-response","226","326914","0.0-44.0-0.1","SS1613138251747","","","null","","","","","<p><img src= images/blank.png width =""200"" height = ""200"" style = ""float:right""></p><p><img src=images/blank.png width =""800"" height = ""200""></p>","","","","","","","","","","","",""
"","312.32999998610467","sequential-stimulus-presentation","227","328057","0.0-44.0-1.1","SS1613138251747","trial","","40","800","1112.3299999861047","images/stimuli/spore_stims/complex_09_B_d.gif","images/stimuli/spore_stims/complex_14_B_a.gif","","","","","12","complex_dissimilar","images/stimuli/spore_stims/complex_14_B_a.gif","left","","","","",""
"","null","html-keyboard-response","228","329295","0.0-44.0-0.2","SS1613138251747","","","null","","","","","<p><img src= images/blank.png width =""200"" height = ""200"" style = ""float:right""></p><p><img src=images/blank.png width =""800"" height = ""200""></p>","","","","","","","","","","","",""
"","315.619999950286","sequential-stimulus-presentation","229","330438","0.0-44.0-1.2","SS1613138251747","trial","","40","800","1115.619999950286","images/stimuli/spore_stims/complex_09_B_d.gif","images/stimuli/spore_stims/complex_14_B_a.gif","","","","","12","complex_dissimilar","images/stimuli/spore_stims/complex_14_B_a.gif","left","","","","",""
"","null","html-keyboard-response","230","331552","0.0-44.0-0.3","SS1613138251747","","","null","","","","","<p><img src= images/blank.png width =""200"" height = ""200"" style = ""float:right""></p><p><img src=images/blank.png width =""800"" height = ""200""></p>","","","","","","","","","","","",""
"","328.08499998645857","sequential-stimulus-presentation","231","332704","0.0-44.0-1.3","SS1613138251747","trial","","40","800","1128.0849999864586","images/stimuli/spore_stims/complex_09_B_d.gif","images/stimuli/spore_stims/complex_14_B_a.gif","","","","","12","complex_dissimilar","images/stimuli/spore_stims/complex_14_B_a.gif","left","","","","",""
"","null","html-keyboard-response","232","333912","0.0-44.0-0.4","SS1613138251747","","","null","","","","","<p><img src= images/blank.png width =""200"" height = ""200"" style = ""float:right""></p><p><img src=images/blank.png width =""800"" height = ""200""></p>","","","","","","","","","","","",""
"","85.40000003995374","sequential-stimulus-presentation","233","334841","0.0-44.0-1.4","SS1613138251747","trial","","40","800","885.4000000399537","images/stimuli/spore_stims/complex_09_B_d.gif","images/stimuli/spore_stims/complex_14_B_a.gif","","","","","12","complex_dissimilar","images/stimuli/spore_stims/complex_14_B_a.gif","left","","","","",""
"","null","html-keyboard-response","234","336176","0.0-44.0-0.5","SS1613138251747","","","null","","","","","<p><img src= images/blank.png width =""200"" height = ""200"" style = ""float:right""></p><p><img src=images/blank.png width =""800"" height = ""200""></p>","","","","","","","","","","","",""
"","721.2949999957345","sequential-stimulus-presentation","235","337745","0.0-44.0-1.5","SS1613138251747","trial","","40","800","1521.2949999957345","images/stimuli/spore_stims/complex_09_B_d.gif","images/stimuli/spore_stims/complex_14_B_a.gif","","","","","12","complex_dissimilar","images/stimuli/spore_stims/complex_14_B_a.gif","left","","","","",""
"","null","html-keyboard-response","236","338577","0.0-44.0-0.6","SS1613138251747","","","null","","","","","<p><img src= images/blank.png width =""200"" height = ""200"" style = ""float:right""></p><p><img src=images/blank.png width =""800"" height = ""200""></p>","","","","","","","","","","","",""
"","480.7200000504963","sequential-stimulus-presentation","237","339906","0.0-44.0-1.6","SS1613138251747","trial","","40","800","1280.7200000504963","images/stimuli/spore_stims/complex_09_B_d.gif","images/stimuli/spore_stims/complex_14_B_a.gif","","","","","12","complex_dissimilar","images/stimuli/spore_stims/complex_09_B_d.gif","right","","","","",""
"","null","html-keyboard-response","238","340800","0.0-44.0-0.7","SS1613138251747","","","null","","","","","<p><img src= images/blank.png width =""200"" height = ""200"" style = ""float:right""></p><p><img src=images/blank.png width =""800"" height = ""200""></p>","","","","","","","","","","","",""
"","261.4700000267476","sequential-stimulus-presentation","239","341890","0.0-44.0-1.7","SS1613138251747","trial","","40","800","1061.4700000267476","images/stimuli/spore_stims/complex_09_B_d.gif","images/stimuli/spore_stims/complex_14_B_a.gif","","","","","12","complex_dissimilar","images/stimuli/spore_stims/complex_14_B_a.gif","left","","","","",""
"","15502.829999953974","html-keyboard-response","240","357417","0.0-45.0","SS1613138251747","pref_question","","51","","","","","<video width ='960' height = '540' style='padding-top:8%' autoplay muted><source src='images/stimuli/wall_pref.mp4' type='video/mp4'></video>","3","right","66%","12","","","","","","","",""
"","184.95500000426546","sequential-stimulus-presentation","241","358432","0.0-46.0","SS1613138251747","pref_reveal","","40","800","984.9550000042655","null","null","","","","","12","","","","deviant","","","",""
"","null","html-keyboard-response","242","359371","0.0-47.0-0.0","SS1613138251747","","","null","","","","","<p><img src= images/blank.png width =""200"" height = ""200"" style = ""float:right""></p><p><img src=images/blank.png width =""800"" height = ""200""></p>","","","","","","","","","","","",""
"","209.05999996466562","sequential-stimulus-presentation","243","360436","0.0-47.0-1.0","SS1613138251747","trial","","40","800","1009.0599999646656","images/stimuli/spore_stims/complex_13_B_c.gif","images/stimuli/spore_stims/complex_06_A_a.gif","","","","","13","complex_dissimilar","images/stimuli/spore_stims/complex_06_A_a.gif","left","","","","",""
"","null","html-keyboard-response","244","361508","0.0-47.0-0.1","SS1613138251747","","","null","","","","","<p><img src= images/blank.png width =""200"" height = ""200"" style = ""float:right""></p><p><img src=images/blank.png width =""800"" height = ""200""></p>","","","","","","","","","","","",""
"","197.43000000016764","sequential-stimulus-presentation","245","362553","0.0-47.0-1.1","SS1613138251747","trial","","40","800","997.4300000001676","images/stimuli/spore_stims/complex_13_B_c.gif","images/stimuli/spore_stims/complex_06_A_a.gif","","","","","13","complex_dissimilar","images/stimuli/spore_stims/complex_06_A_a.gif","left","","","","",""
"","null","html-keyboard-response","246","363595","0.0-47.0-0.2","SS1613138251747","","","null","","","","","<p><img src= images/blank.png width =""200"" height = ""200"" style = ""float:right""></p><p><img src=images/blank.png width =""800"" height = ""200""></p>","","","","","","","","","","","",""
"","204.82499996433035","sequential-stimulus-presentation","247","364627","0.0-47.0-1.2","SS1613138251747","trial","","40","800","1004.8249999643303","images/stimuli/spore_stims/complex_13_B_c.gif","images/stimuli/spore_stims/complex_06_A_a.gif","","","","","13","complex_dissimilar","images/stimuli/spore_stims/complex_06_A_a.gif","left","","","","",""
"","null","html-keyboard-response","248","365556","0.0-47.0-0.3","SS1613138251747","","","null","","","","","<p><img src= images/blank.png width =""200"" height = ""200"" style = ""float:right""></p><p><img src=images/blank.png width =""800"" height = ""200""></p>","","","","","","","","","","","",""
"","243.21499996585771","sequential-stimulus-presentation","249","366638","0.0-47.0-1.3","SS1613138251747","trial","","40","800","1043.2149999658577","images/stimuli/spore_stims/complex_13_B_c.gif","images/stimuli/spore_stims/complex_06_A_a.gif","","","","","13","complex_dissimilar","images/stimuli/spore_stims/complex_06_A_a.gif","left","","","","",""
"","null","html-keyboard-response","250","367666","0.0-47.0-0.4","SS1613138251747","","","null","","","","","<p><img src= images/blank.png width =""200"" height = ""200"" style = ""float:right""></p><p><img src=images/blank.png width =""800"" height = ""200""></p>","","","","","","","","","","","",""
"","187.51999997766688","sequential-stimulus-presentation","251","368700","0.0-47.0-1.4","SS1613138251747","trial","","40","800","987.5199999776669","images/stimuli/spore_stims/complex_13_B_c.gif","images/stimuli/spore_stims/complex_06_A_a.gif","","","","","13","complex_dissimilar","images/stimuli/spore_stims/complex_06_A_a.gif","left","","","","",""
"","null","html-keyboard-response","252","369751","0.0-47.0-0.5","SS1613138251747","","","null","","","","","<p><img src= images/blank.png width =""200"" height = ""200"" style = ""float:right""></p><p><img src=images/blank.png width =""800"" height = ""200""></p>","","","","","","","","","","","",""
"","41.5999999968335","sequential-stimulus-presentation","253","370646","0.0-47.0-1.5","SS1613138251747","trial","","40","800","841.5999999968335","images/stimuli/spore_stims/complex_13_B_c.gif","images/stimuli/spore_stims/complex_06_A_a.gif","","","","","13","complex_dissimilar","images/stimuli/spore_stims/complex_06_A_a.gif","left","","","","",""
"","null","html-keyboard-response","254","371907","0.0-47.0-0.6","SS1613138251747","","","null","","","","","<p><img src= images/blank.png width =""200"" height = ""200"" style = ""float:right""></p><p><img src=images/blank.png width =""800"" height = ""200""></p>","","","","","","","","","","","",""
"","218.35000003920868","sequential-stimulus-presentation","255","373037","0.0-47.0-1.6","SS1613138251747","trial","","40","800","1018.3500000392087","images/stimuli/spore_stims/complex_13_B_c.gif","images/stimuli/spore_stims/complex_06_A_a.gif","","","","","13","complex_dissimilar","images/stimuli/spore_stims/complex_06_A_a.gif","left","","","","",""
"","null","html-keyboard-response","256","374230","0.0-47.0-0.7","SS1613138251747","","","null","","","","","<p><img src= images/blank.png width =""200"" height = ""200"" style = ""float:right""></p><p><img src=images/blank.png width =""800"" height = ""200""></p>","","","","","","","","","","","",""
"","154.37000000383705","sequential-stimulus-presentation","257","375218","0.0-47.0-1.7","SS1613138251747","trial","","40","800","954.370000003837","images/stimuli/spore_stims/complex_13_B_c.gif","images/stimuli/spore_stims/complex_06_A_a.gif","","","","","13","complex_dissimilar","images/stimuli/spore_stims/complex_13_B_c.gif","middle","","","","",""
"","1683.2649999996647","html-keyboard-response","258","376928","0.0-48.0","SS1613138251747","pref_question","","50","","","","","<video width ='960' height = '540' style='padding-top:8%' autoplay muted><source src='images/stimuli/wall_pref.mp4' type='video/mp4'></video>","2","middle","45%","13","","","","","","","",""
"","338.2500000298023","sequential-stimulus-presentation","259","378127","0.0-49.0","SS1613138251747","pref_reveal","","40","800","1138.2500000298023","null","null","","","","","13","","","","deviant","","","",""
"","null","html-keyboard-response","260","378990","0.0-50.0-0.0","SS1613138251747","","","null","","","","","<p><img src= images/blank.png width =""200"" height = ""200"" style = ""float:right""></p><p><img src=images/blank.png width =""800"" height = ""200""></p>","","","","","","","","","","","",""
"","192.7799999830313","sequential-stimulus-presentation","261","380065","0.0-50.0-1.0","SS1613138251747","trial","","40","800","992.7799999830313","images/stimuli/spore_stims/complex_19_A_c.gif","images/stimuli/spore_stims/complex_04_A_b.gif","","","","","14","complex_dissimilar","images/stimuli/spore_stims/complex_04_A_b.gif","right","","","","",""
"","null","html-keyboard-response","262","380956","0.0-50.0-0.1","SS1613138251747","","","null","","","","","<p><img src= images/blank.png width =""200"" height = ""200"" style = ""float:right""></p><p><img src=images/blank.png width =""800"" height = ""200""></p>","","","","","","","","","","","",""
"","83.6049999925308","sequential-stimulus-presentation","263","381870","0.0-50.0-1.1","SS1613138251747","trial","","40","800","883.6049999925308","images/stimuli/spore_stims/complex_19_A_c.gif","images/stimuli/spore_stims/complex_04_A_b.gif","","","","","14","complex_dissimilar","images/stimuli/spore_stims/complex_04_A_b.gif","right","","","","",""
"","null","html-keyboard-response","264","382961","0.0-50.0-0.2","SS1613138251747","","","null","","","","","<p><img src= images/blank.png width =""200"" height = ""200"" style = ""float:right""></p><p><img src=images/blank.png width =""800"" height = ""200""></p>","","","","","","","","","","","",""
"","372.3899999749847","sequential-stimulus-presentation","265","384176","0.0-50.0-1.2","SS1613138251747","trial","","40","800","1172.3899999749847","images/stimuli/spore_stims/complex_19_A_c.gif","images/stimuli/spore_stims/complex_04_A_b.gif","","","","","14","complex_dissimilar","images/stimuli/spore_stims/complex_04_A_b.gif","right","","","","",""
"","null","html-keyboard-response","266","385355","0.0-50.0-0.3","SS1613138251747","","","null","","","","","<p><img src= images/blank.png width =""200"" height = ""200"" style = ""float:right""></p><p><img src=images/blank.png width =""800"" height = ""200""></p>","","","","","","","","","","","",""
"","117.92499996954575","sequential-stimulus-presentation","267","386331","0.0-50.0-1.3","SS1613138251747","trial","","40","800","917.9249999695458","images/stimuli/spore_stims/complex_19_A_c.gif","images/stimuli/spore_stims/complex_04_A_b.gif","","","","","14","complex_dissimilar","images/stimuli/spore_stims/complex_04_A_b.gif","right","","","","",""
"","null","html-keyboard-response","268","387601","0.0-50.0-0.4","SS1613138251747","","","null","","","","","<p><img src= images/blank.png width =""200"" height = ""200"" style = ""float:right""></p><p><img src=images/blank.png width =""800"" height = ""200""></p>","","","","","","","","","","","",""
"","77.28500000666827","sequential-stimulus-presentation","269","388513","0.0-50.0-1.4","SS1613138251747","trial","","40","800","877.2850000066683","images/stimuli/spore_stims/complex_19_A_c.gif","images/stimuli/spore_stims/complex_04_A_b.gif","","","","","14","complex_dissimilar","images/stimuli/spore_stims/complex_19_A_c.gif","middle","","","","",""
"","null","html-keyboard-response","270","389379","0.0-50.0-0.5","SS1613138251747","","","null","","","","","<p><img src= images/blank.png width =""200"" height = ""200"" style = ""float:right""></p><p><img src=images/blank.png width =""800"" height = ""200""></p>","","","","","","","","","","","",""
"","297.0600000116974","sequential-stimulus-presentation","271","390552","0.0-50.0-1.5","SS1613138251747","trial","","40","800","1097.0600000116974","images/stimuli/spore_stims/complex_19_A_c.gif","images/stimuli/spore_stims/complex_04_A_b.gif","","","","","14","complex_dissimilar","images/stimuli/spore_stims/complex_04_A_b.gif","right","","","","",""
"","null","html-keyboard-response","272","391636","0.0-50.0-0.6","SS1613138251747","","","null","","","","","<p><img src= images/blank.png width =""200"" height = ""200"" style = ""float:right""></p><p><img src=images/blank.png width =""800"" height = ""200""></p>","","","","","","","","","","","",""
"","149.85500002512708","sequential-stimulus-presentation","273","392634","0.0-50.0-1.6","SS1613138251747","trial","","40","800","949.8550000251271","images/stimuli/spore_stims/complex_19_A_c.gif","images/stimuli/spore_stims/complex_04_A_b.gif","","","","","14","complex_dissimilar","images/stimuli/spore_stims/complex_04_A_b.gif","right","","","","",""
"","null","html-keyboard-response","274","393780","0.0-50.0-0.7","SS1613138251747","","","null","","","","","<p><img src= images/blank.png width =""200"" height = ""200"" style = ""float:right""></p><p><img src=images/blank.png width =""800"" height = ""200""></p>","","","","","","","","","","","",""
"","46.71500000404194","sequential-stimulus-presentation","275","394673","0.0-50.0-1.7","SS1613138251747","trial","","40","800","846.7150000040419","images/stimuli/spore_stims/complex_19_A_c.gif","images/stimuli/spore_stims/complex_04_A_b.gif","","","","","14","complex_dissimilar","images/stimuli/spore_stims/complex_04_A_b.gif","right","","","","",""
"","1623.45999997342","html-keyboard-response","276","396332","0.0-51.0","SS1613138251747","pref_question","","50","","","","","<video width ='960' height = '540' style='padding-top:8%' autoplay muted><source src='images/stimuli/wall_pref.mp4' type='video/mp4'></video>","2","middle","45%","14","","","","","","","",""
"","176.4100000145845","sequential-stimulus-presentation","277","397346","0.0-52.0","SS1613138251747","pref_reveal","","40","800","976.4100000145845","null","null","","","","","14","","","","deviant","","","",""
"","null","html-keyboard-response","278","398308","0.0-53.0-0.0","SS1613138251747","","","null","","","","","<p><img src= images/blank.png width =""200"" height = ""200"" style = ""float:right""></p><p><img src=images/blank.png width =""800"" height = ""200""></p>","","","","","","","","","","","",""
"","239.5799999940209","sequential-stimulus-presentation","279","399384","0.0-53.0-1.0","SS1613138251747","trial","","40","800","1039.579999994021","images/stimuli/spore_stims/simple_11_B_a.gif","images/stimuli/spore_stims/simple_18_B_c.gif","","","","","15","simple_dissimilar","images/stimuli/spore_stims/simple_18_B_c.gif","left","","","","",""
"","null","html-keyboard-response","280","400391","0.0-53.0-0.1","SS1613138251747","","","null","","","","","<p><img src= images/blank.png width =""200"" height = ""200"" style = ""float:right""></p><p><img src=images/blank.png width =""800"" height = ""200""></p>","","","","","","","","","","","",""
"","152.1599999978207","sequential-stimulus-presentation","281","401392","0.0-53.0-1.1","SS1613138251747","trial","","40","800","952.1599999978207","images/stimuli/spore_stims/simple_11_B_a.gif","images/stimuli/spore_stims/simple_18_B_c.gif","","","","","15","simple_dissimilar","images/stimuli/spore_stims/simple_18_B_c.gif","left","","","","",""
"","null","html-keyboard-response","282","402268","0.0-53.0-0.2","SS1613138251747","","","null","","","","","<p><img src= images/blank.png width =""200"" height = ""200"" style = ""float:right""></p><p><img src=images/blank.png width =""800"" height = ""200""></p>","","","","","","","","","","","",""
"","165.76999996323138","sequential-stimulus-presentation","283","403276","0.0-53.0-1.2","SS1613138251747","trial","","40","800","965.7699999632314","images/stimuli/spore_stims/simple_11_B_a.gif","images/stimuli/spore_stims/simple_18_B_c.gif","","","","","15","simple_dissimilar","images/stimuli/spore_stims/simple_11_B_a.gif","right","","","","",""
"","null","html-keyboard-response","284","404465","0.0-53.0-0.3","SS1613138251747","","","null","","","","","<p><img src= images/blank.png width =""200"" height = ""200"" style = ""float:right""></p><p><img src=images/blank.png width =""800"" height = ""200""></p>","","","","","","","","","","","",""
"","97.9700000025332","sequential-stimulus-presentation","285","405441","0.0-53.0-1.3","SS1613138251747","trial","","40","800","897.9700000025332","images/stimuli/spore_stims/simple_11_B_a.gif","images/stimuli/spore_stims/simple_18_B_c.gif","","","","","15","simple_dissimilar","images/stimuli/spore_stims/simple_18_B_c.gif","left","","","","",""
"","null","html-keyboard-response","286","406691","0.0-53.0-0.4","SS1613138251747","","","null","","","","","<p><img src= images/blank.png width =""200"" height = ""200"" style = ""float:right""></p><p><img src=images/blank.png width =""800"" height = ""200""></p>","","","","","","","","","","","",""
"","96.23000002466142","sequential-stimulus-presentation","287","407625","0.0-53.0-1.4","SS1613138251747","trial","","40","800","896.2300000246614","images/stimuli/spore_stims/simple_11_B_a.gif","images/stimuli/spore_stims/simple_18_B_c.gif","","","","","15","simple_dissimilar","images/stimuli/spore_stims/simple_18_B_c.gif","left","","","","",""
"","null","html-keyboard-response","288","408516","0.0-53.0-0.5","SS1613138251747","","","null","","","","","<p><img src= images/blank.png width =""200"" height = ""200"" style = ""float:right""></p><p><img src=images/blank.png width =""800"" height = ""200""></p>","","","","","","","","","","","",""
"","266.96500001708046","sequential-stimulus-presentation","289","409640","0.0-53.0-1.5","SS1613138251747","trial","","40","800","1066.9650000170805","images/stimuli/spore_stims/simple_11_B_a.gif","images/stimuli/spore_stims/simple_18_B_c.gif","","","","","15","simple_dissimilar","images/stimuli/spore_stims/simple_18_B_c.gif","left","","","","",""
"","null","html-keyboard-response","290","410752","0.0-53.0-0.6","SS1613138251747","","","null","","","","","<p><img src= images/blank.png width =""200"" height = ""200"" style = ""float:right""></p><p><img src=images/blank.png width =""800"" height = ""200""></p>","","","","","","","","","","","",""
"","43.04499999852851","sequential-stimulus-presentation","291","411657","0.0-53.0-1.6","SS1613138251747","trial","","40","800","843.0449999985285","images/stimuli/spore_stims/simple_11_B_a.gif","images/stimuli/spore_stims/simple_18_B_c.gif","","","","","15","simple_dissimilar","images/stimuli/spore_stims/simple_18_B_c.gif","left","","","","",""
"","null","html-keyboard-response","292","412721","0.0-53.0-0.7","SS1613138251747","","","null","","","","","<p><img src= images/blank.png width =""200"" height = ""200"" style = ""float:right""></p><p><img src=images/blank.png width =""800"" height = ""200""></p>","","","","","","","","","","","",""
"","112.12000000523403","sequential-stimulus-presentation","293","413772","0.0-53.0-1.7","SS1613138251747","trial","","40","800","912.120000005234","images/stimuli/spore_stims/simple_11_B_a.gif","images/stimuli/spore_stims/simple_18_B_c.gif","","","","","15","simple_dissimilar","images/stimuli/spore_stims/simple_18_B_c.gif","left","","","","",""
"","1653.5649999859743","html-keyboard-response","294","415452","0.0-54.0","SS1613138251747","pref_question","","51","","","","","<video width ='960' height = '540' style='padding-top:8%' autoplay muted><source src='images/stimuli/wall_pref.mp4' type='video/mp4'></video>","3","right","66%","15","","","","","","","",""
"","101.4450000366196","sequential-stimulus-presentation","295","416428","0.0-55.0","SS1613138251747","pref_reveal","","40","800","901.4450000366196","null","null","","","","","15","","","","deviant","","","",""
"","null","html-keyboard-response","296","417522","0.0-56.0-0.0","SS1613138251747","","","null","","","","","<p><img src= images/blank.png width =""200"" height = ""200"" style = ""float:right""></p><p><img src=images/blank.png width =""800"" height = ""200""></p>","","","","","","","","","","","",""
"","146.6000000364147","sequential-stimulus-presentation","297","418530","0.0-56.0-1.0","SS1613138251747","trial","","40","800","946.6000000364147","images/stimuli/spore_stims/simple_14_B_b.gif","images/stimuli/spore_stims/simple_14_A_b.gif","","","","","16","simple_similar","images/stimuli/spore_stims/simple_14_A_b.gif","left","","","","",""
"","null","html-keyboard-response","298","419493","0.0-56.0-0.1","SS1613138251747","","","null","","","","","<p><img src= images/blank.png width =""200"" height = ""200"" style = ""float:right""></p><p><img src=images/blank.png width =""800"" height = ""200""></p>","","","","","","","","","","","",""
"","41.785000008530915","sequential-stimulus-presentation","299","420405","0.0-56.0-1.1","SS1613138251747","trial","","40","800","841.7850000085309","images/stimuli/spore_stims/simple_14_B_b.gif","images/stimuli/spore_stims/simple_14_A_b.gif","","","","","16","simple_similar","images/stimuli/spore_stims/simple_14_A_b.gif","left","","","","",""
"","null","html-keyboard-response","300","421287","0.0-56.0-0.2","SS1613138251747","","","null","","","","","<p><img src= images/blank.png width =""200"" height = ""200"" style = ""float:right""></p><p><img src=images/blank.png width =""800"" height = ""200""></p>","","","","","","","","","","","",""
"","152.78000000398606","sequential-stimulus-presentation","301","422269","0.0-56.0-1.2","SS1613138251747","trial","","40","800","952.7800000039861","images/stimuli/spore_stims/simple_14_B_b.gif","images/stimuli/spore_stims/simple_14_A_b.gif","","","","","16","simple_similar","images/stimuli/spore_stims/simple_14_A_b.gif","left","","","","",""
"","null","html-keyboard-response","302","423418","0.0-56.0-0.3","SS1613138251747","","","null","","","","","<p><img src= images/blank.png width =""200"" height = ""200"" style = ""float:right""></p><p><img src=images/blank.png width =""800"" height = ""200""></p>","","","","","","","","","","","",""
"","94.68999999808148","sequential-stimulus-presentation","303","424382","0.0-56.0-1.3","SS1613138251747","trial","","40","800","894.6899999980815","images/stimuli/spore_stims/simple_14_B_b.gif","images/stimuli/spore_stims/simple_14_A_b.gif","","","","","16","simple_similar","images/stimuli/spore_stims/simple_14_A_b.gif","left","","","","",""
"","null","html-keyboard-response","304","425262","0.0-56.0-0.4","SS1613138251747","","","null","","","","","<p><img src= images/blank.png width =""200"" height = ""200"" style = ""float:right""></p><p><img src=images/blank.png width =""800"" height = ""200""></p>","","","","","","","","","","","",""
"","129.92999999551103","sequential-stimulus-presentation","305","426223","0.0-56.0-1.4","SS1613138251747","trial","","40","800","929.929999995511","images/stimuli/spore_stims/simple_14_B_b.gif","images/stimuli/spore_stims/simple_14_A_b.gif","","","","","16","simple_similar","images/stimuli/spore_stims/simple_14_A_b.gif","left","","","","",""
"","null","html-keyboard-response","306","427425","0.0-56.0-0.5","SS1613138251747","","","null","","","","","<p><img src= images/blank.png width =""200"" height = ""200"" style = ""float:right""></p><p><img src=images/blank.png width =""800"" height = ""200""></p>","","","","","","","","","","","",""
"","341.21500002220273","sequential-stimulus-presentation","307","428651","0.0-56.0-1.5","SS1613138251747","trial","","40","800","1141.2150000222027","images/stimuli/spore_stims/simple_14_B_b.gif","images/stimuli/spore_stims/simple_14_A_b.gif","","","","","16","simple_similar","images/stimuli/spore_stims/simple_14_A_b.gif","left","","","","",""
"","null","html-keyboard-response","308","429482","0.0-56.0-0.6","SS1613138251747","","","null","","","","","<p><img src= images/blank.png width =""200"" height = ""200"" style = ""float:right""></p><p><img src=images/blank.png width =""800"" height = ""200""></p>","","","","","","","","","","","",""
"","51.325000007636845","sequential-stimulus-presentation","309","430394","0.0-56.0-1.6","SS1613138251747","trial","","40","800","851.3250000076368","images/stimuli/spore_stims/simple_14_B_b.gif","images/stimuli/spore_stims/simple_14_A_b.gif","","","","","16","simple_similar","images/stimuli/spore_stims/simple_14_A_b.gif","left","","","","",""
"","null","html-keyboard-response","310","431235","0.0-56.0-0.7","SS1613138251747","","","null","","","","","<p><img src= images/blank.png width =""200"" height = ""200"" style = ""float:right""></p><p><img src=images/blank.png width =""800"" height = ""200""></p>","","","","","","","","","","","",""
"","351.6599999857135","sequential-stimulus-presentation","311","432442","0.0-56.0-1.7","SS1613138251747","trial","","40","800","1151.6599999857135","images/stimuli/spore_stims/simple_14_B_b.gif","images/stimuli/spore_stims/simple_14_A_b.gif","","","","","16","simple_similar","images/stimuli/spore_stims/simple_14_B_b.gif","middle","","","","",""
