"view_history","rt","trial_type","trial_index","time_elapsed","internal_node_id","subject","stimulus_type","trial_stimulus","key_press","minimum_viewing_duration","trial_looking_time","block_deviant","block_background","stimulus","wall_pref","location","location_percent","block_number","block_type","stimulus_displayed","position_displayed","stim_type_selected","responses","question_order","stimulus_left","stimulus_right"
"[{""page_index"":0,""viewing_time"":10029.915000020992}]","10030.635000002803","instructions","0","10032","0.0-0.0","SS1613138352403","","","","","","","","","","","","","","","","","","","",""
"[{""page_index"":0,""viewing_time"":9614.449999993667},{""page_index"":1,""viewing_time"":5163.010000018403}]","14777.600000001257","instructions","1","26813","0.0-1.0","SS1613138352403","instructions","","","","","","","","","","","","","","","","","","",""
"","3741.0500000114553","sequential-stimulus-presentation","2","31361","0.0-2.0","SS1613138352403","","","40","800","4541.050000011455","null","null","","","","","","","","","","","","",""
"","3662.2149999893736","sequential-stimulus-presentation","3","35826","0.0-3.0","SS1613138352403","","","40","800","4462.214999989374","null","null","","","","","","","","","","","","",""
"[{""page_index"":0,""viewing_time"":29204.965000011725}]","29205.119999998715","instructions","4","65032","0.0-4.0","SS1613138352403","instructions","","","","","","","","","","","","","","","","","","",""
"","5010.330000019167","html-keyboard-response","5","70044","0.0-5.0","SS1613138352403","instructions","","50","","","","","<video width ='960' height = '540' autoplay muted><source src='images/stimuli/wall_pref.mp4' type='video/mp4'></video>","2","middle","45%","","","","","","","","",""
"","3557.2249999968335","sequential-stimulus-presentation","6","74409","0.0-6.0","SS1613138352403","pref_reveal","","40","800","4357.2249999968335","null","null","","","","","","","","","","","","",""
"[{""page_index"":0,""viewing_time"":4302.394999976968},{""page_index"":1,""viewing_time"":3150.6850000005215},{""page_index"":2,""viewing_time"":1472.8650000179186},{""page_index"":3,""viewing_time"":776.4150000002701}]","9702.534999989439","instructions","7","84112","0.0-7.0","SS1613138352403","instructions","","","","","","","","","","","","","","","","","","",""
"","null","html-keyboard-response","8","84957","0.0-8.0-0.0","SS1613138352403","","","null","","","","","<p><img src= images/blank.png width =""200"" height = ""200"" style = ""float:right""></p><p><img src=images/blank.png width =""800"" height = ""200""></p>","","","","","","","","","","","",""
"","13913.52500001085","sequential-stimulus-presentation","9","99678","0.0-8.0-1.0","SS1613138352403","trial","","40","800","14713.52500001085","images/stimuli/spore_stims/simple_07_B_a.gif","images/stimuli/spore_stims/simple_03_A_c.gif","","","","","0","simple_dissimilar","images/stimuli/spore_stims/simple_03_A_c.gif","right","","","","",""
"","null","html-keyboard-response","10","100898","0.0-8.0-0.1","SS1613138352403","","","null","","","","","<p><img src= images/blank.png width =""200"" height = ""200"" style = ""float:right""></p><p><img src=images/blank.png width =""800"" height = ""200""></p>","","","","","","","","","","","",""
"","235.48499998287298","sequential-stimulus-presentation","11","101939","0.0-8.0-1.1","SS1613138352403","trial","","40","800","1035.484999982873","images/stimuli/spore_stims/simple_07_B_a.gif","images/stimuli/spore_stims/simple_03_A_c.gif","","","","","0","simple_dissimilar","images/stimuli/spore_stims/simple_03_A_c.gif","right","","","","",""
"","null","html-keyboard-response","12","103136","0.0-8.0-0.2","SS1613138352403","","","null","","","","","<p><img src= images/blank.png width =""200"" height = ""200"" style = ""float:right""></p><p><img src=images/blank.png width =""800"" height = ""200""></p>","","","","","","","","","","","",""
"","1533.3800000080373","sequential-stimulus-presentation","13","105478","0.0-8.0-1.2","SS1613138352403","trial","","40","800","2333.3800000080373","images/stimuli/spore_stims/simple_07_B_a.gif","images/stimuli/spore_stims/simple_03_A_c.gif","","","","","0","simple_dissimilar","images/stimuli/spore_stims/simple_03_A_c.gif","right","","","","",""
"","null","html-keyboard-response","14","106347","0.0-8.0-0.3","SS1613138352403","","","null","","","","","<p><img src= images/blank.png width =""200"" height = ""200"" style = ""float:right""></p><p><img src=images/blank.png width =""800"" height = ""200""></p>","","","","","","","","","","","",""
"","1584.275000001071","sequential-stimulus-presentation","15","108740","0.0-8.0-1.3","SS1613138352403","trial","","40","800","2384.275000001071","images/stimuli/spore_stims/simple_07_B_a.gif","images/stimuli/spore_stims/simple_03_A_c.gif","","","","","0","simple_dissimilar","images/stimuli/spore_stims/simple_03_A_c.gif","right","","","","",""
"","null","html-keyboard-response","16","109852","0.0-8.0-0.4","SS1613138352403","","","null","","","","","<p><img src= images/blank.png width =""200"" height = ""200"" style = ""float:right""></p><p><img src=images/blank.png width =""800"" height = ""200""></p>","","","","","","","","","","","",""
"","864.4050000002608","sequential-stimulus-presentation","17","111522","0.0-8.0-1.4","SS1613138352403","trial","","40","800","1664.4050000002608","images/stimuli/spore_stims/simple_07_B_a.gif","images/stimuli/spore_stims/simple_03_A_c.gif","","","","","0","simple_dissimilar","images/stimuli/spore_stims/simple_03_A_c.gif","right","","","","",""
"","null","html-keyboard-response","18","112498","0.0-8.0-0.5","SS1613138352403","","","null","","","","","<p><img src= images/blank.png width =""200"" height = ""200"" style = ""float:right""></p><p><img src=images/blank.png width =""800"" height = ""200""></p>","","","","","","","","","","","",""
"","2317.6950000051875","sequential-stimulus-presentation","19","115625","0.0-8.0-1.5","SS1613138352403","trial","","40","800","3117.6950000051875","images/stimuli/spore_stims/simple_07_B_a.gif","images/stimuli/spore_stims/simple_03_A_c.gif","","","","","0","simple_dissimilar","images/stimuli/spore_stims/simple_03_A_c.gif","right","","","","",""
"","null","html-keyboard-response","20","116849","0.0-8.0-0.6","SS1613138352403","","","null","","","","","<p><img src= images/blank.png width =""200"" height = ""200"" style = ""float:right""></p><p><img src=images/blank.png width =""800"" height = ""200""></p>","","","","","","","","","","","",""
"","1129.5300000056159","sequential-stimulus-presentation","21","118784","0.0-8.0-1.6","SS1613138352403","trial","","40","800","1929.5300000056159","images/stimuli/spore_stims/simple_07_B_a.gif","images/stimuli/spore_stims/simple_03_A_c.gif","","","","","0","simple_dissimilar","images/stimuli/spore_stims/simple_03_A_c.gif","right","","","","",""
"","null","html-keyboard-response","22","119686","0.0-8.0-0.7","SS1613138352403","","","null","","","","","<p><img src= images/blank.png width =""200"" height = ""200"" style = ""float:right""></p><p><img src=images/blank.png width =""800"" height = ""200""></p>","","","","","","","","","","","",""
"","3828.6150000058115","sequential-stimulus-presentation","23","124320","0.0-8.0-1.7","SS1613138352403","trial","","40","800","4628.615000005811","images/stimuli/spore_stims/simple_07_B_a.gif","images/stimuli/spore_stims/simple_03_A_c.gif","","","","","0","simple_dissimilar","images/stimuli/spore_stims/simple_07_B_a.gif","left","","","","",""
"","1593.6499999952503","html-keyboard-response","24","125920","0.0-9.0","SS1613138352403","pref_question","","50","","","","","<video width ='960' height = '540' style='padding-top:8%' autoplay muted><source src='images/stimuli/wall_pref.mp4' type='video/mp4'></video>","2","middle","45%","0","","","","","","","",""
"","20414.279999997234","sequential-stimulus-presentation","25","147139","0.0-10.0","SS1613138352403","pref_reveal","","40","800","21214.279999997234","null","null","","","","","0","","","","novel","","","",""
"","null","html-keyboard-response","26","148293","0.0-11.0-0.0","SS1613138352403","","","null","","","","","<p><img src= images/blank.png width =""200"" height = ""200"" style = ""float:right""></p><p><img src=images/blank.png width =""800"" height = ""200""></p>","","","","","","","","","","","",""
"","9852.660000004107","sequential-stimulus-presentation","27","158957","0.0-11.0-1.0","SS1613138352403","trial","","40","800","10652.660000004107","images/stimuli/spore_stims/simple_16_B_a.gif","images/stimuli/spore_stims/simple_16_A_a.gif","","","","","1","simple_similar","images/stimuli/spore_stims/simple_16_A_a.gif","left","","","","",""
"","null","html-keyboard-response","28","160252","0.0-11.0-0.1","SS1613138352403","","","null","","","","","<p><img src= images/blank.png width =""200"" height = ""200"" style = ""float:right""></p><p><img src=images/blank.png width =""800"" height = ""200""></p>","","","","","","","","","","","",""
"","4726.854999986244","sequential-stimulus-presentation","29","165784","0.0-11.0-1.1","SS1613138352403","trial","","40","800","5526.854999986244","images/stimuli/spore_stims/simple_16_B_a.gif","images/stimuli/spore_stims/simple_16_A_a.gif","","","","","1","simple_similar","images/stimuli/spore_stims/simple_16_A_a.gif","left","","","","",""
"","null","html-keyboard-response","30","167032","0.0-11.0-0.2","SS1613138352403","","","null","","","","","<p><img src= images/blank.png width =""200"" height = ""200"" style = ""float:right""></p><p><img src=images/blank.png width =""800"" height = ""200""></p>","","","","","","","","","","","",""
"","17441.949999978533","sequential-stimulus-presentation","31","185283","0.0-11.0-1.2","SS1613138352403","trial","","40","800","18241.949999978533","images/stimuli/spore_stims/simple_16_B_a.gif","images/stimuli/spore_stims/simple_16_A_a.gif","","","","","1","simple_similar","images/stimuli/spore_stims/simple_16_A_a.gif","left","","","","",""
"","null","html-keyboard-response","32","186241","0.0-11.0-0.3","SS1613138352403","","","null","","","","","<p><img src= images/blank.png width =""200"" height = ""200"" style = ""float:right""></p><p><img src=images/blank.png width =""800"" height = ""200""></p>","","","","","","","","","","","",""
"","1728.065000002971","sequential-stimulus-presentation","33","188775","0.0-11.0-1.3","SS1613138352403","trial","","40","800","2528.065000002971","images/stimuli/spore_stims/simple_16_B_a.gif","images/stimuli/spore_stims/simple_16_A_a.gif","","","","","1","simple_similar","images/stimuli/spore_stims/simple_16_A_a.gif","left","","","","",""
"","null","html-keyboard-response","34","189773","0.0-11.0-0.4","SS1613138352403","","","null","","","","","<p><img src= images/blank.png width =""200"" height = ""200"" style = ""float:right""></p><p><img src=images/blank.png width =""800"" height = ""200""></p>","","","","","","","","","","","",""
"","110.65500002587214","sequential-stimulus-presentation","35","190688","0.0-11.0-1.4","SS1613138352403","trial","","40","800","910.6550000258721","images/stimuli/spore_stims/simple_16_B_a.gif","images/stimuli/spore_stims/simple_16_A_a.gif","","","","","1","simple_similar","images/stimuli/spore_stims/simple_16_A_a.gif","left","","","","",""
"","null","html-keyboard-response","36","191510","0.0-11.0-0.5","SS1613138352403","","","null","","","","","<p><img src= images/blank.png width =""200"" height = ""200"" style = ""float:right""></p><p><img src=images/blank.png width =""800"" height = ""200""></p>","","","","","","","","","","","",""
"","186.6149999841582","sequential-stimulus-presentation","37","192501","0.0-11.0-1.5","SS1613138352403","trial","","40","800","986.6149999841582","images/stimuli/spore_stims/simple_16_B_a.gif","images/stimuli/spore_stims/simple_16_A_a.gif","","","","","1","simple_similar","images/stimuli/spore_stims/simple_16_A_a.gif","left","","","","",""
"","null","html-keyboard-response","38","193407","0.0-11.0-0.6","SS1613138352403","","","null","","","","","<p><img src= images/blank.png width =""200"" height = ""200"" style = ""float:right""></p><p><img src=images/blank.png width =""800"" height = ""200""></p>","","","","","","","","","","","",""
"","39961.58499998273","sequential-stimulus-presentation","39","234173","0.0-11.0-1.6","SS1613138352403","trial","","40","800","40761.58499998273","images/stimuli/spore_stims/simple_16_B_a.gif","images/stimuli/spore_stims/simple_16_A_a.gif","","","","","1","simple_similar","images/stimuli/spore_stims/simple_16_B_a.gif","right","","","","",""
"","null","html-keyboard-response","40","235274","0.0-11.0-0.7","SS1613138352403","","","null","","","","","<p><img src= images/blank.png width =""200"" height = ""200"" style = ""float:right""></p><p><img src=images/blank.png width =""800"" height = ""200""></p>","","","","","","","","","","","",""
"","454.3100000009872","sequential-stimulus-presentation","41","236536","0.0-11.0-1.7","SS1613138352403","trial","","40","800","1254.3100000009872","images/stimuli/spore_stims/simple_16_B_a.gif","images/stimuli/spore_stims/simple_16_A_a.gif","","","","","1","simple_similar","images/stimuli/spore_stims/simple_16_A_a.gif","left","","","","",""
"","1294.7949999943376","html-keyboard-response","42","237838","0.0-12.0","SS1613138352403","pref_question","","50","","","","","<video width ='960' height = '540' style='padding-top:8%' autoplay muted><source src='images/stimuli/wall_pref.mp4' type='video/mp4'></video>","2","middle","45%","1","","","","","","","",""
"","9496.249999996508","sequential-stimulus-presentation","43","248139","0.0-13.0","SS1613138352403","pref_reveal","","40","800","10296.249999996508","null","null","","","","","1","","","","novel","","","",""
"","null","html-keyboard-response","44","249303","0.0-14.0-0.0","SS1613138352403","","","null","","","","","<p><img src= images/blank.png width =""200"" height = ""200"" style = ""float:right""></p><p><img src=images/blank.png width =""800"" height = ""200""></p>","","","","","","","","","","","",""
"","7816.670000000158","sequential-stimulus-presentation","45","257929","0.0-14.0-1.0","SS1613138352403","trial","","40","800","8616.670000000158","images/stimuli/spore_stims/simple_19_A_d.gif","images/stimuli/spore_stims/simple_19_B_d.gif","","","","","2","simple_similar","images/stimuli/spore_stims/simple_19_B_d.gif","middle","","","","",""
"","null","html-keyboard-response","46","258853","0.0-14.0-0.1","SS1613138352403","","","null","","","","","<p><img src= images/blank.png width =""200"" height = ""200"" style = ""float:right""></p><p><img src=images/blank.png width =""800"" height = ""200""></p>","","","","","","","","","","","",""
"","3940.2199999894947","sequential-stimulus-presentation","47","263605","0.0-14.0-1.1","SS1613138352403","trial","","40","800","4740.219999989495","images/stimuli/spore_stims/simple_19_A_d.gif","images/stimuli/spore_stims/simple_19_B_d.gif","","","","","2","simple_similar","images/stimuli/spore_stims/simple_19_B_d.gif","middle","","","","",""
"","null","html-keyboard-response","48","264664","0.0-14.0-0.2","SS1613138352403","","","null","","","","","<p><img src= images/blank.png width =""200"" height = ""200"" style = ""float:right""></p><p><img src=images/blank.png width =""800"" height = ""200""></p>","","","","","","","","","","","",""
"","25192.46999997995","sequential-stimulus-presentation","49","290664","0.0-14.0-1.2","SS1613138352403","trial","","40","800","25992.46999997995","images/stimuli/spore_stims/simple_19_A_d.gif","images/stimuli/spore_stims/simple_19_B_d.gif","","","","","2","simple_similar","images/stimuli/spore_stims/simple_19_A_d.gif","left","","","","",""
"","null","html-keyboard-response","50","291873","0.0-14.0-0.3","SS1613138352403","","","null","","","","","<p><img src= images/blank.png width =""200"" height = ""200"" style = ""float:right""></p><p><img src=images/blank.png width =""800"" height = ""200""></p>","","","","","","","","","","","",""
"","21981.224999995902","sequential-stimulus-presentation","51","314659","0.0-14.0-1.3","SS1613138352403","trial","","40","800","22781.224999995902","images/stimuli/spore_stims/simple_19_A_d.gif","images/stimuli/spore_stims/simple_19_B_d.gif","","","","","2","simple_similar","images/stimuli/spore_stims/simple_19_B_d.gif","middle","","","","",""
"","null","html-keyboard-response","52","315744","0.0-14.0-0.4","SS1613138352403","","","null","","","","","<p><img src= images/blank.png width =""200"" height = ""200"" style = ""float:right""></p><p><img src=images/blank.png width =""800"" height = ""200""></p>","","","","","","","","","","","",""
"","5602.665000013076","sequential-stimulus-presentation","53","322159","0.0-14.0-1.4","SS1613138352403","trial","","40","800","6402.665000013076","images/stimuli/spore_stims/simple_19_A_d.gif","images/stimuli/spore_stims/simple_19_B_d.gif","","","","","2","simple_similar","images/stimuli/spore_stims/simple_19_B_d.gif","middle","","","","",""
"","null","html-keyboard-response","54","323295","0.0-14.0-0.5","SS1613138352403","","","null","","","","","<p><img src= images/blank.png width =""200"" height = ""200"" style = ""float:right""></p><p><img src=images/blank.png width =""800"" height = ""200""></p>","","","","","","","","","","","",""
"","11772.555000003194","sequential-stimulus-presentation","55","335873","0.0-14.0-1.5","SS1613138352403","trial","","40","800","12572.555000003194","images/stimuli/spore_stims/simple_19_A_d.gif","images/stimuli/spore_stims/simple_19_B_d.gif","","","","","2","simple_similar","images/stimuli/spore_stims/simple_19_B_d.gif","middle","","","","",""
"","null","html-keyboard-response","56","337073","0.0-14.0-0.6","SS1613138352403","","","null","","","","","<p><img src= images/blank.png width =""200"" height = ""200"" style = ""float:right""></p><p><img src=images/blank.png width =""800"" height = ""200""></p>","","","","","","","","","","","",""
"","9636.330000008456","sequential-stimulus-presentation","57","347518","0.0-14.0-1.6","SS1613138352403","trial","","40","800","10436.330000008456","images/stimuli/spore_stims/simple_19_A_d.gif","images/stimuli/spore_stims/simple_19_B_d.gif","","","","","2","simple_similar","images/stimuli/spore_stims/simple_19_B_d.gif","middle","","","","",""
"","null","html-keyboard-response","58","348739","0.0-14.0-0.7","SS1613138352403","","","null","","","","","<p><img src= images/blank.png width =""200"" height = ""200"" style = ""float:right""></p><p><img src=images/blank.png width =""800"" height = ""200""></p>","","","","","","","","","","","",""
"","14219.66999999131","sequential-stimulus-presentation","59","363764","0.0-14.0-1.7","SS1613138352403","trial","","40","800","15019.66999999131","images/stimuli/spore_stims/simple_19_A_d.gif","images/stimuli/spore_stims/simple_19_B_d.gif","","","","","2","simple_similar","images/stimuli/spore_stims/simple_19_B_d.gif","middle","","","","",""
"","2532.199999986915","html-keyboard-response","60","366304","0.0-15.0","SS1613138352403","pref_question","","51","","","","","<video width ='960' height = '540' style='padding-top:8%' autoplay muted><source src='images/stimuli/wall_pref.mp4' type='video/mp4'></video>","3","right","66%","2","","","","","","","",""
"","7522.23000000231","sequential-stimulus-presentation","61","374636","0.0-16.0","SS1613138352403","pref_reveal","","40","800","8322.23000000231","null","null","","","","","2","","","","novel","","","",""
"","null","html-keyboard-response","62","375680","0.0-17.0-0.0","SS1613138352403","","","null","","","","","<p><img src= images/blank.png width =""200"" height = ""200"" style = ""float:right""></p><p><img src=images/blank.png width =""800"" height = ""200""></p>","","","","","","","","","","","",""
"","10322.404999984428","sequential-stimulus-presentation","63","386815","0.0-17.0-1.0","SS1613138352403","trial","","40","800","11122.404999984428","images/stimuli/spore_stims/complex_20_B_b.gif","images/stimuli/spore_stims/complex_20_A_b.gif","","","","","3","complex_similar","images/stimuli/spore_stims/complex_20_A_b.gif","left","","","","",""
"","null","html-keyboard-response","64","387741","0.0-17.0-0.1","SS1613138352403","","","null","","","","","<p><img src= images/blank.png width =""200"" height = ""200"" style = ""float:right""></p><p><img src=images/blank.png width =""800"" height = ""200""></p>","","","","","","","","","","","",""
"","153.2549999828916","sequential-stimulus-presentation","65","388699","0.0-17.0-1.1","SS1613138352403","trial","","40","800","953.2549999828916","images/stimuli/spore_stims/complex_20_B_b.gif","images/stimuli/spore_stims/complex_20_A_b.gif","","","","","3","complex_similar","images/stimuli/spore_stims/complex_20_A_b.gif","left","","","","",""
"","null","html-keyboard-response","66","389526","0.0-17.0-0.2","SS1613138352403","","","null","","","","","<p><img src= images/blank.png width =""200"" height = ""200"" style = ""float:right""></p><p><img src=images/blank.png width =""800"" height = ""200""></p>","","","","","","","","","","","",""
"","14745.304999989457","sequential-stimulus-presentation","67","405076","0.0-17.0-1.2","SS1613138352403","trial","","40","800","15545.304999989457","images/stimuli/spore_stims/complex_20_B_b.gif","images/stimuli/spore_stims/complex_20_A_b.gif","","","","","3","complex_similar","images/stimuli/spore_stims/complex_20_A_b.gif","left","","","","",""
"","null","html-keyboard-response","68","406137","0.0-17.0-0.3","SS1613138352403","","","null","","","","","<p><img src= images/blank.png width =""200"" height = ""200"" style = ""float:right""></p><p><img src=images/blank.png width =""800"" height = ""200""></p>","","","","","","","","","","","",""
"","6538.984999991953","sequential-stimulus-presentation","69","413488","0.0-17.0-1.3","SS1613138352403","trial","","40","800","7338.984999991953","images/stimuli/spore_stims/complex_20_B_b.gif","images/stimuli/spore_stims/complex_20_A_b.gif","","","","","3","complex_similar","images/stimuli/spore_stims/complex_20_A_b.gif","left","","","","",""
"","null","html-keyboard-response","70","414330","0.0-17.0-0.4","SS1613138352403","","","null","","","","","<p><img src= images/blank.png width =""200"" height = ""200"" style = ""float:right""></p><p><img src=images/blank.png width =""800"" height = ""200""></p>","","","","","","","","","","","",""
"","5330.705000000307","sequential-stimulus-presentation","71","420468","0.0-17.0-1.4","SS1613138352403","trial","","40","800","6130.705000000307","images/stimuli/spore_stims/complex_20_B_b.gif","images/stimuli/spore_stims/complex_20_A_b.gif","","","","","3","complex_similar","images/stimuli/spore_stims/complex_20_A_b.gif","left","","","","",""
"","null","html-keyboard-response","72","421455","0.0-17.0-0.5","SS1613138352403","","","null","","","","","<p><img src= images/blank.png width =""200"" height = ""200"" style = ""float:right""></p><p><img src=images/blank.png width =""800"" height = ""200""></p>","","","","","","","","","","","",""
"","96.50499999406748","sequential-stimulus-presentation","73","422360","0.0-17.0-1.5","SS1613138352403","trial","","40","800","896.5049999940675","images/stimuli/spore_stims/complex_20_B_b.gif","images/stimuli/spore_stims/complex_20_A_b.gif","","","","","3","complex_similar","images/stimuli/spore_stims/complex_20_A_b.gif","left","","","","",""
"","null","html-keyboard-response","74","423328","0.0-17.0-0.6","SS1613138352403","","","null","","","","","<p><img src= images/blank.png width =""200"" height = ""200"" style = ""float:right""></p><p><img src=images/blank.png width =""800"" height = ""200""></p>","","","","","","","","","","","",""
"","22672.97499999404","sequential-stimulus-presentation","75","446810","0.0-17.0-1.6","SS1613138352403","trial","","40","800","23472.97499999404","images/stimuli/spore_stims/complex_20_B_b.gif","images/stimuli/spore_stims/complex_20_A_b.gif","","","","","3","complex_similar","images/stimuli/spore_stims/complex_20_B_b.gif","middle","","","","",""
"","null","html-keyboard-response","76","447675","0.0-17.0-0.7","SS1613138352403","","","null","","","","","<p><img src= images/blank.png width =""200"" height = ""200"" style = ""float:right""></p><p><img src=images/blank.png width =""800"" height = ""200""></p>","","","","","","","","","","","",""
"","12003.100000001723","sequential-stimulus-presentation","77","460491","0.0-17.0-1.7","SS1613138352403","trial","","40","800","12803.100000001723","images/stimuli/spore_stims/complex_20_B_b.gif","images/stimuli/spore_stims/complex_20_A_b.gif","","","","","3","complex_similar","images/stimuli/spore_stims/complex_20_A_b.gif","left","","","","",""
"","1452.4399999936577","html-keyboard-response","78","461956","0.0-18.0","SS1613138352403","pref_question","","51","","","","","<video width ='960' height = '540' style='padding-top:8%' autoplay muted><source src='images/stimuli/wall_pref.mp4' type='video/mp4'></video>","3","right","66%","3","","","","","","","",""
"","11029.03000000515","sequential-stimulus-presentation","79","473798","0.0-19.0","SS1613138352403","pref_reveal","","40","800","11829.03000000515","null","null","","","","","3","","","","novel","","","",""
"","null","html-keyboard-response","80","474859","0.0-20.0-0.0","SS1613138352403","","","null","","","","","<p><img src= images/blank.png width =""200"" height = ""200"" style = ""float:right""></p><p><img src=images/blank.png width =""800"" height = ""200""></p>","","","","","","","","","","","",""
"","15618.784999998752","sequential-stimulus-presentation","81","491283","0.0-20.0-1.0","SS1613138352403","trial","","40","800","16418.784999998752","images/stimuli/spore_stims/simple_20_B_d.gif","images/stimuli/spore_stims/simple_01_B_a.gif","","","","","4","simple_dissimilar","images/stimuli/spore_stims/simple_01_B_a.gif","middle","","","","",""
"","null","html-keyboard-response","82","492552","0.0-20.0-0.1","SS1613138352403","","","null","","","","","<p><img src= images/blank.png width =""200"" height = ""200"" style = ""float:right""></p><p><img src=images/blank.png width =""800"" height = ""200""></p>","","","","","","","","","","","",""
"","830.2700000058394","sequential-stimulus-presentation","83","494194","0.0-20.0-1.1","SS1613138352403","trial","","40","800","1630.2700000058394","images/stimuli/spore_stims/simple_20_B_d.gif","images/stimuli/spore_stims/simple_01_B_a.gif","","","","","4","simple_dissimilar","images/stimuli/spore_stims/simple_01_B_a.gif","middle","","","","",""
"","null","html-keyboard-response","84","495148","0.0-20.0-0.2","SS1613138352403","","","null","","","","","<p><img src= images/blank.png width =""200"" height = ""200"" style = ""float:right""></p><p><img src=images/blank.png width =""800"" height = ""200""></p>","","","","","","","","","","","",""
"","3529.450000001816","sequential-stimulus-presentation","85","499490","0.0-20.0-1.2","SS1613138352403","trial","","40","800","4329.450000001816","images/stimuli/spore_stims/simple_20_B_d.gif","images/stimuli/spore_stims/simple_01_B_a.gif","","","","","4","simple_dissimilar","images/stimuli/spore_stims/simple_01_B_a.gif","middle","","","","",""
"","null","html-keyboard-response","86","500547","0.0-20.0-0.3","SS1613138352403","","","null","","","","","<p><img src= images/blank.png width =""200"" height = ""200"" style = ""float:right""></p><p><img src=images/blank.png width =""800"" height = ""200""></p>","","","","","","","","","","","",""
"","6868.0549999990035","sequential-stimulus-presentation","87","508228","0.0-20.0-1.3","SS1613138352403","trial","","40","800","7668.0549999990035","images/stimuli/spore_stims/simple_20_B_d.gif","images/stimuli/spore_stims/simple_01_B_a.gif","","","","","4","simple_dissimilar","images/stimuli/spore_stims/simple_01_B_a.gif","middle","","","","",""
"","null","html-keyboard-response","88","509048","0.0-20.0-0.4","SS1613138352403","","","null","","","","","<p><img src= images/blank.png width =""200"" height = ""200"" style = ""float:right""></p><p><img src=images/blank.png width =""800"" height = ""200""></p>","","","","","","","","","","","",""
"","9955.710000009276","sequential-stimulus-presentation","89","519816","0.0-20.0-1.4","SS1613138352403","trial","","40","800","10755.710000009276","images/stimuli/spore_stims/simple_20_B_d.gif","images/stimuli/spore_stims/simple_01_B_a.gif","","","","","4","simple_dissimilar","images/stimuli/spore_stims/simple_01_B_a.gif","middle","","","","",""
"","null","html-keyboard-response","90","520851","0.0-20.0-0.5","SS1613138352403","","","null","","","","","<p><img src= images/blank.png width =""200"" height = ""200"" style = ""float:right""></p><p><img src=images/blank.png width =""800"" height = ""200""></p>","","","","","","","","","","","",""
"","1613.5499999800231","sequential-stimulus-presentation","91","523269","0.0-20.0-1.5","SS1613138352403","trial","","40","800","2413.549999980023","images/stimuli/spore_stims/simple_20_B_d.gif","images/stimuli/spore_stims/simple_01_B_a.gif","","","","","4","simple_dissimilar","images/stimuli/spore_stims/simple_01_B_a.gif","middle","","","","",""
"","null","html-keyboard-response","92","524142","0.0-20.0-0.6","SS1613138352403","","","null","","","","","<p><img src= images/blank.png width =""200"" height = ""200"" style = ""float:right""></p><p><img src=images/blank.png width =""800"" height = ""200""></p>","","","","","","","","","","","",""
"","5938.275000022259","sequential-stimulus-presentation","93","530885","0.0-20.0-1.6","SS1613138352403","trial","","40","800","6738.275000022259","images/stimuli/spore_stims/simple_20_B_d.gif","images/stimuli/spore_stims/simple_01_B_a.gif","","","","","4","simple_dissimilar","images/stimuli/spore_stims/simple_01_B_a.gif","middle","","","","",""
"","null","html-keyboard-response","94","532119","0.0-20.0-0.7","SS1613138352403","","","null","","","","","<p><img src= images/blank.png width =""200"" height = ""200"" style = ""float:right""></p><p><img src=images/blank.png width =""800"" height = ""200""></p>","","","","","","","","","","","",""
"","6381.389999995008","sequential-stimulus-presentation","95","539312","0.0-20.0-1.7","SS1613138352403","trial","","40","800","7181.389999995008","images/stimuli/spore_stims/simple_20_B_d.gif","images/stimuli/spore_stims/simple_01_B_a.gif","","","","","4","simple_dissimilar","images/stimuli/spore_stims/simple_20_B_d.gif","right","","","","",""
"","1296.6299999970943","html-keyboard-response","96","540619","0.0-21.0","SS1613138352403","pref_question","","49","","","","","<video width ='960' height = '540' style='padding-top:8%' autoplay muted><source src='images/stimuli/wall_pref.mp4' type='video/mp4'></video>","1","left","25%","4","","","","","","","",""
"","15371.764999988955","sequential-stimulus-presentation","97","556804","0.0-22.0","SS1613138352403","pref_reveal","","40","800","16171.764999988955","null","null","","","","","4","","","","novel","","","",""
"","null","html-keyboard-response","98","557879","0.0-23.0-0.0","SS1613138352403","","","null","","","","","<p><img src= images/blank.png width =""200"" height = ""200"" style = ""float:right""></p><p><img src=images/blank.png width =""800"" height = ""200""></p>","","","","","","","","","","","",""
"","5599.690000002738","sequential-stimulus-presentation","99","564290","0.0-23.0-1.0","SS1613138352403","trial","","40","800","6399.690000002738","images/stimuli/spore_stims/complex_03_A_d.gif","images/stimuli/spore_stims/complex_18_B_d.gif","","","","","5","complex_dissimilar","images/stimuli/spore_stims/complex_18_B_d.gif","right","","","","",""
"","null","html-keyboard-response","100","565137","0.0-23.0-0.1","SS1613138352403","","","null","","","","","<p><img src= images/blank.png width =""200"" height = ""200"" style = ""float:right""></p><p><img src=images/blank.png width =""800"" height = ""200""></p>","","","","","","","","","","","",""
"","5936.294999992242","sequential-stimulus-presentation","101","571881","0.0-23.0-1.1","SS1613138352403","trial","","40","800","6736.294999992242","images/stimuli/spore_stims/complex_03_A_d.gif","images/stimuli/spore_stims/complex_18_B_d.gif","","","","","5","complex_dissimilar","images/stimuli/spore_stims/complex_18_B_d.gif","right","","","","",""
"","null","html-keyboard-response","102","573084","0.0-23.0-0.2","SS1613138352403","","","null","","","","","<p><img src= images/blank.png width =""200"" height = ""200"" style = ""float:right""></p><p><img src=images/blank.png width =""800"" height = ""200""></p>","","","","","","","","","","","",""
"","3251.235000003362","sequential-stimulus-presentation","103","577147","0.0-23.0-1.2","SS1613138352403","trial","","40","800","4051.235000003362","images/stimuli/spore_stims/complex_03_A_d.gif","images/stimuli/spore_stims/complex_18_B_d.gif","","","","","5","complex_dissimilar","images/stimuli/spore_stims/complex_18_B_d.gif","right","","","","",""
"","null","html-keyboard-response","104","578195","0.0-23.0-0.3","SS1613138352403","","","null","","","","","<p><img src= images/blank.png width =""200"" height = ""200"" style = ""float:right""></p><p><img src=images/blank.png width =""800"" height = ""200""></p>","","","","","","","","","","","",""
"","130.65000000642613","sequential-stimulus-presentation","105","579137","0.0-23.0-1.3","SS1613138352403","trial","","40","800","930.6500000064261","images/stimuli/spore_stims/complex_03_A_d.gif","images/stimuli/spore_stims/complex_18_B_d.gif","","","","","5","complex_dissimilar","images/stimuli/spore_stims/complex_03_A_d.gif","left","","","","",""
"","null","html-keyboard-response","106","579980","0.0-23.0-0.4","SS1613138352403","","","null","","","","","<p><img src= images/blank.png width =""200"" height = ""200"" style = ""float:right""></p><p><img src=images/blank.png width =""800"" height = ""200""></p>","","","","","","","","","","","",""
"","3688.5450000118","sequential-stimulus-presentation","107","584473","0.0-23.0-1.4","SS1613138352403","trial","","40","800","4488.5450000118","images/stimuli/spore_stims/complex_03_A_d.gif","images/stimuli/spore_stims/complex_18_B_d.gif","","","","","5","complex_dissimilar","images/stimuli/spore_stims/complex_18_B_d.gif","right","","","","",""
"","null","html-keyboard-response","108","585372","0.0-23.0-0.5","SS1613138352403","","","null","","","","","<p><img src= images/blank.png width =""200"" height = ""200"" style = ""float:right""></p><p><img src=images/blank.png width =""800"" height = ""200""></p>","","","","","","","","","","","",""
"","3197.164999990491","sequential-stimulus-presentation","109","589382","0.0-23.0-1.5","SS1613138352403","trial","","40","800","3997.164999990491","images/stimuli/spore_stims/complex_03_A_d.gif","images/stimuli/spore_stims/complex_18_B_d.gif","","","","","5","complex_dissimilar","images/stimuli/spore_stims/complex_18_B_d.gif","right","","","","",""
"","null","html-keyboard-response","110","590635","0.0-23.0-0.6","SS1613138352403","","","null","","","","","<p><img src= images/blank.png width =""200"" height = ""200"" style = ""float:right""></p><p><img src=images/blank.png width =""800"" height = ""200""></p>","","","","","","","","","","","",""
"","4058.7499999965075","sequential-stimulus-presentation","111","595504","0.0-23.0-1.6","SS1613138352403","trial","","40","800","4858.7499999965075","images/stimuli/spore_stims/complex_03_A_d.gif","images/stimuli/spore_stims/complex_18_B_d.gif","","","","","5","complex_dissimilar","images/stimuli/spore_stims/complex_18_B_d.gif","right","","","","",""
"","null","html-keyboard-response","112","596466","0.0-23.0-0.7","SS1613138352403","","","null","","","","","<p><img src= images/blank.png width =""200"" height = ""200"" style = ""float:right""></p><p><img src=images/blank.png width =""800"" height = ""200""></p>","","","","","","","","","","","",""
"","2065.6249999883585","sequential-stimulus-presentation","113","599345","0.0-23.0-1.7","SS1613138352403","trial","","40","800","2865.6249999883585","images/stimuli/spore_stims/complex_03_A_d.gif","images/stimuli/spore_stims/complex_18_B_d.gif","","","","","5","complex_dissimilar","images/stimuli/spore_stims/complex_18_B_d.gif","right","","","","",""
"","8684.815000015078","html-keyboard-response","114","608034","0.0-24.0","SS1613138352403","pref_question","","50","","","","","<video width ='960' height = '540' style='padding-top:8%' autoplay muted><source src='images/stimuli/wall_pref.mp4' type='video/mp4'></video>","2","middle","45%","5","","","","","","","",""
"","5517.580000014277","sequential-stimulus-presentation","115","614366","0.0-25.0","SS1613138352403","pref_reveal","","40","800","6317.580000014277","null","null","","","","","5","","","","novel","","","",""
"","null","html-keyboard-response","116","615646","0.0-26.0-0.0","SS1613138352403","","","null","","","","","<p><img src= images/blank.png width =""200"" height = ""200"" style = ""float:right""></p><p><img src=images/blank.png width =""800"" height = ""200""></p>","","","","","","","","","","","",""
"","11311.064999987138","sequential-stimulus-presentation","117","627773","0.0-26.0-1.0","SS1613138352403","trial","","40","800","12111.064999987138","images/stimuli/spore_stims/complex_12_A_a.gif","images/stimuli/spore_stims/complex_12_B_a.gif","","","","","6","complex_similar","images/stimuli/spore_stims/complex_12_B_a.gif","middle","","","","",""
"","null","html-keyboard-response","118","628675","0.0-26.0-0.1","SS1613138352403","","","null","","","","","<p><img src= images/blank.png width =""200"" height = ""200"" style = ""float:right""></p><p><img src=images/blank.png width =""800"" height = ""200""></p>","","","","","","","","","","","",""
"","3663.4800000174437","sequential-stimulus-presentation","119","633144","0.0-26.0-1.1","SS1613138352403","trial","","40","800","4463.480000017444","images/stimuli/spore_stims/complex_12_A_a.gif","images/stimuli/spore_stims/complex_12_B_a.gif","","","","","6","complex_similar","images/stimuli/spore_stims/complex_12_B_a.gif","middle","","","","",""
"","null","html-keyboard-response","120","634110","0.0-26.0-0.2","SS1613138352403","","","null","","","","","<p><img src= images/blank.png width =""200"" height = ""200"" style = ""float:right""></p><p><img src=images/blank.png width =""800"" height = ""200""></p>","","","","","","","","","","","",""
"","3078.8900000043213","sequential-stimulus-presentation","121","638001","0.0-26.0-1.2","SS1613138352403","trial","","40","800","3878.8900000043213","images/stimuli/spore_stims/complex_12_A_a.gif","images/stimuli/spore_stims/complex_12_B_a.gif","","","","","6","complex_similar","images/stimuli/spore_stims/complex_12_B_a.gif","middle","","","","",""
"","null","html-keyboard-response","122","639095","0.0-26.0-0.3","SS1613138352403","","","null","","","","","<p><img src= images/blank.png width =""200"" height = ""200"" style = ""float:right""></p><p><img src=images/blank.png width =""800"" height = ""200""></p>","","","","","","","","","","","",""
"","3539.489999995567","sequential-stimulus-presentation","123","643449","0.0-26.0-1.3","SS1613138352403","trial","","40","800","4339.489999995567","images/stimuli/spore_stims/complex_12_A_a.gif","images/stimuli/spore_stims/complex_12_B_a.gif","","","","","6","complex_similar","images/stimuli/spore_stims/complex_12_B_a.gif","middle","","","","",""
"","null","html-keyboard-response","124","644640","0.0-26.0-0.4","SS1613138352403","","","null","","","","","<p><img src= images/blank.png width =""200"" height = ""200"" style = ""float:right""></p><p><img src=images/blank.png width =""800"" height = ""200""></p>","","","","","","","","","","","",""
"","2829.7200000088196","sequential-stimulus-presentation","125","648282","0.0-26.0-1.4","SS1613138352403","trial","","40","800","3629.7200000088196","images/stimuli/spore_stims/complex_12_A_a.gif","images/stimuli/spore_stims/complex_12_B_a.gif","","","","","6","complex_similar","images/stimuli/spore_stims/complex_12_B_a.gif","middle","","","","",""
"","null","html-keyboard-response","126","649181","0.0-26.0-0.5","SS1613138352403","","","null","","","","","<p><img src= images/blank.png width =""200"" height = ""200"" style = ""float:right""></p><p><img src=images/blank.png width =""800"" height = ""200""></p>","","","","","","","","","","","",""
"","239.2849999887403","sequential-stimulus-presentation","127","650234","0.0-26.0-1.5","SS1613138352403","trial","","40","800","1039.2849999887403","images/stimuli/spore_stims/complex_12_A_a.gif","images/stimuli/spore_stims/complex_12_B_a.gif","","","","","6","complex_similar","images/stimuli/spore_stims/complex_12_B_a.gif","middle","","","","",""
"","null","html-keyboard-response","128","651418","0.0-26.0-0.6","SS1613138352403","","","null","","","","","<p><img src= images/blank.png width =""200"" height = ""200"" style = ""float:right""></p><p><img src=images/blank.png width =""800"" height = ""200""></p>","","","","","","","","","","","",""
"","502.13999999687076","sequential-stimulus-presentation","129","652733","0.0-26.0-1.6","SS1613138352403","trial","","40","800","1302.1399999968708","images/stimuli/spore_stims/complex_12_A_a.gif","images/stimuli/spore_stims/complex_12_B_a.gif","","","","","6","complex_similar","images/stimuli/spore_stims/complex_12_B_a.gif","middle","","","","",""
"","null","html-keyboard-response","130","654031","0.0-26.0-0.7","SS1613138352403","","","null","","","","","<p><img src= images/blank.png width =""200"" height = ""200"" style = ""float:right""></p><p><img src=images/blank.png width =""800"" height = ""200""></p>","","","","","","","","","","","",""
"","4781.580000009853","sequential-stimulus-presentation","131","659628","0.0-26.0-1.7","SS1613138352403","trial","","40","800","5581.580000009853","images/stimuli/spore_stims/complex_12_A_a.gif","images/stimuli/spore_stims/complex_12_B_a.gif","","","","","6","complex_similar","images/stimuli/spore_stims/complex_12_A_a.gif","left","","","","",""
"","1269.220000016503","html-keyboard-response","132","660906","0.0-27.0","SS1613138352403","pref_question","","51","","","","","<video width ='960' height = '540' style='padding-top:8%' autoplay muted><source src='images/stimuli/wall_pref.mp4' type='video/mp4'></video>","3","right","66%","6","","","","","","","",""
"","6790.109999972628","sequential-stimulus-presentation","133","668503","0.0-28.0","SS1613138352403","pref_reveal","","40","800","7590.109999972628","null","null","","","","","6","","","","novel","","","",""
"","null","html-keyboard-response","134","669421","0.0-29.0-0.0","SS1613138352403","","","null","","","","","<p><img src= images/blank.png width =""200"" height = ""200"" style = ""float:right""></p><p><img src=images/blank.png width =""800"" height = ""200""></p>","","","","","","","","","","","",""
"","3172.1099999849685","sequential-stimulus-presentation","135","673407","0.0-29.0-1.0","SS1613138352403","trial","","40","800","3972.1099999849685","images/stimuli/spore_stims/simple_15_A_c.gif","images/stimuli/spore_stims/simple_15_B_c.gif","","","","","7","simple_similar","images/stimuli/spore_stims/simple_15_B_c.gif","left","","","","",""
"","null","html-keyboard-response","136","674464","0.0-29.0-0.1","SS1613138352403","","","null","","","","","<p><img src= images/blank.png width =""200"" height = ""200"" style = ""float:right""></p><p><img src=images/blank.png width =""800"" height = ""200""></p>","","","","","","","","","","","",""
"","2747.1699999878183","sequential-stimulus-presentation","137","678016","0.0-29.0-1.1","SS1613138352403","trial","","40","800","3547.1699999878183","images/stimuli/spore_stims/simple_15_A_c.gif","images/stimuli/spore_stims/simple_15_B_c.gif","","","","","7","simple_similar","images/stimuli/spore_stims/simple_15_B_c.gif","left","","","","",""
"","null","html-keyboard-response","138","678960","0.0-29.0-0.2","SS1613138352403","","","null","","","","","<p><img src= images/blank.png width =""200"" height = ""200"" style = ""float:right""></p><p><img src=images/blank.png width =""800"" height = ""200""></p>","","","","","","","","","","","",""
"","4179.49999999837","sequential-stimulus-presentation","139","683945","0.0-29.0-1.2","SS1613138352403","trial","","40","800","4979.49999999837","images/stimuli/spore_stims/simple_15_A_c.gif","images/stimuli/spore_stims/simple_15_B_c.gif","","","","","7","simple_similar","images/stimuli/spore_stims/simple_15_A_c.gif","right","","","","",""
"","null","html-keyboard-response","140","684997","0.0-29.0-0.3","SS1613138352403","","","null","","","","","<p><img src= images/blank.png width =""200"" height = ""200"" style = ""float:right""></p><p><img src=images/blank.png width =""800"" height = ""200""></p>","","","","","","","","","","","",""
"","7779.579999973066","sequential-stimulus-presentation","141","693583","0.0-29.0-1.3","SS1613138352403","trial","","40","800","8579.579999973066","images/stimuli/spore_stims/simple_15_A_c.gif","images/stimuli/spore_stims/simple_15_B_c.gif","","","","","7","simple_similar","images/stimuli/spore_stims/simple_15_B_c.gif","left","","","","",""
"","null","html-keyboard-response","142","694867","0.0-29.0-0.4","SS1613138352403","","","null","","","","","<p><img src= images/blank.png width =""200"" height = ""200"" style = ""float:right""></p><p><img src=images/blank.png width =""800"" height = ""200""></p>","","","","","","","","","","","",""
"","4127.849999989849","sequential-stimulus-presentation","143","699801","0.0-29.0-1.4","SS1613138352403","trial","","40","800","4927.849999989849","images/stimuli/spore_stims/simple_15_A_c.gif","images/stimuli/spore_stims/simple_15_B_c.gif","","","","","7","simple_similar","images/stimuli/spore_stims/simple_15_B_c.gif","left","","","","",""
"","null","html-keyboard-response","144","701044","0.0-29.0-0.5","SS1613138352403","","","null","","","","","<p><img src= images/blank.png width =""200"" height = ""200"" style = ""float:right""></p><p><img src=images/blank.png width =""800"" height = ""200""></p>","","","","","","","","","","","",""
"","2202.864999999292","sequential-stimulus-presentation","145","704052","0.0-29.0-1.5","SS1613138352403","trial","","40","800","3002.864999999292","images/stimuli/spore_stims/simple_15_A_c.gif","images/stimuli/spore_stims/simple_15_B_c.gif","","","","","7","simple_similar","images/stimuli/spore_stims/simple_15_B_c.gif","left","","","","",""
"","null","html-keyboard-response","146","705290","0.0-29.0-0.6","SS1613138352403","","","null","","","","","<p><img src= images/blank.png width =""200"" height = ""200"" style = ""float:right""></p><p><img src=images/blank.png width =""800"" height = ""200""></p>","","","","","","","","","","","",""
"","1204.360000003362","sequential-stimulus-presentation","147","707307","0.0-29.0-1.6","SS1613138352403","trial","","40","800","2004.360000003362","images/stimuli/spore_stims/simple_15_A_c.gif","images/stimuli/spore_stims/simple_15_B_c.gif","","","","","7","simple_similar","images/stimuli/spore_stims/simple_15_B_c.gif","left","","","","",""
"","null","html-keyboard-response","148","708312","0.0-29.0-0.7","SS1613138352403","","","null","","","","","<p><img src= images/blank.png width =""200"" height = ""200"" style = ""float:right""></p><p><img src=images/blank.png width =""800"" height = ""200""></p>","","","","","","","","","","","",""
"","1766.6099999914877","sequential-stimulus-presentation","149","710892","0.0-29.0-1.7","SS1613138352403","trial","","40","800","2566.6099999914877","images/stimuli/spore_stims/simple_15_A_c.gif","images/stimuli/spore_stims/simple_15_B_c.gif","","","","","7","simple_similar","images/stimuli/spore_stims/simple_15_B_c.gif","left","","","","",""
"","778.5300000105053","html-keyboard-response","150","711675","0.0-30.0","SS1613138352403","pref_question","","50","","","","","<video width ='960' height = '540' style='padding-top:8%' autoplay muted><source src='images/stimuli/wall_pref.mp4' type='video/mp4'></video>","2","middle","45%","7","","","","","","","",""
"","4810.9349999867845","sequential-stimulus-presentation","151","717310","0.0-31.0","SS1613138352403","pref_reveal","","40","800","5610.9349999867845","null","null","","","","","7","","","","novel","","","",""
"","null","html-keyboard-response","152","718311","0.0-32.0-0.0","SS1613138352403","","","null","","","","","<p><img src= images/blank.png width =""200"" height = ""200"" style = ""float:right""></p><p><img src=images/blank.png width =""800"" height = ""200""></p>","","","","","","","","","","","",""
"","6364.475000009406","sequential-stimulus-presentation","153","725488","0.0-32.0-1.0","SS1613138352403","trial","","40","800","7164.475000009406","images/stimuli/spore_stims/complex_01_B_d.gif","images/stimuli/spore_stims/complex_02_A_d.gif","","","","","8","complex_dissimilar","images/stimuli/spore_stims/complex_02_A_d.gif","middle","","","","",""
"","null","html-keyboard-response","154","726395","0.0-32.0-0.1","SS1613138352403","","","null","","","","","<p><img src= images/blank.png width =""200"" height = ""200"" style = ""float:right""></p><p><img src=images/blank.png width =""800"" height = ""200""></p>","","","","","","","","","","","",""
"","3567.299999995157","sequential-stimulus-presentation","155","730773","0.0-32.0-1.1","SS1613138352403","trial","","40","800","4367.299999995157","images/stimuli/spore_stims/complex_01_B_d.gif","images/stimuli/spore_stims/complex_02_A_d.gif","","","","","8","complex_dissimilar","images/stimuli/spore_stims/complex_02_A_d.gif","middle","","","","",""
"","null","html-keyboard-response","156","731875","0.0-32.0-0.2","SS1613138352403","","","null","","","","","<p><img src= images/blank.png width =""200"" height = ""200"" style = ""float:right""></p><p><img src=images/blank.png width =""800"" height = ""200""></p>","","","","","","","","","","","",""
"","4199.594999983674","sequential-stimulus-presentation","157","736891","0.0-32.0-1.2","SS1613138352403","trial","","40","800","4999.594999983674","images/stimuli/spore_stims/complex_01_B_d.gif","images/stimuli/spore_stims/complex_02_A_d.gif","","","","","8","complex_dissimilar","images/stimuli/spore_stims/complex_01_B_d.gif","right","","","","",""
"","null","html-keyboard-response","158","737742","0.0-32.0-0.3","SS1613138352403","","","null","","","","","<p><img src= images/blank.png width =""200"" height = ""200"" style = ""float:right""></p><p><img src=images/blank.png width =""800"" height = ""200""></p>","","","","","","","","","","","",""
"","4110.97000000882","sequential-stimulus-presentation","159","742667","0.0-32.0-1.3","SS1613138352403","trial","","40","800","4910.97000000882","images/stimuli/spore_stims/complex_01_B_d.gif","images/stimuli/spore_stims/complex_02_A_d.gif","","","","","8","complex_dissimilar","images/stimuli/spore_stims/complex_02_A_d.gif","middle","","","","",""
"","null","html-keyboard-response","160","743653","0.0-32.0-0.4","SS1613138352403","","","null","","","","","<p><img src= images/blank.png width =""200"" height = ""200"" style = ""float:right""></p><p><img src=images/blank.png width =""800"" height = ""200""></p>","","","","","","","","","","","",""
"","942.2649999905843","sequential-stimulus-presentation","161","745425","0.0-32.0-1.4","SS1613138352403","trial","","40","800","1742.2649999905843","images/stimuli/spore_stims/complex_01_B_d.gif","images/stimuli/spore_stims/complex_02_A_d.gif","","","","","8","complex_dissimilar","images/stimuli/spore_stims/complex_02_A_d.gif","middle","","","","",""
"","null","html-keyboard-response","162","746570","0.0-32.0-0.5","SS1613138352403","","","null","","","","","<p><img src= images/blank.png width =""200"" height = ""200"" style = ""float:right""></p><p><img src=images/blank.png width =""800"" height = ""200""></p>","","","","","","","","","","","",""
"","2470.14499999932","sequential-stimulus-presentation","163","749853","0.0-32.0-1.5","SS1613138352403","trial","","40","800","3270.14499999932","images/stimuli/spore_stims/complex_01_B_d.gif","images/stimuli/spore_stims/complex_02_A_d.gif","","","","","8","complex_dissimilar","images/stimuli/spore_stims/complex_02_A_d.gif","middle","","","","",""
"","null","html-keyboard-response","164","751165","0.0-32.0-0.6","SS1613138352403","","","null","","","","","<p><img src= images/blank.png width =""200"" height = ""200"" style = ""float:right""></p><p><img src=images/blank.png width =""800"" height = ""200""></p>","","","","","","","","","","","",""
"","2805.350000009639","sequential-stimulus-presentation","165","754786","0.0-32.0-1.6","SS1613138352403","trial","","40","800","3605.350000009639","images/stimuli/spore_stims/complex_01_B_d.gif","images/stimuli/spore_stims/complex_02_A_d.gif","","","","","8","complex_dissimilar","images/stimuli/spore_stims/complex_02_A_d.gif","middle","","","","",""
"","null","html-keyboard-response","166","756048","0.0-32.0-0.7","SS1613138352403","","","null","","","","","<p><img src= images/blank.png width =""200"" height = ""200"" style = ""float:right""></p><p><img src=images/blank.png width =""800"" height = ""200""></p>","","","","","","","","","","","",""
"","3963.3800000010524","sequential-stimulus-presentation","167","760828","0.0-32.0-1.7","SS1613138352403","trial","","40","800","4763.380000001052","images/stimuli/spore_stims/complex_01_B_d.gif","images/stimuli/spore_stims/complex_02_A_d.gif","","","","","8","complex_dissimilar","images/stimuli/spore_stims/complex_02_A_d.gif","middle","","","","",""
"","726.7800000263378","html-keyboard-response","168","761565","0.0-33.0","SS1613138352403","pref_question","","49","","","","","<video width ='960' height = '540' style='padding-top:8%' autoplay muted><source src='images/stimuli/wall_pref.mp4' type='video/mp4'></video>","1","left","25%","8","","","","","","","",""
"","6646.165000012843","sequential-stimulus-presentation","169","769023","0.0-34.0","SS1613138352403","pref_reveal","","40","800","7446.165000012843","null","null","","","","","8","","","","novel","","","",""
"","null","html-keyboard-response","170","770237","0.0-35.0-0.0","SS1613138352403","","","null","","","","","<p><img src= images/blank.png width =""200"" height = ""200"" style = ""float:right""></p><p><img src=images/blank.png width =""800"" height = ""200""></p>","","","","","","","","","","","",""
"","483.65500001818873","sequential-stimulus-presentation","171","771530","0.0-35.0-1.0","SS1613138352403","trial","","40","800","1283.6550000181887","images/stimuli/spore_stims/simple_11_A_c.gif","images/stimuli/spore_stims/simple_20_A_c.gif","","","","","9","simple_dissimilar","images/stimuli/spore_stims/simple_20_A_c.gif","left","","","","",""
"","null","html-keyboard-response","172","772706","0.0-35.0-0.1","SS1613138352403","","","null","","","","","<p><img src= images/blank.png width =""200"" height = ""200"" style = ""float:right""></p><p><img src=images/blank.png width =""800"" height = ""200""></p>","","","","","","","","","","","",""
"","4494.760000001406","sequential-stimulus-presentation","173","778013","0.0-35.0-1.1","SS1613138352403","trial","","40","800","5294.760000001406","images/stimuli/spore_stims/simple_11_A_c.gif","images/stimuli/spore_stims/simple_20_A_c.gif","","","","","9","simple_dissimilar","images/stimuli/spore_stims/simple_20_A_c.gif","left","","","","",""
"","null","html-keyboard-response","174","778820","0.0-35.0-0.2","SS1613138352403","","","null","","","","","<p><img src= images/blank.png width =""200"" height = ""200"" style = ""float:right""></p><p><img src=images/blank.png width =""800"" height = ""200""></p>","","","","","","","","","","","",""
"","6276.929999992717","sequential-stimulus-presentation","175","786480","0.0-35.0-1.2","SS1613138352403","trial","","40","800","7076.929999992717","images/stimuli/spore_stims/simple_11_A_c.gif","images/stimuli/spore_stims/simple_20_A_c.gif","","","","","9","simple_dissimilar","images/stimuli/spore_stims/simple_11_A_c.gif","middle","","","","",""
"","null","html-keyboard-response","176","787396","0.0-35.0-0.3","SS1613138352403","","","null","","","","","<p><img src= images/blank.png width =""200"" height = ""200"" style = ""float:right""></p><p><img src=images/blank.png width =""800"" height = ""200""></p>","","","","","","","","","","","",""
"","120.16500000027008","sequential-stimulus-presentation","177","788329","0.0-35.0-1.3","SS1613138352403","trial","","40","800","920.1650000002701","images/stimuli/spore_stims/simple_11_A_c.gif","images/stimuli/spore_stims/simple_20_A_c.gif","","","","","9","simple_dissimilar","images/stimuli/spore_stims/simple_20_A_c.gif","left","","","","",""
"","null","html-keyboard-response","178","789398","0.0-35.0-0.4","SS1613138352403","","","null","","","","","<p><img src= images/blank.png width =""200"" height = ""200"" style = ""float:right""></p><p><img src=images/blank.png width =""800"" height = ""200""></p>","","","","","","","","","","","",""
"","3497.1849999856204","sequential-stimulus-presentation","179","793710","0.0-35.0-1.4","SS1613138352403","trial","","40","800","4297.18499998562","images/stimuli/spore_stims/simple_11_A_c.gif","images/stimuli/spore_stims/simple_20_A_c.gif","","","","","9","simple_dissimilar","images/stimuli/spore_stims/simple_20_A_c.gif","left","","","","",""
"","null","html-keyboard-response","180","794698","0.0-35.0-0.5","SS1613138352403","","","null","","","","","<p><img src= images/blank.png width =""200"" height = ""200"" style = ""float:right""></p><p><img src=images/blank.png width =""800"" height = ""200""></p>","","","","","","","","","","","",""
"","1458.8550000044052","sequential-stimulus-presentation","181","796973","0.0-35.0-1.5","SS1613138352403","trial","","40","800","2258.855000004405","images/stimuli/spore_stims/simple_11_A_c.gif","images/stimuli/spore_stims/simple_20_A_c.gif","","","","","9","simple_dissimilar","images/stimuli/spore_stims/simple_20_A_c.gif","left","","","","",""
"","null","html-keyboard-response","182","798000","0.0-35.0-0.6","SS1613138352403","","","null","","","","","<p><img src= images/blank.png width =""200"" height = ""200"" style = ""float:right""></p><p><img src=images/blank.png width =""800"" height = ""200""></p>","","","","","","","","","","","",""
"","3.069999977014959","sequential-stimulus-presentation","183","798820","0.0-35.0-1.6","SS1613138352403","trial","","40","800","803.069999977015","images/stimuli/spore_stims/simple_11_A_c.gif","images/stimuli/spore_stims/simple_20_A_c.gif","","","","","9","simple_dissimilar","images/stimuli/spore_stims/simple_20_A_c.gif","left","","","","",""
"","null","html-keyboard-response","184","799947","0.0-35.0-0.7","SS1613138352403","","","null","","","","","<p><img src= images/blank.png width =""200"" height = ""200"" style = ""float:right""></p><p><img src=images/blank.png width =""800"" height = ""200""></p>","","","","","","","","","","","",""
"","3455.049999989569","sequential-stimulus-presentation","185","804214","0.0-35.0-1.7","SS1613138352403","trial","","40","800","4255.049999989569","images/stimuli/spore_stims/simple_11_A_c.gif","images/stimuli/spore_stims/simple_20_A_c.gif","","","","","9","simple_dissimilar","images/stimuli/spore_stims/simple_20_A_c.gif","left","","","","",""
"","1307.749999978114","html-keyboard-response","186","805537","0.0-36.0","SS1613138352403","pref_question","","51","","","","","<video width ='960' height = '540' style='padding-top:8%' autoplay muted><source src='images/stimuli/wall_pref.mp4' type='video/mp4'></video>","3","right","66%","9","","","","","","","",""
"","6553.540000022622","sequential-stimulus-presentation","187","812906","0.0-37.0","SS1613138352403","pref_reveal","","40","800","7353.540000022622","null","null","","","","","9","","","","novel","","","",""
"","null","html-keyboard-response","188","813929","0.0-38.0-0.0","SS1613138352403","","","null","","","","","<p><img src= images/blank.png width =""200"" height = ""200"" style = ""float:right""></p><p><img src=images/blank.png width =""800"" height = ""200""></p>","","","","","","","","","","","",""
"","8012.114999990445","sequential-stimulus-presentation","189","822757","0.0-38.0-1.0","SS1613138352403","trial","","40","800","8812.114999990445","images/stimuli/spore_stims/complex_10_B_a.gif","images/stimuli/spore_stims/complex_10_A_a.gif","","","","","10","complex_similar","images/stimuli/spore_stims/complex_10_A_a.gif","right","","","","",""
"","null","html-keyboard-response","190","823654","0.0-38.0-0.1","SS1613138352403","","","null","","","","","<p><img src= images/blank.png width =""200"" height = ""200"" style = ""float:right""></p><p><img src=images/blank.png width =""800"" height = ""200""></p>","","","","","","","","","","","",""
"","1912.8250000067055","sequential-stimulus-presentation","191","826384","0.0-38.0-1.1","SS1613138352403","trial","","40","800","2712.8250000067055","images/stimuli/spore_stims/complex_10_B_a.gif","images/stimuli/spore_stims/complex_10_A_a.gif","","","","","10","complex_similar","images/stimuli/spore_stims/complex_10_A_a.gif","right","","","","",""
"","null","html-keyboard-response","192","827532","0.0-38.0-0.2","SS1613138352403","","","null","","","","","<p><img src= images/blank.png width =""200"" height = ""200"" style = ""float:right""></p><p><img src=images/blank.png width =""800"" height = ""200""></p>","","","","","","","","","","","",""
"","163.44000000390224","sequential-stimulus-presentation","193","828507","0.0-38.0-1.2","SS1613138352403","trial","","40","800","963.4400000039022","images/stimuli/spore_stims/complex_10_B_a.gif","images/stimuli/spore_stims/complex_10_A_a.gif","","","","","10","complex_similar","images/stimuli/spore_stims/complex_10_A_a.gif","right","","","","",""
"","null","html-keyboard-response","194","829601","0.0-38.0-0.3","SS1613138352403","","","null","","","","","<p><img src= images/blank.png width =""200"" height = ""200"" style = ""float:right""></p><p><img src=images/blank.png width =""800"" height = ""200""></p>","","","","","","","","","","","",""
"","7025.584999995772","sequential-stimulus-presentation","195","837440","0.0-38.0-1.3","SS1613138352403","trial","","40","800","7825.584999995772","images/stimuli/spore_stims/complex_10_B_a.gif","images/stimuli/spore_stims/complex_10_A_a.gif","","","","","10","complex_similar","images/stimuli/spore_stims/complex_10_B_a.gif","middle","","","","",""
"","null","html-keyboard-response","196","838616","0.0-38.0-0.4","SS1613138352403","","","null","","","","","<p><img src= images/blank.png width =""200"" height = ""200"" style = ""float:right""></p><p><img src=images/blank.png width =""800"" height = ""200""></p>","","","","","","","","","","","",""
"","3633.0549999838695","sequential-stimulus-presentation","197","843062","0.0-38.0-1.4","SS1613138352403","trial","","40","800","4433.0549999838695","images/stimuli/spore_stims/complex_10_B_a.gif","images/stimuli/spore_stims/complex_10_A_a.gif","","","","","10","complex_similar","images/stimuli/spore_stims/complex_10_A_a.gif","right","","","","",""
"","null","html-keyboard-response","198","844200","0.0-38.0-0.5","SS1613138352403","","","null","","","","","<p><img src= images/blank.png width =""200"" height = ""200"" style = ""float:right""></p><p><img src=images/blank.png width =""800"" height = ""200""></p>","","","","","","","","","","","",""
"","1662.5549999880604","sequential-stimulus-presentation","199","846680","0.0-38.0-1.5","SS1613138352403","trial","","40","800","2462.5549999880604","images/stimuli/spore_stims/complex_10_B_a.gif","images/stimuli/spore_stims/complex_10_A_a.gif","","","","","10","complex_similar","images/stimuli/spore_stims/complex_10_A_a.gif","right","","","","",""
"","null","html-keyboard-response","200","847711","0.0-38.0-0.6","SS1613138352403","","","null","","","","","<p><img src= images/blank.png width =""200"" height = ""200"" style = ""float:right""></p><p><img src=images/blank.png width =""800"" height = ""200""></p>","","","","","","","","","","","",""
"","2389.4150000123773","sequential-stimulus-presentation","201","850905","0.0-38.0-1.6","SS1613138352403","trial","","40","800","3189.4150000123773","images/stimuli/spore_stims/complex_10_B_a.gif","images/stimuli/spore_stims/complex_10_A_a.gif","","","","","10","complex_similar","images/stimuli/spore_stims/complex_10_A_a.gif","right","","","","",""
"","null","html-keyboard-response","202","852111","0.0-38.0-0.7","SS1613138352403","","","null","","","","","<p><img src= images/blank.png width =""200"" height = ""200"" style = ""float:right""></p><p><img src=images/blank.png width =""800"" height = ""200""></p>","","","","","","","","","","","",""
"","2497.78000000515","sequential-stimulus-presentation","203","855419","0.0-38.0-1.7","SS1613138352403","trial","","40","800","3297.78000000515","images/stimuli/spore_stims/complex_10_B_a.gif","images/stimuli/spore_stims/complex_10_A_a.gif","","","","","10","complex_similar","images/stimuli/spore_stims/complex_10_A_a.gif","right","","","","",""
"","785.0949999992736","html-keyboard-response","204","856209","0.0-39.0","SS1613138352403","pref_question","","49","","","","","<video width ='960' height = '540' style='padding-top:8%' autoplay muted><source src='images/stimuli/wall_pref.mp4' type='video/mp4'></video>","1","left","25%","10","","","","","","","",""
"","7761.804999987362","sequential-stimulus-presentation","205","864783","0.0-40.0","SS1613138352403","pref_reveal","","40","800","8561.804999987362","null","null","","","","","10","","","","novel","","","",""
"","null","html-keyboard-response","206","865920","0.0-41.0-0.0","SS1613138352403","","","null","","","","","<p><img src= images/blank.png width =""200"" height = ""200"" style = ""float:right""></p><p><img src=images/blank.png width =""800"" height = ""200""></p>","","","","","","","","","","","",""
"","3502.039999992121","sequential-stimulus-presentation","207","870234","0.0-41.0-1.0","SS1613138352403","trial","","40","800","4302.039999992121","images/stimuli/spore_stims/simple_02_A_d.gif","images/stimuli/spore_stims/simple_01_A_b.gif","","","","","11","simple_dissimilar","images/stimuli/spore_stims/simple_01_A_b.gif","right","","","","",""
"","null","html-keyboard-response","208","871542","0.0-41.0-0.1","SS1613138352403","","","null","","","","","<p><img src= images/blank.png width =""200"" height = ""200"" style = ""float:right""></p><p><img src=images/blank.png width =""800"" height = ""200""></p>","","","","","","","","","","","",""
"","2848.214999976335","sequential-stimulus-presentation","209","875199","0.0-41.0-1.1","SS1613138352403","trial","","40","800","3648.214999976335","images/stimuli/spore_stims/simple_02_A_d.gif","images/stimuli/spore_stims/simple_01_A_b.gif","","","","","11","simple_dissimilar","images/stimuli/spore_stims/simple_01_A_b.gif","right","","","","",""
"","null","html-keyboard-response","210","876412","0.0-41.0-0.2","SS1613138352403","","","null","","","","","<p><img src= images/blank.png width =""200"" height = ""200"" style = ""float:right""></p><p><img src=images/blank.png width =""800"" height = ""200""></p>","","","","","","","","","","","",""
"","3314.0650000132155","sequential-stimulus-presentation","211","880535","0.0-41.0-1.2","SS1613138352403","trial","","40","800","4114.0650000132155","images/stimuli/spore_stims/simple_02_A_d.gif","images/stimuli/spore_stims/simple_01_A_b.gif","","","","","11","simple_dissimilar","images/stimuli/spore_stims/simple_01_A_b.gif","right","","","","",""
"","null","html-keyboard-response","212","881579","0.0-41.0-0.3","SS1613138352403","","","null","","","","","<p><img src= images/blank.png width =""200"" height = ""200"" style = ""float:right""></p><p><img src=images/blank.png width =""800"" height = ""200""></p>","","","","","","","","","","","",""
"","3676.7800000088755","sequential-stimulus-presentation","213","886073","0.0-41.0-1.3","SS1613138352403","trial","","40","800","4476.7800000088755","images/stimuli/spore_stims/simple_02_A_d.gif","images/stimuli/spore_stims/simple_01_A_b.gif","","","","","11","simple_dissimilar","images/stimuli/spore_stims/simple_01_A_b.gif","right","","","","",""
"","null","html-keyboard-response","214","886925","0.0-41.0-0.4","SS1613138352403","","","null","","","","","<p><img src= images/blank.png width =""200"" height = ""200"" style = ""float:right""></p><p><img src=images/blank.png width =""800"" height = ""200""></p>","","","","","","","","","","","",""
"","2269.510000012815","sequential-stimulus-presentation","215","890004","0.0-41.0-1.4","SS1613138352403","trial","","40","800","3069.510000012815","images/stimuli/spore_stims/simple_02_A_d.gif","images/stimuli/spore_stims/simple_01_A_b.gif","","","","","11","simple_dissimilar","images/stimuli/spore_stims/simple_02_A_d.gif","left","","","","",""
"","null","html-keyboard-response","216","890859","0.0-41.0-0.5","SS1613138352403","","","null","","","","","<p><img src= images/blank.png width =""200"" height = ""200"" style = ""float:right""></p><p><img src=images/blank.png width =""800"" height = ""200""></p>","","","","","","","","","","","",""
"","3420.350000000326","sequential-stimulus-presentation","217","895089","0.0-41.0-1.5","SS1613138352403","trial","","40","800","4220.350000000326","images/stimuli/spore_stims/simple_02_A_d.gif","images/stimuli/spore_stims/simple_01_A_b.gif","","","","","11","simple_dissimilar","images/stimuli/spore_stims/simple_01_A_b.gif","right","","","","",""
"","null","html-keyboard-response","218","896038","0.0-41.0-0.6","SS1613138352403","","","null","","","","","<p><img src= images/blank.png width =""200"" height = ""200"" style = ""float:right""></p><p><img src=images/blank.png width =""800"" height = ""200""></p>","","","","","","","","","","","",""
"","1110.4800000030082","sequential-stimulus-presentation","219","897958","0.0-41.0-1.6","SS1613138352403","trial","","40","800","1910.4800000030082","images/stimuli/spore_stims/simple_02_A_d.gif","images/stimuli/spore_stims/simple_01_A_b.gif","","","","","11","simple_dissimilar","images/stimuli/spore_stims/simple_01_A_b.gif","right","","","","",""
"","null","html-keyboard-response","220","898788","0.0-41.0-0.7","SS1613138352403","","","null","","","","","<p><img src= images/blank.png width =""200"" height = ""200"" style = ""float:right""></p><p><img src=images/blank.png width =""800"" height = ""200""></p>","","","","","","","","","","","",""
"","3149.7050000180025","sequential-stimulus-presentation","221","902747","0.0-41.0-1.7","SS1613138352403","trial","","40","800","3949.7050000180025","images/stimuli/spore_stims/simple_02_A_d.gif","images/stimuli/spore_stims/simple_01_A_b.gif","","","","","11","simple_dissimilar","images/stimuli/spore_stims/simple_01_A_b.gif","right","","","","",""
"","707.6999999990221","html-keyboard-response","222","903469","0.0-42.0","SS1613138352403","pref_question","","50","","","","","<video width ='960' height = '540' style='padding-top:8%' autoplay muted><source src='images/stimuli/wall_pref.mp4' type='video/mp4'></video>","2","middle","45%","11","","","","","","","",""
"","5569.205000007059","sequential-stimulus-presentation","223","909869","0.0-43.0","SS1613138352403","pref_reveal","","40","800","6369.205000007059","null","null","","","","","11","","","","novel","","","",""
"","null","html-keyboard-response","224","911155","0.0-44.0-0.0","SS1613138352403","","","null","","","","","<p><img src= images/blank.png width =""200"" height = ""200"" style = ""float:right""></p><p><img src=images/blank.png width =""800"" height = ""200""></p>","","","","","","","","","","","",""
"","36.339999991469085","sequential-stimulus-presentation","225","912001","0.0-44.0-1.0","SS1613138352403","trial","","40","800","836.3399999914691","images/stimuli/spore_stims/simple_10_B_d.gif","images/stimuli/spore_stims/simple_10_A_d.gif","","","","","12","simple_similar","images/stimuli/spore_stims/simple_10_A_d.gif","middle","","","","",""
"","null","html-keyboard-response","226","913282","0.0-44.0-0.1","SS1613138352403","","","null","","","","","<p><img src= images/blank.png width =""200"" height = ""200"" style = ""float:right""></p><p><img src=images/blank.png width =""800"" height = ""200""></p>","","","","","","","","","","","",""
"","6499.510000023292","sequential-stimulus-presentation","227","920593","0.0-44.0-1.1","SS1613138352403","trial","","40","800","7299.510000023292","images/stimuli/spore_stims/simple_10_B_d.gif","images/stimuli/spore_stims/simple_10_A_d.gif","","","","","12","simple_similar","images/stimuli/spore_stims/simple_10_A_d.gif","middle","","","","",""
"","null","html-keyboard-response","228","921670","0.0-44.0-0.2","SS1613138352403","","","null","","","","","<p><img src= images/blank.png width =""200"" height = ""200"" style = ""float:right""></p><p><img src=images/blank.png width =""800"" height = ""200""></p>","","","","","","","","","","","",""
"","922.8100000182167","sequential-stimulus-presentation","229","923409","0.0-44.0-1.2","SS1613138352403","trial","","40","800","1722.8100000182167","images/stimuli/spore_stims/simple_10_B_d.gif","images/stimuli/spore_stims/simple_10_A_d.gif","","","","","12","simple_similar","images/stimuli/spore_stims/simple_10_A_d.gif","middle","","","","",""
"","null","html-keyboard-response","230","924302","0.0-44.0-0.3","SS1613138352403","","","null","","","","","<p><img src= images/blank.png width =""200"" height = ""200"" style = ""float:right""></p><p><img src=images/blank.png width =""800"" height = ""200""></p>","","","","","","","","","","","",""
"","827.3950000002515","sequential-stimulus-presentation","231","925936","0.0-44.0-1.3","SS1613138352403","trial","","40","800","1627.3950000002515","images/stimuli/spore_stims/simple_10_B_d.gif","images/stimuli/spore_stims/simple_10_A_d.gif","","","","","12","simple_similar","images/stimuli/spore_stims/simple_10_A_d.gif","middle","","","","",""
"","null","html-keyboard-response","232","926882","0.0-44.0-0.4","SS1613138352403","","","null","","","","","<p><img src= images/blank.png width =""200"" height = ""200"" style = ""float:right""></p><p><img src=images/blank.png width =""800"" height = ""200""></p>","","","","","","","","","","","",""
"","5.540000012842938","sequential-stimulus-presentation","233","927696","0.0-44.0-1.4","SS1613138352403","trial","","40","800","805.5400000128429","images/stimuli/spore_stims/simple_10_B_d.gif","images/stimuli/spore_stims/simple_10_A_d.gif","","","","","12","simple_similar","images/stimuli/spore_stims/simple_10_A_d.gif","middle","","","","",""
"","null","html-keyboard-response","234","928967","0.0-44.0-0.5","SS1613138352403","","","null","","","","","<p><img src= images/blank.png width =""200"" height = ""200"" style = ""float:right""></p><p><img src=images/blank.png width =""800"" height = ""200""></p>","","","","","","","","","","","",""
"","4675.970000011148","sequential-stimulus-presentation","235","934456","0.0-44.0-1.5","SS1613138352403","trial","","40","800","5475.970000011148","images/stimuli/spore_stims/simple_10_B_d.gif","images/stimuli/spore_stims/simple_10_A_d.gif","","","","","12","simple_similar","images/stimuli/spore_stims/simple_10_B_d.gif","right","","","","",""
"","null","html-keyboard-response","236","935599","0.0-44.0-0.6","SS1613138352403","","","null","","","","","<p><img src= images/blank.png width =""200"" height = ""200"" style = ""float:right""></p><p><img src=images/blank.png width =""800"" height = ""200""></p>","","","","","","","","","","","",""
"","1721.3399999891408","sequential-stimulus-presentation","237","938136","0.0-44.0-1.6","SS1613138352403","trial","","40","800","2521.339999989141","images/stimuli/spore_stims/simple_10_B_d.gif","images/stimuli/spore_stims/simple_10_A_d.gif","","","","","12","simple_similar","images/stimuli/spore_stims/simple_10_A_d.gif","middle","","","","",""
"","null","html-keyboard-response","238","938996","0.0-44.0-0.7","SS1613138352403","","","null","","","","","<p><img src= images/blank.png width =""200"" height = ""200"" style = ""float:right""></p><p><img src=images/blank.png width =""800"" height = ""200""></p>","","","","","","","","","","","",""
"","46.23500001616776","sequential-stimulus-presentation","239","939861","0.0-44.0-1.7","SS1613138352403","trial","","40","800","846.2350000161678","images/stimuli/spore_stims/simple_10_B_d.gif","images/stimuli/spore_stims/simple_10_A_d.gif","","","","","12","simple_similar","images/stimuli/spore_stims/simple_10_A_d.gif","middle","","","","",""
"","1855.2349999954458","html-keyboard-response","240","941738","0.0-45.0","SS1613138352403","pref_question","","49","","","","","<video width ='960' height = '540' style='padding-top:8%' autoplay muted><source src='images/stimuli/wall_pref.mp4' type='video/mp4'></video>","1","left","25%","12","","","","","","","",""
"","5403.974999993807","sequential-stimulus-presentation","241","947952","0.0-46.0","SS1613138352403","pref_reveal","","40","800","6203.974999993807","null","null","","","","","12","","","","novel","","","",""
"","null","html-keyboard-response","242","948869","0.0-47.0-0.0","SS1613138352403","","","null","","","","","<p><img src= images/blank.png width =""200"" height = ""200"" style = ""float:right""></p><p><img src=images/blank.png width =""800"" height = ""200""></p>","","","","","","","","","","","",""
"","10537.845000013476","sequential-stimulus-presentation","243","960224","0.0-47.0-1.0","SS1613138352403","trial","","40","800","11337.845000013476","images/stimuli/spore_stims/complex_16_B_a.gif","images/stimuli/spore_stims/complex_17_B_c.gif","","","","","13","complex_dissimilar","images/stimuli/spore_stims/complex_17_B_c.gif","left","","","","",""
"","null","html-keyboard-response","244","961509","0.0-47.0-0.1","SS1613138352403","","","null","","","","","<p><img src= images/blank.png width =""200"" height = ""200"" style = ""float:right""></p><p><img src=images/blank.png width =""800"" height = ""200""></p>","","","","","","","","","","","",""
"","2916.0849999752827","sequential-stimulus-presentation","245","965234","0.0-47.0-1.1","SS1613138352403","trial","","40","800","3716.0849999752827","images/stimuli/spore_stims/complex_16_B_a.gif","images/stimuli/spore_stims/complex_17_B_c.gif","","","","","13","complex_dissimilar","images/stimuli/spore_stims/complex_17_B_c.gif","left","","","","",""
"","null","html-keyboard-response","246","966536","0.0-47.0-0.2","SS1613138352403","","","null","","","","","<p><img src= images/blank.png width =""200"" height = ""200"" style = ""float:right""></p><p><img src=images/blank.png width =""800"" height = ""200""></p>","","","","","","","","","","","",""
"","2966.8499999970663","sequential-stimulus-presentation","247","970319","0.0-47.0-1.2","SS1613138352403","trial","","40","800","3766.8499999970663","images/stimuli/spore_stims/complex_16_B_a.gif","images/stimuli/spore_stims/complex_17_B_c.gif","","","","","13","complex_dissimilar","images/stimuli/spore_stims/complex_17_B_c.gif","left","","","","",""
"","null","html-keyboard-response","248","971371","0.0-47.0-0.3","SS1613138352403","","","null","","","","","<p><img src= images/blank.png width =""200"" height = ""200"" style = ""float:right""></p><p><img src=images/blank.png width =""800"" height = ""200""></p>","","","","","","","","","","","",""
"","3311.195000016596","sequential-stimulus-presentation","249","975495","0.0-47.0-1.3","SS1613138352403","trial","","40","800","4111.195000016596","images/stimuli/spore_stims/complex_16_B_a.gif","images/stimuli/spore_stims/complex_17_B_c.gif","","","","","13","complex_dissimilar","images/stimuli/spore_stims/complex_17_B_c.gif","left","","","","",""
"","null","html-keyboard-response","250","976571","0.0-47.0-0.4","SS1613138352403","","","null","","","","","<p><img src= images/blank.png width =""200"" height = ""200"" style = ""float:right""></p><p><img src=images/blank.png width =""800"" height = ""200""></p>","","","","","","","","","","","",""
"","1877.135000017006","sequential-stimulus-presentation","251","979264","0.0-47.0-1.4","SS1613138352403","trial","","40","800","2677.135000017006","images/stimuli/spore_stims/complex_16_B_a.gif","images/stimuli/spore_stims/complex_17_B_c.gif","","","","","13","complex_dissimilar","images/stimuli/spore_stims/complex_17_B_c.gif","left","","","","",""
"","null","html-keyboard-response","252","980440","0.0-47.0-0.5","SS1613138352403","","","null","","","","","<p><img src= images/blank.png width =""200"" height = ""200"" style = ""float:right""></p><p><img src=images/blank.png width =""800"" height = ""200""></p>","","","","","","","","","","","",""
"","5464.974999980768","sequential-stimulus-presentation","253","986722","0.0-47.0-1.5","SS1613138352403","trial","","40","800","6264.974999980768","images/stimuli/spore_stims/complex_16_B_a.gif","images/stimuli/spore_stims/complex_17_B_c.gif","","","","","13","complex_dissimilar","images/stimuli/spore_stims/complex_16_B_a.gif","right","","","","",""
"","null","html-keyboard-response","254","987886","0.0-47.0-0.6","SS1613138352403","","","null","","","","","<p><img src= images/blank.png width =""200"" height = ""200"" style = ""float:right""></p><p><img src=images/blank.png width =""800"" height = ""200""></p>","","","","","","","","","","","",""
"","1542.585000017425","sequential-stimulus-presentation","255","990234","0.0-47.0-1.6","SS1613138352403","trial","","40","800","2342.585000017425","images/stimuli/spore_stims/complex_16_B_a.gif","images/stimuli/spore_stims/complex_17_B_c.gif","","","","","13","complex_dissimilar","images/stimuli/spore_stims/complex_17_B_c.gif","left","","","","",""
"","null","html-keyboard-response","256","991128","0.0-47.0-0.7","SS1613138352403","","","null","","","","","<p><img src= images/blank.png width =""200"" height = ""200"" style = ""float:right""></p><p><img src=images/blank.png width =""800"" height = ""200""></p>","","","","","","","","","","","",""
"","2056.2949999875855","sequential-stimulus-presentation","257","994001","0.0-47.0-1.7","SS1613138352403","trial","","40","800","2856.2949999875855","images/stimuli/spore_stims/complex_16_B_a.gif","images/stimuli/spore_stims/complex_17_B_c.gif","","","","","13","complex_dissimilar","images/stimuli/spore_stims/complex_17_B_c.gif","left","","","","",""
"","866.2900000053924","html-keyboard-response","258","994883","0.0-48.0","SS1613138352403","pref_question","","50","","","","","<video width ='960' height = '540' style='padding-top:8%' autoplay muted><source src='images/stimuli/wall_pref.mp4' type='video/mp4'></video>","2","middle","45%","13","","","","","","","",""
"","6147.994999977527","sequential-stimulus-presentation","259","1001867","0.0-49.0","SS1613138352403","pref_reveal","","40","800","6947.994999977527","null","null","","","","","13","","","","novel","","","",""
"","null","html-keyboard-response","260","1003152","0.0-50.0-0.0","SS1613138352403","","","null","","","","","<p><img src= images/blank.png width =""200"" height = ""200"" style = ""float:right""></p><p><img src=images/blank.png width =""800"" height = ""200""></p>","","","","","","","","","","","",""
"","11709.08000000054","sequential-stimulus-presentation","261","1015667","0.0-50.0-1.0","SS1613138352403","trial","","40","800","12509.08000000054","images/stimuli/spore_stims/simple_14_B_d.gif","images/stimuli/spore_stims/simple_14_A_d.gif","","","","","14","simple_similar","images/stimuli/spore_stims/simple_14_A_d.gif","middle","","","","",""
"","null","html-keyboard-response","262","1016668","0.0-50.0-0.1","SS1613138352403","","","null","","","","","<p><img src= images/blank.png width =""200"" height = ""200"" style = ""float:right""></p><p><img src=images/blank.png width =""800"" height = ""200""></p>","","","","","","","","","","","",""
"","534.9149999965448","sequential-stimulus-presentation","263","1018020","0.0-50.0-1.1","SS1613138352403","trial","","40","800","1334.9149999965448","images/stimuli/spore_stims/simple_14_B_d.gif","images/stimuli/spore_stims/simple_14_A_d.gif","","","","","14","simple_similar","images/stimuli/spore_stims/simple_14_A_d.gif","middle","","","","",""
"","null","html-keyboard-response","264","1018970","0.0-50.0-0.2","SS1613138352403","","","null","","","","","<p><img src= images/blank.png width =""200"" height = ""200"" style = ""float:right""></p><p><img src=images/blank.png width =""800"" height = ""200""></p>","","","","","","","","","","","",""
"","1629.9099999887403","sequential-stimulus-presentation","265","1021417","0.0-50.0-1.2","SS1613138352403","trial","","40","800","2429.9099999887403","images/stimuli/spore_stims/simple_14_B_d.gif","images/stimuli/spore_stims/simple_14_A_d.gif","","","","","14","simple_similar","images/stimuli/spore_stims/simple_14_A_d.gif","middle","","","","",""
"","null","html-keyboard-response","266","1022731","0.0-50.0-0.3","SS1613138352403","","","null","","","","","<p><img src= images/blank.png width =""200"" height = ""200"" style = ""float:right""></p><p><img src=images/blank.png width =""800"" height = ""200""></p>","","","","","","","","","","","",""
"","5468.259999994189","sequential-stimulus-presentation","267","1029016","0.0-50.0-1.3","SS1613138352403","trial","","40","800","6268.259999994189","images/stimuli/spore_stims/simple_14_B_d.gif","images/stimuli/spore_stims/simple_14_A_d.gif","","","","","14","simple_similar","images/stimuli/spore_stims/simple_14_A_d.gif","middle","","","","",""
"","null","html-keyboard-response","268","1029911","0.0-50.0-0.4","SS1613138352403","","","null","","","","","<p><img src= images/blank.png width =""200"" height = ""200"" style = ""float:right""></p><p><img src=images/blank.png width =""800"" height = ""200""></p>","","","","","","","","","","","",""
"","984.230000001844","sequential-stimulus-presentation","269","1031704","0.0-50.0-1.4","SS1613138352403","trial","","40","800","1784.230000001844","images/stimuli/spore_stims/simple_14_B_d.gif","images/stimuli/spore_stims/simple_14_A_d.gif","","","","","14","simple_similar","images/stimuli/spore_stims/simple_14_A_d.gif","middle","","","","",""
"","null","html-keyboard-response","270","1032732","0.0-50.0-0.5","SS1613138352403","","","null","","","","","<p><img src= images/blank.png width =""200"" height = ""200"" style = ""float:right""></p><p><img src=images/blank.png width =""800"" height = ""200""></p>","","","","","","","","","","","",""
"","1285.4000000224914","sequential-stimulus-presentation","271","1034825","0.0-50.0-1.5","SS1613138352403","trial","","40","800","2085.4000000224914","images/stimuli/spore_stims/simple_14_B_d.gif","images/stimuli/spore_stims/simple_14_A_d.gif","","","","","14","simple_similar","images/stimuli/spore_stims/simple_14_A_d.gif","middle","","","","",""
"","null","html-keyboard-response","272","1035894","0.0-50.0-0.6","SS1613138352403","","","null","","","","","<p><img src= images/blank.png width =""200"" height = ""200"" style = ""float:right""></p><p><img src=images/blank.png width =""800"" height = ""200""></p>","","","","","","","","","","","",""
"","3898.6900000018068","sequential-stimulus-presentation","273","1040609","0.0-50.0-1.6","SS1613138352403","trial","","40","800","4698.690000001807","images/stimuli/spore_stims/simple_14_B_d.gif","images/stimuli/spore_stims/simple_14_A_d.gif","","","","","14","simple_similar","images/stimuli/spore_stims/simple_14_B_d.gif","right","","","","",""
"","null","html-keyboard-response","274","1041845","0.0-50.0-0.7","SS1613138352403","","","null","","","","","<p><img src= images/blank.png width =""200"" height = ""200"" style = ""float:right""></p><p><img src=images/blank.png width =""800"" height = ""200""></p>","","","","","","","","","","","",""
"","2015.125000005355","sequential-stimulus-presentation","275","1044680","0.0-50.0-1.7","SS1613138352403","trial","","40","800","2815.125000005355","images/stimuli/spore_stims/simple_14_B_d.gif","images/stimuli/spore_stims/simple_14_A_d.gif","","","","","14","simple_similar","images/stimuli/spore_stims/simple_14_A_d.gif","middle","","","","",""
"","729.460000002291","html-keyboard-response","276","1045427","0.0-51.0","SS1613138352403","pref_question","","49","","","","","<video width ='960' height = '540' style='padding-top:8%' autoplay muted><source src='images/stimuli/wall_pref.mp4' type='video/mp4'></video>","1","left","25%","14","","","","","","","",""
"","4139.634999999544","sequential-stimulus-presentation","277","1050399","0.0-52.0","SS1613138352403","pref_reveal","","40","800","4939.634999999544","null","null","","","","","14","","","","novel","","","",""
"","null","html-keyboard-response","278","1051227","0.0-53.0-0.0","SS1613138352403","","","null","","","","","<p><img src= images/blank.png width =""200"" height = ""200"" style = ""float:right""></p><p><img src=images/blank.png width =""800"" height = ""200""></p>","","","","","","","","","","","",""
"","846.9800000020768","sequential-stimulus-presentation","279","1052882","0.0-53.0-1.0","SS1613138352403","trial","","40","800","1646.9800000020768","images/stimuli/spore_stims/complex_19_B_a.gif","images/stimuli/spore_stims/complex_19_A_a.gif","","","","","15","complex_similar","images/stimuli/spore_stims/complex_19_A_a.gif","left","","","","",""
"","null","html-keyboard-response","280","1053976","0.0-53.0-0.1","SS1613138352403","","","null","","","","","<p><img src= images/blank.png width =""200"" height = ""200"" style = ""float:right""></p><p><img src=images/blank.png width =""800"" height = ""200""></p>","","","","","","","","","","","",""
"","2261.3750000018626","sequential-stimulus-presentation","281","1057054","0.0-53.0-1.1","SS1613138352403","trial","","40","800","3061.3750000018626","images/stimuli/spore_stims/complex_19_B_a.gif","images/stimuli/spore_stims/complex_19_A_a.gif","","","","","15","complex_similar","images/stimuli/spore_stims/complex_19_A_a.gif","left","","","","",""
"","null","html-keyboard-response","282","1058303","0.0-53.0-0.2","SS1613138352403","","","null","","","","","<p><img src= images/blank.png width =""200"" height = ""200"" style = ""float:right""></p><p><img src=images/blank.png width =""800"" height = ""200""></p>","","","","","","","","","","","",""
"","1654.980000021169","sequential-stimulus-presentation","283","1060779","0.0-53.0-1.2","SS1613138352403","trial","","40","800","2454.980000021169","images/stimuli/spore_stims/complex_19_B_a.gif","images/stimuli/spore_stims/complex_19_A_a.gif","","","","","15","complex_similar","images/stimuli/spore_stims/complex_19_A_a.gif","left","","","","",""
"","null","html-keyboard-response","284","1061779","0.0-53.0-0.3","SS1613138352403","","","null","","","","","<p><img src= images/blank.png width =""200"" height = ""200"" style = ""float:right""></p><p><img src=images/blank.png width =""800"" height = ""200""></p>","","","","","","","","","","","",""
"","3589.0650000073947","sequential-stimulus-presentation","285","1066188","0.0-53.0-1.3","SS1613138352403","trial","","40","800","4389.065000007395","images/stimuli/spore_stims/complex_19_B_a.gif","images/stimuli/spore_stims/complex_19_A_a.gif","","","","","15","complex_similar","images/stimuli/spore_stims/complex_19_B_a.gif","right","","","","",""
"","null","html-keyboard-response","286","1067418","0.0-53.0-0.4","SS1613138352403","","","null","","","","","<p><img src= images/blank.png width =""200"" height = ""200"" style = ""float:right""></p><p><img src=images/blank.png width =""800"" height = ""200""></p>","","","","","","","","","","","",""
"","4315.950000018347","sequential-stimulus-presentation","287","1072551","0.0-53.0-1.4","SS1613138352403","trial","","40","800","5115.950000018347","images/stimuli/spore_stims/complex_19_B_a.gif","images/stimuli/spore_stims/complex_19_A_a.gif","","","","","15","complex_similar","images/stimuli/spore_stims/complex_19_A_a.gif","left","","","","",""
"","null","html-keyboard-response","288","1073693","0.0-53.0-0.5","SS1613138352403","","","null","","","","","<p><img src= images/blank.png width =""200"" height = ""200"" style = ""float:right""></p><p><img src=images/blank.png width =""800"" height = ""200""></p>","","","","","","","","","","","",""
"","2026.545000000624","sequential-stimulus-presentation","289","1076540","0.0-53.0-1.5","SS1613138352403","trial","","40","800","2826.545000000624","images/stimuli/spore_stims/complex_19_B_a.gif","images/stimuli/spore_stims/complex_19_A_a.gif","","","","","15","complex_similar","images/stimuli/spore_stims/complex_19_A_a.gif","left","","","","",""
"","null","html-keyboard-response","290","1077760","0.0-53.0-0.6","SS1613138352403","","","null","","","","","<p><img src= images/blank.png width =""200"" height = ""200"" style = ""float:right""></p><p><img src=images/blank.png width =""800"" height = ""200""></p>","","","","","","","","","","","",""
"","4576.625000016065","sequential-stimulus-presentation","291","1083781","0.0-53.0-1.6","SS1613138352403","trial","","40","800","5376.625000016065","images/stimuli/spore_stims/complex_19_B_a.gif","images/stimuli/spore_stims/complex_19_A_a.gif","","","","","15","complex_similar","images/stimuli/spore_stims/complex_19_A_a.gif","left","","","","",""
"","null","html-keyboard-response","292","1085039","0.0-53.0-0.7","SS1613138352403","","","null","","","","","<p><img src= images/blank.png width =""200"" height = ""200"" style = ""float:right""></p><p><img src=images/blank.png width =""800"" height = ""200""></p>","","","","","","","","","","","",""
"","449.02500000898726","sequential-stimulus-presentation","293","1086305","0.0-53.0-1.7","SS1613138352403","trial","","40","800","1249.0250000089873","images/stimuli/spore_stims/complex_19_B_a.gif","images/stimuli/spore_stims/complex_19_A_a.gif","","","","","15","complex_similar","images/stimuli/spore_stims/complex_19_A_a.gif","left","","","","",""
"","1015.6700000225101","html-keyboard-response","294","1087332","0.0-54.0","SS1613138352403","pref_question","","50","","","","","<video width ='960' height = '540' style='padding-top:8%' autoplay muted><source src='images/stimuli/wall_pref.mp4' type='video/mp4'></video>","2","middle","45%","15","","","","","","","",""
"","3883.3600000070874","sequential-stimulus-presentation","295","1092053","0.0-55.0","SS1613138352403","pref_reveal","","40","800","4683.360000007087","null","null","","","","","15","","","","novel","","","",""
"","null","html-keyboard-response","296","1093297","0.0-56.0-0.0","SS1613138352403","","","null","","","","","<p><img src= images/blank.png width =""200"" height = ""200"" style = ""float:right""></p><p><img src=images/blank.png width =""800"" height = ""200""></p>","","","","","","","","","","","",""
"","705.5799999798182","sequential-stimulus-presentation","297","1094812","0.0-56.0-1.0","SS1613138352403","trial","","40","800","1505.5799999798182","images/stimuli/spore_stims/simple_18_B_d.gif","images/stimuli/spore_stims/simple_17_A_b.gif","","","","","16","simple_dissimilar","images/stimuli/spore_stims/simple_17_A_b.gif","middle","","","","",""
"","null","html-keyboard-response","298","1095727","0.0-56.0-0.1","SS1613138352403","","","null","","","","","<p><img src= images/blank.png width =""200"" height = ""200"" style = ""float:right""></p><p><img src=images/blank.png width =""800"" height = ""200""></p>","","","","","","","","","","","",""
"","75.90000002528541","sequential-stimulus-presentation","299","1096620","0.0-56.0-1.1","SS1613138352403","trial","","40","800","875.9000000252854","images/stimuli/spore_stims/simple_18_B_d.gif","images/stimuli/spore_stims/simple_17_A_b.gif","","","","","16","simple_dissimilar","images/stimuli/spore_stims/simple_17_A_b.gif","middle","","","","",""
"","null","html-keyboard-response","300","1097596","0.0-56.0-0.2","SS1613138352403","","","null","","","","","<p><img src= images/blank.png width =""200"" height = ""200"" style = ""float:right""></p><p><img src=images/blank.png width =""800"" height = ""200""></p>","","","","","","","","","","","",""
"","46.619999979157","sequential-stimulus-presentation","301","1098459","0.0-56.0-1.2","SS1613138352403","trial","","40","800","846.619999979157","images/stimuli/spore_stims/simple_18_B_d.gif","images/stimuli/spore_stims/simple_17_A_b.gif","","","","","16","simple_dissimilar","images/stimuli/spore_stims/simple_17_A_b.gif","middle","","","","",""
"","null","html-keyboard-response","302","1099324","0.0-56.0-0.3","SS1613138352403","","","null","","","","","<p><img src= images/blank.png width =""200"" height = ""200"" style = ""float:right""></p><p><img src=images/blank.png width =""800"" height = ""200""></p>","","","","","","","","","","","",""
"","138.85499999742024","sequential-stimulus-presentation","303","1100272","0.0-56.0-1.3","SS1613138352403","trial","","40","800","938.8549999974202","images/stimuli/spore_stims/simple_18_B_d.gif","images/stimuli/spore_stims/simple_17_A_b.gif","","","","","16","simple_dissimilar","images/stimuli/spore_stims/simple_18_B_d.gif","right","","","","",""
"","null","html-keyboard-response","304","1101308","0.0-56.0-0.4","SS1613138352403","","","null","","","","","<p><img src= images/blank.png width =""200"" height = ""200"" style = ""float:right""></p><p><img src=images/blank.png width =""800"" height = ""200""></p>","","","","","","","","","","","",""
"","3295.0850000197534","sequential-stimulus-presentation","305","1105429","0.0-56.0-1.4","SS1613138352403","trial","","40","800","4095.0850000197534","images/stimuli/spore_stims/simple_18_B_d.gif","images/stimuli/spore_stims/simple_17_A_b.gif","","","","","16","simple_dissimilar","images/stimuli/spore_stims/simple_17_A_b.gif","middle","","","","",""
"","null","html-keyboard-response","306","1106536","0.0-56.0-0.5","SS1613138352403","","","null","","","","","<p><img src= images/blank.png width =""200"" height = ""200"" style = ""float:right""></p><p><img src=images/blank.png width =""800"" height = ""200""></p>","","","","","","","","","","","",""
"","3820.739999995567","sequential-stimulus-presentation","307","1111174","0.0-56.0-1.5","SS1613138352403","trial","","40","800","4620.739999995567","images/stimuli/spore_stims/simple_18_B_d.gif","images/stimuli/spore_stims/simple_17_A_b.gif","","","","","16","simple_dissimilar","images/stimuli/spore_stims/simple_17_A_b.gif","middle","","","","",""
"","null","html-keyboard-response","308","1112132","0.0-56.0-0.6","SS1613138352403","","","null","","","","","<p><img src= images/blank.png width =""200"" height = ""200"" style = ""float:right""></p><p><img src=images/blank.png width =""800"" height = ""200""></p>","","","","","","","","","","","",""
"","2659.280000021681","sequential-stimulus-presentation","309","1115611","0.0-56.0-1.6","SS1613138352403","trial","","40","800","3459.280000021681","images/stimuli/spore_stims/simple_18_B_d.gif","images/stimuli/spore_stims/simple_17_A_b.gif","","","","","16","simple_dissimilar","images/stimuli/spore_stims/simple_17_A_b.gif","middle","","","","",""
"","null","html-keyboard-response","310","1116941","0.0-56.0-0.7","SS1613138352403","","","null","","","","","<p><img src= images/blank.png width =""200"" height = ""200"" style = ""float:right""></p><p><img src=images/blank.png width =""800"" height = ""200""></p>","","","","","","","","","","","",""
"","3343.174999987241","sequential-stimulus-presentation","311","1121101","0.0-56.0-1.7","SS1613138352403","trial","","40","800","4143.174999987241","images/stimuli/spore_stims/simple_18_B_d.gif","images/stimuli/spore_stims/simple_17_A_b.gif","","","","","16","simple_dissimilar","images/stimuli/spore_stims/simple_17_A_b.gif","middle","","","","",""
"","1838.1850000005215","html-keyboard-response","312","1122974","0.0-57.0","SS1613138352403","pref_question","","49","","","","","<video width ='960' height = '540' style='padding-top:8%' autoplay muted><source src='images/stimuli/wall_pref.mp4' type='video/mp4'></video>","1","left","25%","16","","","","","","","",""
