"view_history","rt","trial_type","trial_index","time_elapsed","internal_node_id","subject","stimulus_type","trial_stimulus","key_press","minimum_viewing_duration","trial_looking_time","block_deviant","block_background","stimulus","wall_pref","location","location_percent","block_number","block_type","stimulus_displayed","position_displayed","stim_type_selected","responses","question_order","stimulus_left","stimulus_right"
"[{""page_index"":0,""viewing_time"":17048.99999999907}]","17050.999999999476","instructions","0","17053","0.0-0.0","SS1613079938994","","","","","","","","","","","","","","","","","","","",""
"[{""page_index"":0,""viewing_time"":16011.000000005879},{""page_index"":1,""viewing_time"":9683.99999999383}]","25694.99999999971","instructions","1","44764","0.0-1.0","SS1613079938994","instructions","","","","","","","","","","","","","","","","","","",""
"","11953.000000001339","sequential-stimulus-presentation","2","57527","0.0-2.0","SS1613079938994","","","40","800","12753.000000001339","null","null","","","","","","","","","","","","",""
"","6908.999999999651","sequential-stimulus-presentation","3","65241","0.0-3.0","SS1613079938994","","","40","800","7708.999999999651","null","null","","","","","","","","","","","","",""
"[{""page_index"":0,""viewing_time"":6269.999999996799}]","6271.00000000064","instructions","4","71513","0.0-4.0","SS1613079938994","instructions","","","","","","","","","","","","","","","","","","",""
"","24862.999999997555","html-keyboard-response","5","96382","0.0-5.0","SS1613079938994","instructions","","51","","","","","<video width ='960' height = '540' autoplay muted><source src='images/stimuli/wall_pref.mp4' type='video/mp4'></video>","3","right","66%","","","","","","","","",""
"","3546.999999998661","sequential-stimulus-presentation","6","100737","0.0-6.0","SS1613079938994","pref_reveal","","40","800","4346.999999998661","null","null","","","","","","","","","","","","",""
"[{""page_index"":0,""viewing_time"":16513.999999995576},{""page_index"":1,""viewing_time"":7203.000000001339},{""page_index"":2,""viewing_time"":1728.9999999993597},{""page_index"":3,""viewing_time"":1997.0000000030268}]","27443.999999995867","instructions","7","128183","0.0-7.0","SS1613079938994","instructions","","","","","","","","","","","","","","","","","","",""
"","null","html-keyboard-response","8","129286","0.0-8.0-0.0","SS1613079938994","","","null","","","","","<p><img src= images/blank.png width =""200"" height = ""200"" style = ""float:right""></p><p><img src=images/blank.png width =""800"" height = ""200""></p>","","","","","","","","","","","",""
"","4399.000000004889","sequential-stimulus-presentation","9","134491","0.0-8.0-1.0","SS1613079938994","trial","","40","800","5199.000000004889","images/stimuli/spore_stims/simple_11_B_c.gif","images/stimuli/spore_stims/simple_08_B_a.gif","","","","","0","simple_dissimilar","images/stimuli/spore_stims/simple_08_B_a.gif","left","","","","",""
"","null","html-keyboard-response","10","135416","0.0-8.0-0.1","SS1613079938994","","","null","","","","","<p><img src= images/blank.png width =""200"" height = ""200"" style = ""float:right""></p><p><img src=images/blank.png width =""800"" height = ""200""></p>","","","","","","","","","","","",""
"","7720.000000001164","sequential-stimulus-presentation","11","143942","0.0-8.0-1.1","SS1613079938994","trial","","40","800","8520.000000001164","images/stimuli/spore_stims/simple_11_B_c.gif","images/stimuli/spore_stims/simple_08_B_a.gif","","","","","0","simple_dissimilar","images/stimuli/spore_stims/simple_08_B_a.gif","left","","","","",""
"","null","html-keyboard-response","12","144933","0.0-8.0-0.2","SS1613079938994","","","null","","","","","<p><img src= images/blank.png width =""200"" height = ""200"" style = ""float:right""></p><p><img src=images/blank.png width =""800"" height = ""200""></p>","","","","","","","","","","","",""
"","6406.999999999243","sequential-stimulus-presentation","13","152148","0.0-8.0-1.2","SS1613079938994","trial","","40","800","7206.999999999243","images/stimuli/spore_stims/simple_11_B_c.gif","images/stimuli/spore_stims/simple_08_B_a.gif","","","","","0","simple_dissimilar","images/stimuli/spore_stims/simple_08_B_a.gif","left","","","","",""
"","null","html-keyboard-response","14","153451","0.0-8.0-0.3","SS1613079938994","","","null","","","","","<p><img src= images/blank.png width =""200"" height = ""200"" style = ""float:right""></p><p><img src=images/blank.png width =""800"" height = ""200""></p>","","","","","","","","","","","",""
"","6186.999999998079","sequential-stimulus-presentation","15","160445","0.0-8.0-1.3","SS1613079938994","trial","","40","800","6986.999999998079","images/stimuli/spore_stims/simple_11_B_c.gif","images/stimuli/spore_stims/simple_08_B_a.gif","","","","","0","simple_dissimilar","images/stimuli/spore_stims/simple_11_B_c.gif","middle","","","","",""
"","null","html-keyboard-response","16","161664","0.0-8.0-0.4","SS1613079938994","","","null","","","","","<p><img src= images/blank.png width =""200"" height = ""200"" style = ""float:right""></p><p><img src=images/blank.png width =""800"" height = ""200""></p>","","","","","","","","","","","",""
"","7250","sequential-stimulus-presentation","17","169722","0.0-8.0-1.4","SS1613079938994","trial","","40","800","8050","images/stimuli/spore_stims/simple_11_B_c.gif","images/stimuli/spore_stims/simple_08_B_a.gif","","","","","0","simple_dissimilar","images/stimuli/spore_stims/simple_08_B_a.gif","left","","","","",""
"","null","html-keyboard-response","18","170641","0.0-8.0-0.5","SS1613079938994","","","null","","","","","<p><img src= images/blank.png width =""200"" height = ""200"" style = ""float:right""></p><p><img src=images/blank.png width =""800"" height = ""200""></p>","","","","","","","","","","","",""
"","3122.000000003027","sequential-stimulus-presentation","19","174573","0.0-8.0-1.5","SS1613079938994","trial","","40","800","3922.000000003027","images/stimuli/spore_stims/simple_11_B_c.gif","images/stimuli/spore_stims/simple_08_B_a.gif","","","","","0","simple_dissimilar","images/stimuli/spore_stims/simple_08_B_a.gif","left","","","","",""
"","null","html-keyboard-response","20","175734","0.0-8.0-0.6","SS1613079938994","","","null","","","","","<p><img src= images/blank.png width =""200"" height = ""200"" style = ""float:right""></p><p><img src=images/blank.png width =""800"" height = ""200""></p>","","","","","","","","","","","",""
"","8512.000000002445","sequential-stimulus-presentation","21","185060","0.0-8.0-1.6","SS1613079938994","trial","","40","800","9312.000000002445","images/stimuli/spore_stims/simple_11_B_c.gif","images/stimuli/spore_stims/simple_08_B_a.gif","","","","","0","simple_dissimilar","images/stimuli/spore_stims/simple_08_B_a.gif","left","","","","",""
"","null","html-keyboard-response","22","185875","0.0-8.0-0.7","SS1613079938994","","","null","","","","","<p><img src= images/blank.png width =""200"" height = ""200"" style = ""float:right""></p><p><img src=images/blank.png width =""800"" height = ""200""></p>","","","","","","","","","","","",""
"","5701.999999997497","sequential-stimulus-presentation","23","192385","0.0-8.0-1.7","SS1613079938994","trial","","40","800","6501.999999997497","images/stimuli/spore_stims/simple_11_B_c.gif","images/stimuli/spore_stims/simple_08_B_a.gif","","","","","0","simple_dissimilar","images/stimuli/spore_stims/simple_08_B_a.gif","left","","","","",""
"","4279.00000000227","html-keyboard-response","24","196668","0.0-9.0","SS1613079938994","pref_question","","51","","","","","<video width ='960' height = '540' style='padding-top:8%' autoplay muted><source src='images/stimuli/wall_pref.mp4' type='video/mp4'></video>","3","right","66%","0","","","","","","","",""
"","10429.000000003725","sequential-stimulus-presentation","25","207905","0.0-10.0","SS1613079938994","pref_reveal","","40","800","11229.000000003725","null","null","","","","","0","","","","novel","","","",""
"","null","html-keyboard-response","26","208983","0.0-11.0-0.0","SS1613079938994","","","null","","","","","<p><img src= images/blank.png width =""200"" height = ""200"" style = ""float:right""></p><p><img src=images/blank.png width =""800"" height = ""200""></p>","","","","","","","","","","","",""
"","10866.99999999837","sequential-stimulus-presentation","27","220657","0.0-11.0-1.0","SS1613079938994","trial","","40","800","11666.99999999837","images/stimuli/spore_stims/complex_15_A_c.gif","images/stimuli/spore_stims/complex_15_B_c.gif","","","","","1","complex_similar","images/stimuli/spore_stims/complex_15_B_c.gif","middle","","","","",""
"","null","html-keyboard-response","28","221828","0.0-11.0-0.1","SS1613079938994","","","null","","","","","<p><img src= images/blank.png width =""200"" height = ""200"" style = ""float:right""></p><p><img src=images/blank.png width =""800"" height = ""200""></p>","","","","","","","","","","","",""
"","3759.9999999947613","sequential-stimulus-presentation","29","226396","0.0-11.0-1.1","SS1613079938994","trial","","40","800","4559.999999994761","images/stimuli/spore_stims/complex_15_A_c.gif","images/stimuli/spore_stims/complex_15_B_c.gif","","","","","1","complex_similar","images/stimuli/spore_stims/complex_15_B_c.gif","middle","","","","",""
"","null","html-keyboard-response","30","227692","0.0-11.0-0.2","SS1613079938994","","","null","","","","","<p><img src= images/blank.png width =""200"" height = ""200"" style = ""float:right""></p><p><img src=images/blank.png width =""800"" height = ""200""></p>","","","","","","","","","","","",""
"","770.0000000040745","sequential-stimulus-presentation","31","229270","0.0-11.0-1.2","SS1613079938994","trial","","40","800","1570.0000000040745","images/stimuli/spore_stims/complex_15_A_c.gif","images/stimuli/spore_stims/complex_15_B_c.gif","","","","","1","complex_similar","images/stimuli/spore_stims/complex_15_B_c.gif","middle","","","","",""
"","null","html-keyboard-response","32","230506","0.0-11.0-0.3","SS1613079938994","","","null","","","","","<p><img src= images/blank.png width =""200"" height = ""200"" style = ""float:right""></p><p><img src=images/blank.png width =""800"" height = ""200""></p>","","","","","","","","","","","",""
"","9046.999999998661","sequential-stimulus-presentation","33","240360","0.0-11.0-1.3","SS1613079938994","trial","","40","800","9846.999999998661","images/stimuli/spore_stims/complex_15_A_c.gif","images/stimuli/spore_stims/complex_15_B_c.gif","","","","","1","complex_similar","images/stimuli/spore_stims/complex_15_A_c.gif","left","","","","",""
"","null","html-keyboard-response","34","241256","0.0-11.0-0.4","SS1613079938994","","","null","","","","","<p><img src= images/blank.png width =""200"" height = ""200"" style = ""float:right""></p><p><img src=images/blank.png width =""800"" height = ""200""></p>","","","","","","","","","","","",""
"","3675.0000000029104","sequential-stimulus-presentation","35","245740","0.0-11.0-1.4","SS1613079938994","trial","","40","800","4475.00000000291","images/stimuli/spore_stims/complex_15_A_c.gif","images/stimuli/spore_stims/complex_15_B_c.gif","","","","","1","complex_similar","images/stimuli/spore_stims/complex_15_B_c.gif","middle","","","","",""
"","null","html-keyboard-response","36","246787","0.0-11.0-0.5","SS1613079938994","","","null","","","","","<p><img src= images/blank.png width =""200"" height = ""200"" style = ""float:right""></p><p><img src=images/blank.png width =""800"" height = ""200""></p>","","","","","","","","","","","",""
"","578.9999999979045","sequential-stimulus-presentation","37","248175","0.0-11.0-1.5","SS1613079938994","trial","","40","800","1378.9999999979045","images/stimuli/spore_stims/complex_15_A_c.gif","images/stimuli/spore_stims/complex_15_B_c.gif","","","","","1","complex_similar","images/stimuli/spore_stims/complex_15_B_c.gif","middle","","","","",""
"","null","html-keyboard-response","38","249270","0.0-11.0-0.6","SS1613079938994","","","null","","","","","<p><img src= images/blank.png width =""200"" height = ""200"" style = ""float:right""></p><p><img src=images/blank.png width =""800"" height = ""200""></p>","","","","","","","","","","","",""
"","829.9999999944703","sequential-stimulus-presentation","39","250913","0.0-11.0-1.6","SS1613079938994","trial","","40","800","1629.9999999944703","images/stimuli/spore_stims/complex_15_A_c.gif","images/stimuli/spore_stims/complex_15_B_c.gif","","","","","1","complex_similar","images/stimuli/spore_stims/complex_15_B_c.gif","middle","","","","",""
"","null","html-keyboard-response","40","251808","0.0-11.0-0.7","SS1613079938994","","","null","","","","","<p><img src= images/blank.png width =""200"" height = ""200"" style = ""float:right""></p><p><img src=images/blank.png width =""800"" height = ""200""></p>","","","","","","","","","","","",""
"","557.0000000006985","sequential-stimulus-presentation","41","253173","0.0-11.0-1.7","SS1613079938994","trial","","40","800","1357.0000000006985","images/stimuli/spore_stims/complex_15_A_c.gif","images/stimuli/spore_stims/complex_15_B_c.gif","","","","","1","complex_similar","images/stimuli/spore_stims/complex_15_B_c.gif","middle","","","","",""
"","2365.0000000052387","html-keyboard-response","42","255546","0.0-12.0","SS1613079938994","pref_question","","49","","","","","<video width ='960' height = '540' style='padding-top:8%' autoplay muted><source src='images/stimuli/wall_pref.mp4' type='video/mp4'></video>","1","left","25%","1","","","","","","","",""
"","20952.999999994063","sequential-stimulus-presentation","43","277322","0.0-13.0","SS1613079938994","pref_reveal","","40","800","21752.999999994063","null","null","","","","","1","","","","deviant","","","",""
"","null","html-keyboard-response","44","278514","0.0-14.0-0.0","SS1613079938994","","","null","","","","","<p><img src= images/blank.png width =""200"" height = ""200"" style = ""float:right""></p><p><img src=images/blank.png width =""800"" height = ""200""></p>","","","","","","","","","","","",""
"","12167.00000000128","sequential-stimulus-presentation","45","291487","0.0-14.0-1.0","SS1613079938994","trial","","40","800","12967.00000000128","images/stimuli/spore_stims/simple_19_B_a.gif","images/stimuli/spore_stims/simple_17_A_c.gif","","","","","2","simple_dissimilar","images/stimuli/spore_stims/simple_17_A_c.gif","left","","","","",""
"","null","html-keyboard-response","46","292529","0.0-14.0-0.1","SS1613079938994","","","null","","","","","<p><img src= images/blank.png width =""200"" height = ""200"" style = ""float:right""></p><p><img src=images/blank.png width =""800"" height = ""200""></p>","","","","","","","","","","","",""
"","1581.9999999948777","sequential-stimulus-presentation","47","294926","0.0-14.0-1.1","SS1613079938994","trial","","40","800","2381.9999999948777","images/stimuli/spore_stims/simple_19_B_a.gif","images/stimuli/spore_stims/simple_17_A_c.gif","","","","","2","simple_dissimilar","images/stimuli/spore_stims/simple_17_A_c.gif","left","","","","",""
"","null","html-keyboard-response","48","295752","0.0-14.0-0.2","SS1613079938994","","","null","","","","","<p><img src= images/blank.png width =""200"" height = ""200"" style = ""float:right""></p><p><img src=images/blank.png width =""800"" height = ""200""></p>","","","","","","","","","","","",""
"","921.0000000020955","sequential-stimulus-presentation","49","297492","0.0-14.0-1.2","SS1613079938994","trial","","40","800","1721.0000000020955","images/stimuli/spore_stims/simple_19_B_a.gif","images/stimuli/spore_stims/simple_17_A_c.gif","","","","","2","simple_dissimilar","images/stimuli/spore_stims/simple_17_A_c.gif","left","","","","",""
"","null","html-keyboard-response","50","298515","0.0-14.0-0.3","SS1613079938994","","","null","","","","","<p><img src= images/blank.png width =""200"" height = ""200"" style = ""float:right""></p><p><img src=images/blank.png width =""800"" height = ""200""></p>","","","","","","","","","","","",""
"","663.9999999970314","sequential-stimulus-presentation","51","299996","0.0-14.0-1.3","SS1613079938994","trial","","40","800","1463.9999999970314","images/stimuli/spore_stims/simple_19_B_a.gif","images/stimuli/spore_stims/simple_17_A_c.gif","","","","","2","simple_dissimilar","images/stimuli/spore_stims/simple_17_A_c.gif","left","","","","",""
"","null","html-keyboard-response","52","301121","0.0-14.0-0.4","SS1613079938994","","","null","","","","","<p><img src= images/blank.png width =""200"" height = ""200"" style = ""float:right""></p><p><img src=images/blank.png width =""800"" height = ""200""></p>","","","","","","","","","","","",""
"","665.0000000008731","sequential-stimulus-presentation","53","302593","0.0-14.0-1.4","SS1613079938994","trial","","40","800","1465.0000000008731","images/stimuli/spore_stims/simple_19_B_a.gif","images/stimuli/spore_stims/simple_17_A_c.gif","","","","","2","simple_dissimilar","images/stimuli/spore_stims/simple_17_A_c.gif","left","","","","",""
"","null","html-keyboard-response","54","303628","0.0-14.0-0.5","SS1613079938994","","","null","","","","","<p><img src= images/blank.png width =""200"" height = ""200"" style = ""float:right""></p><p><img src=images/blank.png width =""800"" height = ""200""></p>","","","","","","","","","","","",""
"","686.0000000015134","sequential-stimulus-presentation","55","305134","0.0-14.0-1.5","SS1613079938994","trial","","40","800","1486.0000000015134","images/stimuli/spore_stims/simple_19_B_a.gif","images/stimuli/spore_stims/simple_17_A_c.gif","","","","","2","simple_dissimilar","images/stimuli/spore_stims/simple_17_A_c.gif","left","","","","",""
"","null","html-keyboard-response","56","306259","0.0-14.0-0.6","SS1613079938994","","","null","","","","","<p><img src= images/blank.png width =""200"" height = ""200"" style = ""float:right""></p><p><img src=images/blank.png width =""800"" height = ""200""></p>","","","","","","","","","","","",""
"","472.0000000015716","sequential-stimulus-presentation","57","307539","0.0-14.0-1.6","SS1613079938994","trial","","40","800","1272.0000000015716","images/stimuli/spore_stims/simple_19_B_a.gif","images/stimuli/spore_stims/simple_17_A_c.gif","","","","","2","simple_dissimilar","images/stimuli/spore_stims/simple_17_A_c.gif","left","","","","",""
"","null","html-keyboard-response","58","308562","0.0-14.0-0.7","SS1613079938994","","","null","","","","","<p><img src= images/blank.png width =""200"" height = ""200"" style = ""float:right""></p><p><img src=images/blank.png width =""800"" height = ""200""></p>","","","","","","","","","","","",""
"","14393.000000003667","sequential-stimulus-presentation","59","323765","0.0-14.0-1.7","SS1613079938994","trial","","40","800","15193.000000003667","images/stimuli/spore_stims/simple_19_B_a.gif","images/stimuli/spore_stims/simple_17_A_c.gif","","","","","2","simple_dissimilar","images/stimuli/spore_stims/simple_19_B_a.gif","middle","","","","",""
"","4580.999999998312","html-keyboard-response","60","328351","0.0-15.0","SS1613079938994","pref_question","","50","","","","","<video width ='960' height = '540' style='padding-top:8%' autoplay muted><source src='images/stimuli/wall_pref.mp4' type='video/mp4'></video>","2","middle","45%","2","","","","","","","",""
"","2691.99999999546","sequential-stimulus-presentation","61","331851","0.0-16.0","SS1613079938994","pref_reveal","","40","800","3491.99999999546","null","null","","","","","2","","","","deviant","","","",""
"","null","html-keyboard-response","62","333112","0.0-17.0-0.0","SS1613079938994","","","null","","","","","<p><img src= images/blank.png width =""200"" height = ""200"" style = ""float:right""></p><p><img src=images/blank.png width =""800"" height = ""200""></p>","","","","","","","","","","","",""
"","9603.000000002794","sequential-stimulus-presentation","63","343523","0.0-17.0-1.0","SS1613079938994","trial","","40","800","10403.000000002794","images/stimuli/spore_stims/simple_16_A_b.gif","images/stimuli/spore_stims/simple_16_B_b.gif","","","","","3","simple_similar","images/stimuli/spore_stims/simple_16_B_b.gif","left","","","","",""
"","null","html-keyboard-response","64","344829","0.0-17.0-0.1","SS1613079938994","","","null","","","","","<p><img src= images/blank.png width =""200"" height = ""200"" style = ""float:right""></p><p><img src=images/blank.png width =""800"" height = ""200""></p>","","","","","","","","","","","",""
"","425.99999999947613","sequential-stimulus-presentation","65","346075","0.0-17.0-1.1","SS1613079938994","trial","","40","800","1225.9999999994761","images/stimuli/spore_stims/simple_16_A_b.gif","images/stimuli/spore_stims/simple_16_B_b.gif","","","","","3","simple_similar","images/stimuli/spore_stims/simple_16_B_b.gif","left","","","","",""
"","null","html-keyboard-response","66","347095","0.0-17.0-0.2","SS1613079938994","","","null","","","","","<p><img src= images/blank.png width =""200"" height = ""200"" style = ""float:right""></p><p><img src=images/blank.png width =""800"" height = ""200""></p>","","","","","","","","","","","",""
"","3334.999999999127","sequential-stimulus-presentation","67","351247","0.0-17.0-1.2","SS1613079938994","trial","","40","800","4134.999999999127","images/stimuli/spore_stims/simple_16_A_b.gif","images/stimuli/spore_stims/simple_16_B_b.gif","","","","","3","simple_similar","images/stimuli/spore_stims/simple_16_B_b.gif","left","","","","",""
"","null","html-keyboard-response","68","352284","0.0-17.0-0.3","SS1613079938994","","","null","","","","","<p><img src= images/blank.png width =""200"" height = ""200"" style = ""float:right""></p><p><img src=images/blank.png width =""800"" height = ""200""></p>","","","","","","","","","","","",""
"","624.0000000034343","sequential-stimulus-presentation","69","353718","0.0-17.0-1.3","SS1613079938994","trial","","40","800","1424.0000000034343","images/stimuli/spore_stims/simple_16_A_b.gif","images/stimuli/spore_stims/simple_16_B_b.gif","","","","","3","simple_similar","images/stimuli/spore_stims/simple_16_B_b.gif","left","","","","",""
"","null","html-keyboard-response","70","354995","0.0-17.0-0.4","SS1613079938994","","","null","","","","","<p><img src= images/blank.png width =""200"" height = ""200"" style = ""float:right""></p><p><img src=images/blank.png width =""800"" height = ""200""></p>","","","","","","","","","","","",""
"","1560.0000000049477","sequential-stimulus-presentation","71","357369","0.0-17.0-1.4","SS1613079938994","trial","","40","800","2360.0000000049477","images/stimuli/spore_stims/simple_16_A_b.gif","images/stimuli/spore_stims/simple_16_B_b.gif","","","","","3","simple_similar","images/stimuli/spore_stims/simple_16_A_b.gif","middle","","","","",""
"","null","html-keyboard-response","72","358192","0.0-17.0-0.5","SS1613079938994","","","null","","","","","<p><img src= images/blank.png width =""200"" height = ""200"" style = ""float:right""></p><p><img src=images/blank.png width =""800"" height = ""200""></p>","","","","","","","","","","","",""
"","7802.999999999884","sequential-stimulus-presentation","73","366803","0.0-17.0-1.5","SS1613079938994","trial","","40","800","8602.999999999884","images/stimuli/spore_stims/simple_16_A_b.gif","images/stimuli/spore_stims/simple_16_B_b.gif","","","","","3","simple_similar","images/stimuli/spore_stims/simple_16_B_b.gif","left","","","","",""
"","null","html-keyboard-response","74","367689","0.0-17.0-0.6","SS1613079938994","","","null","","","","","<p><img src= images/blank.png width =""200"" height = ""200"" style = ""float:right""></p><p><img src=images/blank.png width =""800"" height = ""200""></p>","","","","","","","","","","","",""
"","798.0000000025029","sequential-stimulus-presentation","75","369296","0.0-17.0-1.6","SS1613079938994","trial","","40","800","1598.000000002503","images/stimuli/spore_stims/simple_16_A_b.gif","images/stimuli/spore_stims/simple_16_B_b.gif","","","","","3","simple_similar","images/stimuli/spore_stims/simple_16_B_b.gif","left","","","","",""
"","null","html-keyboard-response","76","370145","0.0-17.0-0.7","SS1613079938994","","","null","","","","","<p><img src= images/blank.png width =""200"" height = ""200"" style = ""float:right""></p><p><img src=images/blank.png width =""800"" height = ""200""></p>","","","","","","","","","","","",""
"","101.00000000238651","sequential-stimulus-presentation","77","371062","0.0-17.0-1.7","SS1613079938994","trial","","40","800","901.0000000023865","images/stimuli/spore_stims/simple_16_A_b.gif","images/stimuli/spore_stims/simple_16_B_b.gif","","","","","3","simple_similar","images/stimuli/spore_stims/simple_16_B_b.gif","left","","","","",""
"","4663.000000000466","html-keyboard-response","78","375764","0.0-18.0","SS1613079938994","pref_question","","49","","","","","<video width ='960' height = '540' style='padding-top:8%' autoplay muted><source src='images/stimuli/wall_pref.mp4' type='video/mp4'></video>","1","left","25%","3","","","","","","","",""
"","3584.000000002561","sequential-stimulus-presentation","79","380160","0.0-19.0","SS1613079938994","pref_reveal","","40","800","4384.000000002561","null","null","","","","","3","","","","background","","","",""
"","null","html-keyboard-response","80","381195","0.0-20.0-0.0","SS1613079938994","","","null","","","","","<p><img src= images/blank.png width =""200"" height = ""200"" style = ""float:right""></p><p><img src=images/blank.png width =""800"" height = ""200""></p>","","","","","","","","","","","",""
"","9456.000000005588","sequential-stimulus-presentation","81","391470","0.0-20.0-1.0","SS1613079938994","trial","","40","800","10256.000000005588","images/stimuli/spore_stims/simple_16_A_c.gif","images/stimuli/spore_stims/simple_12_B_b.gif","","","","","4","simple_dissimilar","images/stimuli/spore_stims/simple_12_B_b.gif","right","","","","",""
"","null","html-keyboard-response","82","392724","0.0-20.0-0.1","SS1613079938994","","","null","","","","","<p><img src= images/blank.png width =""200"" height = ""200"" style = ""float:right""></p><p><img src=images/blank.png width =""800"" height = ""200""></p>","","","","","","","","","","","",""
"","736.0000000044238","sequential-stimulus-presentation","83","394280","0.0-20.0-1.1","SS1613079938994","trial","","40","800","1536.0000000044238","images/stimuli/spore_stims/simple_16_A_c.gif","images/stimuli/spore_stims/simple_12_B_b.gif","","","","","4","simple_dissimilar","images/stimuli/spore_stims/simple_12_B_b.gif","right","","","","",""
"","null","html-keyboard-response","84","395299","0.0-20.0-0.2","SS1613079938994","","","null","","","","","<p><img src= images/blank.png width =""200"" height = ""200"" style = ""float:right""></p><p><img src=images/blank.png width =""800"" height = ""200""></p>","","","","","","","","","","","",""
"","657.999999995809","sequential-stimulus-presentation","85","396767","0.0-20.0-1.2","SS1613079938994","trial","","40","800","1457.999999995809","images/stimuli/spore_stims/simple_16_A_c.gif","images/stimuli/spore_stims/simple_12_B_b.gif","","","","","4","simple_dissimilar","images/stimuli/spore_stims/simple_12_B_b.gif","right","","","","",""
"","null","html-keyboard-response","86","398023","0.0-20.0-0.3","SS1613079938994","","","null","","","","","<p><img src= images/blank.png width =""200"" height = ""200"" style = ""float:right""></p><p><img src=images/blank.png width =""800"" height = ""200""></p>","","","","","","","","","","","",""
"","7131.999999997788","sequential-stimulus-presentation","87","405965","0.0-20.0-1.3","SS1613079938994","trial","","40","800","7931.999999997788","images/stimuli/spore_stims/simple_16_A_c.gif","images/stimuli/spore_stims/simple_12_B_b.gif","","","","","4","simple_dissimilar","images/stimuli/spore_stims/simple_12_B_b.gif","right","","","","",""
"","null","html-keyboard-response","88","407253","0.0-20.0-0.4","SS1613079938994","","","null","","","","","<p><img src= images/blank.png width =""200"" height = ""200"" style = ""float:right""></p><p><img src=images/blank.png width =""800"" height = ""200""></p>","","","","","","","","","","","",""
"","4173.000000002503","sequential-stimulus-presentation","89","412235","0.0-20.0-1.4","SS1613079938994","trial","","40","800","4973.000000002503","images/stimuli/spore_stims/simple_16_A_c.gif","images/stimuli/spore_stims/simple_12_B_b.gif","","","","","4","simple_dissimilar","images/stimuli/spore_stims/simple_16_A_c.gif","left","","","","",""
"","null","html-keyboard-response","90","413340","0.0-20.0-0.5","SS1613079938994","","","null","","","","","<p><img src= images/blank.png width =""200"" height = ""200"" style = ""float:right""></p><p><img src=images/blank.png width =""800"" height = ""200""></p>","","","","","","","","","","","",""
"","4957.999999998719","sequential-stimulus-presentation","91","419106","0.0-20.0-1.5","SS1613079938994","trial","","40","800","5757.999999998719","images/stimuli/spore_stims/simple_16_A_c.gif","images/stimuli/spore_stims/simple_12_B_b.gif","","","","","4","simple_dissimilar","images/stimuli/spore_stims/simple_12_B_b.gif","right","","","","",""
"","null","html-keyboard-response","92","420349","0.0-20.0-0.6","SS1613079938994","","","null","","","","","<p><img src= images/blank.png width =""200"" height = ""200"" style = ""float:right""></p><p><img src=images/blank.png width =""800"" height = ""200""></p>","","","","","","","","","","","",""
"","3635.0000000020373","sequential-stimulus-presentation","93","424794","0.0-20.0-1.6","SS1613079938994","trial","","40","800","4435.000000002037","images/stimuli/spore_stims/simple_16_A_c.gif","images/stimuli/spore_stims/simple_12_B_b.gif","","","","","4","simple_dissimilar","images/stimuli/spore_stims/simple_12_B_b.gif","right","","","","",""
"","null","html-keyboard-response","94","425602","0.0-20.0-0.7","SS1613079938994","","","null","","","","","<p><img src= images/blank.png width =""200"" height = ""200"" style = ""float:right""></p><p><img src=images/blank.png width =""800"" height = ""200""></p>","","","","","","","","","","","",""
"","1161.999999996624","sequential-stimulus-presentation","95","427578","0.0-20.0-1.7","SS1613079938994","trial","","40","800","1961.999999996624","images/stimuli/spore_stims/simple_16_A_c.gif","images/stimuli/spore_stims/simple_12_B_b.gif","","","","","4","simple_dissimilar","images/stimuli/spore_stims/simple_12_B_b.gif","right","","","","",""
"","3878.000000004249","html-keyboard-response","96","431463","0.0-21.0","SS1613079938994","pref_question","","51","","","","","<video width ='960' height = '540' style='padding-top:8%' autoplay muted><source src='images/stimuli/wall_pref.mp4' type='video/mp4'></video>","3","right","66%","4","","","","","","","",""
"","2398.0000000010477","sequential-stimulus-presentation","97","434680","0.0-22.0","SS1613079938994","pref_reveal","","40","800","3198.0000000010477","null","null","","","","","4","","","","background","","","",""
"","null","html-keyboard-response","98","435634","0.0-23.0-0.0","SS1613079938994","","","null","","","","","<p><img src= images/blank.png width =""200"" height = ""200"" style = ""float:right""></p><p><img src=images/blank.png width =""800"" height = ""200""></p>","","","","","","","","","","","",""
"","2347.0000000015716","sequential-stimulus-presentation","99","438790","0.0-23.0-1.0","SS1613079938994","trial","","40","800","3147.0000000015716","images/stimuli/spore_stims/simple_15_B_c.gif","images/stimuli/spore_stims/simple_15_A_c.gif","","","","","5","simple_similar","images/stimuli/spore_stims/simple_15_A_c.gif","right","","","","",""
"","null","html-keyboard-response","100","440034","0.0-23.0-0.1","SS1613079938994","","","null","","","","","<p><img src= images/blank.png width =""200"" height = ""200"" style = ""float:right""></p><p><img src=images/blank.png width =""800"" height = ""200""></p>","","","","","","","","","","","",""
"","2112.9999999975553","sequential-stimulus-presentation","101","442957","0.0-23.0-1.1","SS1613079938994","trial","","40","800","2912.9999999975553","images/stimuli/spore_stims/simple_15_B_c.gif","images/stimuli/spore_stims/simple_15_A_c.gif","","","","","5","simple_similar","images/stimuli/spore_stims/simple_15_A_c.gif","right","","","","",""
"","null","html-keyboard-response","102","444169","0.0-23.0-0.2","SS1613079938994","","","null","","","","","<p><img src= images/blank.png width =""200"" height = ""200"" style = ""float:right""></p><p><img src=images/blank.png width =""800"" height = ""200""></p>","","","","","","","","","","","",""
"","1936.0000000015134","sequential-stimulus-presentation","103","446918","0.0-23.0-1.2","SS1613079938994","trial","","40","800","2736.0000000015134","images/stimuli/spore_stims/simple_15_B_c.gif","images/stimuli/spore_stims/simple_15_A_c.gif","","","","","5","simple_similar","images/stimuli/spore_stims/simple_15_A_c.gif","right","","","","",""
"","null","html-keyboard-response","104","447764","0.0-23.0-0.3","SS1613079938994","","","null","","","","","<p><img src= images/blank.png width =""200"" height = ""200"" style = ""float:right""></p><p><img src=images/blank.png width =""800"" height = ""200""></p>","","","","","","","","","","","",""
"","3157.999999995809","sequential-stimulus-presentation","105","451730","0.0-23.0-1.3","SS1613079938994","trial","","40","800","3957.999999995809","images/stimuli/spore_stims/simple_15_B_c.gif","images/stimuli/spore_stims/simple_15_A_c.gif","","","","","5","simple_similar","images/stimuli/spore_stims/simple_15_A_c.gif","right","","","","",""
"","null","html-keyboard-response","106","452735","0.0-23.0-0.4","SS1613079938994","","","null","","","","","<p><img src= images/blank.png width =""200"" height = ""200"" style = ""float:right""></p><p><img src=images/blank.png width =""800"" height = ""200""></p>","","","","","","","","","","","",""
"","527.9999999984284","sequential-stimulus-presentation","107","454073","0.0-23.0-1.4","SS1613079938994","trial","","40","800","1327.9999999984284","images/stimuli/spore_stims/simple_15_B_c.gif","images/stimuli/spore_stims/simple_15_A_c.gif","","","","","5","simple_similar","images/stimuli/spore_stims/simple_15_A_c.gif","right","","","","",""
"","null","html-keyboard-response","108","455155","0.0-23.0-0.5","SS1613079938994","","","null","","","","","<p><img src= images/blank.png width =""200"" height = ""200"" style = ""float:right""></p><p><img src=images/blank.png width =""800"" height = ""200""></p>","","","","","","","","","","","",""
"","20497.999999999593","sequential-stimulus-presentation","109","476475","0.0-23.0-1.5","SS1613079938994","trial","","40","800","21297.999999999593","images/stimuli/spore_stims/simple_15_B_c.gif","images/stimuli/spore_stims/simple_15_A_c.gif","","","","","5","simple_similar","images/stimuli/spore_stims/simple_15_A_c.gif","right","","","","",""
"","null","html-keyboard-response","110","477395","0.0-23.0-0.6","SS1613079938994","","","null","","","","","<p><img src= images/blank.png width =""200"" height = ""200"" style = ""float:right""></p><p><img src=images/blank.png width =""800"" height = ""200""></p>","","","","","","","","","","","",""
"","4137.9999999990105","sequential-stimulus-presentation","111","482343","0.0-23.0-1.6","SS1613079938994","trial","","40","800","4937.9999999990105","images/stimuli/spore_stims/simple_15_B_c.gif","images/stimuli/spore_stims/simple_15_A_c.gif","","","","","5","simple_similar","images/stimuli/spore_stims/simple_15_B_c.gif","middle","","","","",""
"","null","html-keyboard-response","112","483290","0.0-23.0-0.7","SS1613079938994","","","null","","","","","<p><img src= images/blank.png width =""200"" height = ""200"" style = ""float:right""></p><p><img src=images/blank.png width =""800"" height = ""200""></p>","","","","","","","","","","","",""
"","1436.0000000015134","sequential-stimulus-presentation","113","485542","0.0-23.0-1.7","SS1613079938994","trial","","40","800","2236.0000000015134","images/stimuli/spore_stims/simple_15_B_c.gif","images/stimuli/spore_stims/simple_15_A_c.gif","","","","","5","simple_similar","images/stimuli/spore_stims/simple_15_A_c.gif","right","","","","",""
"","3008.00000000163","html-keyboard-response","114","488557","0.0-24.0","SS1613079938994","pref_question","","49","","","","","<video width ='960' height = '540' style='padding-top:8%' autoplay muted><source src='images/stimuli/wall_pref.mp4' type='video/mp4'></video>","1","left","25%","5","","","","","","","",""
"","20054.000000003725","sequential-stimulus-presentation","115","509426","0.0-25.0","SS1613079938994","pref_reveal","","40","800","20854.000000003725","null","null","","","","","5","","","","novel","","","",""
"","null","html-keyboard-response","116","510545","0.0-26.0-0.0","SS1613079938994","","","null","","","","","<p><img src= images/blank.png width =""200"" height = ""200"" style = ""float:right""></p><p><img src=images/blank.png width =""800"" height = ""200""></p>","","","","","","","","","","","",""
"","2327.000000004773","sequential-stimulus-presentation","117","513684","0.0-26.0-1.0","SS1613079938994","trial","","40","800","3127.000000004773","images/stimuli/spore_stims/simple_03_B_a.gif","images/stimuli/spore_stims/simple_03_A_a.gif","","","","","6","simple_similar","images/stimuli/spore_stims/simple_03_A_a.gif","left","","","","",""
"","null","html-keyboard-response","118","514549","0.0-26.0-0.1","SS1613079938994","","","null","","","","","<p><img src= images/blank.png width =""200"" height = ""200"" style = ""float:right""></p><p><img src=images/blank.png width =""800"" height = ""200""></p>","","","","","","","","","","","",""
"","552.9999999998836","sequential-stimulus-presentation","119","515916","0.0-26.0-1.1","SS1613079938994","trial","","40","800","1352.9999999998836","images/stimuli/spore_stims/simple_03_B_a.gif","images/stimuli/spore_stims/simple_03_A_a.gif","","","","","6","simple_similar","images/stimuli/spore_stims/simple_03_A_a.gif","left","","","","",""
"","null","html-keyboard-response","120","516991","0.0-26.0-0.2","SS1613079938994","","","null","","","","","<p><img src= images/blank.png width =""200"" height = ""200"" style = ""float:right""></p><p><img src=images/blank.png width =""800"" height = ""200""></p>","","","","","","","","","","","",""
"","672.0000000058208","sequential-stimulus-presentation","121","518472","0.0-26.0-1.2","SS1613079938994","trial","","40","800","1472.0000000058208","images/stimuli/spore_stims/simple_03_B_a.gif","images/stimuli/spore_stims/simple_03_A_a.gif","","","","","6","simple_similar","images/stimuli/spore_stims/simple_03_A_a.gif","left","","","","",""
"","null","html-keyboard-response","122","519364","0.0-26.0-0.3","SS1613079938994","","","null","","","","","<p><img src= images/blank.png width =""200"" height = ""200"" style = ""float:right""></p><p><img src=images/blank.png width =""800"" height = ""200""></p>","","","","","","","","","","","",""
"","812.0000000053551","sequential-stimulus-presentation","123","520984","0.0-26.0-1.3","SS1613079938994","trial","","40","800","1612.000000005355","images/stimuli/spore_stims/simple_03_B_a.gif","images/stimuli/spore_stims/simple_03_A_a.gif","","","","","6","simple_similar","images/stimuli/spore_stims/simple_03_A_a.gif","left","","","","",""
"","null","html-keyboard-response","124","522273","0.0-26.0-0.4","SS1613079938994","","","null","","","","","<p><img src= images/blank.png width =""200"" height = ""200"" style = ""float:right""></p><p><img src=images/blank.png width =""800"" height = ""200""></p>","","","","","","","","","","","",""
"","631.0000000011642","sequential-stimulus-presentation","125","523714","0.0-26.0-1.4","SS1613079938994","trial","","40","800","1431.0000000011642","images/stimuli/spore_stims/simple_03_B_a.gif","images/stimuli/spore_stims/simple_03_A_a.gif","","","","","6","simple_similar","images/stimuli/spore_stims/simple_03_A_a.gif","left","","","","",""
"","null","html-keyboard-response","126","524974","0.0-26.0-0.5","SS1613079938994","","","null","","","","","<p><img src= images/blank.png width =""200"" height = ""200"" style = ""float:right""></p><p><img src=images/blank.png width =""800"" height = ""200""></p>","","","","","","","","","","","",""
"","1956.000000005588","sequential-stimulus-presentation","127","527738","0.0-26.0-1.5","SS1613079938994","trial","","40","800","2756.000000005588","images/stimuli/spore_stims/simple_03_B_a.gif","images/stimuli/spore_stims/simple_03_A_a.gif","","","","","6","simple_similar","images/stimuli/spore_stims/simple_03_A_a.gif","left","","","","",""
"","null","html-keyboard-response","128","528827","0.0-26.0-0.6","SS1613079938994","","","null","","","","","<p><img src= images/blank.png width =""200"" height = ""200"" style = ""float:right""></p><p><img src=images/blank.png width =""800"" height = ""200""></p>","","","","","","","","","","","",""
"","1932.0000000006985","sequential-stimulus-presentation","129","531579","0.0-26.0-1.6","SS1613079938994","trial","","40","800","2732.0000000006985","images/stimuli/spore_stims/simple_03_B_a.gif","images/stimuli/spore_stims/simple_03_A_a.gif","","","","","6","simple_similar","images/stimuli/spore_stims/simple_03_B_a.gif","middle","","","","",""
"","null","html-keyboard-response","130","532474","0.0-26.0-0.7","SS1613079938994","","","null","","","","","<p><img src= images/blank.png width =""200"" height = ""200"" style = ""float:right""></p><p><img src=images/blank.png width =""800"" height = ""200""></p>","","","","","","","","","","","",""
"","798.0000000024447","sequential-stimulus-presentation","131","534081","0.0-26.0-1.7","SS1613079938994","trial","","40","800","1598.0000000024447","images/stimuli/spore_stims/simple_03_B_a.gif","images/stimuli/spore_stims/simple_03_A_a.gif","","","","","6","simple_similar","images/stimuli/spore_stims/simple_03_A_a.gif","left","","","","",""
"","3538.0000000004657","html-keyboard-response","132","537647","0.0-27.0","SS1613079938994","pref_question","","50","","","","","<video width ='960' height = '540' style='padding-top:8%' autoplay muted><source src='images/stimuli/wall_pref.mp4' type='video/mp4'></video>","2","middle","45%","6","","","","","","","",""
"","1440.0000000023283","sequential-stimulus-presentation","133","539899","0.0-28.0","SS1613079938994","pref_reveal","","40","800","2240.0000000023283","null","null","","","","","6","","","","deviant","","","",""
"","null","html-keyboard-response","134","541202","0.0-29.0-0.0","SS1613079938994","","","null","","","","","<p><img src= images/blank.png width =""200"" height = ""200"" style = ""float:right""></p><p><img src=images/blank.png width =""800"" height = ""200""></p>","","","","","","","","","","","",""
"","6728.999999999418","sequential-stimulus-presentation","135","548749","0.0-29.0-1.0","SS1613079938994","trial","","40","800","7528.999999999418","images/stimuli/spore_stims/complex_05_A_b.gif","images/stimuli/spore_stims/complex_20_B_d.gif","","","","","7","complex_dissimilar","images/stimuli/spore_stims/complex_20_B_d.gif","right","","","","",""
"","null","html-keyboard-response","136","549862","0.0-29.0-0.1","SS1613079938994","","","null","","","","","<p><img src= images/blank.png width =""200"" height = ""200"" style = ""float:right""></p><p><img src=images/blank.png width =""800"" height = ""200""></p>","","","","","","","","","","","",""
"","1080.0000000017462","sequential-stimulus-presentation","137","551753","0.0-29.0-1.1","SS1613079938994","trial","","40","800","1880.0000000017462","images/stimuli/spore_stims/complex_05_A_b.gif","images/stimuli/spore_stims/complex_20_B_d.gif","","","","","7","complex_dissimilar","images/stimuli/spore_stims/complex_20_B_d.gif","right","","","","",""
"","null","html-keyboard-response","138","552837","0.0-29.0-0.2","SS1613079938994","","","null","","","","","<p><img src= images/blank.png width =""200"" height = ""200"" style = ""float:right""></p><p><img src=images/blank.png width =""800"" height = ""200""></p>","","","","","","","","","","","",""
"","512.0000000023283","sequential-stimulus-presentation","139","554165","0.0-29.0-1.2","SS1613079938994","trial","","40","800","1312.0000000023283","images/stimuli/spore_stims/complex_05_A_b.gif","images/stimuli/spore_stims/complex_20_B_d.gif","","","","","7","complex_dissimilar","images/stimuli/spore_stims/complex_20_B_d.gif","right","","","","",""
"","null","html-keyboard-response","140","555281","0.0-29.0-0.3","SS1613079938994","","","null","","","","","<p><img src= images/blank.png width =""200"" height = ""200"" style = ""float:right""></p><p><img src=images/blank.png width =""800"" height = ""200""></p>","","","","","","","","","","","",""
"","911","sequential-stimulus-presentation","141","557002","0.0-29.0-1.3","SS1613079938994","trial","","40","800","1711","images/stimuli/spore_stims/complex_05_A_b.gif","images/stimuli/spore_stims/complex_20_B_d.gif","","","","","7","complex_dissimilar","images/stimuli/spore_stims/complex_20_B_d.gif","right","","","","",""
"","null","html-keyboard-response","142","558088","0.0-29.0-0.4","SS1613079938994","","","null","","","","","<p><img src= images/blank.png width =""200"" height = ""200"" style = ""float:right""></p><p><img src=images/blank.png width =""800"" height = ""200""></p>","","","","","","","","","","","",""
"","773.0000000009313","sequential-stimulus-presentation","143","559675","0.0-29.0-1.4","SS1613079938994","trial","","40","800","1573.0000000009313","images/stimuli/spore_stims/complex_05_A_b.gif","images/stimuli/spore_stims/complex_20_B_d.gif","","","","","7","complex_dissimilar","images/stimuli/spore_stims/complex_20_B_d.gif","right","","","","",""
"","null","html-keyboard-response","144","560629","0.0-29.0-0.5","SS1613079938994","","","null","","","","","<p><img src= images/blank.png width =""200"" height = ""200"" style = ""float:right""></p><p><img src=images/blank.png width =""800"" height = ""200""></p>","","","","","","","","","","","",""
"","3965.0000000037253","sequential-stimulus-presentation","145","565407","0.0-29.0-1.5","SS1613079938994","trial","","40","800","4765.000000003725","images/stimuli/spore_stims/complex_05_A_b.gif","images/stimuli/spore_stims/complex_20_B_d.gif","","","","","7","complex_dissimilar","images/stimuli/spore_stims/complex_05_A_b.gif","left","","","","",""
"","null","html-keyboard-response","146","566650","0.0-29.0-0.6","SS1613079938994","","","null","","","","","<p><img src= images/blank.png width =""200"" height = ""200"" style = ""float:right""></p><p><img src=images/blank.png width =""800"" height = ""200""></p>","","","","","","","","","","","",""
"","1817.000000002794","sequential-stimulus-presentation","147","569277","0.0-29.0-1.6","SS1613079938994","trial","","40","800","2617.000000002794","images/stimuli/spore_stims/complex_05_A_b.gif","images/stimuli/spore_stims/complex_20_B_d.gif","","","","","7","complex_dissimilar","images/stimuli/spore_stims/complex_20_B_d.gif","right","","","","",""
"","null","html-keyboard-response","148","570493","0.0-29.0-0.7","SS1613079938994","","","null","","","","","<p><img src= images/blank.png width =""200"" height = ""200"" style = ""float:right""></p><p><img src=images/blank.png width =""800"" height = ""200""></p>","","","","","","","","","","","",""
"","749.000000003376","sequential-stimulus-presentation","149","572059","0.0-29.0-1.7","SS1613079938994","trial","","40","800","1549.000000003376","images/stimuli/spore_stims/complex_05_A_b.gif","images/stimuli/spore_stims/complex_20_B_d.gif","","","","","7","complex_dissimilar","images/stimuli/spore_stims/complex_20_B_d.gif","right","","","","",""
"","2458.0000000060536","html-keyboard-response","150","574525","0.0-30.0","SS1613079938994","pref_question","","49","","","","","<video width ='960' height = '540' style='padding-top:8%' autoplay muted><source src='images/stimuli/wall_pref.mp4' type='video/mp4'></video>","1","left","25%","7","","","","","","","",""
"","1283.0000000030268","sequential-stimulus-presentation","151","576618","0.0-31.0","SS1613079938994","pref_reveal","","40","800","2083.000000003027","null","null","","","","","7","","","","deviant","","","",""
"","null","html-keyboard-response","152","577840","0.0-32.0-0.0","SS1613079938994","","","null","","","","","<p><img src= images/blank.png width =""200"" height = ""200"" style = ""float:right""></p><p><img src=images/blank.png width =""800"" height = ""200""></p>","","","","","","","","","","","",""
"","3734.000000003958","sequential-stimulus-presentation","153","582385","0.0-32.0-1.0","SS1613079938994","trial","","40","800","4534.000000003958","images/stimuli/spore_stims/complex_07_A_d.gif","images/stimuli/spore_stims/complex_19_B_d.gif","","","","","8","complex_dissimilar","images/stimuli/spore_stims/complex_19_B_d.gif","right","","","","",""
"","null","html-keyboard-response","154","583679","0.0-32.0-0.1","SS1613079938994","","","null","","","","","<p><img src= images/blank.png width =""200"" height = ""200"" style = ""float:right""></p><p><img src=images/blank.png width =""800"" height = ""200""></p>","","","","","","","","","","","",""
"","976.0000000023283","sequential-stimulus-presentation","155","585466","0.0-32.0-1.1","SS1613079938994","trial","","40","800","1776.0000000023283","images/stimuli/spore_stims/complex_07_A_d.gif","images/stimuli/spore_stims/complex_19_B_d.gif","","","","","8","complex_dissimilar","images/stimuli/spore_stims/complex_19_B_d.gif","right","","","","",""
"","null","html-keyboard-response","156","586538","0.0-32.0-0.2","SS1613079938994","","","null","","","","","<p><img src= images/blank.png width =""200"" height = ""200"" style = ""float:right""></p><p><img src=images/blank.png width =""800"" height = ""200""></p>","","","","","","","","","","","",""
"","1783.9999999996508","sequential-stimulus-presentation","157","589132","0.0-32.0-1.2","SS1613079938994","trial","","40","800","2583.9999999996508","images/stimuli/spore_stims/complex_07_A_d.gif","images/stimuli/spore_stims/complex_19_B_d.gif","","","","","8","complex_dissimilar","images/stimuli/spore_stims/complex_07_A_d.gif","middle","","","","",""
"","null","html-keyboard-response","158","590380","0.0-32.0-0.3","SS1613079938994","","","null","","","","","<p><img src= images/blank.png width =""200"" height = ""200"" style = ""float:right""></p><p><img src=images/blank.png width =""800"" height = ""200""></p>","","","","","","","","","","","",""
"","690.9999999989523","sequential-stimulus-presentation","159","591880","0.0-32.0-1.3","SS1613079938994","trial","","40","800","1490.9999999989523","images/stimuli/spore_stims/complex_07_A_d.gif","images/stimuli/spore_stims/complex_19_B_d.gif","","","","","8","complex_dissimilar","images/stimuli/spore_stims/complex_19_B_d.gif","right","","","","",""
"","null","html-keyboard-response","160","592922","0.0-32.0-0.4","SS1613079938994","","","null","","","","","<p><img src= images/blank.png width =""200"" height = ""200"" style = ""float:right""></p><p><img src=images/blank.png width =""800"" height = ""200""></p>","","","","","","","","","","","",""
"","538.0000000004657","sequential-stimulus-presentation","161","594271","0.0-32.0-1.4","SS1613079938994","trial","","40","800","1338.0000000004657","images/stimuli/spore_stims/complex_07_A_d.gif","images/stimuli/spore_stims/complex_19_B_d.gif","","","","","8","complex_dissimilar","images/stimuli/spore_stims/complex_19_B_d.gif","right","","","","",""
"","null","html-keyboard-response","162","595277","0.0-32.0-0.5","SS1613079938994","","","null","","","","","<p><img src= images/blank.png width =""200"" height = ""200"" style = ""float:right""></p><p><img src=images/blank.png width =""800"" height = ""200""></p>","","","","","","","","","","","",""
"","855.9999999997672","sequential-stimulus-presentation","163","596947","0.0-32.0-1.5","SS1613079938994","trial","","40","800","1655.9999999997672","images/stimuli/spore_stims/complex_07_A_d.gif","images/stimuli/spore_stims/complex_19_B_d.gif","","","","","8","complex_dissimilar","images/stimuli/spore_stims/complex_19_B_d.gif","right","","","","",""
"","null","html-keyboard-response","164","597936","0.0-32.0-0.6","SS1613079938994","","","null","","","","","<p><img src= images/blank.png width =""200"" height = ""200"" style = ""float:right""></p><p><img src=images/blank.png width =""800"" height = ""200""></p>","","","","","","","","","","","",""
"","625.999999996624","sequential-stimulus-presentation","165","599378","0.0-32.0-1.6","SS1613079938994","trial","","40","800","1425.999999996624","images/stimuli/spore_stims/complex_07_A_d.gif","images/stimuli/spore_stims/complex_19_B_d.gif","","","","","8","complex_dissimilar","images/stimuli/spore_stims/complex_19_B_d.gif","right","","","","",""
"","null","html-keyboard-response","166","600457","0.0-32.0-0.7","SS1613079938994","","","null","","","","","<p><img src= images/blank.png width =""200"" height = ""200"" style = ""float:right""></p><p><img src=images/blank.png width =""800"" height = ""200""></p>","","","","","","","","","","","",""
"","752.0000000004657","sequential-stimulus-presentation","167","602020","0.0-32.0-1.7","SS1613079938994","trial","","40","800","1552.0000000004657","images/stimuli/spore_stims/complex_07_A_d.gif","images/stimuli/spore_stims/complex_19_B_d.gif","","","","","8","complex_dissimilar","images/stimuli/spore_stims/complex_19_B_d.gif","right","","","","",""
"","2980.999999999767","html-keyboard-response","168","605011","0.0-33.0","SS1613079938994","pref_question","","50","","","","","<video width ='960' height = '540' style='padding-top:8%' autoplay muted><source src='images/stimuli/wall_pref.mp4' type='video/mp4'></video>","2","middle","45%","8","","","","","","","",""
"","4779.999999998836","sequential-stimulus-presentation","169","610604","0.0-34.0","SS1613079938994","pref_reveal","","40","800","5579.999999998836","null","null","","","","","8","","","","deviant","","","",""
"","null","html-keyboard-response","170","611718","0.0-35.0-0.0","SS1613079938994","","","null","","","","","<p><img src= images/blank.png width =""200"" height = ""200"" style = ""float:right""></p><p><img src=images/blank.png width =""800"" height = ""200""></p>","","","","","","","","","","","",""
"","2550.9999999995343","sequential-stimulus-presentation","171","615079","0.0-35.0-1.0","SS1613079938994","trial","","40","800","3350.9999999995343","images/stimuli/spore_stims/simple_01_A_c.gif","images/stimuli/spore_stims/simple_01_B_c.gif","","","","","9","simple_similar","images/stimuli/spore_stims/simple_01_B_c.gif","left","","","","",""
"","null","html-keyboard-response","172","616000","0.0-35.0-0.1","SS1613079938994","","","null","","","","","<p><img src= images/blank.png width =""200"" height = ""200"" style = ""float:right""></p><p><img src=images/blank.png width =""800"" height = ""200""></p>","","","","","","","","","","","",""
"","3497.9999999996508","sequential-stimulus-presentation","173","620317","0.0-35.0-1.1","SS1613079938994","trial","","40","800","4297.999999999651","images/stimuli/spore_stims/simple_01_A_c.gif","images/stimuli/spore_stims/simple_01_B_c.gif","","","","","9","simple_similar","images/stimuli/spore_stims/simple_01_B_c.gif","left","","","","",""
"","null","html-keyboard-response","174","621579","0.0-35.0-0.2","SS1613079938994","","","null","","","","","<p><img src= images/blank.png width =""200"" height = ""200"" style = ""float:right""></p><p><img src=images/blank.png width =""800"" height = ""200""></p>","","","","","","","","","","","",""
"","3359.000000003958","sequential-stimulus-presentation","175","625760","0.0-35.0-1.2","SS1613079938994","trial","","40","800","4159.000000003958","images/stimuli/spore_stims/simple_01_A_c.gif","images/stimuli/spore_stims/simple_01_B_c.gif","","","","","9","simple_similar","images/stimuli/spore_stims/simple_01_B_c.gif","left","","","","",""
"","null","html-keyboard-response","176","626691","0.0-35.0-0.3","SS1613079938994","","","null","","","","","<p><img src= images/blank.png width =""200"" height = ""200"" style = ""float:right""></p><p><img src=images/blank.png width =""800"" height = ""200""></p>","","","","","","","","","","","",""
"","1853.000000002794","sequential-stimulus-presentation","177","629356","0.0-35.0-1.3","SS1613079938994","trial","","40","800","2653.000000002794","images/stimuli/spore_stims/simple_01_A_c.gif","images/stimuli/spore_stims/simple_01_B_c.gif","","","","","9","simple_similar","images/stimuli/spore_stims/simple_01_B_c.gif","left","","","","",""
"","null","html-keyboard-response","178","630254","0.0-35.0-0.4","SS1613079938994","","","null","","","","","<p><img src= images/blank.png width =""200"" height = ""200"" style = ""float:right""></p><p><img src=images/blank.png width =""800"" height = ""200""></p>","","","","","","","","","","","",""
"","2461.000000003027","sequential-stimulus-presentation","179","633525","0.0-35.0-1.4","SS1613079938994","trial","","40","800","3261.000000003027","images/stimuli/spore_stims/simple_01_A_c.gif","images/stimuli/spore_stims/simple_01_B_c.gif","","","","","9","simple_similar","images/stimuli/spore_stims/simple_01_B_c.gif","left","","","","",""
"","null","html-keyboard-response","180","634375","0.0-35.0-0.5","SS1613079938994","","","null","","","","","<p><img src= images/blank.png width =""200"" height = ""200"" style = ""float:right""></p><p><img src=images/blank.png width =""800"" height = ""200""></p>","","","","","","","","","","","",""
"","795.9999999948777","sequential-stimulus-presentation","181","635982","0.0-35.0-1.5","SS1613079938994","trial","","40","800","1595.9999999948777","images/stimuli/spore_stims/simple_01_A_c.gif","images/stimuli/spore_stims/simple_01_B_c.gif","","","","","9","simple_similar","images/stimuli/spore_stims/simple_01_B_c.gif","left","","","","",""
"","null","html-keyboard-response","182","636946","0.0-35.0-0.6","SS1613079938994","","","null","","","","","<p><img src= images/blank.png width =""200"" height = ""200"" style = ""float:right""></p><p><img src=images/blank.png width =""800"" height = ""200""></p>","","","","","","","","","","","",""
"","877.0000000003492","sequential-stimulus-presentation","183","638632","0.0-35.0-1.6","SS1613079938994","trial","","40","800","1677.0000000003492","images/stimuli/spore_stims/simple_01_A_c.gif","images/stimuli/spore_stims/simple_01_B_c.gif","","","","","9","simple_similar","images/stimuli/spore_stims/simple_01_B_c.gif","left","","","","",""
"","null","html-keyboard-response","184","639552","0.0-35.0-0.7","SS1613079938994","","","null","","","","","<p><img src= images/blank.png width =""200"" height = ""200"" style = ""float:right""></p><p><img src=images/blank.png width =""800"" height = ""200""></p>","","","","","","","","","","","",""
"","1633.0000000016298","sequential-stimulus-presentation","185","642006","0.0-35.0-1.7","SS1613079938994","trial","","40","800","2433.00000000163","images/stimuli/spore_stims/simple_01_A_c.gif","images/stimuli/spore_stims/simple_01_B_c.gif","","","","","9","simple_similar","images/stimuli/spore_stims/simple_01_A_c.gif","middle","","","","",""
"","3033.000000003027","html-keyboard-response","186","645053","0.0-36.0","SS1613079938994","pref_question","","51","","","","","<video width ='960' height = '540' style='padding-top:8%' autoplay muted><source src='images/stimuli/wall_pref.mp4' type='video/mp4'></video>","3","right","66%","9","","","","","","","",""
"","2176.999999996042","sequential-stimulus-presentation","187","648045","0.0-37.0","SS1613079938994","pref_reveal","","40","800","2976.999999996042","null","null","","","","","9","","","","novel","","","",""
"","null","html-keyboard-response","188","649227","0.0-38.0-0.0","SS1613079938994","","","null","","","","","<p><img src= images/blank.png width =""200"" height = ""200"" style = ""float:right""></p><p><img src=images/blank.png width =""800"" height = ""200""></p>","","","","","","","","","","","",""
"","1394.0000000002328","sequential-stimulus-presentation","189","651449","0.0-38.0-1.0","SS1613079938994","trial","","40","800","2194.000000000233","images/stimuli/spore_stims/complex_13_B_c.gif","images/stimuli/spore_stims/complex_13_A_c.gif","","","","","10","complex_similar","images/stimuli/spore_stims/complex_13_A_c.gif","middle","","","","",""
"","null","html-keyboard-response","190","652570","0.0-38.0-0.1","SS1613079938994","","","null","","","","","<p><img src= images/blank.png width =""200"" height = ""200"" style = ""float:right""></p><p><img src=images/blank.png width =""800"" height = ""200""></p>","","","","","","","","","","","",""
"","1563.000000001979","sequential-stimulus-presentation","191","654991","0.0-38.0-1.1","SS1613079938994","trial","","40","800","2363.000000001979","images/stimuli/spore_stims/complex_13_B_c.gif","images/stimuli/spore_stims/complex_13_A_c.gif","","","","","10","complex_similar","images/stimuli/spore_stims/complex_13_A_c.gif","middle","","","","",""
"","null","html-keyboard-response","192","655938","0.0-38.0-0.2","SS1613079938994","","","null","","","","","<p><img src= images/blank.png width =""200"" height = ""200"" style = ""float:right""></p><p><img src=images/blank.png width =""800"" height = ""200""></p>","","","","","","","","","","","",""
"","533.9999999997672","sequential-stimulus-presentation","193","657290","0.0-38.0-1.2","SS1613079938994","trial","","40","800","1333.9999999997672","images/stimuli/spore_stims/complex_13_B_c.gif","images/stimuli/spore_stims/complex_13_A_c.gif","","","","","10","complex_similar","images/stimuli/spore_stims/complex_13_A_c.gif","middle","","","","",""
"","null","html-keyboard-response","194","658599","0.0-38.0-0.3","SS1613079938994","","","null","","","","","<p><img src= images/blank.png width =""200"" height = ""200"" style = ""float:right""></p><p><img src=images/blank.png width =""800"" height = ""200""></p>","","","","","","","","","","","",""
"","474.999999998603","sequential-stimulus-presentation","195","659885","0.0-38.0-1.3","SS1613079938994","trial","","40","800","1274.999999998603","images/stimuli/spore_stims/complex_13_B_c.gif","images/stimuli/spore_stims/complex_13_A_c.gif","","","","","10","complex_similar","images/stimuli/spore_stims/complex_13_A_c.gif","middle","","","","",""
"","null","html-keyboard-response","196","661023","0.0-38.0-0.4","SS1613079938994","","","null","","","","","<p><img src= images/blank.png width =""200"" height = ""200"" style = ""float:right""></p><p><img src=images/blank.png width =""800"" height = ""200""></p>","","","","","","","","","","","",""
"","626.0000000039581","sequential-stimulus-presentation","197","662460","0.0-38.0-1.4","SS1613079938994","trial","","40","800","1426.0000000039581","images/stimuli/spore_stims/complex_13_B_c.gif","images/stimuli/spore_stims/complex_13_A_c.gif","","","","","10","complex_similar","images/stimuli/spore_stims/complex_13_A_c.gif","middle","","","","",""
"","null","html-keyboard-response","198","663329","0.0-38.0-0.5","SS1613079938994","","","null","","","","","<p><img src= images/blank.png width =""200"" height = ""200"" style = ""float:right""></p><p><img src=images/blank.png width =""800"" height = ""200""></p>","","","","","","","","","","","",""
"","634.0000000054715","sequential-stimulus-presentation","199","664773","0.0-38.0-1.5","SS1613079938994","trial","","40","800","1434.0000000054715","images/stimuli/spore_stims/complex_13_B_c.gif","images/stimuli/spore_stims/complex_13_A_c.gif","","","","","10","complex_similar","images/stimuli/spore_stims/complex_13_A_c.gif","middle","","","","",""
"","null","html-keyboard-response","200","666003","0.0-38.0-0.6","SS1613079938994","","","null","","","","","<p><img src= images/blank.png width =""200"" height = ""200"" style = ""float:right""></p><p><img src=images/blank.png width =""800"" height = ""200""></p>","","","","","","","","","","","",""
"","993.9999999987194","sequential-stimulus-presentation","201","667808","0.0-38.0-1.6","SS1613079938994","trial","","40","800","1793.9999999987194","images/stimuli/spore_stims/complex_13_B_c.gif","images/stimuli/spore_stims/complex_13_A_c.gif","","","","","10","complex_similar","images/stimuli/spore_stims/complex_13_B_c.gif","left","","","","",""
"","null","html-keyboard-response","202","668927","0.0-38.0-0.7","SS1613079938994","","","null","","","","","<p><img src= images/blank.png width =""200"" height = ""200"" style = ""float:right""></p><p><img src=images/blank.png width =""800"" height = ""200""></p>","","","","","","","","","","","",""
"","701.9999999975553","sequential-stimulus-presentation","203","670442","0.0-38.0-1.7","SS1613079938994","trial","","40","800","1501.9999999975553","images/stimuli/spore_stims/complex_13_B_c.gif","images/stimuli/spore_stims/complex_13_A_c.gif","","","","","10","complex_similar","images/stimuli/spore_stims/complex_13_A_c.gif","middle","","","","",""
"","2974.000000001979","html-keyboard-response","204","673425","0.0-39.0","SS1613079938994","pref_question","","49","","","","","<video width ='960' height = '540' style='padding-top:8%' autoplay muted><source src='images/stimuli/wall_pref.mp4' type='video/mp4'></video>","1","left","25%","10","","","","","","","",""
"","1001.0000000039581","sequential-stimulus-presentation","205","675237","0.0-40.0","SS1613079938994","pref_reveal","","40","800","1801.0000000039581","null","null","","","","","10","","","","deviant","","","",""
"","null","html-keyboard-response","206","676362","0.0-41.0-0.0","SS1613079938994","","","null","","","","","<p><img src= images/blank.png width =""200"" height = ""200"" style = ""float:right""></p><p><img src=images/blank.png width =""800"" height = ""200""></p>","","","","","","","","","","","",""
"","993.9999999988358","sequential-stimulus-presentation","207","678198","0.0-41.0-1.0","SS1613079938994","trial","","40","800","1793.9999999988358","images/stimuli/spore_stims/complex_10_B_b.gif","images/stimuli/spore_stims/complex_10_A_b.gif","","","","","11","complex_similar","images/stimuli/spore_stims/complex_10_A_b.gif","right","","","","",""
"","null","html-keyboard-response","208","679485","0.0-41.0-0.1","SS1613079938994","","","null","","","","","<p><img src= images/blank.png width =""200"" height = ""200"" style = ""float:right""></p><p><img src=images/blank.png width =""800"" height = ""200""></p>","","","","","","","","","","","",""
"","548.0000000025611","sequential-stimulus-presentation","209","680847","0.0-41.0-1.1","SS1613079938994","trial","","40","800","1348.0000000025611","images/stimuli/spore_stims/complex_10_B_b.gif","images/stimuli/spore_stims/complex_10_A_b.gif","","","","","11","complex_similar","images/stimuli/spore_stims/complex_10_A_b.gif","right","","","","",""
"","null","html-keyboard-response","210","681962","0.0-41.0-0.2","SS1613079938994","","","null","","","","","<p><img src= images/blank.png width =""200"" height = ""200"" style = ""float:right""></p><p><img src=images/blank.png width =""800"" height = ""200""></p>","","","","","","","","","","","",""
"","494.9999999953434","sequential-stimulus-presentation","211","683274","0.0-41.0-1.2","SS1613079938994","trial","","40","800","1294.9999999953434","images/stimuli/spore_stims/complex_10_B_b.gif","images/stimuli/spore_stims/complex_10_A_b.gif","","","","","11","complex_similar","images/stimuli/spore_stims/complex_10_A_b.gif","right","","","","",""
"","null","html-keyboard-response","212","684259","0.0-41.0-0.3","SS1613079938994","","","null","","","","","<p><img src= images/blank.png width =""200"" height = ""200"" style = ""float:right""></p><p><img src=images/blank.png width =""800"" height = ""200""></p>","","","","","","","","","","","",""
"","407.99999999580905","sequential-stimulus-presentation","213","685478","0.0-41.0-1.3","SS1613079938994","trial","","40","800","1207.999999995809","images/stimuli/spore_stims/complex_10_B_b.gif","images/stimuli/spore_stims/complex_10_A_b.gif","","","","","11","complex_similar","images/stimuli/spore_stims/complex_10_A_b.gif","right","","","","",""
"","null","html-keyboard-response","214","686302","0.0-41.0-0.4","SS1613079938994","","","null","","","","","<p><img src= images/blank.png width =""200"" height = ""200"" style = ""float:right""></p><p><img src=images/blank.png width =""800"" height = ""200""></p>","","","","","","","","","","","",""
"","622.9999999996508","sequential-stimulus-presentation","215","687738","0.0-41.0-1.4","SS1613079938994","trial","","40","800","1422.9999999996508","images/stimuli/spore_stims/complex_10_B_b.gif","images/stimuli/spore_stims/complex_10_A_b.gif","","","","","11","complex_similar","images/stimuli/spore_stims/complex_10_B_b.gif","middle","","","","",""
"","null","html-keyboard-response","216","689003","0.0-41.0-0.5","SS1613079938994","","","null","","","","","<p><img src= images/blank.png width =""200"" height = ""200"" style = ""float:right""></p><p><img src=images/blank.png width =""800"" height = ""200""></p>","","","","","","","","","","","",""
"","593.9999999973224","sequential-stimulus-presentation","217","690410","0.0-41.0-1.5","SS1613079938994","trial","","40","800","1393.9999999973224","images/stimuli/spore_stims/complex_10_B_b.gif","images/stimuli/spore_stims/complex_10_A_b.gif","","","","","11","complex_similar","images/stimuli/spore_stims/complex_10_A_b.gif","right","","","","",""
"","null","html-keyboard-response","218","691605","0.0-41.0-0.6","SS1613079938994","","","null","","","","","<p><img src= images/blank.png width =""200"" height = ""200"" style = ""float:right""></p><p><img src=images/blank.png width =""800"" height = ""200""></p>","","","","","","","","","","","",""
"","399.00000000488944","sequential-stimulus-presentation","219","692816","0.0-41.0-1.6","SS1613079938994","trial","","40","800","1199.0000000048894","images/stimuli/spore_stims/complex_10_B_b.gif","images/stimuli/spore_stims/complex_10_A_b.gif","","","","","11","complex_similar","images/stimuli/spore_stims/complex_10_A_b.gif","right","","","","",""
"","null","html-keyboard-response","220","694009","0.0-41.0-0.7","SS1613079938994","","","null","","","","","<p><img src= images/blank.png width =""200"" height = ""200"" style = ""float:right""></p><p><img src=images/blank.png width =""800"" height = ""200""></p>","","","","","","","","","","","",""
"","665.0000000009313","sequential-stimulus-presentation","221","695486","0.0-41.0-1.7","SS1613079938994","trial","","40","800","1465.0000000009313","images/stimuli/spore_stims/complex_10_B_b.gif","images/stimuli/spore_stims/complex_10_A_b.gif","","","","","11","complex_similar","images/stimuli/spore_stims/complex_10_A_b.gif","right","","","","",""
"","3504.0000000009313","html-keyboard-response","222","698999","0.0-42.0","SS1613079938994","pref_question","","50","","","","","<video width ='960' height = '540' style='padding-top:8%' autoplay muted><source src='images/stimuli/wall_pref.mp4' type='video/mp4'></video>","2","middle","45%","11","","","","","","","",""
"","1476.9999999989523","sequential-stimulus-presentation","223","701337","0.0-43.0","SS1613079938994","pref_reveal","","40","800","2276.9999999989523","null","null","","","","","11","","","","deviant","","","",""
"","null","html-keyboard-response","224","702498","0.0-44.0-0.0","SS1613079938994","","","null","","","","","<p><img src= images/blank.png width =""200"" height = ""200"" style = ""float:right""></p><p><img src=images/blank.png width =""800"" height = ""200""></p>","","","","","","","","","","","",""
"","2086.9999999995343","sequential-stimulus-presentation","225","705426","0.0-44.0-1.0","SS1613079938994","trial","","40","800","2886.9999999995343","images/stimuli/spore_stims/complex_16_B_a.gif","images/stimuli/spore_stims/complex_11_B_c.gif","","","","","12","complex_dissimilar","images/stimuli/spore_stims/complex_11_B_c.gif","right","","","","",""
"","null","html-keyboard-response","226","706275","0.0-44.0-0.1","SS1613079938994","","","null","","","","","<p><img src= images/blank.png width =""200"" height = ""200"" style = ""float:right""></p><p><img src=images/blank.png width =""800"" height = ""200""></p>","","","","","","","","","","","",""
"","639.9999999994179","sequential-stimulus-presentation","227","707736","0.0-44.0-1.1","SS1613079938994","trial","","40","800","1439.999999999418","images/stimuli/spore_stims/complex_16_B_a.gif","images/stimuli/spore_stims/complex_11_B_c.gif","","","","","12","complex_dissimilar","images/stimuli/spore_stims/complex_11_B_c.gif","right","","","","",""
"","null","html-keyboard-response","228","709411","0.0-44.0-0.2","SS1613079938994","","","null","","","","","<p><img src= images/blank.png width =""200"" height = ""200"" style = ""float:right""></p><p><img src=images/blank.png width =""800"" height = ""200""></p>","","","","","","","","","","","",""
"","595.0000000011642","sequential-stimulus-presentation","229","710977","0.0-44.0-1.2","SS1613079938994","trial","","40","800","1395.0000000011642","images/stimuli/spore_stims/complex_16_B_a.gif","images/stimuli/spore_stims/complex_11_B_c.gif","","","","","12","complex_dissimilar","images/stimuli/spore_stims/complex_11_B_c.gif","right","","","","",""
"","null","html-keyboard-response","230","711997","0.0-44.0-0.3","SS1613079938994","","","null","","","","","<p><img src= images/blank.png width =""200"" height = ""200"" style = ""float:right""></p><p><img src=images/blank.png width =""800"" height = ""200""></p>","","","","","","","","","","","",""
"","558.99999999383","sequential-stimulus-presentation","231","713370","0.0-44.0-1.3","SS1613079938994","trial","","40","800","1358.99999999383","images/stimuli/spore_stims/complex_16_B_a.gif","images/stimuli/spore_stims/complex_11_B_c.gif","","","","","12","complex_dissimilar","images/stimuli/spore_stims/complex_11_B_c.gif","right","","","","",""
"","null","html-keyboard-response","232","714507","0.0-44.0-0.4","SS1613079938994","","","null","","","","","<p><img src= images/blank.png width =""200"" height = ""200"" style = ""float:right""></p><p><img src=images/blank.png width =""800"" height = ""200""></p>","","","","","","","","","","","",""
"","430.00000000023283","sequential-stimulus-presentation","233","715760","0.0-44.0-1.4","SS1613079938994","trial","","40","800","1230.0000000002328","images/stimuli/spore_stims/complex_16_B_a.gif","images/stimuli/spore_stims/complex_11_B_c.gif","","","","","12","complex_dissimilar","images/stimuli/spore_stims/complex_11_B_c.gif","right","","","","",""
"","null","html-keyboard-response","234","716919","0.0-44.0-0.5","SS1613079938994","","","null","","","","","<p><img src= images/blank.png width =""200"" height = ""200"" style = ""float:right""></p><p><img src=images/blank.png width =""800"" height = ""200""></p>","","","","","","","","","","","",""
"","566.9999999953434","sequential-stimulus-presentation","235","718304","0.0-44.0-1.5","SS1613079938994","trial","","40","800","1366.9999999953434","images/stimuli/spore_stims/complex_16_B_a.gif","images/stimuli/spore_stims/complex_11_B_c.gif","","","","","12","complex_dissimilar","images/stimuli/spore_stims/complex_11_B_c.gif","right","","","","",""
"","null","html-keyboard-response","236","719115","0.0-44.0-0.6","SS1613079938994","","","null","","","","","<p><img src= images/blank.png width =""200"" height = ""200"" style = ""float:right""></p><p><img src=images/blank.png width =""800"" height = ""200""></p>","","","","","","","","","","","",""
"","1617.0000000057044","sequential-stimulus-presentation","237","721543","0.0-44.0-1.6","SS1613079938994","trial","","40","800","2417.0000000057044","images/stimuli/spore_stims/complex_16_B_a.gif","images/stimuli/spore_stims/complex_11_B_c.gif","","","","","12","complex_dissimilar","images/stimuli/spore_stims/complex_16_B_a.gif","left","","","","",""
"","null","html-keyboard-response","238","722783","0.0-44.0-0.7","SS1613079938994","","","null","","","","","<p><img src= images/blank.png width =""200"" height = ""200"" style = ""float:right""></p><p><img src=images/blank.png width =""800"" height = ""200""></p>","","","","","","","","","","","",""
"","382.99999999429565","sequential-stimulus-presentation","239","723978","0.0-44.0-1.7","SS1613079938994","trial","","40","800","1182.9999999942956","images/stimuli/spore_stims/complex_16_B_a.gif","images/stimuli/spore_stims/complex_11_B_c.gif","","","","","12","complex_dissimilar","images/stimuli/spore_stims/complex_11_B_c.gif","right","","","","",""
"","2442.9999999993015","html-keyboard-response","240","726434","0.0-45.0","SS1613079938994","pref_question","","50","","","","","<video width ='960' height = '540' style='padding-top:8%' autoplay muted><source src='images/stimuli/wall_pref.mp4' type='video/mp4'></video>","2","middle","45%","12","","","","","","","",""
"","5053.999999996391","sequential-stimulus-presentation","241","732301","0.0-46.0","SS1613079938994","pref_reveal","","40","800","5853.999999996391","null","null","","","","","12","","","","novel","","","",""
"","null","html-keyboard-response","242","733395","0.0-47.0-0.0","SS1613079938994","","","null","","","","","<p><img src= images/blank.png width =""200"" height = ""200"" style = ""float:right""></p><p><img src=images/blank.png width =""800"" height = ""200""></p>","","","","","","","","","","","",""
"","650.9999999979045","sequential-stimulus-presentation","243","734861","0.0-47.0-1.0","SS1613079938994","trial","","40","800","1450.9999999979045","images/stimuli/spore_stims/complex_02_B_c.gif","images/stimuli/spore_stims/complex_08_A_d.gif","","","","","13","complex_dissimilar","images/stimuli/spore_stims/complex_08_A_d.gif","middle","","","","",""
"","null","html-keyboard-response","244","736159","0.0-47.0-0.1","SS1613079938994","","","null","","","","","<p><img src= images/blank.png width =""200"" height = ""200"" style = ""float:right""></p><p><img src=images/blank.png width =""800"" height = ""200""></p>","","","","","","","","","","","",""
"","590.0000000038417","sequential-stimulus-presentation","245","737566","0.0-47.0-1.1","SS1613079938994","trial","","40","800","1390.0000000038417","images/stimuli/spore_stims/complex_02_B_c.gif","images/stimuli/spore_stims/complex_08_A_d.gif","","","","","13","complex_dissimilar","images/stimuli/spore_stims/complex_08_A_d.gif","middle","","","","",""
"","null","html-keyboard-response","246","738490","0.0-47.0-0.2","SS1613079938994","","","null","","","","","<p><img src= images/blank.png width =""200"" height = ""200"" style = ""float:right""></p><p><img src=images/blank.png width =""800"" height = ""200""></p>","","","","","","","","","","","",""
"","2841.0000000003492","sequential-stimulus-presentation","247","742246","0.0-47.0-1.2","SS1613079938994","trial","","40","800","3641.0000000003492","images/stimuli/spore_stims/complex_02_B_c.gif","images/stimuli/spore_stims/complex_08_A_d.gif","","","","","13","complex_dissimilar","images/stimuli/spore_stims/complex_08_A_d.gif","middle","","","","",""
"","null","html-keyboard-response","248","743264","0.0-47.0-0.3","SS1613079938994","","","null","","","","","<p><img src= images/blank.png width =""200"" height = ""200"" style = ""float:right""></p><p><img src=images/blank.png width =""800"" height = ""200""></p>","","","","","","","","","","","",""
"","631.9999999977881","sequential-stimulus-presentation","249","744726","0.0-47.0-1.3","SS1613079938994","trial","","40","800","1431.999999997788","images/stimuli/spore_stims/complex_02_B_c.gif","images/stimuli/spore_stims/complex_08_A_d.gif","","","","","13","complex_dissimilar","images/stimuli/spore_stims/complex_08_A_d.gif","middle","","","","",""
"","null","html-keyboard-response","250","745606","0.0-47.0-0.4","SS1613079938994","","","null","","","","","<p><img src= images/blank.png width =""200"" height = ""200"" style = ""float:right""></p><p><img src=images/blank.png width =""800"" height = ""200""></p>","","","","","","","","","","","",""
"","574.0000000004657","sequential-stimulus-presentation","251","746993","0.0-47.0-1.4","SS1613079938994","trial","","40","800","1374.0000000004657","images/stimuli/spore_stims/complex_02_B_c.gif","images/stimuli/spore_stims/complex_08_A_d.gif","","","","","13","complex_dissimilar","images/stimuli/spore_stims/complex_02_B_c.gif","right","","","","",""
"","null","html-keyboard-response","252","748049","0.0-47.0-0.5","SS1613079938994","","","null","","","","","<p><img src= images/blank.png width =""200"" height = ""200"" style = ""float:right""></p><p><img src=images/blank.png width =""800"" height = ""200""></p>","","","","","","","","","","","",""
"","612.9999999975553","sequential-stimulus-presentation","253","749476","0.0-47.0-1.5","SS1613079938994","trial","","40","800","1412.9999999975553","images/stimuli/spore_stims/complex_02_B_c.gif","images/stimuli/spore_stims/complex_08_A_d.gif","","","","","13","complex_dissimilar","images/stimuli/spore_stims/complex_08_A_d.gif","middle","","","","",""
"","null","html-keyboard-response","254","750578","0.0-47.0-0.6","SS1613079938994","","","null","","","","","<p><img src= images/blank.png width =""200"" height = ""200"" style = ""float:right""></p><p><img src=images/blank.png width =""800"" height = ""200""></p>","","","","","","","","","","","",""
"","420.00000000558794","sequential-stimulus-presentation","255","751810","0.0-47.0-1.6","SS1613079938994","trial","","40","800","1220.000000005588","images/stimuli/spore_stims/complex_02_B_c.gif","images/stimuli/spore_stims/complex_08_A_d.gif","","","","","13","complex_dissimilar","images/stimuli/spore_stims/complex_08_A_d.gif","middle","","","","",""
"","null","html-keyboard-response","256","753006","0.0-47.0-0.7","SS1613079938994","","","null","","","","","<p><img src= images/blank.png width =""200"" height = ""200"" style = ""float:right""></p><p><img src=images/blank.png width =""800"" height = ""200""></p>","","","","","","","","","","","",""
"","524.0000000048894","sequential-stimulus-presentation","257","754343","0.0-47.0-1.7","SS1613079938994","trial","","40","800","1324.0000000048894","images/stimuli/spore_stims/complex_02_B_c.gif","images/stimuli/spore_stims/complex_08_A_d.gif","","","","","13","complex_dissimilar","images/stimuli/spore_stims/complex_08_A_d.gif","middle","","","","",""
"","2632.000000005006","html-keyboard-response","258","757008","0.0-48.0","SS1613079938994","pref_question","","49","","","","","<video width ='960' height = '540' style='padding-top:8%' autoplay muted><source src='images/stimuli/wall_pref.mp4' type='video/mp4'></video>","1","left","25%","13","","","","","","","",""
"","1618.0000000023283","sequential-stimulus-presentation","259","759441","0.0-49.0","SS1613079938994","pref_reveal","","40","800","2418.0000000023283","null","null","","","","","13","","","","novel","","","",""
"","null","html-keyboard-response","260","760303","0.0-50.0-0.0","SS1613079938994","","","null","","","","","<p><img src= images/blank.png width =""200"" height = ""200"" style = ""float:right""></p><p><img src=images/blank.png width =""800"" height = ""200""></p>","","","","","","","","","","","",""
"","1633.0000000016298","sequential-stimulus-presentation","261","762747","0.0-50.0-1.0","SS1613079938994","trial","","40","800","2433.00000000163","images/stimuli/spore_stims/complex_17_A_d.gif","images/stimuli/spore_stims/complex_17_B_d.gif","","","","","14","complex_similar","images/stimuli/spore_stims/complex_17_B_d.gif","middle","","","","",""
"","null","html-keyboard-response","262","763622","0.0-50.0-0.1","SS1613079938994","","","null","","","","","<p><img src= images/blank.png width =""200"" height = ""200"" style = ""float:right""></p><p><img src=images/blank.png width =""800"" height = ""200""></p>","","","","","","","","","","","",""
"","79.00000000523869","sequential-stimulus-presentation","263","764525","0.0-50.0-1.1","SS1613079938994","trial","","40","800","879.0000000052387","images/stimuli/spore_stims/complex_17_A_d.gif","images/stimuli/spore_stims/complex_17_B_d.gif","","","","","14","complex_similar","images/stimuli/spore_stims/complex_17_B_d.gif","middle","","","","",""
"","null","html-keyboard-response","264","765355","0.0-50.0-0.2","SS1613079938994","","","null","","","","","<p><img src= images/blank.png width =""200"" height = ""200"" style = ""float:right""></p><p><img src=images/blank.png width =""800"" height = ""200""></p>","","","","","","","","","","","",""
"","413.9999999969732","sequential-stimulus-presentation","265","766582","0.0-50.0-1.2","SS1613079938994","trial","","40","800","1213.9999999969732","images/stimuli/spore_stims/complex_17_A_d.gif","images/stimuli/spore_stims/complex_17_B_d.gif","","","","","14","complex_similar","images/stimuli/spore_stims/complex_17_B_d.gif","middle","","","","",""
"","null","html-keyboard-response","266","767570","0.0-50.0-0.3","SS1613079938994","","","null","","","","","<p><img src= images/blank.png width =""200"" height = ""200"" style = ""float:right""></p><p><img src=images/blank.png width =""800"" height = ""200""></p>","","","","","","","","","","","",""
"","112.99999999743886","sequential-stimulus-presentation","267","768505","0.0-50.0-1.3","SS1613079938994","trial","","40","800","912.9999999974389","images/stimuli/spore_stims/complex_17_A_d.gif","images/stimuli/spore_stims/complex_17_B_d.gif","","","","","14","complex_similar","images/stimuli/spore_stims/complex_17_A_d.gif","right","","","","",""
"","null","html-keyboard-response","268","769564","0.0-50.0-0.4","SS1613079938994","","","null","","","","","<p><img src= images/blank.png width =""200"" height = ""200"" style = ""float:right""></p><p><img src=images/blank.png width =""800"" height = ""200""></p>","","","","","","","","","","","",""
"","487.00000000104774","sequential-stimulus-presentation","269","770865","0.0-50.0-1.4","SS1613079938994","trial","","40","800","1287.0000000010477","images/stimuli/spore_stims/complex_17_A_d.gif","images/stimuli/spore_stims/complex_17_B_d.gif","","","","","14","complex_similar","images/stimuli/spore_stims/complex_17_B_d.gif","middle","","","","",""
"","null","html-keyboard-response","270","771752","0.0-50.0-0.5","SS1613079938994","","","null","","","","","<p><img src= images/blank.png width =""200"" height = ""200"" style = ""float:right""></p><p><img src=images/blank.png width =""800"" height = ""200""></p>","","","","","","","","","","","",""
"","1356.9999999963911","sequential-stimulus-presentation","271","773921","0.0-50.0-1.5","SS1613079938994","trial","","40","800","2156.999999996391","images/stimuli/spore_stims/complex_17_A_d.gif","images/stimuli/spore_stims/complex_17_B_d.gif","","","","","14","complex_similar","images/stimuli/spore_stims/complex_17_B_d.gif","middle","","","","",""
"","null","html-keyboard-response","272","775130","0.0-50.0-0.6","SS1613079938994","","","null","","","","","<p><img src= images/blank.png width =""200"" height = ""200"" style = ""float:right""></p><p><img src=images/blank.png width =""800"" height = ""200""></p>","","","","","","","","","","","",""
"","408.0000000030268","sequential-stimulus-presentation","273","776359","0.0-50.0-1.6","SS1613079938994","trial","","40","800","1208.0000000030268","images/stimuli/spore_stims/complex_17_A_d.gif","images/stimuli/spore_stims/complex_17_B_d.gif","","","","","14","complex_similar","images/stimuli/spore_stims/complex_17_B_d.gif","middle","","","","",""
"","null","html-keyboard-response","274","777629","0.0-50.0-0.7","SS1613079938994","","","null","","","","","<p><img src= images/blank.png width =""200"" height = ""200"" style = ""float:right""></p><p><img src=images/blank.png width =""800"" height = ""200""></p>","","","","","","","","","","","",""
"","360.9999999970896","sequential-stimulus-presentation","275","778802","0.0-50.0-1.7","SS1613079938994","trial","","40","800","1160.9999999970896","images/stimuli/spore_stims/complex_17_A_d.gif","images/stimuli/spore_stims/complex_17_B_d.gif","","","","","14","complex_similar","images/stimuli/spore_stims/complex_17_B_d.gif","middle","","","","",""
"","2359.0000000040745","html-keyboard-response","276","781172","0.0-51.0","SS1613079938994","pref_question","","50","","","","","<video width ='960' height = '540' style='padding-top:8%' autoplay muted><source src='images/stimuli/wall_pref.mp4' type='video/mp4'></video>","2","middle","45%","14","","","","","","","",""
"","616.0000000018626","sequential-stimulus-presentation","277","782613","0.0-52.0","SS1613079938994","pref_reveal","","40","800","1416.0000000018626","null","null","","","","","14","","","","background","","","",""
"","null","html-keyboard-response","278","783633","0.0-53.0-0.0","SS1613079938994","","","null","","","","","<p><img src= images/blank.png width =""200"" height = ""200"" style = ""float:right""></p><p><img src=images/blank.png width =""800"" height = ""200""></p>","","","","","","","","","","","",""
"","425.99999999953434","sequential-stimulus-presentation","279","784872","0.0-53.0-1.0","SS1613079938994","trial","","40","800","1225.9999999995343","images/stimuli/spore_stims/simple_18_A_c.gif","images/stimuli/spore_stims/simple_11_A_d.gif","","","","","15","simple_dissimilar","images/stimuli/spore_stims/simple_11_A_d.gif","left","","","","",""
"","null","html-keyboard-response","280","785745","0.0-53.0-0.1","SS1613079938994","","","null","","","","","<p><img src= images/blank.png width =""200"" height = ""200"" style = ""float:right""></p><p><img src=images/blank.png width =""800"" height = ""200""></p>","","","","","","","","","","","",""
"","739.000000001397","sequential-stimulus-presentation","281","787297","0.0-53.0-1.1","SS1613079938994","trial","","40","800","1539.000000001397","images/stimuli/spore_stims/simple_18_A_c.gif","images/stimuli/spore_stims/simple_11_A_d.gif","","","","","15","simple_dissimilar","images/stimuli/spore_stims/simple_11_A_d.gif","left","","","","",""
"","null","html-keyboard-response","282","788247","0.0-53.0-0.2","SS1613079938994","","","null","","","","","<p><img src= images/blank.png width =""200"" height = ""200"" style = ""float:right""></p><p><img src=images/blank.png width =""800"" height = ""200""></p>","","","","","","","","","","","",""
"","627.0000000003492","sequential-stimulus-presentation","283","789694","0.0-53.0-1.2","SS1613079938994","trial","","40","800","1427.0000000003492","images/stimuli/spore_stims/simple_18_A_c.gif","images/stimuli/spore_stims/simple_11_A_d.gif","","","","","15","simple_dissimilar","images/stimuli/spore_stims/simple_11_A_d.gif","left","","","","",""
"","null","html-keyboard-response","284","790906","0.0-53.0-0.3","SS1613079938994","","","null","","","","","<p><img src= images/blank.png width =""200"" height = ""200"" style = ""float:right""></p><p><img src=images/blank.png width =""800"" height = ""200""></p>","","","","","","","","","","","",""
"","35.00000000349246","sequential-stimulus-presentation","285","791753","0.0-53.0-1.3","SS1613079938994","trial","","40","800","835.0000000034925","images/stimuli/spore_stims/simple_18_A_c.gif","images/stimuli/spore_stims/simple_11_A_d.gif","","","","","15","simple_dissimilar","images/stimuli/spore_stims/simple_11_A_d.gif","left","","","","",""
"","null","html-keyboard-response","286","792579","0.0-53.0-0.4","SS1613079938994","","","null","","","","","<p><img src= images/blank.png width =""200"" height = ""200"" style = ""float:right""></p><p><img src=images/blank.png width =""800"" height = ""200""></p>","","","","","","","","","","","",""
"","1237.9999999974389","sequential-stimulus-presentation","287","794631","0.0-53.0-1.4","SS1613079938994","trial","","40","800","2037.9999999974389","images/stimuli/spore_stims/simple_18_A_c.gif","images/stimuli/spore_stims/simple_11_A_d.gif","","","","","15","simple_dissimilar","images/stimuli/spore_stims/simple_11_A_d.gif","left","","","","",""
"","null","html-keyboard-response","288","795643","0.0-53.0-0.5","SS1613079938994","","","null","","","","","<p><img src= images/blank.png width =""200"" height = ""200"" style = ""float:right""></p><p><img src=images/blank.png width =""800"" height = ""200""></p>","","","","","","","","","","","",""
"","1564.9999999951106","sequential-stimulus-presentation","289","798038","0.0-53.0-1.5","SS1613079938994","trial","","40","800","2364.9999999951106","images/stimuli/spore_stims/simple_18_A_c.gif","images/stimuli/spore_stims/simple_11_A_d.gif","","","","","15","simple_dissimilar","images/stimuli/spore_stims/simple_11_A_d.gif","left","","","","",""
"","null","html-keyboard-response","290","798927","0.0-53.0-0.6","SS1613079938994","","","null","","","","","<p><img src= images/blank.png width =""200"" height = ""200"" style = ""float:right""></p><p><img src=images/blank.png width =""800"" height = ""200""></p>","","","","","","","","","","","",""
"","1383.9999999981374","sequential-stimulus-presentation","291","801127","0.0-53.0-1.6","SS1613079938994","trial","","40","800","2183.9999999981374","images/stimuli/spore_stims/simple_18_A_c.gif","images/stimuli/spore_stims/simple_11_A_d.gif","","","","","15","simple_dissimilar","images/stimuli/spore_stims/simple_11_A_d.gif","left","","","","",""
"","null","html-keyboard-response","292","802126","0.0-53.0-0.7","SS1613079938994","","","null","","","","","<p><img src= images/blank.png width =""200"" height = ""200"" style = ""float:right""></p><p><img src=images/blank.png width =""800"" height = ""200""></p>","","","","","","","","","","","",""
"","411","sequential-stimulus-presentation","293","803356","0.0-53.0-1.7","SS1613079938994","trial","","40","800","1211","images/stimuli/spore_stims/simple_18_A_c.gif","images/stimuli/spore_stims/simple_11_A_d.gif","","","","","15","simple_dissimilar","images/stimuli/spore_stims/simple_18_A_c.gif","right","","","","",""
"","2174.9999999956926","html-keyboard-response","294","805542","0.0-54.0","SS1613079938994","pref_question","","50","","","","","<video width ='960' height = '540' style='padding-top:8%' autoplay muted><source src='images/stimuli/wall_pref.mp4' type='video/mp4'></video>","2","middle","45%","15","","","","","","","",""
"","1025.000000001397","sequential-stimulus-presentation","295","807381","0.0-55.0","SS1613079938994","pref_reveal","","40","800","1825.000000001397","null","null","","","","","15","","","","novel","","","",""
"","null","html-keyboard-response","296","808596","0.0-56.0-0.0","SS1613079938994","","","null","","","","","<p><img src= images/blank.png width =""200"" height = ""200"" style = ""float:right""></p><p><img src=images/blank.png width =""800"" height = ""200""></p>","","","","","","","","","","","",""
"","988.9999999941792","sequential-stimulus-presentation","297","810406","0.0-56.0-1.0","SS1613079938994","trial","","40","800","1788.9999999941792","images/stimuli/spore_stims/complex_01_B_b.gif","images/stimuli/spore_stims/complex_04_B_c.gif","","","","","16","complex_dissimilar","images/stimuli/spore_stims/complex_04_B_c.gif","right","","","","",""
"","null","html-keyboard-response","298","811487","0.0-56.0-0.1","SS1613079938994","","","null","","","","","<p><img src= images/blank.png width =""200"" height = ""200"" style = ""float:right""></p><p><img src=images/blank.png width =""800"" height = ""200""></p>","","","","","","","","","","","",""
"","902.9999999983702","sequential-stimulus-presentation","299","813218","0.0-56.0-1.1","SS1613079938994","trial","","40","800","1702.9999999983702","images/stimuli/spore_stims/complex_01_B_b.gif","images/stimuli/spore_stims/complex_04_B_c.gif","","","","","16","complex_dissimilar","images/stimuli/spore_stims/complex_04_B_c.gif","right","","","","",""
"","null","html-keyboard-response","300","814081","0.0-56.0-0.2","SS1613079938994","","","null","","","","","<p><img src= images/blank.png width =""200"" height = ""200"" style = ""float:right""></p><p><img src=images/blank.png width =""800"" height = ""200""></p>","","","","","","","","","","","",""
"","351.99999999895226","sequential-stimulus-presentation","301","815245","0.0-56.0-1.2","SS1613079938994","trial","","40","800","1151.9999999989523","images/stimuli/spore_stims/complex_01_B_b.gif","images/stimuli/spore_stims/complex_04_B_c.gif","","","","","16","complex_dissimilar","images/stimuli/spore_stims/complex_04_B_c.gif","right","","","","",""
"","null","html-keyboard-response","302","816256","0.0-56.0-0.3","SS1613079938994","","","null","","","","","<p><img src= images/blank.png width =""200"" height = ""200"" style = ""float:right""></p><p><img src=images/blank.png width =""800"" height = ""200""></p>","","","","","","","","","","","",""
"","368.99999999871943","sequential-stimulus-presentation","303","817437","0.0-56.0-1.3","SS1613079938994","trial","","40","800","1168.9999999987194","images/stimuli/spore_stims/complex_01_B_b.gif","images/stimuli/spore_stims/complex_04_B_c.gif","","","","","16","complex_dissimilar","images/stimuli/spore_stims/complex_04_B_c.gif","right","","","","",""
"","null","html-keyboard-response","304","818567","0.0-56.0-0.4","SS1613079938994","","","null","","","","","<p><img src= images/blank.png width =""200"" height = ""200"" style = ""float:right""></p><p><img src=images/blank.png width =""800"" height = ""200""></p>","","","","","","","","","","","",""
"","392.9999999962747","sequential-stimulus-presentation","305","819793","0.0-56.0-1.4","SS1613079938994","trial","","40","800","1192.9999999962747","images/stimuli/spore_stims/complex_01_B_b.gif","images/stimuli/spore_stims/complex_04_B_c.gif","","","","","16","complex_dissimilar","images/stimuli/spore_stims/complex_04_B_c.gif","right","","","","",""
"","null","html-keyboard-response","306","820611","0.0-56.0-0.5","SS1613079938994","","","null","","","","","<p><img src= images/blank.png width =""200"" height = ""200"" style = ""float:right""></p><p><img src=images/blank.png width =""800"" height = ""200""></p>","","","","","","","","","","","",""
"","381.00000000116415","sequential-stimulus-presentation","307","821804","0.0-56.0-1.5","SS1613079938994","trial","","40","800","1181.0000000011642","images/stimuli/spore_stims/complex_01_B_b.gif","images/stimuli/spore_stims/complex_04_B_c.gif","","","","","16","complex_dissimilar","images/stimuli/spore_stims/complex_04_B_c.gif","right","","","","",""
"","null","html-keyboard-response","308","822653","0.0-56.0-0.6","SS1613079938994","","","null","","","","","<p><img src= images/blank.png width =""200"" height = ""200"" style = ""float:right""></p><p><img src=images/blank.png width =""800"" height = ""200""></p>","","","","","","","","","","","",""
"","476.0000000024447","sequential-stimulus-presentation","309","823953","0.0-56.0-1.6","SS1613079938994","trial","","40","800","1276.0000000024447","images/stimuli/spore_stims/complex_01_B_b.gif","images/stimuli/spore_stims/complex_04_B_c.gif","","","","","16","complex_dissimilar","images/stimuli/spore_stims/complex_01_B_b.gif","left","","","","",""
"","null","html-keyboard-response","310","825193","0.0-56.0-0.7","SS1613079938994","","","null","","","","","<p><img src= images/blank.png width =""200"" height = ""200"" style = ""float:right""></p><p><img src=images/blank.png width =""800"" height = ""200""></p>","","","","","","","","","","","",""
"","527.9999999984866","sequential-stimulus-presentation","311","826550","0.0-56.0-1.7","SS1613079938994","trial","","40","800","1327.9999999984866","images/stimuli/spore_stims/complex_01_B_b.gif","images/stimuli/spore_stims/complex_04_B_c.gif","","","","","16","complex_dissimilar","images/stimuli/spore_stims/complex_04_B_c.gif","right","","","","",""
"","4423.999999999069","html-keyboard-response","312","830985","0.0-57.0","SS1613079938994","pref_question","","50","","","","","<video width ='960' height = '540' style='padding-top:8%' autoplay muted><source src='images/stimuli/wall_pref.mp4' type='video/mp4'></video>","2","middle","45%","16","","","","","","","",""
