"view_history","rt","trial_type","trial_index","time_elapsed","internal_node_id","subject","stimulus_type","trial_stimulus","key_press","minimum_viewing_duration","trial_looking_time","block_deviant","block_background","stimulus","wall_pref","location","location_percent","block_number","block_type","stimulus_displayed","position_displayed","stim_type_selected","responses","question_order","stimulus_left","stimulus_right"
"[{""page_index"":0,""viewing_time"":2304.6899999899324}]","2304.94999999064","instructions","0","2308","0.0-0.0","SS1613080649112","","","","","","","","","","","","","","","","","","","",""
"[{""page_index"":0,""viewing_time"":11573.999999993248},{""page_index"":1,""viewing_time"":5648.065000015777}]","17222.29000000516","instructions","1","21539","0.0-1.0","SS1613080649112","instructions","","","","","","","","","","","","","","","","","","",""
"","4438.509999978123","sequential-stimulus-presentation","2","26781","0.0-2.0","SS1613080649112","","","40","800","5238.509999978123","null","null","","","","","","","","","","","","",""
"","1769.174999993993","sequential-stimulus-presentation","3","29365","0.0-3.0","SS1613080649112","","","40","800","2569.174999993993","null","null","","","","","","","","","","","","",""
"[{""page_index"":0,""viewing_time"":3452.2050000086892}]","3452.420000015991","instructions","4","32818","0.0-4.0","SS1613080649112","instructions","","","","","","","","","","","","","","","","","","",""
"","10185.479999985546","html-keyboard-response","5","43006","0.0-5.0","SS1613080649112","instructions","","50","","","","","<video width ='960' height = '540' autoplay muted><source src='images/stimuli/wall_pref.mp4' type='video/mp4'></video>","2","middle","45%","","","","","","","","",""
"","1365.0649999908637","sequential-stimulus-presentation","6","45178","0.0-6.0","SS1613080649112","pref_reveal","","40","800","2165.0649999908637","null","null","","","","","","","","","","","","",""
"[{""page_index"":0,""viewing_time"":6599.454999988666},{""page_index"":1,""viewing_time"":4208.075000002282},{""page_index"":2,""viewing_time"":1824.01499999105},{""page_index"":3,""viewing_time"":968.4000000124797}]","13600.5099999893","instructions","7","58779","0.0-7.0","SS1613080649112","instructions","","","","","","","","","","","","","","","","","","",""
"","null","html-keyboard-response","8","59599","0.0-8.0-0.0","SS1613080649112","","","null","","","","","<p><img src= images/blank.png width =""200"" height = ""200"" style = ""float:right""></p><p><img src=images/blank.png width =""800"" height = ""200""></p>","","","","","","","","","","","",""
"","1300.3549999848474","sequential-stimulus-presentation","9","61712","0.0-8.0-1.0","SS1613080649112","trial","","40","800","2100.3549999848474","images/stimuli/spore_stims/simple_14_B_b.gif","images/stimuli/spore_stims/simple_14_A_b.gif","","","","","0","simple_similar","images/stimuli/spore_stims/simple_14_A_b.gif","middle","","","","",""
"","null","html-keyboard-response","10","62796","0.0-8.0-0.1","SS1613080649112","","","null","","","","","<p><img src= images/blank.png width =""200"" height = ""200"" style = ""float:right""></p><p><img src=images/blank.png width =""800"" height = ""200""></p>","","","","","","","","","","","",""
"","793.839999998454","sequential-stimulus-presentation","11","64394","0.0-8.0-1.1","SS1613080649112","trial","","40","800","1593.839999998454","images/stimuli/spore_stims/simple_14_B_b.gif","images/stimuli/spore_stims/simple_14_A_b.gif","","","","","0","simple_similar","images/stimuli/spore_stims/simple_14_A_b.gif","middle","","","","",""
"","null","html-keyboard-response","12","65513","0.0-8.0-0.2","SS1613080649112","","","null","","","","","<p><img src= images/blank.png width =""200"" height = ""200"" style = ""float:right""></p><p><img src=images/blank.png width =""800"" height = ""200""></p>","","","","","","","","","","","",""
"","706.7999999853782","sequential-stimulus-presentation","13","67033","0.0-8.0-1.2","SS1613080649112","trial","","40","800","1506.7999999853782","images/stimuli/spore_stims/simple_14_B_b.gif","images/stimuli/spore_stims/simple_14_A_b.gif","","","","","0","simple_similar","images/stimuli/spore_stims/simple_14_A_b.gif","middle","","","","",""
"","null","html-keyboard-response","14","67852","0.0-8.0-0.3","SS1613080649112","","","null","","","","","<p><img src= images/blank.png width =""200"" height = ""200"" style = ""float:right""></p><p><img src=images/blank.png width =""800"" height = ""200""></p>","","","","","","","","","","","",""
"","912.3899999831337","sequential-stimulus-presentation","15","69573","0.0-8.0-1.3","SS1613080649112","trial","","40","800","1712.3899999831337","images/stimuli/spore_stims/simple_14_B_b.gif","images/stimuli/spore_stims/simple_14_A_b.gif","","","","","0","simple_similar","images/stimuli/spore_stims/simple_14_A_b.gif","middle","","","","",""
"","null","html-keyboard-response","16","70654","0.0-8.0-0.4","SS1613080649112","","","null","","","","","<p><img src= images/blank.png width =""200"" height = ""200"" style = ""float:right""></p><p><img src=images/blank.png width =""800"" height = ""200""></p>","","","","","","","","","","","",""
"","555.5349999922328","sequential-stimulus-presentation","17","72013","0.0-8.0-1.4","SS1613080649112","trial","","40","800","1355.5349999922328","images/stimuli/spore_stims/simple_14_B_b.gif","images/stimuli/spore_stims/simple_14_A_b.gif","","","","","0","simple_similar","images/stimuli/spore_stims/simple_14_A_b.gif","middle","","","","",""
"","null","html-keyboard-response","18","73062","0.0-8.0-0.5","SS1613080649112","","","null","","","","","<p><img src= images/blank.png width =""200"" height = ""200"" style = ""float:right""></p><p><img src=images/blank.png width =""800"" height = ""200""></p>","","","","","","","","","","","",""
"","488.52500002249144","sequential-stimulus-presentation","19","74364","0.0-8.0-1.5","SS1613080649112","trial","","40","800","1288.5250000224914","images/stimuli/spore_stims/simple_14_B_b.gif","images/stimuli/spore_stims/simple_14_A_b.gif","","","","","0","simple_similar","images/stimuli/spore_stims/simple_14_A_b.gif","middle","","","","",""
"","null","html-keyboard-response","20","75459","0.0-8.0-0.6","SS1613080649112","","","null","","","","","<p><img src= images/blank.png width =""200"" height = ""200"" style = ""float:right""></p><p><img src=images/blank.png width =""800"" height = ""200""></p>","","","","","","","","","","","",""
"","3609.99999998603","sequential-stimulus-presentation","21","79884","0.0-8.0-1.6","SS1613080649112","trial","","40","800","4409.99999998603","images/stimuli/spore_stims/simple_14_B_b.gif","images/stimuli/spore_stims/simple_14_A_b.gif","","","","","0","simple_similar","images/stimuli/spore_stims/simple_14_A_b.gif","middle","","","","",""
"","null","html-keyboard-response","22","80983","0.0-8.0-0.7","SS1613080649112","","","null","","","","","<p><img src= images/blank.png width =""200"" height = ""200"" style = ""float:right""></p><p><img src=images/blank.png width =""800"" height = ""200""></p>","","","","","","","","","","","",""
"","1580.695000011474","sequential-stimulus-presentation","23","83381","0.0-8.0-1.7","SS1613080649112","trial","","40","800","2380.695000011474","images/stimuli/spore_stims/simple_14_B_b.gif","images/stimuli/spore_stims/simple_14_A_b.gif","","","","","0","simple_similar","images/stimuli/spore_stims/simple_14_B_b.gif","right","","","","",""
"","2056.4350000058766","html-keyboard-response","24","85441","0.0-9.0","SS1613080649112","pref_question","","49","","","","","<video width ='960' height = '540' style='padding-top:8%' autoplay muted><source src='images/stimuli/wall_pref.mp4' type='video/mp4'></video>","1","left","25%","0","","","","","","","",""
"","1148.589999997057","sequential-stimulus-presentation","25","87396","0.0-10.0","SS1613080649112","pref_reveal","","40","800","1948.589999997057","null","null","","","","","0","","","","novel","","","",""
"","null","html-keyboard-response","26","88410","0.0-11.0-0.0","SS1613080649112","","","null","","","","","<p><img src= images/blank.png width =""200"" height = ""200"" style = ""float:right""></p><p><img src=images/blank.png width =""800"" height = ""200""></p>","","","","","","","","","","","",""
"","1279.1300000099","sequential-stimulus-presentation","27","90503","0.0-11.0-1.0","SS1613080649112","trial","","40","800","2079.1300000099","images/stimuli/spore_stims/complex_13_B_a.gif","images/stimuli/spore_stims/complex_20_A_b.gif","","","","","1","complex_dissimilar","images/stimuli/spore_stims/complex_20_A_b.gif","left","","","","",""
"","null","html-keyboard-response","28","91341","0.0-11.0-0.1","SS1613080649112","","","null","","","","","<p><img src= images/blank.png width =""200"" height = ""200"" style = ""float:right""></p><p><img src=images/blank.png width =""800"" height = ""200""></p>","","","","","","","","","","","",""
"","829.1949999984354","sequential-stimulus-presentation","29","92986","0.0-11.0-1.1","SS1613080649112","trial","","40","800","1629.1949999984354","images/stimuli/spore_stims/complex_13_B_a.gif","images/stimuli/spore_stims/complex_20_A_b.gif","","","","","1","complex_dissimilar","images/stimuli/spore_stims/complex_20_A_b.gif","left","","","","",""
"","null","html-keyboard-response","30","94296","0.0-11.0-0.2","SS1613080649112","","","null","","","","","<p><img src= images/blank.png width =""200"" height = ""200"" style = ""float:right""></p><p><img src=images/blank.png width =""800"" height = ""200""></p>","","","","","","","","","","","",""
"","642.3050000157673","sequential-stimulus-presentation","31","95755","0.0-11.0-1.2","SS1613080649112","trial","","40","800","1442.3050000157673","images/stimuli/spore_stims/complex_13_B_a.gif","images/stimuli/spore_stims/complex_20_A_b.gif","","","","","1","complex_dissimilar","images/stimuli/spore_stims/complex_20_A_b.gif","left","","","","",""
"","null","html-keyboard-response","32","96721","0.0-11.0-0.3","SS1613080649112","","","null","","","","","<p><img src= images/blank.png width =""200"" height = ""200"" style = ""float:right""></p><p><img src=images/blank.png width =""800"" height = ""200""></p>","","","","","","","","","","","",""
"","406.76000001258217","sequential-stimulus-presentation","33","97932","0.0-11.0-1.3","SS1613080649112","trial","","40","800","1206.7600000125822","images/stimuli/spore_stims/complex_13_B_a.gif","images/stimuli/spore_stims/complex_20_A_b.gif","","","","","1","complex_dissimilar","images/stimuli/spore_stims/complex_20_A_b.gif","left","","","","",""
"","null","html-keyboard-response","34","98798","0.0-11.0-0.4","SS1613080649112","","","null","","","","","<p><img src= images/blank.png width =""200"" height = ""200"" style = ""float:right""></p><p><img src=images/blank.png width =""800"" height = ""200""></p>","","","","","","","","","","","",""
"","367.12499998975545","sequential-stimulus-presentation","35","99985","0.0-11.0-1.4","SS1613080649112","trial","","40","800","1167.1249999897555","images/stimuli/spore_stims/complex_13_B_a.gif","images/stimuli/spore_stims/complex_20_A_b.gif","","","","","1","complex_dissimilar","images/stimuli/spore_stims/complex_20_A_b.gif","left","","","","",""
"","null","html-keyboard-response","36","101068","0.0-11.0-0.5","SS1613080649112","","","null","","","","","<p><img src= images/blank.png width =""200"" height = ""200"" style = ""float:right""></p><p><img src=images/blank.png width =""800"" height = ""200""></p>","","","","","","","","","","","",""
"","448.8299999793526","sequential-stimulus-presentation","37","102334","0.0-11.0-1.5","SS1613080649112","trial","","40","800","1248.8299999793526","images/stimuli/spore_stims/complex_13_B_a.gif","images/stimuli/spore_stims/complex_20_A_b.gif","","","","","1","complex_dissimilar","images/stimuli/spore_stims/complex_20_A_b.gif","left","","","","",""
"","null","html-keyboard-response","38","103344","0.0-11.0-0.6","SS1613080649112","","","null","","","","","<p><img src= images/blank.png width =""200"" height = ""200"" style = ""float:right""></p><p><img src=images/blank.png width =""800"" height = ""200""></p>","","","","","","","","","","","",""
"","456.5700000093784","sequential-stimulus-presentation","39","104611","0.0-11.0-1.6","SS1613080649112","trial","","40","800","1256.5700000093784","images/stimuli/spore_stims/complex_13_B_a.gif","images/stimuli/spore_stims/complex_20_A_b.gif","","","","","1","complex_dissimilar","images/stimuli/spore_stims/complex_13_B_a.gif","middle","","","","",""
"","null","html-keyboard-response","40","105687","0.0-11.0-0.7","SS1613080649112","","","null","","","","","<p><img src= images/blank.png width =""200"" height = ""200"" style = ""float:right""></p><p><img src=images/blank.png width =""800"" height = ""200""></p>","","","","","","","","","","","",""
"","362.54999999073334","sequential-stimulus-presentation","41","106860","0.0-11.0-1.7","SS1613080649112","trial","","40","800","1162.5499999907333","images/stimuli/spore_stims/complex_13_B_a.gif","images/stimuli/spore_stims/complex_20_A_b.gif","","","","","1","complex_dissimilar","images/stimuli/spore_stims/complex_20_A_b.gif","left","","","","",""
"","1774.4600000150967","html-keyboard-response","42","108638","0.0-12.0","SS1613080649112","pref_question","","51","","","","","<video width ='960' height = '540' style='padding-top:8%' autoplay muted><source src='images/stimuli/wall_pref.mp4' type='video/mp4'></video>","3","right","66%","1","","","","","","","",""
"","718.4649999835528","sequential-stimulus-presentation","43","110163","0.0-13.0","SS1613080649112","pref_reveal","","40","800","1518.4649999835528","null","null","","","","","1","","","","novel","","","",""
"","null","html-keyboard-response","44","111403","0.0-14.0-0.0","SS1613080649112","","","null","","","","","<p><img src= images/blank.png width =""200"" height = ""200"" style = ""float:right""></p><p><img src=images/blank.png width =""800"" height = ""200""></p>","","","","","","","","","","","",""
"","695.2549999987241","sequential-stimulus-presentation","45","112910","0.0-14.0-1.0","SS1613080649112","trial","","40","800","1495.254999998724","images/stimuli/spore_stims/simple_10_A_a.gif","images/stimuli/spore_stims/simple_10_B_a.gif","","","","","2","simple_similar","images/stimuli/spore_stims/simple_10_B_a.gif","right","","","","",""
"","null","html-keyboard-response","46","113889","0.0-14.0-0.1","SS1613080649112","","","null","","","","","<p><img src= images/blank.png width =""200"" height = ""200"" style = ""float:right""></p><p><img src=images/blank.png width =""800"" height = ""200""></p>","","","","","","","","","","","",""
"","342.98499999567866","sequential-stimulus-presentation","47","115043","0.0-14.0-1.1","SS1613080649112","trial","","40","800","1142.9849999956787","images/stimuli/spore_stims/simple_10_A_a.gif","images/stimuli/spore_stims/simple_10_B_a.gif","","","","","2","simple_similar","images/stimuli/spore_stims/simple_10_B_a.gif","right","","","","",""
"","null","html-keyboard-response","48","115898","0.0-14.0-0.2","SS1613080649112","","","null","","","","","<p><img src= images/blank.png width =""200"" height = ""200"" style = ""float:right""></p><p><img src=images/blank.png width =""800"" height = ""200""></p>","","","","","","","","","","","",""
"","307.60500000906177","sequential-stimulus-presentation","49","117024","0.0-14.0-1.2","SS1613080649112","trial","","40","800","1107.6050000090618","images/stimuli/spore_stims/simple_10_A_a.gif","images/stimuli/spore_stims/simple_10_B_a.gif","","","","","2","simple_similar","images/stimuli/spore_stims/simple_10_B_a.gif","right","","","","",""
"","null","html-keyboard-response","50","117867","0.0-14.0-0.3","SS1613080649112","","","null","","","","","<p><img src= images/blank.png width =""200"" height = ""200"" style = ""float:right""></p><p><img src=images/blank.png width =""800"" height = ""200""></p>","","","","","","","","","","","",""
"","303.2649999950081","sequential-stimulus-presentation","51","118991","0.0-14.0-1.3","SS1613080649112","trial","","40","800","1103.264999995008","images/stimuli/spore_stims/simple_10_A_a.gif","images/stimuli/spore_stims/simple_10_B_a.gif","","","","","2","simple_similar","images/stimuli/spore_stims/simple_10_B_a.gif","right","","","","",""
"","null","html-keyboard-response","52","119962","0.0-14.0-0.4","SS1613080649112","","","null","","","","","<p><img src= images/blank.png width =""200"" height = ""200"" style = ""float:right""></p><p><img src=images/blank.png width =""800"" height = ""200""></p>","","","","","","","","","","","",""
"","314.4299999985378","sequential-stimulus-presentation","53","121087","0.0-14.0-1.4","SS1613080649112","trial","","40","800","1114.4299999985378","images/stimuli/spore_stims/simple_10_A_a.gif","images/stimuli/spore_stims/simple_10_B_a.gif","","","","","2","simple_similar","images/stimuli/spore_stims/simple_10_B_a.gif","right","","","","",""
"","null","html-keyboard-response","54","122327","0.0-14.0-0.5","SS1613080649112","","","null","","","","","<p><img src= images/blank.png width =""200"" height = ""200"" style = ""float:right""></p><p><img src=images/blank.png width =""800"" height = ""200""></p>","","","","","","","","","","","",""
"","313.88000000151806","sequential-stimulus-presentation","55","123455","0.0-14.0-1.5","SS1613080649112","trial","","40","800","1113.880000001518","images/stimuli/spore_stims/simple_10_A_a.gif","images/stimuli/spore_stims/simple_10_B_a.gif","","","","","2","simple_similar","images/stimuli/spore_stims/simple_10_B_a.gif","right","","","","",""
"","null","html-keyboard-response","56","124355","0.0-14.0-0.6","SS1613080649112","","","null","","","","","<p><img src= images/blank.png width =""200"" height = ""200"" style = ""float:right""></p><p><img src=images/blank.png width =""800"" height = ""200""></p>","","","","","","","","","","","",""
"","317.06500001018867","sequential-stimulus-presentation","57","125482","0.0-14.0-1.6","SS1613080649112","trial","","40","800","1117.0650000101887","images/stimuli/spore_stims/simple_10_A_a.gif","images/stimuli/spore_stims/simple_10_B_a.gif","","","","","2","simple_similar","images/stimuli/spore_stims/simple_10_A_a.gif","middle","","","","",""
"","null","html-keyboard-response","58","126436","0.0-14.0-0.7","SS1613080649112","","","null","","","","","<p><img src= images/blank.png width =""200"" height = ""200"" style = ""float:right""></p><p><img src=images/blank.png width =""800"" height = ""200""></p>","","","","","","","","","","","",""
"","438.43000000924803","sequential-stimulus-presentation","59","127680","0.0-14.0-1.7","SS1613080649112","trial","","40","800","1238.430000009248","images/stimuli/spore_stims/simple_10_A_a.gif","images/stimuli/spore_stims/simple_10_B_a.gif","","","","","2","simple_similar","images/stimuli/spore_stims/simple_10_B_a.gif","right","","","","",""
"","1530.2450000017416","html-keyboard-response","60","129213","0.0-15.0","SS1613080649112","pref_question","","49","","","","","<video width ='960' height = '540' style='padding-top:8%' autoplay muted><source src='images/stimuli/wall_pref.mp4' type='video/mp4'></video>","1","left","25%","2","","","","","","","",""
"","877.8049999964423","sequential-stimulus-presentation","61","130908","0.0-16.0","SS1613080649112","pref_reveal","","40","800","1677.8049999964423","null","null","","","","","2","","","","novel","","","",""
"","null","html-keyboard-response","62","132156","0.0-17.0-0.0","SS1613080649112","","","null","","","","","<p><img src= images/blank.png width =""200"" height = ""200"" style = ""float:right""></p><p><img src=images/blank.png width =""800"" height = ""200""></p>","","","","","","","","","","","",""
"","401.7900000035297","sequential-stimulus-presentation","63","133369","0.0-17.0-1.0","SS1613080649112","trial","","40","800","1201.7900000035297","images/stimuli/spore_stims/simple_11_A_d.gif","images/stimuli/spore_stims/simple_07_B_b.gif","","","","","3","simple_dissimilar","images/stimuli/spore_stims/simple_07_B_b.gif","right","","","","",""
"","null","html-keyboard-response","64","134248","0.0-17.0-0.1","SS1613080649112","","","null","","","","","<p><img src= images/blank.png width =""200"" height = ""200"" style = ""float:right""></p><p><img src=images/blank.png width =""800"" height = ""200""></p>","","","","","","","","","","","",""
"","380.105000018375","sequential-stimulus-presentation","65","135439","0.0-17.0-1.1","SS1613080649112","trial","","40","800","1180.105000018375","images/stimuli/spore_stims/simple_11_A_d.gif","images/stimuli/spore_stims/simple_07_B_b.gif","","","","","3","simple_dissimilar","images/stimuli/spore_stims/simple_07_B_b.gif","right","","","","",""
"","null","html-keyboard-response","66","136662","0.0-17.0-0.2","SS1613080649112","","","null","","","","","<p><img src= images/blank.png width =""200"" height = ""200"" style = ""float:right""></p><p><img src=images/blank.png width =""800"" height = ""200""></p>","","","","","","","","","","","",""
"","430.2650000026915","sequential-stimulus-presentation","67","137903","0.0-17.0-1.2","SS1613080649112","trial","","40","800","1230.2650000026915","images/stimuli/spore_stims/simple_11_A_d.gif","images/stimuli/spore_stims/simple_07_B_b.gif","","","","","3","simple_dissimilar","images/stimuli/spore_stims/simple_07_B_b.gif","right","","","","",""
"","null","html-keyboard-response","68","138896","0.0-17.0-0.3","SS1613080649112","","","null","","","","","<p><img src= images/blank.png width =""200"" height = ""200"" style = ""float:right""></p><p><img src=images/blank.png width =""800"" height = ""200""></p>","","","","","","","","","","","",""
"","373.69000000762753","sequential-stimulus-presentation","69","140081","0.0-17.0-1.3","SS1613080649112","trial","","40","800","1173.6900000076275","images/stimuli/spore_stims/simple_11_A_d.gif","images/stimuli/spore_stims/simple_07_B_b.gif","","","","","3","simple_dissimilar","images/stimuli/spore_stims/simple_07_B_b.gif","right","","","","",""
"","null","html-keyboard-response","70","141127","0.0-17.0-0.4","SS1613080649112","","","null","","","","","<p><img src= images/blank.png width =""200"" height = ""200"" style = ""float:right""></p><p><img src=images/blank.png width =""800"" height = ""200""></p>","","","","","","","","","","","",""
"","428.5749999980908","sequential-stimulus-presentation","71","142373","0.0-17.0-1.4","SS1613080649112","trial","","40","800","1228.5749999980908","images/stimuli/spore_stims/simple_11_A_d.gif","images/stimuli/spore_stims/simple_07_B_b.gif","","","","","3","simple_dissimilar","images/stimuli/spore_stims/simple_07_B_b.gif","right","","","","",""
"","null","html-keyboard-response","72","143398","0.0-17.0-0.5","SS1613080649112","","","null","","","","","<p><img src= images/blank.png width =""200"" height = ""200"" style = ""float:right""></p><p><img src=images/blank.png width =""800"" height = ""200""></p>","","","","","","","","","","","",""
"","322.02500000130385","sequential-stimulus-presentation","73","144530","0.0-17.0-1.5","SS1613080649112","trial","","40","800","1122.0250000013039","images/stimuli/spore_stims/simple_11_A_d.gif","images/stimuli/spore_stims/simple_07_B_b.gif","","","","","3","simple_dissimilar","images/stimuli/spore_stims/simple_07_B_b.gif","right","","","","",""
"","null","html-keyboard-response","74","145597","0.0-17.0-0.6","SS1613080649112","","","null","","","","","<p><img src= images/blank.png width =""200"" height = ""200"" style = ""float:right""></p><p><img src=images/blank.png width =""800"" height = ""200""></p>","","","","","","","","","","","",""
"","278.6249999771826","sequential-stimulus-presentation","75","146683","0.0-17.0-1.6","SS1613080649112","trial","","40","800","1078.6249999771826","images/stimuli/spore_stims/simple_11_A_d.gif","images/stimuli/spore_stims/simple_07_B_b.gif","","","","","3","simple_dissimilar","images/stimuli/spore_stims/simple_11_A_d.gif","middle","","","","",""
"","null","html-keyboard-response","76","147793","0.0-17.0-0.7","SS1613080649112","","","null","","","","","<p><img src= images/blank.png width =""200"" height = ""200"" style = ""float:right""></p><p><img src=images/blank.png width =""800"" height = ""200""></p>","","","","","","","","","","","",""
"","319.78499999968335","sequential-stimulus-presentation","77","148921","0.0-17.0-1.7","SS1613080649112","trial","","40","800","1119.7849999996834","images/stimuli/spore_stims/simple_11_A_d.gif","images/stimuli/spore_stims/simple_07_B_b.gif","","","","","3","simple_dissimilar","images/stimuli/spore_stims/simple_07_B_b.gif","right","","","","",""
"","1433.4099999978207","html-keyboard-response","78","150357","0.0-18.0","SS1613080649112","pref_question","","49","","","","","<video width ='960' height = '540' style='padding-top:8%' autoplay muted><source src='images/stimuli/wall_pref.mp4' type='video/mp4'></video>","1","left","25%","3","","","","","","","",""
"","4659.134999994421","sequential-stimulus-presentation","79","155829","0.0-19.0","SS1613080649112","pref_reveal","","40","800","5459.134999994421","null","null","","","","","3","","","","novel","","","",""
"","null","html-keyboard-response","80","156812","0.0-20.0-0.0","SS1613080649112","","","null","","","","","<p><img src= images/blank.png width =""200"" height = ""200"" style = ""float:right""></p><p><img src=images/blank.png width =""800"" height = ""200""></p>","","","","","","","","","","","",""
"","597.2450000117533","sequential-stimulus-presentation","81","158226","0.0-20.0-1.0","SS1613080649112","trial","","40","800","1397.2450000117533","images/stimuli/spore_stims/simple_04_B_b.gif","images/stimuli/spore_stims/simple_15_B_b.gif","","","","","4","simple_dissimilar","images/stimuli/spore_stims/simple_15_B_b.gif","left","","","","",""
"","null","html-keyboard-response","82","159466","0.0-20.0-0.1","SS1613080649112","","","null","","","","","<p><img src= images/blank.png width =""200"" height = ""200"" style = ""float:right""></p><p><img src=images/blank.png width =""800"" height = ""200""></p>","","","","","","","","","","","",""
"","346.3099999935366","sequential-stimulus-presentation","83","160622","0.0-20.0-1.1","SS1613080649112","trial","","40","800","1146.3099999935366","images/stimuli/spore_stims/simple_04_B_b.gif","images/stimuli/spore_stims/simple_15_B_b.gif","","","","","4","simple_dissimilar","images/stimuli/spore_stims/simple_15_B_b.gif","left","","","","",""
"","null","html-keyboard-response","84","161650","0.0-20.0-0.2","SS1613080649112","","","null","","","","","<p><img src= images/blank.png width =""200"" height = ""200"" style = ""float:right""></p><p><img src=images/blank.png width =""800"" height = ""200""></p>","","","","","","","","","","","",""
"","298.6150000069756","sequential-stimulus-presentation","85","162755","0.0-20.0-1.2","SS1613080649112","trial","","40","800","1098.6150000069756","images/stimuli/spore_stims/simple_04_B_b.gif","images/stimuli/spore_stims/simple_15_B_b.gif","","","","","4","simple_dissimilar","images/stimuli/spore_stims/simple_15_B_b.gif","left","","","","",""
"","null","html-keyboard-response","86","163972","0.0-20.0-0.3","SS1613080649112","","","null","","","","","<p><img src= images/blank.png width =""200"" height = ""200"" style = ""float:right""></p><p><img src=images/blank.png width =""800"" height = ""200""></p>","","","","","","","","","","","",""
"","313.0799999926239","sequential-stimulus-presentation","87","165098","0.0-20.0-1.3","SS1613080649112","trial","","40","800","1113.079999992624","images/stimuli/spore_stims/simple_04_B_b.gif","images/stimuli/spore_stims/simple_15_B_b.gif","","","","","4","simple_dissimilar","images/stimuli/spore_stims/simple_15_B_b.gif","left","","","","",""
"","null","html-keyboard-response","88","165979","0.0-20.0-0.4","SS1613080649112","","","null","","","","","<p><img src= images/blank.png width =""200"" height = ""200"" style = ""float:right""></p><p><img src=images/blank.png width =""800"" height = ""200""></p>","","","","","","","","","","","",""
"","320.93499999609776","sequential-stimulus-presentation","89","167108","0.0-20.0-1.4","SS1613080649112","trial","","40","800","1120.9349999960978","images/stimuli/spore_stims/simple_04_B_b.gif","images/stimuli/spore_stims/simple_15_B_b.gif","","","","","4","simple_dissimilar","images/stimuli/spore_stims/simple_04_B_b.gif","middle","","","","",""
"","null","html-keyboard-response","90","168202","0.0-20.0-0.5","SS1613080649112","","","null","","","","","<p><img src= images/blank.png width =""200"" height = ""200"" style = ""float:right""></p><p><img src=images/blank.png width =""800"" height = ""200""></p>","","","","","","","","","","","",""
"","321.6799999936484","sequential-stimulus-presentation","91","169343","0.0-20.0-1.5","SS1613080649112","trial","","40","800","1121.6799999936484","images/stimuli/spore_stims/simple_04_B_b.gif","images/stimuli/spore_stims/simple_15_B_b.gif","","","","","4","simple_dissimilar","images/stimuli/spore_stims/simple_15_B_b.gif","left","","","","",""
"","null","html-keyboard-response","92","170218","0.0-20.0-0.6","SS1613080649112","","","null","","","","","<p><img src= images/blank.png width =""200"" height = ""200"" style = ""float:right""></p><p><img src=images/blank.png width =""800"" height = ""200""></p>","","","","","","","","","","","",""
"","282.4999999720603","sequential-stimulus-presentation","93","171305","0.0-20.0-1.6","SS1613080649112","trial","","40","800","1082.4999999720603","images/stimuli/spore_stims/simple_04_B_b.gif","images/stimuli/spore_stims/simple_15_B_b.gif","","","","","4","simple_dissimilar","images/stimuli/spore_stims/simple_15_B_b.gif","left","","","","",""
"","null","html-keyboard-response","94","172467","0.0-20.0-0.7","SS1613080649112","","","null","","","","","<p><img src= images/blank.png width =""200"" height = ""200"" style = ""float:right""></p><p><img src=images/blank.png width =""800"" height = ""200""></p>","","","","","","","","","","","",""
"","278.2199999783188","sequential-stimulus-presentation","95","173550","0.0-20.0-1.7","SS1613080649112","trial","","40","800","1078.2199999783188","images/stimuli/spore_stims/simple_04_B_b.gif","images/stimuli/spore_stims/simple_15_B_b.gif","","","","","4","simple_dissimilar","images/stimuli/spore_stims/simple_15_B_b.gif","left","","","","",""
"","1402.4300000164658","html-keyboard-response","96","174956","0.0-21.0","SS1613080649112","pref_question","","50","","","","","<video width ='960' height = '540' style='padding-top:8%' autoplay muted><source src='images/stimuli/wall_pref.mp4' type='video/mp4'></video>","2","middle","45%","4","","","","","","","",""
"","629.4200000120327","sequential-stimulus-presentation","97","176392","0.0-22.0","SS1613080649112","pref_reveal","","40","800","1429.4200000120327","null","null","","","","","4","","","","deviant","","","",""
"","null","html-keyboard-response","98","177571","0.0-23.0-0.0","SS1613080649112","","","null","","","","","<p><img src= images/blank.png width =""200"" height = ""200"" style = ""float:right""></p><p><img src=images/blank.png width =""800"" height = ""200""></p>","","","","","","","","","","","",""
"","551.8450000090525","sequential-stimulus-presentation","99","178930","0.0-23.0-1.0","SS1613080649112","trial","","40","800","1351.8450000090525","images/stimuli/spore_stims/simple_18_B_d.gif","images/stimuli/spore_stims/simple_18_A_d.gif","","","","","5","simple_similar","images/stimuli/spore_stims/simple_18_A_d.gif","middle","","","","",""
"","null","html-keyboard-response","100","179920","0.0-23.0-0.1","SS1613080649112","","","null","","","","","<p><img src= images/blank.png width =""200"" height = ""200"" style = ""float:right""></p><p><img src=images/blank.png width =""800"" height = ""200""></p>","","","","","","","","","","","",""
"","321.54500001342967","sequential-stimulus-presentation","101","181055","0.0-23.0-1.1","SS1613080649112","trial","","40","800","1121.5450000134297","images/stimuli/spore_stims/simple_18_B_d.gif","images/stimuli/spore_stims/simple_18_A_d.gif","","","","","5","simple_similar","images/stimuli/spore_stims/simple_18_A_d.gif","middle","","","","",""
"","null","html-keyboard-response","102","182196","0.0-23.0-0.2","SS1613080649112","","","null","","","","","<p><img src= images/blank.png width =""200"" height = ""200"" style = ""float:right""></p><p><img src=images/blank.png width =""800"" height = ""200""></p>","","","","","","","","","","","",""
"","346.560000005411","sequential-stimulus-presentation","103","183347","0.0-23.0-1.2","SS1613080649112","trial","","40","800","1146.560000005411","images/stimuli/spore_stims/simple_18_B_d.gif","images/stimuli/spore_stims/simple_18_A_d.gif","","","","","5","simple_similar","images/stimuli/spore_stims/simple_18_A_d.gif","middle","","","","",""
"","null","html-keyboard-response","104","184434","0.0-23.0-0.3","SS1613080649112","","","null","","","","","<p><img src= images/blank.png width =""200"" height = ""200"" style = ""float:right""></p><p><img src=images/blank.png width =""800"" height = ""200""></p>","","","","","","","","","","","",""
"","341.7550000012852","sequential-stimulus-presentation","105","185588","0.0-23.0-1.3","SS1613080649112","trial","","40","800","1141.7550000012852","images/stimuli/spore_stims/simple_18_B_d.gif","images/stimuli/spore_stims/simple_18_A_d.gif","","","","","5","simple_similar","images/stimuli/spore_stims/simple_18_A_d.gif","middle","","","","",""
"","null","html-keyboard-response","106","186813","0.0-23.0-0.4","SS1613080649112","","","null","","","","","<p><img src= images/blank.png width =""200"" height = ""200"" style = ""float:right""></p><p><img src=images/blank.png width =""800"" height = ""200""></p>","","","","","","","","","","","",""
"","305.30999999609776","sequential-stimulus-presentation","107","187925","0.0-23.0-1.4","SS1613080649112","trial","","40","800","1105.3099999960978","images/stimuli/spore_stims/simple_18_B_d.gif","images/stimuli/spore_stims/simple_18_A_d.gif","","","","","5","simple_similar","images/stimuli/spore_stims/simple_18_A_d.gif","middle","","","","",""
"","null","html-keyboard-response","108","188866","0.0-23.0-0.5","SS1613080649112","","","null","","","","","<p><img src= images/blank.png width =""200"" height = ""200"" style = ""float:right""></p><p><img src=images/blank.png width =""800"" height = ""200""></p>","","","","","","","","","","","",""
"","373.4650000114925","sequential-stimulus-presentation","109","190052","0.0-23.0-1.5","SS1613080649112","trial","","40","800","1173.4650000114925","images/stimuli/spore_stims/simple_18_B_d.gif","images/stimuli/spore_stims/simple_18_A_d.gif","","","","","5","simple_similar","images/stimuli/spore_stims/simple_18_B_d.gif","right","","","","",""
"","null","html-keyboard-response","110","191272","0.0-23.0-0.6","SS1613080649112","","","null","","","","","<p><img src= images/blank.png width =""200"" height = ""200"" style = ""float:right""></p><p><img src=images/blank.png width =""800"" height = ""200""></p>","","","","","","","","","","","",""
"","276.0349999880418","sequential-stimulus-presentation","111","192354","0.0-23.0-1.6","SS1613080649112","trial","","40","800","1076.0349999880418","images/stimuli/spore_stims/simple_18_B_d.gif","images/stimuli/spore_stims/simple_18_A_d.gif","","","","","5","simple_similar","images/stimuli/spore_stims/simple_18_A_d.gif","middle","","","","",""
"","null","html-keyboard-response","112","193424","0.0-23.0-0.7","SS1613080649112","","","null","","","","","<p><img src= images/blank.png width =""200"" height = ""200"" style = ""float:right""></p><p><img src=images/blank.png width =""800"" height = ""200""></p>","","","","","","","","","","","",""
"","268.0300000065472","sequential-stimulus-presentation","113","194498","0.0-23.0-1.7","SS1613080649112","trial","","40","800","1068.0300000065472","images/stimuli/spore_stims/simple_18_B_d.gif","images/stimuli/spore_stims/simple_18_A_d.gif","","","","","5","simple_similar","images/stimuli/spore_stims/simple_18_A_d.gif","middle","","","","",""
"","1440.2699999918696","html-keyboard-response","114","195944","0.0-24.0","SS1613080649112","pref_question","","49","","","","","<video width ='960' height = '540' style='padding-top:8%' autoplay muted><source src='images/stimuli/wall_pref.mp4' type='video/mp4'></video>","1","left","25%","5","","","","","","","",""
"","723.6550000088755","sequential-stimulus-presentation","115","197473","0.0-25.0","SS1613080649112","pref_reveal","","40","800","1523.6550000088755","null","null","","","","","5","","","","novel","","","",""
"","null","html-keyboard-response","116","198439","0.0-26.0-0.0","SS1613080649112","","","null","","","","","<p><img src= images/blank.png width =""200"" height = ""200"" style = ""float:right""></p><p><img src=images/blank.png width =""800"" height = ""200""></p>","","","","","","","","","","","",""
"","302.60000002454035","sequential-stimulus-presentation","117","199553","0.0-26.0-1.0","SS1613080649112","trial","","40","800","1102.6000000245403","images/stimuli/spore_stims/complex_18_A_a.gif","images/stimuli/spore_stims/complex_18_B_a.gif","","","","","6","complex_similar","images/stimuli/spore_stims/complex_18_B_a.gif","right","","","","",""
"","null","html-keyboard-response","118","200760","0.0-26.0-0.1","SS1613080649112","","","null","","","","","<p><img src= images/blank.png width =""200"" height = ""200"" style = ""float:right""></p><p><img src=images/blank.png width =""800"" height = ""200""></p>","","","","","","","","","","","",""
"","188.91500000609085","sequential-stimulus-presentation","119","201758","0.0-26.0-1.1","SS1613080649112","trial","","40","800","988.9150000060908","images/stimuli/spore_stims/complex_18_A_a.gif","images/stimuli/spore_stims/complex_18_B_a.gif","","","","","6","complex_similar","images/stimuli/spore_stims/complex_18_B_a.gif","right","","","","",""
"","null","html-keyboard-response","120","202931","0.0-26.0-0.2","SS1613080649112","","","null","","","","","<p><img src= images/blank.png width =""200"" height = ""200"" style = ""float:right""></p><p><img src=images/blank.png width =""800"" height = ""200""></p>","","","","","","","","","","","",""
"","296.7349999817088","sequential-stimulus-presentation","121","204034","0.0-26.0-1.2","SS1613080649112","trial","","40","800","1096.7349999817088","images/stimuli/spore_stims/complex_18_A_a.gif","images/stimuli/spore_stims/complex_18_B_a.gif","","","","","6","complex_similar","images/stimuli/spore_stims/complex_18_B_a.gif","right","","","","",""
"","null","html-keyboard-response","122","204856","0.0-26.0-0.3","SS1613080649112","","","null","","","","","<p><img src= images/blank.png width =""200"" height = ""200"" style = ""float:right""></p><p><img src=images/blank.png width =""800"" height = ""200""></p>","","","","","","","","","","","",""
"","359.16500000166707","sequential-stimulus-presentation","123","206031","0.0-26.0-1.3","SS1613080649112","trial","","40","800","1159.165000001667","images/stimuli/spore_stims/complex_18_A_a.gif","images/stimuli/spore_stims/complex_18_B_a.gif","","","","","6","complex_similar","images/stimuli/spore_stims/complex_18_B_a.gif","right","","","","",""
"","null","html-keyboard-response","124","207222","0.0-26.0-0.4","SS1613080649112","","","null","","","","","<p><img src= images/blank.png width =""200"" height = ""200"" style = ""float:right""></p><p><img src=images/blank.png width =""800"" height = ""200""></p>","","","","","","","","","","","",""
"","359.5150000182912","sequential-stimulus-presentation","125","208386","0.0-26.0-1.4","SS1613080649112","trial","","40","800","1159.5150000182912","images/stimuli/spore_stims/complex_18_A_a.gif","images/stimuli/spore_stims/complex_18_B_a.gif","","","","","6","complex_similar","images/stimuli/spore_stims/complex_18_B_a.gif","right","","","","",""
"","null","html-keyboard-response","126","209243","0.0-26.0-0.5","SS1613080649112","","","null","","","","","<p><img src= images/blank.png width =""200"" height = ""200"" style = ""float:right""></p><p><img src=images/blank.png width =""800"" height = ""200""></p>","","","","","","","","","","","",""
"","299.204999988433","sequential-stimulus-presentation","127","210361","0.0-26.0-1.5","SS1613080649112","trial","","40","800","1099.204999988433","images/stimuli/spore_stims/complex_18_A_a.gif","images/stimuli/spore_stims/complex_18_B_a.gif","","","","","6","complex_similar","images/stimuli/spore_stims/complex_18_B_a.gif","right","","","","",""
"","null","html-keyboard-response","128","211336","0.0-26.0-0.6","SS1613080649112","","","null","","","","","<p><img src= images/blank.png width =""200"" height = ""200"" style = ""float:right""></p><p><img src=images/blank.png width =""800"" height = ""200""></p>","","","","","","","","","","","",""
"","507.54999998025596","sequential-stimulus-presentation","129","212655","0.0-26.0-1.6","SS1613080649112","trial","","40","800","1307.549999980256","images/stimuli/spore_stims/complex_18_A_a.gif","images/stimuli/spore_stims/complex_18_B_a.gif","","","","","6","complex_similar","images/stimuli/spore_stims/complex_18_A_a.gif","left","","","","",""
"","null","html-keyboard-response","130","213746","0.0-26.0-0.7","SS1613080649112","","","null","","","","","<p><img src= images/blank.png width =""200"" height = ""200"" style = ""float:right""></p><p><img src=images/blank.png width =""800"" height = ""200""></p>","","","","","","","","","","","",""
"","544.1549999814015","sequential-stimulus-presentation","131","215094","0.0-26.0-1.7","SS1613080649112","trial","","40","800","1344.1549999814015","images/stimuli/spore_stims/complex_18_A_a.gif","images/stimuli/spore_stims/complex_18_B_a.gif","","","","","6","complex_similar","images/stimuli/spore_stims/complex_18_B_a.gif","right","","","","",""
"","1526.5950000029989","html-keyboard-response","132","216623","0.0-27.0","SS1613080649112","pref_question","","50","","","","","<video width ='960' height = '540' style='padding-top:8%' autoplay muted><source src='images/stimuli/wall_pref.mp4' type='video/mp4'></video>","2","middle","45%","6","","","","","","","",""
"","573.8650000130292","sequential-stimulus-presentation","133","218010","0.0-28.0","SS1613080649112","pref_reveal","","40","800","1373.8650000130292","null","null","","","","","6","","","","novel","","","",""
"","null","html-keyboard-response","134","219181","0.0-29.0-0.0","SS1613080649112","","","null","","","","","<p><img src= images/blank.png width =""200"" height = ""200"" style = ""float:right""></p><p><img src=images/blank.png width =""800"" height = ""200""></p>","","","","","","","","","","","",""
"","448.09499999973923","sequential-stimulus-presentation","135","220436","0.0-29.0-1.0","SS1613080649112","trial","","40","800","1248.0949999997392","images/stimuli/spore_stims/complex_15_A_a.gif","images/stimuli/spore_stims/complex_15_B_a.gif","","","","","7","complex_similar","images/stimuli/spore_stims/complex_15_B_a.gif","middle","","","","",""
"","null","html-keyboard-response","136","221458","0.0-29.0-0.1","SS1613080649112","","","null","","","","","<p><img src= images/blank.png width =""200"" height = ""200"" style = ""float:right""></p><p><img src=images/blank.png width =""800"" height = ""200""></p>","","","","","","","","","","","",""
"","289.1700000036508","sequential-stimulus-presentation","137","222564","0.0-29.0-1.1","SS1613080649112","trial","","40","800","1089.1700000036508","images/stimuli/spore_stims/complex_15_A_a.gif","images/stimuli/spore_stims/complex_15_B_a.gif","","","","","7","complex_similar","images/stimuli/spore_stims/complex_15_B_a.gif","middle","","","","",""
"","null","html-keyboard-response","138","223595","0.0-29.0-0.2","SS1613080649112","","","null","","","","","<p><img src= images/blank.png width =""200"" height = ""200"" style = ""float:right""></p><p><img src=images/blank.png width =""800"" height = ""200""></p>","","","","","","","","","","","",""
"","449.69499998842366","sequential-stimulus-presentation","139","224872","0.0-29.0-1.2","SS1613080649112","trial","","40","800","1249.6949999884237","images/stimuli/spore_stims/complex_15_A_a.gif","images/stimuli/spore_stims/complex_15_B_a.gif","","","","","7","complex_similar","images/stimuli/spore_stims/complex_15_A_a.gif","left","","","","",""
"","null","html-keyboard-response","140","225835","0.0-29.0-0.3","SS1613080649112","","","null","","","","","<p><img src= images/blank.png width =""200"" height = ""200"" style = ""float:right""></p><p><img src=images/blank.png width =""800"" height = ""200""></p>","","","","","","","","","","","",""
"","337.6750000170432","sequential-stimulus-presentation","141","226977","0.0-29.0-1.3","SS1613080649112","trial","","40","800","1137.6750000170432","images/stimuli/spore_stims/complex_15_A_a.gif","images/stimuli/spore_stims/complex_15_B_a.gif","","","","","7","complex_similar","images/stimuli/spore_stims/complex_15_B_a.gif","middle","","","","",""
"","null","html-keyboard-response","142","228063","0.0-29.0-0.4","SS1613080649112","","","null","","","","","<p><img src= images/blank.png width =""200"" height = ""200"" style = ""float:right""></p><p><img src=images/blank.png width =""800"" height = ""200""></p>","","","","","","","","","","","",""
"","307.4999999953434","sequential-stimulus-presentation","143","229189","0.0-29.0-1.4","SS1613080649112","trial","","40","800","1107.4999999953434","images/stimuli/spore_stims/complex_15_A_a.gif","images/stimuli/spore_stims/complex_15_B_a.gif","","","","","7","complex_similar","images/stimuli/spore_stims/complex_15_B_a.gif","middle","","","","",""
"","null","html-keyboard-response","144","230312","0.0-29.0-0.5","SS1613080649112","","","null","","","","","<p><img src= images/blank.png width =""200"" height = ""200"" style = ""float:right""></p><p><img src=images/blank.png width =""800"" height = ""200""></p>","","","","","","","","","","","",""
"","300.3949999983888","sequential-stimulus-presentation","145","231430","0.0-29.0-1.5","SS1613080649112","trial","","40","800","1100.3949999983888","images/stimuli/spore_stims/complex_15_A_a.gif","images/stimuli/spore_stims/complex_15_B_a.gif","","","","","7","complex_similar","images/stimuli/spore_stims/complex_15_B_a.gif","middle","","","","",""
"","null","html-keyboard-response","146","232583","0.0-29.0-0.6","SS1613080649112","","","null","","","","","<p><img src= images/blank.png width =""200"" height = ""200"" style = ""float:right""></p><p><img src=images/blank.png width =""800"" height = ""200""></p>","","","","","","","","","","","",""
"","279.09500000532717","sequential-stimulus-presentation","147","233681","0.0-29.0-1.6","SS1613080649112","trial","","40","800","1079.0950000053272","images/stimuli/spore_stims/complex_15_A_a.gif","images/stimuli/spore_stims/complex_15_B_a.gif","","","","","7","complex_similar","images/stimuli/spore_stims/complex_15_B_a.gif","middle","","","","",""
"","null","html-keyboard-response","148","234582","0.0-29.0-0.7","SS1613080649112","","","null","","","","","<p><img src= images/blank.png width =""200"" height = ""200"" style = ""float:right""></p><p><img src=images/blank.png width =""800"" height = ""200""></p>","","","","","","","","","","","",""
"","298.03000000538304","sequential-stimulus-presentation","149","235686","0.0-29.0-1.7","SS1613080649112","trial","","40","800","1098.030000005383","images/stimuli/spore_stims/complex_15_A_a.gif","images/stimuli/spore_stims/complex_15_B_a.gif","","","","","7","complex_similar","images/stimuli/spore_stims/complex_15_B_a.gif","middle","","","","",""
"","1604.715000023134","html-keyboard-response","150","237294","0.0-30.0","SS1613080649112","pref_question","","51","","","","","<video width ='960' height = '540' style='padding-top:8%' autoplay muted><source src='images/stimuli/wall_pref.mp4' type='video/mp4'></video>","3","right","66%","7","","","","","","","",""
"","476.6750000126194","sequential-stimulus-presentation","151","238580","0.0-31.0","SS1613080649112","pref_reveal","","40","800","1276.6750000126194","null","null","","","","","7","","","","novel","","","",""
"","null","html-keyboard-response","152","239814","0.0-32.0-0.0","SS1613080649112","","","null","","","","","<p><img src= images/blank.png width =""200"" height = ""200"" style = ""float:right""></p><p><img src=images/blank.png width =""800"" height = ""200""></p>","","","","","","","","","","","",""
"","290.42000000481494","sequential-stimulus-presentation","153","240916","0.0-32.0-1.0","SS1613080649112","trial","","40","800","1090.420000004815","images/stimuli/spore_stims/simple_15_A_a.gif","images/stimuli/spore_stims/simple_19_A_a.gif","","","","","8","simple_dissimilar","images/stimuli/spore_stims/simple_19_A_a.gif","right","","","","",""
"","null","html-keyboard-response","154","242211","0.0-32.0-0.1","SS1613080649112","","","null","","","","","<p><img src= images/blank.png width =""200"" height = ""200"" style = ""float:right""></p><p><img src=images/blank.png width =""800"" height = ""200""></p>","","","","","","","","","","","",""
"","312.34000000404194","sequential-stimulus-presentation","155","243341","0.0-32.0-1.1","SS1613080649112","trial","","40","800","1112.340000004042","images/stimuli/spore_stims/simple_15_A_a.gif","images/stimuli/spore_stims/simple_19_A_a.gif","","","","","8","simple_dissimilar","images/stimuli/spore_stims/simple_19_A_a.gif","right","","","","",""
"","null","html-keyboard-response","156","244384","0.0-32.0-0.2","SS1613080649112","","","null","","","","","<p><img src= images/blank.png width =""200"" height = ""200"" style = ""float:right""></p><p><img src=images/blank.png width =""800"" height = ""200""></p>","","","","","","","","","","","",""
"","301.3799999898765","sequential-stimulus-presentation","157","245499","0.0-32.0-1.2","SS1613080649112","trial","","40","800","1101.3799999898765","images/stimuli/spore_stims/simple_15_A_a.gif","images/stimuli/spore_stims/simple_19_A_a.gif","","","","","8","simple_dissimilar","images/stimuli/spore_stims/simple_19_A_a.gif","right","","","","",""
"","null","html-keyboard-response","158","246691","0.0-32.0-0.3","SS1613080649112","","","null","","","","","<p><img src= images/blank.png width =""200"" height = ""200"" style = ""float:right""></p><p><img src=images/blank.png width =""800"" height = ""200""></p>","","","","","","","","","","","",""
"","309.8599999793805","sequential-stimulus-presentation","159","247809","0.0-32.0-1.3","SS1613080649112","trial","","40","800","1109.8599999793805","images/stimuli/spore_stims/simple_15_A_a.gif","images/stimuli/spore_stims/simple_19_A_a.gif","","","","","8","simple_dissimilar","images/stimuli/spore_stims/simple_15_A_a.gif","left","","","","",""
"","null","html-keyboard-response","160","248868","0.0-32.0-0.4","SS1613080649112","","","null","","","","","<p><img src= images/blank.png width =""200"" height = ""200"" style = ""float:right""></p><p><img src=images/blank.png width =""800"" height = ""200""></p>","","","","","","","","","","","",""
"","282.83499999088235","sequential-stimulus-presentation","161","249967","0.0-32.0-1.4","SS1613080649112","trial","","40","800","1082.8349999908824","images/stimuli/spore_stims/simple_15_A_a.gif","images/stimuli/spore_stims/simple_19_A_a.gif","","","","","8","simple_dissimilar","images/stimuli/spore_stims/simple_19_A_a.gif","right","","","","",""
"","null","html-keyboard-response","162","251132","0.0-32.0-0.5","SS1613080649112","","","null","","","","","<p><img src= images/blank.png width =""200"" height = ""200"" style = ""float:right""></p><p><img src=images/blank.png width =""800"" height = ""200""></p>","","","","","","","","","","","",""
"","290.1850000198465","sequential-stimulus-presentation","163","252227","0.0-32.0-1.5","SS1613080649112","trial","","40","800","1090.1850000198465","images/stimuli/spore_stims/simple_15_A_a.gif","images/stimuli/spore_stims/simple_19_A_a.gif","","","","","8","simple_dissimilar","images/stimuli/spore_stims/simple_19_A_a.gif","right","","","","",""
"","null","html-keyboard-response","164","253089","0.0-32.0-0.6","SS1613080649112","","","null","","","","","<p><img src= images/blank.png width =""200"" height = ""200"" style = ""float:right""></p><p><img src=images/blank.png width =""800"" height = ""200""></p>","","","","","","","","","","","",""
"","311.40000000596046","sequential-stimulus-presentation","165","254214","0.0-32.0-1.6","SS1613080649112","trial","","40","800","1111.4000000059605","images/stimuli/spore_stims/simple_15_A_a.gif","images/stimuli/spore_stims/simple_19_A_a.gif","","","","","8","simple_dissimilar","images/stimuli/spore_stims/simple_19_A_a.gif","right","","","","",""
"","null","html-keyboard-response","166","255399","0.0-32.0-0.7","SS1613080649112","","","null","","","","","<p><img src= images/blank.png width =""200"" height = ""200"" style = ""float:right""></p><p><img src=images/blank.png width =""800"" height = ""200""></p>","","","","","","","","","","","",""
"","294.34500000206754","sequential-stimulus-presentation","167","256501","0.0-32.0-1.7","SS1613080649112","trial","","40","800","1094.3450000020675","images/stimuli/spore_stims/simple_15_A_a.gif","images/stimuli/spore_stims/simple_19_A_a.gif","","","","","8","simple_dissimilar","images/stimuli/spore_stims/simple_19_A_a.gif","right","","","","",""
"","1311.2200000032317","html-keyboard-response","168","257817","0.0-33.0","SS1613080649112","pref_question","","50","","","","","<video width ='960' height = '540' style='padding-top:8%' autoplay muted><source src='images/stimuli/wall_pref.mp4' type='video/mp4'></video>","2","middle","45%","8","","","","","","","",""
"","599.1449999855831","sequential-stimulus-presentation","169","259227","0.0-34.0","SS1613080649112","pref_reveal","","40","800","1399.1449999855831","null","null","","","","","8","","","","novel","","","",""
"","null","html-keyboard-response","170","260529","0.0-35.0-0.0","SS1613080649112","","","null","","","","","<p><img src= images/blank.png width =""200"" height = ""200"" style = ""float:right""></p><p><img src=images/blank.png width =""800"" height = ""200""></p>","","","","","","","","","","","",""
"","236.83000000892207","sequential-stimulus-presentation","171","261583","0.0-35.0-1.0","SS1613080649112","trial","","40","800","1036.830000008922","images/stimuli/spore_stims/complex_17_B_a.gif","images/stimuli/spore_stims/complex_10_B_b.gif","","","","","9","complex_dissimilar","images/stimuli/spore_stims/complex_10_B_b.gif","left","","","","",""
"","null","html-keyboard-response","172","262554","0.0-35.0-0.1","SS1613080649112","","","null","","","","","<p><img src= images/blank.png width =""200"" height = ""200"" style = ""float:right""></p><p><img src=images/blank.png width =""800"" height = ""200""></p>","","","","","","","","","","","",""
"","212.17000001342967","sequential-stimulus-presentation","173","263570","0.0-35.0-1.1","SS1613080649112","trial","","40","800","1012.1700000134297","images/stimuli/spore_stims/complex_17_B_a.gif","images/stimuli/spore_stims/complex_10_B_b.gif","","","","","9","complex_dissimilar","images/stimuli/spore_stims/complex_10_B_b.gif","left","","","","",""
"","null","html-keyboard-response","174","264571","0.0-35.0-0.2","SS1613080649112","","","null","","","","","<p><img src= images/blank.png width =""200"" height = ""200"" style = ""float:right""></p><p><img src=images/blank.png width =""800"" height = ""200""></p>","","","","","","","","","","","",""
"","201.36999999522232","sequential-stimulus-presentation","175","265585","0.0-35.0-1.2","SS1613080649112","trial","","40","800","1001.3699999952223","images/stimuli/spore_stims/complex_17_B_a.gif","images/stimuli/spore_stims/complex_10_B_b.gif","","","","","9","complex_dissimilar","images/stimuli/spore_stims/complex_10_B_b.gif","left","","","","",""
"","null","html-keyboard-response","176","266418","0.0-35.0-0.3","SS1613080649112","","","null","","","","","<p><img src= images/blank.png width =""200"" height = ""200"" style = ""float:right""></p><p><img src=images/blank.png width =""800"" height = ""200""></p>","","","","","","","","","","","",""
"","286.94000001996756","sequential-stimulus-presentation","177","267520","0.0-35.0-1.3","SS1613080649112","trial","","40","800","1086.9400000199676","images/stimuli/spore_stims/complex_17_B_a.gif","images/stimuli/spore_stims/complex_10_B_b.gif","","","","","9","complex_dissimilar","images/stimuli/spore_stims/complex_10_B_b.gif","left","","","","",""
"","null","html-keyboard-response","178","268650","0.0-35.0-0.4","SS1613080649112","","","null","","","","","<p><img src= images/blank.png width =""200"" height = ""200"" style = ""float:right""></p><p><img src=images/blank.png width =""800"" height = ""200""></p>","","","","","","","","","","","",""
"","301.6350000107195","sequential-stimulus-presentation","179","269767","0.0-35.0-1.4","SS1613080649112","trial","","40","800","1101.6350000107195","images/stimuli/spore_stims/complex_17_B_a.gif","images/stimuli/spore_stims/complex_10_B_b.gif","","","","","9","complex_dissimilar","images/stimuli/spore_stims/complex_10_B_b.gif","left","","","","",""
"","null","html-keyboard-response","180","270681","0.0-35.0-0.5","SS1613080649112","","","null","","","","","<p><img src= images/blank.png width =""200"" height = ""200"" style = ""float:right""></p><p><img src=images/blank.png width =""800"" height = ""200""></p>","","","","","","","","","","","",""
"","317.9799999925308","sequential-stimulus-presentation","181","271808","0.0-35.0-1.5","SS1613080649112","trial","","40","800","1117.9799999925308","images/stimuli/spore_stims/complex_17_B_a.gif","images/stimuli/spore_stims/complex_10_B_b.gif","","","","","9","complex_dissimilar","images/stimuli/spore_stims/complex_10_B_b.gif","left","","","","",""
"","null","html-keyboard-response","182","272968","0.0-35.0-0.6","SS1613080649112","","","null","","","","","<p><img src= images/blank.png width =""200"" height = ""200"" style = ""float:right""></p><p><img src=images/blank.png width =""800"" height = ""200""></p>","","","","","","","","","","","",""
"","501.61999999545515","sequential-stimulus-presentation","183","274277","0.0-35.0-1.6","SS1613080649112","trial","","40","800","1301.6199999954551","images/stimuli/spore_stims/complex_17_B_a.gif","images/stimuli/spore_stims/complex_10_B_b.gif","","","","","9","complex_dissimilar","images/stimuli/spore_stims/complex_17_B_a.gif","right","","","","",""
"","null","html-keyboard-response","184","275408","0.0-35.0-0.7","SS1613080649112","","","null","","","","","<p><img src= images/blank.png width =""200"" height = ""200"" style = ""float:right""></p><p><img src=images/blank.png width =""800"" height = ""200""></p>","","","","","","","","","","","",""
"","314.82500000856817","sequential-stimulus-presentation","185","276541","0.0-35.0-1.7","SS1613080649112","trial","","40","800","1114.8250000085682","images/stimuli/spore_stims/complex_17_B_a.gif","images/stimuli/spore_stims/complex_10_B_b.gif","","","","","9","complex_dissimilar","images/stimuli/spore_stims/complex_10_B_b.gif","left","","","","",""
"","1311.4350000105333","html-keyboard-response","186","277855","0.0-36.0","SS1613080649112","pref_question","","50","","","","","<video width ='960' height = '540' style='padding-top:8%' autoplay muted><source src='images/stimuli/wall_pref.mp4' type='video/mp4'></video>","2","middle","45%","9","","","","","","","",""
"","3916.9699999911245","sequential-stimulus-presentation","187","282579","0.0-37.0","SS1613080649112","pref_reveal","","40","800","4716.9699999911245","null","null","","","","","9","","","","novel","","","",""
"","null","html-keyboard-response","188","283605","0.0-38.0-0.0","SS1613080649112","","","null","","","","","<p><img src= images/blank.png width =""200"" height = ""200"" style = ""float:right""></p><p><img src=images/blank.png width =""800"" height = ""200""></p>","","","","","","","","","","","",""
"","367.404999997234","sequential-stimulus-presentation","189","284794","0.0-38.0-1.0","SS1613080649112","trial","","40","800","1167.404999997234","images/stimuli/spore_stims/simple_01_A_a.gif","images/stimuli/spore_stims/simple_02_B_b.gif","","","","","10","simple_dissimilar","images/stimuli/spore_stims/simple_02_B_b.gif","right","","","","",""
"","null","html-keyboard-response","190","285916","0.0-38.0-0.1","SS1613080649112","","","null","","","","","<p><img src= images/blank.png width =""200"" height = ""200"" style = ""float:right""></p><p><img src=images/blank.png width =""800"" height = ""200""></p>","","","","","","","","","","","",""
"","273.6000000149943","sequential-stimulus-presentation","191","286995","0.0-38.0-1.1","SS1613080649112","trial","","40","800","1073.6000000149943","images/stimuli/spore_stims/simple_01_A_a.gif","images/stimuli/spore_stims/simple_02_B_b.gif","","","","","10","simple_dissimilar","images/stimuli/spore_stims/simple_02_B_b.gif","right","","","","",""
"","null","html-keyboard-response","192","288120","0.0-38.0-0.2","SS1613080649112","","","null","","","","","<p><img src= images/blank.png width =""200"" height = ""200"" style = ""float:right""></p><p><img src=images/blank.png width =""800"" height = ""200""></p>","","","","","","","","","","","",""
"","263.93499999539927","sequential-stimulus-presentation","193","289202","0.0-38.0-1.2","SS1613080649112","trial","","40","800","1063.9349999953993","images/stimuli/spore_stims/simple_01_A_a.gif","images/stimuli/spore_stims/simple_02_B_b.gif","","","","","10","simple_dissimilar","images/stimuli/spore_stims/simple_02_B_b.gif","right","","","","",""
"","null","html-keyboard-response","194","290119","0.0-38.0-0.3","SS1613080649112","","","null","","","","","<p><img src= images/blank.png width =""200"" height = ""200"" style = ""float:right""></p><p><img src=images/blank.png width =""800"" height = ""200""></p>","","","","","","","","","","","",""
"","301.42499998328276","sequential-stimulus-presentation","195","291234","0.0-38.0-1.3","SS1613080649112","trial","","40","800","1101.4249999832828","images/stimuli/spore_stims/simple_01_A_a.gif","images/stimuli/spore_stims/simple_02_B_b.gif","","","","","10","simple_dissimilar","images/stimuli/spore_stims/simple_02_B_b.gif","right","","","","",""
"","null","html-keyboard-response","196","292075","0.0-38.0-0.4","SS1613080649112","","","null","","","","","<p><img src= images/blank.png width =""200"" height = ""200"" style = ""float:right""></p><p><img src=images/blank.png width =""800"" height = ""200""></p>","","","","","","","","","","","",""
"","153.75500000664033","sequential-stimulus-presentation","197","293042","0.0-38.0-1.4","SS1613080649112","trial","","40","800","953.7550000066403","images/stimuli/spore_stims/simple_01_A_a.gif","images/stimuli/spore_stims/simple_02_B_b.gif","","","","","10","simple_dissimilar","images/stimuli/spore_stims/simple_02_B_b.gif","right","","","","",""
"","null","html-keyboard-response","198","294082","0.0-38.0-0.5","SS1613080649112","","","null","","","","","<p><img src= images/blank.png width =""200"" height = ""200"" style = ""float:right""></p><p><img src=images/blank.png width =""800"" height = ""200""></p>","","","","","","","","","","","",""
"","252.72999997832812","sequential-stimulus-presentation","199","295150","0.0-38.0-1.5","SS1613080649112","trial","","40","800","1052.7299999783281","images/stimuli/spore_stims/simple_01_A_a.gif","images/stimuli/spore_stims/simple_02_B_b.gif","","","","","10","simple_dissimilar","images/stimuli/spore_stims/simple_02_B_b.gif","right","","","","",""
"","null","html-keyboard-response","200","296154","0.0-38.0-0.6","SS1613080649112","","","null","","","","","<p><img src= images/blank.png width =""200"" height = ""200"" style = ""float:right""></p><p><img src=images/blank.png width =""800"" height = ""200""></p>","","","","","","","","","","","",""
"","475.6850000121631","sequential-stimulus-presentation","201","297436","0.0-38.0-1.6","SS1613080649112","trial","","40","800","1275.685000012163","images/stimuli/spore_stims/simple_01_A_a.gif","images/stimuli/spore_stims/simple_02_B_b.gif","","","","","10","simple_dissimilar","images/stimuli/spore_stims/simple_01_A_a.gif","middle","","","","",""
"","null","html-keyboard-response","202","298426","0.0-38.0-0.7","SS1613080649112","","","null","","","","","<p><img src= images/blank.png width =""200"" height = ""200"" style = ""float:right""></p><p><img src=images/blank.png width =""800"" height = ""200""></p>","","","","","","","","","","","",""
"","301.84500000905246","sequential-stimulus-presentation","203","299533","0.0-38.0-1.7","SS1613080649112","trial","","40","800","1101.8450000090525","images/stimuli/spore_stims/simple_01_A_a.gif","images/stimuli/spore_stims/simple_02_B_b.gif","","","","","10","simple_dissimilar","images/stimuli/spore_stims/simple_02_B_b.gif","right","","","","",""
"","1225.1800000085495","html-keyboard-response","204","300761","0.0-39.0","SS1613080649112","pref_question","","49","","","","","<video width ='960' height = '540' style='padding-top:8%' autoplay muted><source src='images/stimuli/wall_pref.mp4' type='video/mp4'></video>","1","left","25%","10","","","","","","","",""
"","966.6250000009313","sequential-stimulus-presentation","205","302533","0.0-40.0","SS1613080649112","pref_reveal","","40","800","1766.6250000009313","null","null","","","","","10","","","","novel","","","",""
"","null","html-keyboard-response","206","303606","0.0-41.0-0.0","SS1613080649112","","","null","","","","","<p><img src= images/blank.png width =""200"" height = ""200"" style = ""float:right""></p><p><img src=images/blank.png width =""800"" height = ""200""></p>","","","","","","","","","","","",""
"","312.62499999138527","sequential-stimulus-presentation","207","304736","0.0-41.0-1.0","SS1613080649112","trial","","40","800","1112.6249999913853","images/stimuli/spore_stims/complex_16_B_d.gif","images/stimuli/spore_stims/complex_16_A_d.gif","","","","","11","complex_similar","images/stimuli/spore_stims/complex_16_A_d.gif","right","","","","",""
"","null","html-keyboard-response","208","305730","0.0-41.0-0.1","SS1613080649112","","","null","","","","","<p><img src= images/blank.png width =""200"" height = ""200"" style = ""float:right""></p><p><img src=images/blank.png width =""800"" height = ""200""></p>","","","","","","","","","","","",""
"","392.5100000051316","sequential-stimulus-presentation","209","306934","0.0-41.0-1.1","SS1613080649112","trial","","40","800","1192.5100000051316","images/stimuli/spore_stims/complex_16_B_d.gif","images/stimuli/spore_stims/complex_16_A_d.gif","","","","","11","complex_similar","images/stimuli/spore_stims/complex_16_A_d.gif","right","","","","",""
"","null","html-keyboard-response","210","307837","0.0-41.0-0.2","SS1613080649112","","","null","","","","","<p><img src= images/blank.png width =""200"" height = ""200"" style = ""float:right""></p><p><img src=images/blank.png width =""800"" height = ""200""></p>","","","","","","","","","","","",""
"","331.7199999873992","sequential-stimulus-presentation","211","308975","0.0-41.0-1.2","SS1613080649112","trial","","40","800","1131.7199999873992","images/stimuli/spore_stims/complex_16_B_d.gif","images/stimuli/spore_stims/complex_16_A_d.gif","","","","","11","complex_similar","images/stimuli/spore_stims/complex_16_A_d.gif","right","","","","",""
"","null","html-keyboard-response","212","309920","0.0-41.0-0.3","SS1613080649112","","","null","","","","","<p><img src= images/blank.png width =""200"" height = ""200"" style = ""float:right""></p><p><img src=images/blank.png width =""800"" height = ""200""></p>","","","","","","","","","","","",""
"","317.13999999919906","sequential-stimulus-presentation","213","311046","0.0-41.0-1.3","SS1613080649112","trial","","40","800","1117.139999999199","images/stimuli/spore_stims/complex_16_B_d.gif","images/stimuli/spore_stims/complex_16_A_d.gif","","","","","11","complex_similar","images/stimuli/spore_stims/complex_16_A_d.gif","right","","","","",""
"","null","html-keyboard-response","214","312113","0.0-41.0-0.4","SS1613080649112","","","null","","","","","<p><img src= images/blank.png width =""200"" height = ""200"" style = ""float:right""></p><p><img src=images/blank.png width =""800"" height = ""200""></p>","","","","","","","","","","","",""
"","281.70999998110346","sequential-stimulus-presentation","215","313200","0.0-41.0-1.4","SS1613080649112","trial","","40","800","1081.7099999811035","images/stimuli/spore_stims/complex_16_B_d.gif","images/stimuli/spore_stims/complex_16_A_d.gif","","","","","11","complex_similar","images/stimuli/spore_stims/complex_16_A_d.gif","right","","","","",""
"","null","html-keyboard-response","216","314308","0.0-41.0-0.5","SS1613080649112","","","null","","","","","<p><img src= images/blank.png width =""200"" height = ""200"" style = ""float:right""></p><p><img src=images/blank.png width =""800"" height = ""200""></p>","","","","","","","","","","","",""
"","300.9799999999814","sequential-stimulus-presentation","217","315417","0.0-41.0-1.5","SS1613080649112","trial","","40","800","1100.9799999999814","images/stimuli/spore_stims/complex_16_B_d.gif","images/stimuli/spore_stims/complex_16_A_d.gif","","","","","11","complex_similar","images/stimuli/spore_stims/complex_16_A_d.gif","right","","","","",""
"","null","html-keyboard-response","218","316641","0.0-41.0-0.6","SS1613080649112","","","null","","","","","<p><img src= images/blank.png width =""200"" height = ""200"" style = ""float:right""></p><p><img src=images/blank.png width =""800"" height = ""200""></p>","","","","","","","","","","","",""
"","312.7049999893643","sequential-stimulus-presentation","219","317763","0.0-41.0-1.6","SS1613080649112","trial","","40","800","1112.7049999893643","images/stimuli/spore_stims/complex_16_B_d.gif","images/stimuli/spore_stims/complex_16_A_d.gif","","","","","11","complex_similar","images/stimuli/spore_stims/complex_16_A_d.gif","right","","","","",""
"","null","html-keyboard-response","220","318868","0.0-41.0-0.7","SS1613080649112","","","null","","","","","<p><img src= images/blank.png width =""200"" height = ""200"" style = ""float:right""></p><p><img src=images/blank.png width =""800"" height = ""200""></p>","","","","","","","","","","","",""
"","328.28000001609325","sequential-stimulus-presentation","221","320017","0.0-41.0-1.7","SS1613080649112","trial","","40","800","1128.2800000160933","images/stimuli/spore_stims/complex_16_B_d.gif","images/stimuli/spore_stims/complex_16_A_d.gif","","","","","11","complex_similar","images/stimuli/spore_stims/complex_16_B_d.gif","middle","","","","",""
"","1879.1400000045542","html-keyboard-response","222","321900","0.0-42.0","SS1613080649112","pref_question","","49","","","","","<video width ='960' height = '540' style='padding-top:8%' autoplay muted><source src='images/stimuli/wall_pref.mp4' type='video/mp4'></video>","1","left","25%","11","","","","","","","",""
"","372.7800000051502","sequential-stimulus-presentation","223","323078","0.0-43.0","SS1613080649112","pref_reveal","","40","800","1172.7800000051502","null","null","","","","","11","","","","novel","","","",""
"","null","html-keyboard-response","224","324033","0.0-44.0-0.0","SS1613080649112","","","null","","","","","<p><img src= images/blank.png width =""200"" height = ""200"" style = ""float:right""></p><p><img src=images/blank.png width =""800"" height = ""200""></p>","","","","","","","","","","","",""
"","337.33000000938773","sequential-stimulus-presentation","225","325180","0.0-44.0-1.0","SS1613080649112","trial","","40","800","1137.3300000093877","images/stimuli/spore_stims/complex_17_B_a.gif","images/stimuli/spore_stims/complex_17_A_a.gif","","","","","12","complex_similar","images/stimuli/spore_stims/complex_17_A_a.gif","middle","","","","",""
"","null","html-keyboard-response","226","326246","0.0-44.0-0.1","SS1613080649112","","","null","","","","","<p><img src= images/blank.png width =""200"" height = ""200"" style = ""float:right""></p><p><img src=images/blank.png width =""800"" height = ""200""></p>","","","","","","","","","","","",""
"","346.12500001094304","sequential-stimulus-presentation","227","327409","0.0-44.0-1.1","SS1613080649112","trial","","40","800","1146.125000010943","images/stimuli/spore_stims/complex_17_B_a.gif","images/stimuli/spore_stims/complex_17_A_a.gif","","","","","12","complex_similar","images/stimuli/spore_stims/complex_17_A_a.gif","middle","","","","",""
"","null","html-keyboard-response","228","328232","0.0-44.0-0.2","SS1613080649112","","","null","","","","","<p><img src= images/blank.png width =""200"" height = ""200"" style = ""float:right""></p><p><img src=images/blank.png width =""800"" height = ""200""></p>","","","","","","","","","","","",""
"","282.6350000104867","sequential-stimulus-presentation","229","329323","0.0-44.0-1.2","SS1613080649112","trial","","40","800","1082.6350000104867","images/stimuli/spore_stims/complex_17_B_a.gif","images/stimuli/spore_stims/complex_17_A_a.gif","","","","","12","complex_similar","images/stimuli/spore_stims/complex_17_A_a.gif","middle","","","","",""
"","null","html-keyboard-response","230","330587","0.0-44.0-0.3","SS1613080649112","","","null","","","","","<p><img src= images/blank.png width =""200"" height = ""200"" style = ""float:right""></p><p><img src=images/blank.png width =""800"" height = ""200""></p>","","","","","","","","","","","",""
"","3672.214999998687","sequential-stimulus-presentation","231","335075","0.0-44.0-1.3","SS1613080649112","trial","","40","800","4472.214999998687","images/stimuli/spore_stims/complex_17_B_a.gif","images/stimuli/spore_stims/complex_17_A_a.gif","","","","","12","complex_similar","images/stimuli/spore_stims/complex_17_A_a.gif","middle","","","","",""
"","null","html-keyboard-response","232","336217","0.0-44.0-0.4","SS1613080649112","","","null","","","","","<p><img src= images/blank.png width =""200"" height = ""200"" style = ""float:right""></p><p><img src=images/blank.png width =""800"" height = ""200""></p>","","","","","","","","","","","",""
"","362.410000001546","sequential-stimulus-presentation","233","337390","0.0-44.0-1.4","SS1613080649112","trial","","40","800","1162.410000001546","images/stimuli/spore_stims/complex_17_B_a.gif","images/stimuli/spore_stims/complex_17_A_a.gif","","","","","12","complex_similar","images/stimuli/spore_stims/complex_17_A_a.gif","middle","","","","",""
"","null","html-keyboard-response","234","338276","0.0-44.0-0.5","SS1613080649112","","","null","","","","","<p><img src= images/blank.png width =""200"" height = ""200"" style = ""float:right""></p><p><img src=images/blank.png width =""800"" height = ""200""></p>","","","","","","","","","","","",""
"","485.92499998630956","sequential-stimulus-presentation","235","339575","0.0-44.0-1.5","SS1613080649112","trial","","40","800","1285.9249999863096","images/stimuli/spore_stims/complex_17_B_a.gif","images/stimuli/spore_stims/complex_17_A_a.gif","","","","","12","complex_similar","images/stimuli/spore_stims/complex_17_A_a.gif","middle","","","","",""
"","null","html-keyboard-response","236","340768","0.0-44.0-0.6","SS1613080649112","","","null","","","","","<p><img src= images/blank.png width =""200"" height = ""200"" style = ""float:right""></p><p><img src=images/blank.png width =""800"" height = ""200""></p>","","","","","","","","","","","",""
"","359.1850000084378","sequential-stimulus-presentation","237","341952","0.0-44.0-1.6","SS1613080649112","trial","","40","800","1159.1850000084378","images/stimuli/spore_stims/complex_17_B_a.gif","images/stimuli/spore_stims/complex_17_A_a.gif","","","","","12","complex_similar","images/stimuli/spore_stims/complex_17_A_a.gif","middle","","","","",""
"","null","html-keyboard-response","238","343065","0.0-44.0-0.7","SS1613080649112","","","null","","","","","<p><img src= images/blank.png width =""200"" height = ""200"" style = ""float:right""></p><p><img src=images/blank.png width =""800"" height = ""200""></p>","","","","","","","","","","","",""
"","331.1800000083167","sequential-stimulus-presentation","239","344210","0.0-44.0-1.7","SS1613080649112","trial","","40","800","1131.1800000083167","images/stimuli/spore_stims/complex_17_B_a.gif","images/stimuli/spore_stims/complex_17_A_a.gif","","","","","12","complex_similar","images/stimuli/spore_stims/complex_17_B_a.gif","left","","","","",""
"","2577.7600000146776","html-keyboard-response","240","346791","0.0-45.0","SS1613080649112","pref_question","","50","","","","","<video width ='960' height = '540' style='padding-top:8%' autoplay muted><source src='images/stimuli/wall_pref.mp4' type='video/mp4'></video>","2","middle","45%","12","","","","","","","",""
"","1200.9449999895878","sequential-stimulus-presentation","241","348797","0.0-46.0","SS1613080649112","pref_reveal","","40","800","2000.9449999895878","null","null","","","","","12","","","","background","","","",""
"","null","html-keyboard-response","242","350076","0.0-47.0-0.0","SS1613080649112","","","null","","","","","<p><img src= images/blank.png width =""200"" height = ""200"" style = ""float:right""></p><p><img src=images/blank.png width =""800"" height = ""200""></p>","","","","","","","","","","","",""
"","575.989999982994","sequential-stimulus-presentation","243","351462","0.0-47.0-1.0","SS1613080649112","trial","","40","800","1375.989999982994","images/stimuli/spore_stims/complex_09_B_d.gif","images/stimuli/spore_stims/complex_05_B_d.gif","","","","","13","complex_dissimilar","images/stimuli/spore_stims/complex_05_B_d.gif","right","","","","",""
"","null","html-keyboard-response","244","352631","0.0-47.0-0.1","SS1613080649112","","","null","","","","","<p><img src= images/blank.png width =""200"" height = ""200"" style = ""float:right""></p><p><img src=images/blank.png width =""800"" height = ""200""></p>","","","","","","","","","","","",""
"","312.73000000510365","sequential-stimulus-presentation","245","353769","0.0-47.0-1.1","SS1613080649112","trial","","40","800","1112.7300000051036","images/stimuli/spore_stims/complex_09_B_d.gif","images/stimuli/spore_stims/complex_05_B_d.gif","","","","","13","complex_dissimilar","images/stimuli/spore_stims/complex_05_B_d.gif","right","","","","",""
"","null","html-keyboard-response","246","354777","0.0-47.0-0.2","SS1613080649112","","","null","","","","","<p><img src= images/blank.png width =""200"" height = ""200"" style = ""float:right""></p><p><img src=images/blank.png width =""800"" height = ""200""></p>","","","","","","","","","","","",""
"","262.3699999821838","sequential-stimulus-presentation","247","355853","0.0-47.0-1.2","SS1613080649112","trial","","40","800","1062.3699999821838","images/stimuli/spore_stims/complex_09_B_d.gif","images/stimuli/spore_stims/complex_05_B_d.gif","","","","","13","complex_dissimilar","images/stimuli/spore_stims/complex_05_B_d.gif","right","","","","",""
"","null","html-keyboard-response","248","356988","0.0-47.0-0.3","SS1613080649112","","","null","","","","","<p><img src= images/blank.png width =""200"" height = ""200"" style = ""float:right""></p><p><img src=images/blank.png width =""800"" height = ""200""></p>","","","","","","","","","","","",""
"","605.4350000049453","sequential-stimulus-presentation","249","358409","0.0-47.0-1.3","SS1613080649112","trial","","40","800","1405.4350000049453","images/stimuli/spore_stims/complex_09_B_d.gif","images/stimuli/spore_stims/complex_05_B_d.gif","","","","","13","complex_dissimilar","images/stimuli/spore_stims/complex_09_B_d.gif","left","","","","",""
"","null","html-keyboard-response","250","359588","0.0-47.0-0.4","SS1613080649112","","","null","","","","","<p><img src= images/blank.png width =""200"" height = ""200"" style = ""float:right""></p><p><img src=images/blank.png width =""800"" height = ""200""></p>","","","","","","","","","","","",""
"","421.7050000152085","sequential-stimulus-presentation","251","360817","0.0-47.0-1.4","SS1613080649112","trial","","40","800","1221.7050000152085","images/stimuli/spore_stims/complex_09_B_d.gif","images/stimuli/spore_stims/complex_05_B_d.gif","","","","","13","complex_dissimilar","images/stimuli/spore_stims/complex_05_B_d.gif","right","","","","",""
"","null","html-keyboard-response","252","361834","0.0-47.0-0.5","SS1613080649112","","","null","","","","","<p><img src= images/blank.png width =""200"" height = ""200"" style = ""float:right""></p><p><img src=images/blank.png width =""800"" height = ""200""></p>","","","","","","","","","","","",""
"","264.11499999812804","sequential-stimulus-presentation","253","362912","0.0-47.0-1.5","SS1613080649112","trial","","40","800","1064.114999998128","images/stimuli/spore_stims/complex_09_B_d.gif","images/stimuli/spore_stims/complex_05_B_d.gif","","","","","13","complex_dissimilar","images/stimuli/spore_stims/complex_05_B_d.gif","right","","","","",""
"","null","html-keyboard-response","254","364186","0.0-47.0-0.6","SS1613080649112","","","null","","","","","<p><img src= images/blank.png width =""200"" height = ""200"" style = ""float:right""></p><p><img src=images/blank.png width =""800"" height = ""200""></p>","","","","","","","","","","","",""
"","272.7900000172667","sequential-stimulus-presentation","255","365270","0.0-47.0-1.6","SS1613080649112","trial","","40","800","1072.7900000172667","images/stimuli/spore_stims/complex_09_B_d.gif","images/stimuli/spore_stims/complex_05_B_d.gif","","","","","13","complex_dissimilar","images/stimuli/spore_stims/complex_05_B_d.gif","right","","","","",""
"","null","html-keyboard-response","256","366242","0.0-47.0-0.7","SS1613080649112","","","null","","","","","<p><img src= images/blank.png width =""200"" height = ""200"" style = ""float:right""></p><p><img src=images/blank.png width =""800"" height = ""200""></p>","","","","","","","","","","","",""
"","257.5549999892246","sequential-stimulus-presentation","257","367317","0.0-47.0-1.7","SS1613080649112","trial","","40","800","1057.5549999892246","images/stimuli/spore_stims/complex_09_B_d.gif","images/stimuli/spore_stims/complex_05_B_d.gif","","","","","13","complex_dissimilar","images/stimuli/spore_stims/complex_05_B_d.gif","right","","","","",""
"","1195.3749999811407","html-keyboard-response","258","368516","0.0-48.0","SS1613080649112","pref_question","","50","","","","","<video width ='960' height = '540' style='padding-top:8%' autoplay muted><source src='images/stimuli/wall_pref.mp4' type='video/mp4'></video>","2","middle","45%","13","","","","","","","",""
"","379.45000000763685","sequential-stimulus-presentation","259","369714","0.0-49.0","SS1613080649112","pref_reveal","","40","800","1179.4500000076368","null","null","","","","","13","","","","novel","","","",""
"","null","html-keyboard-response","260","370679","0.0-50.0-0.0","SS1613080649112","","","null","","","","","<p><img src= images/blank.png width =""200"" height = ""200"" style = ""float:right""></p><p><img src=images/blank.png width =""800"" height = ""200""></p>","","","","","","","","","","","",""
"","234.2650000064168","sequential-stimulus-presentation","261","371724","0.0-50.0-1.0","SS1613080649112","trial","","40","800","1034.2650000064168","images/stimuli/spore_stims/simple_02_A_d.gif","images/stimuli/spore_stims/simple_05_B_a.gif","","","","","14","simple_dissimilar","images/stimuli/spore_stims/simple_05_B_a.gif","right","","","","",""
"","null","html-keyboard-response","262","372823","0.0-50.0-0.1","SS1613080649112","","","null","","","","","<p><img src= images/blank.png width =""200"" height = ""200"" style = ""float:right""></p><p><img src=images/blank.png width =""800"" height = ""200""></p>","","","","","","","","","","","",""
"","189.36499999836087","sequential-stimulus-presentation","263","373820","0.0-50.0-1.1","SS1613080649112","trial","","40","800","989.3649999983609","images/stimuli/spore_stims/simple_02_A_d.gif","images/stimuli/spore_stims/simple_05_B_a.gif","","","","","14","simple_dissimilar","images/stimuli/spore_stims/simple_05_B_a.gif","right","","","","",""
"","null","html-keyboard-response","264","375048","0.0-50.0-0.2","SS1613080649112","","","null","","","","","<p><img src= images/blank.png width =""200"" height = ""200"" style = ""float:right""></p><p><img src=images/blank.png width =""800"" height = ""200""></p>","","","","","","","","","","","",""
"","120.45000001671724","sequential-stimulus-presentation","265","375981","0.0-50.0-1.2","SS1613080649112","trial","","40","800","920.4500000167172","images/stimuli/spore_stims/simple_02_A_d.gif","images/stimuli/spore_stims/simple_05_B_a.gif","","","","","14","simple_dissimilar","images/stimuli/spore_stims/simple_05_B_a.gif","right","","","","",""
"","null","html-keyboard-response","266","377156","0.0-50.0-0.3","SS1613080649112","","","null","","","","","<p><img src= images/blank.png width =""200"" height = ""200"" style = ""float:right""></p><p><img src=images/blank.png width =""800"" height = ""200""></p>","","","","","","","","","","","",""
"","121.36499999905936","sequential-stimulus-presentation","267","378086","0.0-50.0-1.3","SS1613080649112","trial","","40","800","921.3649999990594","images/stimuli/spore_stims/simple_02_A_d.gif","images/stimuli/spore_stims/simple_05_B_a.gif","","","","","14","simple_dissimilar","images/stimuli/spore_stims/simple_05_B_a.gif","right","","","","",""
"","null","html-keyboard-response","268","379192","0.0-50.0-0.4","SS1613080649112","","","null","","","","","<p><img src= images/blank.png width =""200"" height = ""200"" style = ""float:right""></p><p><img src=images/blank.png width =""800"" height = ""200""></p>","","","","","","","","","","","",""
"","129.92500001564622","sequential-stimulus-presentation","269","380130","0.0-50.0-1.4","SS1613080649112","trial","","40","800","929.9250000156462","images/stimuli/spore_stims/simple_02_A_d.gif","images/stimuli/spore_stims/simple_05_B_a.gif","","","","","14","simple_dissimilar","images/stimuli/spore_stims/simple_05_B_a.gif","right","","","","",""
"","null","html-keyboard-response","270","380967","0.0-50.0-0.5","SS1613080649112","","","null","","","","","<p><img src= images/blank.png width =""200"" height = ""200"" style = ""float:right""></p><p><img src=images/blank.png width =""800"" height = ""200""></p>","","","","","","","","","","","",""
"","316.04500001412816","sequential-stimulus-presentation","271","382101","0.0-50.0-1.5","SS1613080649112","trial","","40","800","1116.0450000141282","images/stimuli/spore_stims/simple_02_A_d.gif","images/stimuli/spore_stims/simple_05_B_a.gif","","","","","14","simple_dissimilar","images/stimuli/spore_stims/simple_05_B_a.gif","right","","","","",""
"","null","html-keyboard-response","272","383341","0.0-50.0-0.6","SS1613080649112","","","null","","","","","<p><img src= images/blank.png width =""200"" height = ""200"" style = ""float:right""></p><p><img src=images/blank.png width =""800"" height = ""200""></p>","","","","","","","","","","","",""
"","184.240000002319","sequential-stimulus-presentation","273","384332","0.0-50.0-1.6","SS1613080649112","trial","","40","800","984.240000002319","images/stimuli/spore_stims/simple_02_A_d.gif","images/stimuli/spore_stims/simple_05_B_a.gif","","","","","14","simple_dissimilar","images/stimuli/spore_stims/simple_05_B_a.gif","right","","","","",""
"","null","html-keyboard-response","274","385545","0.0-50.0-0.7","SS1613080649112","","","null","","","","","<p><img src= images/blank.png width =""200"" height = ""200"" style = ""float:right""></p><p><img src=images/blank.png width =""800"" height = ""200""></p>","","","","","","","","","","","",""
"","257.9799999948591","sequential-stimulus-presentation","275","386621","0.0-50.0-1.7","SS1613080649112","trial","","40","800","1057.979999994859","images/stimuli/spore_stims/simple_02_A_d.gif","images/stimuli/spore_stims/simple_05_B_a.gif","","","","","14","simple_dissimilar","images/stimuli/spore_stims/simple_02_A_d.gif","middle","","","","",""
"","1398.3550000120886","html-keyboard-response","276","388023","0.0-51.0","SS1613080649112","pref_question","","49","","","","","<video width ='960' height = '540' style='padding-top:8%' autoplay muted><source src='images/stimuli/wall_pref.mp4' type='video/mp4'></video>","1","left","25%","14","","","","","","","",""
"","368.71000000974163","sequential-stimulus-presentation","277","389209","0.0-52.0","SS1613080649112","pref_reveal","","40","800","1168.7100000097416","null","null","","","","","14","","","","novel","","","",""
"","null","html-keyboard-response","278","390401","0.0-53.0-0.0","SS1613080649112","","","null","","","","","<p><img src= images/blank.png width =""200"" height = ""200"" style = ""float:right""></p><p><img src=images/blank.png width =""800"" height = ""200""></p>","","","","","","","","","","","",""
"","183.52000002050772","sequential-stimulus-presentation","279","391390","0.0-53.0-1.0","SS1613080649112","trial","","40","800","983.5200000205077","images/stimuli/spore_stims/simple_20_B_b.gif","images/stimuli/spore_stims/simple_20_A_b.gif","","","","","15","simple_similar","images/stimuli/spore_stims/simple_20_A_b.gif","right","","","","",""
"","null","html-keyboard-response","280","392523","0.0-53.0-0.1","SS1613080649112","","","null","","","","","<p><img src= images/blank.png width =""200"" height = ""200"" style = ""float:right""></p><p><img src=images/blank.png width =""800"" height = ""200""></p>","","","","","","","","","","","",""
"","180.74500001966953","sequential-stimulus-presentation","281","393508","0.0-53.0-1.1","SS1613080649112","trial","","40","800","980.7450000196695","images/stimuli/spore_stims/simple_20_B_b.gif","images/stimuli/spore_stims/simple_20_A_b.gif","","","","","15","simple_similar","images/stimuli/spore_stims/simple_20_A_b.gif","right","","","","",""
"","null","html-keyboard-response","282","394564","0.0-53.0-0.2","SS1613080649112","","","null","","","","","<p><img src= images/blank.png width =""200"" height = ""200"" style = ""float:right""></p><p><img src=images/blank.png width =""800"" height = ""200""></p>","","","","","","","","","","","",""
"","209.94499998050742","sequential-stimulus-presentation","283","395591","0.0-53.0-1.2","SS1613080649112","trial","","40","800","1009.9449999805074","images/stimuli/spore_stims/simple_20_B_b.gif","images/stimuli/spore_stims/simple_20_A_b.gif","","","","","15","simple_similar","images/stimuli/spore_stims/simple_20_A_b.gif","right","","","","",""
"","null","html-keyboard-response","284","396555","0.0-53.0-0.3","SS1613080649112","","","null","","","","","<p><img src= images/blank.png width =""200"" height = ""200"" style = ""float:right""></p><p><img src=images/blank.png width =""800"" height = ""200""></p>","","","","","","","","","","","",""
"","231.81500000646338","sequential-stimulus-presentation","285","397592","0.0-53.0-1.3","SS1613080649112","trial","","40","800","1031.8150000064634","images/stimuli/spore_stims/simple_20_B_b.gif","images/stimuli/spore_stims/simple_20_A_b.gif","","","","","15","simple_similar","images/stimuli/spore_stims/simple_20_A_b.gif","right","","","","",""
"","null","html-keyboard-response","286","398491","0.0-53.0-0.4","SS1613080649112","","","null","","","","","<p><img src= images/blank.png width =""200"" height = ""200"" style = ""float:right""></p><p><img src=images/blank.png width =""800"" height = ""200""></p>","","","","","","","","","","","",""
"","169.209999992745","sequential-stimulus-presentation","287","399470","0.0-53.0-1.4","SS1613080649112","trial","","40","800","969.209999992745","images/stimuli/spore_stims/simple_20_B_b.gif","images/stimuli/spore_stims/simple_20_A_b.gif","","","","","15","simple_similar","images/stimuli/spore_stims/simple_20_A_b.gif","right","","","","",""
"","null","html-keyboard-response","288","400381","0.0-53.0-0.5","SS1613080649112","","","null","","","","","<p><img src= images/blank.png width =""200"" height = ""200"" style = ""float:right""></p><p><img src=images/blank.png width =""800"" height = ""200""></p>","","","","","","","","","","","",""
"","207.28500001132488","sequential-stimulus-presentation","289","401409","0.0-53.0-1.5","SS1613080649112","trial","","40","800","1007.2850000113249","images/stimuli/spore_stims/simple_20_B_b.gif","images/stimuli/spore_stims/simple_20_A_b.gif","","","","","15","simple_similar","images/stimuli/spore_stims/simple_20_B_b.gif","middle","","","","",""
"","null","html-keyboard-response","290","402649","0.0-53.0-0.6","SS1613080649112","","","null","","","","","<p><img src= images/blank.png width =""200"" height = ""200"" style = ""float:right""></p><p><img src=images/blank.png width =""800"" height = ""200""></p>","","","","","","","","","","","",""
"","324.1850000049453","sequential-stimulus-presentation","291","403788","0.0-53.0-1.6","SS1613080649112","trial","","40","800","1124.1850000049453","images/stimuli/spore_stims/simple_20_B_b.gif","images/stimuli/spore_stims/simple_20_A_b.gif","","","","","15","simple_similar","images/stimuli/spore_stims/simple_20_A_b.gif","right","","","","",""
"","null","html-keyboard-response","292","405075","0.0-53.0-0.7","SS1613080649112","","","null","","","","","<p><img src= images/blank.png width =""200"" height = ""200"" style = ""float:right""></p><p><img src=images/blank.png width =""800"" height = ""200""></p>","","","","","","","","","","","",""
"","255.65500001539476","sequential-stimulus-presentation","293","406147","0.0-53.0-1.7","SS1613080649112","trial","","40","800","1055.6550000153948","images/stimuli/spore_stims/simple_20_B_b.gif","images/stimuli/spore_stims/simple_20_A_b.gif","","","","","15","simple_similar","images/stimuli/spore_stims/simple_20_A_b.gif","right","","","","",""
"","1237.6050000020768","html-keyboard-response","294","407399","0.0-54.0","SS1613080649112","pref_question","","49","","","","","<video width ='960' height = '540' style='padding-top:8%' autoplay muted><source src='images/stimuli/wall_pref.mp4' type='video/mp4'></video>","1","left","25%","15","","","","","","","",""
"","406.17000000202097","sequential-stimulus-presentation","295","408611","0.0-55.0","SS1613080649112","pref_reveal","","40","800","1206.170000002021","null","null","","","","","15","","","","novel","","","",""
"","null","html-keyboard-response","296","409476","0.0-56.0-0.0","SS1613080649112","","","null","","","","","<p><img src= images/blank.png width =""200"" height = ""200"" style = ""float:right""></p><p><img src=images/blank.png width =""800"" height = ""200""></p>","","","","","","","","","","","",""
"","225.01999998348765","sequential-stimulus-presentation","297","410517","0.0-56.0-1.0","SS1613080649112","trial","","40","800","1025.0199999834877","images/stimuli/spore_stims/complex_12_A_a.gif","images/stimuli/spore_stims/complex_12_B_a.gif","","","","","16","complex_similar","images/stimuli/spore_stims/complex_12_B_a.gif","middle","","","","",""
"","null","html-keyboard-response","298","411801","0.0-56.0-0.1","SS1613080649112","","","null","","","","","<p><img src= images/blank.png width =""200"" height = ""200"" style = ""float:right""></p><p><img src=images/blank.png width =""800"" height = ""200""></p>","","","","","","","","","","","",""
"","275.03999997861683","sequential-stimulus-presentation","299","412891","0.0-56.0-1.1","SS1613080649112","trial","","40","800","1075.0399999786168","images/stimuli/spore_stims/complex_12_A_a.gif","images/stimuli/spore_stims/complex_12_B_a.gif","","","","","16","complex_similar","images/stimuli/spore_stims/complex_12_B_a.gif","middle","","","","",""
"","null","html-keyboard-response","300","414043","0.0-56.0-0.2","SS1613080649112","","","null","","","","","<p><img src= images/blank.png width =""200"" height = ""200"" style = ""float:right""></p><p><img src=images/blank.png width =""800"" height = ""200""></p>","","","","","","","","","","","",""
"","258.2750000001397","sequential-stimulus-presentation","301","415108","0.0-56.0-1.2","SS1613080649112","trial","","40","800","1058.2750000001397","images/stimuli/spore_stims/complex_12_A_a.gif","images/stimuli/spore_stims/complex_12_B_a.gif","","","","","16","complex_similar","images/stimuli/spore_stims/complex_12_B_a.gif","middle","","","","",""
"","null","html-keyboard-response","302","416122","0.0-56.0-0.3","SS1613080649112","","","null","","","","","<p><img src= images/blank.png width =""200"" height = ""200"" style = ""float:right""></p><p><img src=images/blank.png width =""800"" height = ""200""></p>","","","","","","","","","","","",""
"","251.8300000228919","sequential-stimulus-presentation","303","417181","0.0-56.0-1.3","SS1613080649112","trial","","40","800","1051.830000022892","images/stimuli/spore_stims/complex_12_A_a.gif","images/stimuli/spore_stims/complex_12_B_a.gif","","","","","16","complex_similar","images/stimuli/spore_stims/complex_12_B_a.gif","middle","","","","",""
"","null","html-keyboard-response","304","418161","0.0-56.0-0.4","SS1613080649112","","","null","","","","","<p><img src= images/blank.png width =""200"" height = ""200"" style = ""float:right""></p><p><img src=images/blank.png width =""800"" height = ""200""></p>","","","","","","","","","","","",""
"","262.82000000355765","sequential-stimulus-presentation","305","419234","0.0-56.0-1.4","SS1613080649112","trial","","40","800","1062.8200000035577","images/stimuli/spore_stims/complex_12_A_a.gif","images/stimuli/spore_stims/complex_12_B_a.gif","","","","","16","complex_similar","images/stimuli/spore_stims/complex_12_B_a.gif","middle","","","","",""
"","null","html-keyboard-response","306","420353","0.0-56.0-0.5","SS1613080649112","","","null","","","","","<p><img src= images/blank.png width =""200"" height = ""200"" style = ""float:right""></p><p><img src=images/blank.png width =""800"" height = ""200""></p>","","","","","","","","","","","",""
"","290.01999998581596","sequential-stimulus-presentation","307","421460","0.0-56.0-1.5","SS1613080649112","trial","","40","800","1090.019999985816","images/stimuli/spore_stims/complex_12_A_a.gif","images/stimuli/spore_stims/complex_12_B_a.gif","","","","","16","complex_similar","images/stimuli/spore_stims/complex_12_B_a.gif","middle","","","","",""
"","null","html-keyboard-response","308","422713","0.0-56.0-0.6","SS1613080649112","","","null","","","","","<p><img src= images/blank.png width =""200"" height = ""200"" style = ""float:right""></p><p><img src=images/blank.png width =""800"" height = ""200""></p>","","","","","","","","","","","",""
"","382.2400000062771","sequential-stimulus-presentation","309","423908","0.0-56.0-1.6","SS1613080649112","trial","","40","800","1182.2400000062771","images/stimuli/spore_stims/complex_12_A_a.gif","images/stimuli/spore_stims/complex_12_B_a.gif","","","","","16","complex_similar","images/stimuli/spore_stims/complex_12_A_a.gif","left","","","","",""
"","null","html-keyboard-response","310","425210","0.0-56.0-0.7","SS1613080649112","","","null","","","","","<p><img src= images/blank.png width =""200"" height = ""200"" style = ""float:right""></p><p><img src=images/blank.png width =""800"" height = ""200""></p>","","","","","","","","","","","",""
"","235.5000000097789","sequential-stimulus-presentation","311","426261","0.0-56.0-1.7","SS1613080649112","trial","","40","800","1035.500000009779","images/stimuli/spore_stims/complex_12_A_a.gif","images/stimuli/spore_stims/complex_12_B_a.gif","","","","","16","complex_similar","images/stimuli/spore_stims/complex_12_B_a.gif","middle","","","","",""
"","1816.6700000001583","html-keyboard-response","312","428088","0.0-57.0","SS1613080649112","pref_question","","51","","","","","<video width ='960' height = '540' style='padding-top:8%' autoplay muted><source src='images/stimuli/wall_pref.mp4' type='video/mp4'></video>","3","right","66%","16","","","","","","","",""
