"view_history","rt","trial_type","trial_index","time_elapsed","internal_node_id","subject","stimulus_type","trial_stimulus","key_press","minimum_viewing_duration","trial_looking_time","block_deviant","block_background","stimulus","wall_pref","location","location_percent","block_number","block_type","stimulus_displayed","position_displayed","stim_type_selected","responses","question_order","stimulus_left","stimulus_right"
"[{""page_index"":0,""viewing_time"":14533.5999999661}]","14534.200000111014","instructions","0","14539","0.0-0.0","SS1613178551082","","","","","","","","","","","","","","","","","","","",""
"[{""page_index"":0,""viewing_time"":213848.29999995418},{""page_index"":1,""viewing_time"":10291.999999899417}]","224140.8999999985","instructions","1","240684","0.0-1.0","SS1613178551082","instructions","","","","","","","","","","","","","","","","","","",""
"","8381.300000008196","sequential-stimulus-presentation","2","249876","0.0-2.0","SS1613178551082","","","40","800","9181.300000008196","null","null","","","","","","","","","","","","",""
"","386.10000000335276","sequential-stimulus-presentation","3","251074","0.0-3.0","SS1613178551082","","","40","800","1186.1000000033528","null","null","","","","","","","","","","","","",""
"[{""page_index"":0,""viewing_time"":5103.399999905378}]","5104.000000050291","instructions","4","256186","0.0-4.0","SS1613178551082","instructions","","","","","","","","","","","","","","","","","","",""
"","22012.199999997392","html-keyboard-response","5","278203","0.0-5.0","SS1613178551082","instructions","","98","","","","","<video width ='960' height = '540' autoplay muted><source src='images/stimuli/wall_pref.mp4' type='video/mp4'></video>","2","middle","45%","","","","","","","","",""
"","1480.5999998934567","sequential-stimulus-presentation","6","280497","0.0-6.0","SS1613178551082","pref_reveal","","40","800","2280.5999998934567","null","null","","","","","","","","","","","","",""
"[{""page_index"":0,""viewing_time"":7584.100000094622},{""page_index"":1,""viewing_time"":8151.799999875948},{""page_index"":2,""viewing_time"":1234.1000000014901},{""page_index"":3,""viewing_time"":1072.6000000722706}]","18043.100000126287","instructions","7","298549","0.0-7.0","SS1613178551082","instructions","","","","","","","","","","","","","","","","","","",""
"","null","html-keyboard-response","8","299583","0.0-8.0-0.0","SS1613178551082","","","null","","","","","<p><img src= images/blank.png width =""200"" height = ""200"" style = ""float:right""></p><p><img src=images/blank.png width =""800"" height = ""200""></p>","","","","","","","","","","","",""
"","114.10000012256205","sequential-stimulus-presentation","9","300504","0.0-8.0-1.0","SS1613178551082","trial","","40","800","914.100000122562","images/stimuli/spore_stims/complex_06_A_b.gif","images/stimuli/spore_stims/complex_20_B_b.gif","","","","","0","complex_dissimilar","images/stimuli/spore_stims/complex_20_B_b.gif","left","","","","",""
"","null","html-keyboard-response","10","301676","0.0-8.0-0.1","SS1613178551082","","","null","","","","","<p><img src= images/blank.png width =""200"" height = ""200"" style = ""float:right""></p><p><img src=images/blank.png width =""800"" height = ""200""></p>","","","","","","","","","","","",""
"","614.2000001855195","sequential-stimulus-presentation","11","303096","0.0-8.0-1.1","SS1613178551082","trial","","40","800","1414.2000001855195","images/stimuli/spore_stims/complex_06_A_b.gif","images/stimuli/spore_stims/complex_20_B_b.gif","","","","","0","complex_dissimilar","images/stimuli/spore_stims/complex_20_B_b.gif","left","","","","",""
"","null","html-keyboard-response","12","304153","0.0-8.0-0.2","SS1613178551082","","","null","","","","","<p><img src= images/blank.png width =""200"" height = ""200"" style = ""float:right""></p><p><img src=images/blank.png width =""800"" height = ""200""></p>","","","","","","","","","","","",""
"","826.2000000104308","sequential-stimulus-presentation","13","305784","0.0-8.0-1.2","SS1613178551082","trial","","40","800","1626.2000000104308","images/stimuli/spore_stims/complex_06_A_b.gif","images/stimuli/spore_stims/complex_20_B_b.gif","","","","","0","complex_dissimilar","images/stimuli/spore_stims/complex_20_B_b.gif","left","","","","",""
"","null","html-keyboard-response","14","306776","0.0-8.0-0.3","SS1613178551082","","","null","","","","","<p><img src= images/blank.png width =""200"" height = ""200"" style = ""float:right""></p><p><img src=images/blank.png width =""800"" height = ""200""></p>","","","","","","","","","","","",""
"","693.8999998383224","sequential-stimulus-presentation","15","308274","0.0-8.0-1.3","SS1613178551082","trial","","40","800","1493.8999998383224","images/stimuli/spore_stims/complex_06_A_b.gif","images/stimuli/spore_stims/complex_20_B_b.gif","","","","","0","complex_dissimilar","images/stimuli/spore_stims/complex_20_B_b.gif","left","","","","",""
"","null","html-keyboard-response","16","309437","0.0-8.0-0.4","SS1613178551082","","","null","","","","","<p><img src= images/blank.png width =""200"" height = ""200"" style = ""float:right""></p><p><img src=images/blank.png width =""800"" height = ""200""></p>","","","","","","","","","","","",""
"","388.7000000104308","sequential-stimulus-presentation","17","310632","0.0-8.0-1.4","SS1613178551082","trial","","40","800","1188.7000000104308","images/stimuli/spore_stims/complex_06_A_b.gif","images/stimuli/spore_stims/complex_20_B_b.gif","","","","","0","complex_dissimilar","images/stimuli/spore_stims/complex_20_B_b.gif","left","","","","",""
"","null","html-keyboard-response","18","311672","0.0-8.0-0.5","SS1613178551082","","","null","","","","","<p><img src= images/blank.png width =""200"" height = ""200"" style = ""float:right""></p><p><img src=images/blank.png width =""800"" height = ""200""></p>","","","","","","","","","","","",""
"","378.10000008903444","sequential-stimulus-presentation","19","312856","0.0-8.0-1.5","SS1613178551082","trial","","40","800","1178.1000000890344","images/stimuli/spore_stims/complex_06_A_b.gif","images/stimuli/spore_stims/complex_20_B_b.gif","","","","","0","complex_dissimilar","images/stimuli/spore_stims/complex_20_B_b.gif","left","","","","",""
"","null","html-keyboard-response","20","313691","0.0-8.0-0.6","SS1613178551082","","","null","","","","","<p><img src= images/blank.png width =""200"" height = ""200"" style = ""float:right""></p><p><img src=images/blank.png width =""800"" height = ""200""></p>","","","","","","","","","","","",""
"","304.5000000856817","sequential-stimulus-presentation","21","314800","0.0-8.0-1.6","SS1613178551082","trial","","40","800","1104.5000000856817","images/stimuli/spore_stims/complex_06_A_b.gif","images/stimuli/spore_stims/complex_20_B_b.gif","","","","","0","complex_dissimilar","images/stimuli/spore_stims/complex_20_B_b.gif","left","","","","",""
"","null","html-keyboard-response","22","315795","0.0-8.0-0.7","SS1613178551082","","","null","","","","","<p><img src= images/blank.png width =""200"" height = ""200"" style = ""float:right""></p><p><img src=images/blank.png width =""800"" height = ""200""></p>","","","","","","","","","","","",""
"","87.19999995082617","sequential-stimulus-presentation","23","316688","0.0-8.0-1.7","SS1613178551082","trial","","40","800","887.1999999508262","images/stimuli/spore_stims/complex_06_A_b.gif","images/stimuli/spore_stims/complex_20_B_b.gif","","","","","0","complex_dissimilar","images/stimuli/spore_stims/complex_06_A_b.gif","right","","","","",""
"","1437.2999998740852","html-keyboard-response","24","318136","0.0-9.0","SS1613178551082","pref_question","","99","","","","","<video width ='960' height = '540' style='padding-top:8%' autoplay muted><source src='images/stimuli/wall_pref.mp4' type='video/mp4'></video>","3","right","66%","0","","","","","","","",""
"","348.8999998662621","sequential-stimulus-presentation","25","319298","0.0-10.0","SS1613178551082","pref_reveal","","40","800","1148.899999866262","null","null","","","","","0","","","","deviant","","","",""
"","null","html-keyboard-response","26","320440","0.0-11.0-0.0","SS1613178551082","","","null","","","","","<p><img src= images/blank.png width =""200"" height = ""200"" style = ""float:right""></p><p><img src=images/blank.png width =""800"" height = ""200""></p>","","","","","","","","","","","",""
"","362.40000021643937","sequential-stimulus-presentation","27","321609","0.0-11.0-1.0","SS1613178551082","trial","","40","800","1162.4000002164394","images/stimuli/spore_stims/simple_09_A_d.gif","images/stimuli/spore_stims/simple_13_B_b.gif","","","","","1","simple_dissimilar","images/stimuli/spore_stims/simple_13_B_b.gif","middle","","","","",""
"","null","html-keyboard-response","28","322455","0.0-11.0-0.1","SS1613178551082","","","null","","","","","<p><img src= images/blank.png width =""200"" height = ""200"" style = ""float:right""></p><p><img src=images/blank.png width =""800"" height = ""200""></p>","","","","","","","","","","","",""
"","60.999999986961484","sequential-stimulus-presentation","29","323320","0.0-11.0-1.1","SS1613178551082","trial","","40","800","860.9999999869615","images/stimuli/spore_stims/simple_09_A_d.gif","images/stimuli/spore_stims/simple_13_B_b.gif","","","","","1","simple_dissimilar","images/stimuli/spore_stims/simple_13_B_b.gif","middle","","","","",""
"","null","html-keyboard-response","30","324419","0.0-11.0-0.2","SS1613178551082","","","null","","","","","<p><img src= images/blank.png width =""200"" height = ""200"" style = ""float:right""></p><p><img src=images/blank.png width =""800"" height = ""200""></p>","","","","","","","","","","","",""
"","32.00000012293458","sequential-stimulus-presentation","31","325256","0.0-11.0-1.2","SS1613178551082","trial","","40","800","832.0000001229346","images/stimuli/spore_stims/simple_09_A_d.gif","images/stimuli/spore_stims/simple_13_B_b.gif","","","","","1","simple_dissimilar","images/stimuli/spore_stims/simple_13_B_b.gif","middle","","","","",""
"","null","html-keyboard-response","32","326409","0.0-11.0-0.3","SS1613178551082","","","null","","","","","<p><img src= images/blank.png width =""200"" height = ""200"" style = ""float:right""></p><p><img src=images/blank.png width =""800"" height = ""200""></p>","","","","","","","","","","","",""
"","473.8000000361353","sequential-stimulus-presentation","33","327688","0.0-11.0-1.3","SS1613178551082","trial","","40","800","1273.8000000361353","images/stimuli/spore_stims/simple_09_A_d.gif","images/stimuli/spore_stims/simple_13_B_b.gif","","","","","1","simple_dissimilar","images/stimuli/spore_stims/simple_13_B_b.gif","middle","","","","",""
"","null","html-keyboard-response","34","328894","0.0-11.0-0.4","SS1613178551082","","","null","","","","","<p><img src= images/blank.png width =""200"" height = ""200"" style = ""float:right""></p><p><img src=images/blank.png width =""800"" height = ""200""></p>","","","","","","","","","","","",""
"","2131.7999998573214","sequential-stimulus-presentation","35","331832","0.0-11.0-1.4","SS1613178551082","trial","","40","800","2931.7999998573214","images/stimuli/spore_stims/simple_09_A_d.gif","images/stimuli/spore_stims/simple_13_B_b.gif","","","","","1","simple_dissimilar","images/stimuli/spore_stims/simple_09_A_d.gif","right","","","","",""
"","null","html-keyboard-response","36","332678","0.0-11.0-0.5","SS1613178551082","","","null","","","","","<p><img src= images/blank.png width =""200"" height = ""200"" style = ""float:right""></p><p><img src=images/blank.png width =""800"" height = ""200""></p>","","","","","","","","","","","",""
"","4483.299999963492","sequential-stimulus-presentation","37","337968","0.0-11.0-1.5","SS1613178551082","trial","","40","800","5283.299999963492","images/stimuli/spore_stims/simple_09_A_d.gif","images/stimuli/spore_stims/simple_13_B_b.gif","","","","","1","simple_dissimilar","images/stimuli/spore_stims/simple_13_B_b.gif","middle","","","","",""
"","null","html-keyboard-response","38","338972","0.0-11.0-0.6","SS1613178551082","","","null","","","","","<p><img src= images/blank.png width =""200"" height = ""200"" style = ""float:right""></p><p><img src=images/blank.png width =""800"" height = ""200""></p>","","","","","","","","","","","",""
"","351.09999985434115","sequential-stimulus-presentation","39","340128","0.0-11.0-1.6","SS1613178551082","trial","","40","800","1151.0999998543411","images/stimuli/spore_stims/simple_09_A_d.gif","images/stimuli/spore_stims/simple_13_B_b.gif","","","","","1","simple_dissimilar","images/stimuli/spore_stims/simple_13_B_b.gif","middle","","","","",""
"","null","html-keyboard-response","40","341119","0.0-11.0-0.7","SS1613178551082","","","null","","","","","<p><img src= images/blank.png width =""200"" height = ""200"" style = ""float:right""></p><p><img src=images/blank.png width =""800"" height = ""200""></p>","","","","","","","","","","","",""
"","757.60000012815","sequential-stimulus-presentation","41","342680","0.0-11.0-1.7","SS1613178551082","trial","","40","800","1557.60000012815","images/stimuli/spore_stims/simple_09_A_d.gif","images/stimuli/spore_stims/simple_13_B_b.gif","","","","","1","simple_dissimilar","images/stimuli/spore_stims/simple_13_B_b.gif","middle","","","","",""
"","1803.3000000286847","html-keyboard-response","42","344489","0.0-12.0","SS1613178551082","pref_question","","97","","","","","<video width ='960' height = '540' style='padding-top:8%' autoplay muted><source src='images/stimuli/wall_pref.mp4' type='video/mp4'></video>","1","left","25%","1","","","","","","","",""
"","496.7000000178814","sequential-stimulus-presentation","43","345800","0.0-13.0","SS1613178551082","pref_reveal","","40","800","1296.7000000178814","null","null","","","","","1","","","","novel","","","",""
"","null","html-keyboard-response","44","347109","0.0-14.0-0.0","SS1613178551082","","","null","","","","","<p><img src= images/blank.png width =""200"" height = ""200"" style = ""float:right""></p><p><img src=images/blank.png width =""800"" height = ""200""></p>","","","","","","","","","","","",""
"","1039.6999998483807","sequential-stimulus-presentation","45","348952","0.0-14.0-1.0","SS1613178551082","trial","","40","800","1839.6999998483807","images/stimuli/spore_stims/simple_14_B_d.gif","images/stimuli/spore_stims/simple_14_A_d.gif","","","","","2","simple_similar","images/stimuli/spore_stims/simple_14_A_d.gif","right","","","","",""
"","null","html-keyboard-response","46","349887","0.0-14.0-0.1","SS1613178551082","","","null","","","","","<p><img src= images/blank.png width =""200"" height = ""200"" style = ""float:right""></p><p><img src=images/blank.png width =""800"" height = ""200""></p>","","","","","","","","","","","",""
"","458.600000012666","sequential-stimulus-presentation","47","351152","0.0-14.0-1.1","SS1613178551082","trial","","40","800","1258.600000012666","images/stimuli/spore_stims/simple_14_B_d.gif","images/stimuli/spore_stims/simple_14_A_d.gif","","","","","2","simple_similar","images/stimuli/spore_stims/simple_14_A_d.gif","right","","","","",""
"","null","html-keyboard-response","48","352128","0.0-14.0-0.2","SS1613178551082","","","null","","","","","<p><img src= images/blank.png width =""200"" height = ""200"" style = ""float:right""></p><p><img src=images/blank.png width =""800"" height = ""200""></p>","","","","","","","","","","","",""
"","778.5000000149012","sequential-stimulus-presentation","49","353713","0.0-14.0-1.2","SS1613178551082","trial","","40","800","1578.5000000149012","images/stimuli/spore_stims/simple_14_B_d.gif","images/stimuli/spore_stims/simple_14_A_d.gif","","","","","2","simple_similar","images/stimuli/spore_stims/simple_14_A_d.gif","right","","","","",""
"","null","html-keyboard-response","50","354919","0.0-14.0-0.3","SS1613178551082","","","null","","","","","<p><img src= images/blank.png width =""200"" height = ""200"" style = ""float:right""></p><p><img src=images/blank.png width =""800"" height = ""200""></p>","","","","","","","","","","","",""
"","284.199999878183","sequential-stimulus-presentation","51","356008","0.0-14.0-1.3","SS1613178551082","trial","","40","800","1084.199999878183","images/stimuli/spore_stims/simple_14_B_d.gif","images/stimuli/spore_stims/simple_14_A_d.gif","","","","","2","simple_similar","images/stimuli/spore_stims/simple_14_A_d.gif","right","","","","",""
"","null","html-keyboard-response","52","356899","0.0-14.0-0.4","SS1613178551082","","","null","","","","","<p><img src= images/blank.png width =""200"" height = ""200"" style = ""float:right""></p><p><img src=images/blank.png width =""800"" height = ""200""></p>","","","","","","","","","","","",""
"","479.0999998804182","sequential-stimulus-presentation","53","358186","0.0-14.0-1.4","SS1613178551082","trial","","40","800","1279.0999998804182","images/stimuli/spore_stims/simple_14_B_d.gif","images/stimuli/spore_stims/simple_14_A_d.gif","","","","","2","simple_similar","images/stimuli/spore_stims/simple_14_A_d.gif","right","","","","",""
"","null","html-keyboard-response","54","359140","0.0-14.0-0.5","SS1613178551082","","","null","","","","","<p><img src= images/blank.png width =""200"" height = ""200"" style = ""float:right""></p><p><img src=images/blank.png width =""800"" height = ""200""></p>","","","","","","","","","","","",""
"","461.8999999947846","sequential-stimulus-presentation","55","360409","0.0-14.0-1.5","SS1613178551082","trial","","40","800","1261.8999999947846","images/stimuli/spore_stims/simple_14_B_d.gif","images/stimuli/spore_stims/simple_14_A_d.gif","","","","","2","simple_similar","images/stimuli/spore_stims/simple_14_B_d.gif","middle","","","","",""
"","null","html-keyboard-response","56","361279","0.0-14.0-0.6","SS1613178551082","","","null","","","","","<p><img src= images/blank.png width =""200"" height = ""200"" style = ""float:right""></p><p><img src=images/blank.png width =""800"" height = ""200""></p>","","","","","","","","","","","",""
"","226.8999998923391","sequential-stimulus-presentation","57","362313","0.0-14.0-1.6","SS1613178551082","trial","","40","800","1026.899999892339","images/stimuli/spore_stims/simple_14_B_d.gif","images/stimuli/spore_stims/simple_14_A_d.gif","","","","","2","simple_similar","images/stimuli/spore_stims/simple_14_A_d.gif","right","","","","",""
"","null","html-keyboard-response","58","363188","0.0-14.0-0.7","SS1613178551082","","","null","","","","","<p><img src= images/blank.png width =""200"" height = ""200"" style = ""float:right""></p><p><img src=images/blank.png width =""800"" height = ""200""></p>","","","","","","","","","","","",""
"","285.49999999813735","sequential-stimulus-presentation","59","364281","0.0-14.0-1.7","SS1613178551082","trial","","40","800","1085.4999999981374","images/stimuli/spore_stims/simple_14_B_d.gif","images/stimuli/spore_stims/simple_14_A_d.gif","","","","","2","simple_similar","images/stimuli/spore_stims/simple_14_A_d.gif","right","","","","",""
"","2123.0000001378357","html-keyboard-response","60","366416","0.0-15.0","SS1613178551082","pref_question","","99","","","","","<video width ='960' height = '540' style='padding-top:8%' autoplay muted><source src='images/stimuli/wall_pref.mp4' type='video/mp4'></video>","3","right","66%","2","","","","","","","",""
"","2354.600000195205","sequential-stimulus-presentation","61","369584","0.0-16.0","SS1613178551082","pref_reveal","","40","800","3154.600000195205","null","null","","","","","2","","","","background","","","",""
"","null","html-keyboard-response","62","370592","0.0-17.0-0.0","SS1613178551082","","","null","","","","","<p><img src= images/blank.png width =""200"" height = ""200"" style = ""float:right""></p><p><img src=images/blank.png width =""800"" height = ""200""></p>","","","","","","","","","","","",""
"","1019.1999999806285","sequential-stimulus-presentation","63","372418","0.0-17.0-1.0","SS1613178551082","trial","","40","800","1819.1999999806285","images/stimuli/spore_stims/complex_19_B_a.gif","images/stimuli/spore_stims/complex_17_A_c.gif","","","","","3","complex_dissimilar","images/stimuli/spore_stims/complex_17_A_c.gif","middle","","","","",""
"","null","html-keyboard-response","64","373244","0.0-17.0-0.1","SS1613178551082","","","null","","","","","<p><img src= images/blank.png width =""200"" height = ""200"" style = ""float:right""></p><p><img src=images/blank.png width =""800"" height = ""200""></p>","","","","","","","","","","","",""
"","174.09999994561076","sequential-stimulus-presentation","65","374225","0.0-17.0-1.1","SS1613178551082","trial","","40","800","974.0999999456108","images/stimuli/spore_stims/complex_19_B_a.gif","images/stimuli/spore_stims/complex_17_A_c.gif","","","","","3","complex_dissimilar","images/stimuli/spore_stims/complex_17_A_c.gif","middle","","","","",""
"","null","html-keyboard-response","66","375302","0.0-17.0-0.2","SS1613178551082","","","null","","","","","<p><img src= images/blank.png width =""200"" height = ""200"" style = ""float:right""></p><p><img src=images/blank.png width =""800"" height = ""200""></p>","","","","","","","","","","","",""
"","708.0999999307096","sequential-stimulus-presentation","67","376816","0.0-17.0-1.2","SS1613178551082","trial","","40","800","1508.0999999307096","images/stimuli/spore_stims/complex_19_B_a.gif","images/stimuli/spore_stims/complex_17_A_c.gif","","","","","3","complex_dissimilar","images/stimuli/spore_stims/complex_19_B_a.gif","left","","","","",""
"","null","html-keyboard-response","68","378088","0.0-17.0-0.3","SS1613178551082","","","null","","","","","<p><img src= images/blank.png width =""200"" height = ""200"" style = ""float:right""></p><p><img src=images/blank.png width =""800"" height = ""200""></p>","","","","","","","","","","","",""
"","297.69999999552965","sequential-stimulus-presentation","69","379193","0.0-17.0-1.3","SS1613178551082","trial","","40","800","1097.6999999955297","images/stimuli/spore_stims/complex_19_B_a.gif","images/stimuli/spore_stims/complex_17_A_c.gif","","","","","3","complex_dissimilar","images/stimuli/spore_stims/complex_17_A_c.gif","middle","","","","",""
"","null","html-keyboard-response","70","380406","0.0-17.0-0.4","SS1613178551082","","","null","","","","","<p><img src= images/blank.png width =""200"" height = ""200"" style = ""float:right""></p><p><img src=images/blank.png width =""800"" height = ""200""></p>","","","","","","","","","","","",""
"","964.5999998319894","sequential-stimulus-presentation","71","382176","0.0-17.0-1.4","SS1613178551082","trial","","40","800","1764.5999998319894","images/stimuli/spore_stims/complex_19_B_a.gif","images/stimuli/spore_stims/complex_17_A_c.gif","","","","","3","complex_dissimilar","images/stimuli/spore_stims/complex_17_A_c.gif","middle","","","","",""
"","null","html-keyboard-response","72","383017","0.0-17.0-0.5","SS1613178551082","","","null","","","","","<p><img src= images/blank.png width =""200"" height = ""200"" style = ""float:right""></p><p><img src=images/blank.png width =""800"" height = ""200""></p>","","","","","","","","","","","",""
"","529.6000000089407","sequential-stimulus-presentation","73","384353","0.0-17.0-1.5","SS1613178551082","trial","","40","800","1329.6000000089407","images/stimuli/spore_stims/complex_19_B_a.gif","images/stimuli/spore_stims/complex_17_A_c.gif","","","","","3","complex_dissimilar","images/stimuli/spore_stims/complex_17_A_c.gif","middle","","","","",""
"","null","html-keyboard-response","74","385358","0.0-17.0-0.6","SS1613178551082","","","null","","","","","<p><img src= images/blank.png width =""200"" height = ""200"" style = ""float:right""></p><p><img src=images/blank.png width =""800"" height = ""200""></p>","","","","","","","","","","","",""
"","1180.5000000167638","sequential-stimulus-presentation","75","387344","0.0-17.0-1.6","SS1613178551082","trial","","40","800","1980.5000000167638","images/stimuli/spore_stims/complex_19_B_a.gif","images/stimuli/spore_stims/complex_17_A_c.gif","","","","","3","complex_dissimilar","images/stimuli/spore_stims/complex_17_A_c.gif","middle","","","","",""
"","null","html-keyboard-response","76","388221","0.0-17.0-0.7","SS1613178551082","","","null","","","","","<p><img src= images/blank.png width =""200"" height = ""200"" style = ""float:right""></p><p><img src=images/blank.png width =""800"" height = ""200""></p>","","","","","","","","","","","",""
"","1556.4000001177192","sequential-stimulus-presentation","77","390585","0.0-17.0-1.7","SS1613178551082","trial","","40","800","2356.400000117719","images/stimuli/spore_stims/complex_19_B_a.gif","images/stimuli/spore_stims/complex_17_A_c.gif","","","","","3","complex_dissimilar","images/stimuli/spore_stims/complex_17_A_c.gif","middle","","","","",""
"","2443.3999999891967","html-keyboard-response","78","393041","0.0-18.0","SS1613178551082","pref_question","","99","","","","","<video width ='960' height = '540' style='padding-top:8%' autoplay muted><source src='images/stimuli/wall_pref.mp4' type='video/mp4'></video>","3","right","66%","3","","","","","","","",""
"","737.9999998956919","sequential-stimulus-presentation","79","394593","0.0-19.0","SS1613178551082","pref_reveal","","40","800","1537.9999998956919","null","null","","","","","3","","","","novel","","","",""
"","null","html-keyboard-response","80","395559","0.0-20.0-0.0","SS1613178551082","","","null","","","","","<p><img src= images/blank.png width =""200"" height = ""200"" style = ""float:right""></p><p><img src=images/blank.png width =""800"" height = ""200""></p>","","","","","","","","","","","",""
"","441.79999991320074","sequential-stimulus-presentation","81","396809","0.0-20.0-1.0","SS1613178551082","trial","","40","800","1241.7999999132007","images/stimuli/spore_stims/simple_15_B_c.gif","images/stimuli/spore_stims/simple_15_A_c.gif","","","","","4","simple_similar","images/stimuli/spore_stims/simple_15_A_c.gif","right","","","","",""
"","null","html-keyboard-response","82","397734","0.0-20.0-0.1","SS1613178551082","","","null","","","","","<p><img src= images/blank.png width =""200"" height = ""200"" style = ""float:right""></p><p><img src=images/blank.png width =""800"" height = ""200""></p>","","","","","","","","","","","",""
"","828.5000000614673","sequential-stimulus-presentation","83","399367","0.0-20.0-1.1","SS1613178551082","trial","","40","800","1628.5000000614673","images/stimuli/spore_stims/simple_15_B_c.gif","images/stimuli/spore_stims/simple_15_A_c.gif","","","","","4","simple_similar","images/stimuli/spore_stims/simple_15_A_c.gif","right","","","","",""
"","null","html-keyboard-response","84","400409","0.0-20.0-0.2","SS1613178551082","","","null","","","","","<p><img src= images/blank.png width =""200"" height = ""200"" style = ""float:right""></p><p><img src=images/blank.png width =""800"" height = ""200""></p>","","","","","","","","","","","",""
"","430.7000001426786","sequential-stimulus-presentation","85","401648","0.0-20.0-1.2","SS1613178551082","trial","","40","800","1230.7000001426786","images/stimuli/spore_stims/simple_15_B_c.gif","images/stimuli/spore_stims/simple_15_A_c.gif","","","","","4","simple_similar","images/stimuli/spore_stims/simple_15_A_c.gif","right","","","","",""
"","null","html-keyboard-response","86","402549","0.0-20.0-0.3","SS1613178551082","","","null","","","","","<p><img src= images/blank.png width =""200"" height = ""200"" style = ""float:right""></p><p><img src=images/blank.png width =""800"" height = ""200""></p>","","","","","","","","","","","",""
"","45.200000051409006","sequential-stimulus-presentation","87","403407","0.0-20.0-1.3","SS1613178551082","trial","","40","800","845.200000051409","images/stimuli/spore_stims/simple_15_B_c.gif","images/stimuli/spore_stims/simple_15_A_c.gif","","","","","4","simple_similar","images/stimuli/spore_stims/simple_15_A_c.gif","right","","","","",""
"","null","html-keyboard-response","88","404555","0.0-20.0-0.4","SS1613178551082","","","null","","","","","<p><img src= images/blank.png width =""200"" height = ""200"" style = ""float:right""></p><p><img src=images/blank.png width =""800"" height = ""200""></p>","","","","","","","","","","","",""
"","46.30000004544854","sequential-stimulus-presentation","89","405407","0.0-20.0-1.4","SS1613178551082","trial","","40","800","846.3000000454485","images/stimuli/spore_stims/simple_15_B_c.gif","images/stimuli/spore_stims/simple_15_A_c.gif","","","","","4","simple_similar","images/stimuli/spore_stims/simple_15_A_c.gif","right","","","","",""
"","null","html-keyboard-response","90","406490","0.0-20.0-0.5","SS1613178551082","","","null","","","","","<p><img src= images/blank.png width =""200"" height = ""200"" style = ""float:right""></p><p><img src=images/blank.png width =""800"" height = ""200""></p>","","","","","","","","","","","",""
"","30.000000027939677","sequential-stimulus-presentation","91","407327","0.0-20.0-1.5","SS1613178551082","trial","","40","800","830.0000000279397","images/stimuli/spore_stims/simple_15_B_c.gif","images/stimuli/spore_stims/simple_15_A_c.gif","","","","","4","simple_similar","images/stimuli/spore_stims/simple_15_A_c.gif","right","","","","",""
"","null","html-keyboard-response","92","408471","0.0-20.0-0.6","SS1613178551082","","","null","","","","","<p><img src= images/blank.png width =""200"" height = ""200"" style = ""float:right""></p><p><img src=images/blank.png width =""800"" height = ""200""></p>","","","","","","","","","","","",""
"","1064.1999999061227","sequential-stimulus-presentation","93","410343","0.0-20.0-1.6","SS1613178551082","trial","","40","800","1864.1999999061227","images/stimuli/spore_stims/simple_15_B_c.gif","images/stimuli/spore_stims/simple_15_A_c.gif","","","","","4","simple_similar","images/stimuli/spore_stims/simple_15_B_c.gif","left","","","","",""
"","null","html-keyboard-response","94","411416","0.0-20.0-0.7","SS1613178551082","","","null","","","","","<p><img src= images/blank.png width =""200"" height = ""200"" style = ""float:right""></p><p><img src=images/blank.png width =""800"" height = ""200""></p>","","","","","","","","","","","",""
"","687.8999997861683","sequential-stimulus-presentation","95","412910","0.0-20.0-1.7","SS1613178551082","trial","","40","800","1487.8999997861683","images/stimuli/spore_stims/simple_15_B_c.gif","images/stimuli/spore_stims/simple_15_A_c.gif","","","","","4","simple_similar","images/stimuli/spore_stims/simple_15_A_c.gif","right","","","","",""
"","1740.4000000096858","html-keyboard-response","96","414665","0.0-21.0","SS1613178551082","pref_question","","98","","","","","<video width ='960' height = '540' style='padding-top:8%' autoplay muted><source src='images/stimuli/wall_pref.mp4' type='video/mp4'></video>","2","middle","45%","4","","","","","","","",""
"","935.7999998610467","sequential-stimulus-presentation","97","416415","0.0-22.0","SS1613178551082","pref_reveal","","40","800","1735.7999998610467","null","null","","","","","4","","","","novel","","","",""
"","null","html-keyboard-response","98","417702","0.0-23.0-0.0","SS1613178551082","","","null","","","","","<p><img src= images/blank.png width =""200"" height = ""200"" style = ""float:right""></p><p><img src=images/blank.png width =""800"" height = ""200""></p>","","","","","","","","","","","",""
"","1361.2999999895692","sequential-stimulus-presentation","99","419870","0.0-23.0-1.0","SS1613178551082","trial","","40","800","2161.299999989569","images/stimuli/spore_stims/complex_17_B_d.gif","images/stimuli/spore_stims/complex_03_A_c.gif","","","","","5","complex_dissimilar","images/stimuli/spore_stims/complex_03_A_c.gif","left","","","","",""
"","null","html-keyboard-response","100","420753","0.0-23.0-0.1","SS1613178551082","","","null","","","","","<p><img src= images/blank.png width =""200"" height = ""200"" style = ""float:right""></p><p><img src=images/blank.png width =""800"" height = ""200""></p>","","","","","","","","","","","",""
"","655.399999814108","sequential-stimulus-presentation","101","422215","0.0-23.0-1.1","SS1613178551082","trial","","40","800","1455.399999814108","images/stimuli/spore_stims/complex_17_B_d.gif","images/stimuli/spore_stims/complex_03_A_c.gif","","","","","5","complex_dissimilar","images/stimuli/spore_stims/complex_03_A_c.gif","left","","","","",""
"","null","html-keyboard-response","102","423267","0.0-23.0-0.2","SS1613178551082","","","null","","","","","<p><img src= images/blank.png width =""200"" height = ""200"" style = ""float:right""></p><p><img src=images/blank.png width =""800"" height = ""200""></p>","","","","","","","","","","","",""
"","2158.0999998841435","sequential-stimulus-presentation","103","426233","0.0-23.0-1.2","SS1613178551082","trial","","40","800","2958.0999998841435","images/stimuli/spore_stims/complex_17_B_d.gif","images/stimuli/spore_stims/complex_03_A_c.gif","","","","","5","complex_dissimilar","images/stimuli/spore_stims/complex_17_B_d.gif","right","","","","",""
"","null","html-keyboard-response","104","427379","0.0-23.0-0.3","SS1613178551082","","","null","","","","","<p><img src= images/blank.png width =""200"" height = ""200"" style = ""float:right""></p><p><img src=images/blank.png width =""800"" height = ""200""></p>","","","","","","","","","","","",""
"","556.0000000987202","sequential-stimulus-presentation","105","428743","0.0-23.0-1.3","SS1613178551082","trial","","40","800","1356.0000000987202","images/stimuli/spore_stims/complex_17_B_d.gif","images/stimuli/spore_stims/complex_03_A_c.gif","","","","","5","complex_dissimilar","images/stimuli/spore_stims/complex_03_A_c.gif","left","","","","",""
"","null","html-keyboard-response","106","429901","0.0-23.0-0.4","SS1613178551082","","","null","","","","","<p><img src= images/blank.png width =""200"" height = ""200"" style = ""float:right""></p><p><img src=images/blank.png width =""800"" height = ""200""></p>","","","","","","","","","","","",""
"","652.900000102818","sequential-stimulus-presentation","107","431359","0.0-23.0-1.4","SS1613178551082","trial","","40","800","1452.900000102818","images/stimuli/spore_stims/complex_17_B_d.gif","images/stimuli/spore_stims/complex_03_A_c.gif","","","","","5","complex_dissimilar","images/stimuli/spore_stims/complex_03_A_c.gif","left","","","","",""
"","null","html-keyboard-response","108","432316","0.0-23.0-0.5","SS1613178551082","","","null","","","","","<p><img src= images/blank.png width =""200"" height = ""200"" style = ""float:right""></p><p><img src=images/blank.png width =""800"" height = ""200""></p>","","","","","","","","","","","",""
"","411.69999982230365","sequential-stimulus-presentation","109","433535","0.0-23.0-1.5","SS1613178551082","trial","","40","800","1211.6999998223037","images/stimuli/spore_stims/complex_17_B_d.gif","images/stimuli/spore_stims/complex_03_A_c.gif","","","","","5","complex_dissimilar","images/stimuli/spore_stims/complex_03_A_c.gif","left","","","","",""
"","null","html-keyboard-response","110","434495","0.0-23.0-0.6","SS1613178551082","","","null","","","","","<p><img src= images/blank.png width =""200"" height = ""200"" style = ""float:right""></p><p><img src=images/blank.png width =""800"" height = ""200""></p>","","","","","","","","","","","",""
"","38.50000002421439","sequential-stimulus-presentation","111","435343","0.0-23.0-1.6","SS1613178551082","trial","","40","800","838.5000000242144","images/stimuli/spore_stims/complex_17_B_d.gif","images/stimuli/spore_stims/complex_03_A_c.gif","","","","","5","complex_dissimilar","images/stimuli/spore_stims/complex_03_A_c.gif","left","","","","",""
"","null","html-keyboard-response","112","436253","0.0-23.0-0.7","SS1613178551082","","","null","","","","","<p><img src= images/blank.png width =""200"" height = ""200"" style = ""float:right""></p><p><img src=images/blank.png width =""800"" height = ""200""></p>","","","","","","","","","","","",""
"","250.5000000819564","sequential-stimulus-presentation","113","437311","0.0-23.0-1.7","SS1613178551082","trial","","40","800","1050.5000000819564","images/stimuli/spore_stims/complex_17_B_d.gif","images/stimuli/spore_stims/complex_03_A_c.gif","","","","","5","complex_dissimilar","images/stimuli/spore_stims/complex_03_A_c.gif","left","","","","",""
"","1562.6000000629574","html-keyboard-response","114","438887","0.0-24.0","SS1613178551082","pref_question","","99","","","","","<video width ='960' height = '540' style='padding-top:8%' autoplay muted><source src='images/stimuli/wall_pref.mp4' type='video/mp4'></video>","3","right","66%","5","","","","","","","",""
"","192.39999982528389","sequential-stimulus-presentation","115","439887","0.0-25.0","SS1613178551082","pref_reveal","","40","800","992.3999998252839","null","null","","","","","5","","","","deviant","","","",""
"","null","html-keyboard-response","116","440925","0.0-26.0-0.0","SS1613178551082","","","null","","","","","<p><img src= images/blank.png width =""200"" height = ""200"" style = ""float:right""></p><p><img src=images/blank.png width =""800"" height = ""200""></p>","","","","","","","","","","","",""
"","1952.199999941513","sequential-stimulus-presentation","117","443687","0.0-26.0-1.0","SS1613178551082","trial","","40","800","2752.199999941513","images/stimuli/spore_stims/complex_13_A_b.gif","images/stimuli/spore_stims/complex_13_B_b.gif","","","","","6","complex_similar","images/stimuli/spore_stims/complex_13_B_b.gif","middle","","","","",""
"","null","html-keyboard-response","118","444969","0.0-26.0-0.1","SS1613178551082","","","null","","","","","<p><img src= images/blank.png width =""200"" height = ""200"" style = ""float:right""></p><p><img src=images/blank.png width =""800"" height = ""200""></p>","","","","","","","","","","","",""
"","606.0999999754131","sequential-stimulus-presentation","119","446383","0.0-26.0-1.1","SS1613178551082","trial","","40","800","1406.099999975413","images/stimuli/spore_stims/complex_13_A_b.gif","images/stimuli/spore_stims/complex_13_B_b.gif","","","","","6","complex_similar","images/stimuli/spore_stims/complex_13_B_b.gif","middle","","","","",""
"","null","html-keyboard-response","120","447472","0.0-26.0-0.2","SS1613178551082","","","null","","","","","<p><img src= images/blank.png width =""200"" height = ""200"" style = ""float:right""></p><p><img src=images/blank.png width =""800"" height = ""200""></p>","","","","","","","","","","","",""
"","346.70000011101365","sequential-stimulus-presentation","121","448623","0.0-26.0-1.2","SS1613178551082","trial","","40","800","1146.7000001110137","images/stimuli/spore_stims/complex_13_A_b.gif","images/stimuli/spore_stims/complex_13_B_b.gif","","","","","6","complex_similar","images/stimuli/spore_stims/complex_13_B_b.gif","middle","","","","",""
"","null","html-keyboard-response","122","449620","0.0-26.0-0.3","SS1613178551082","","","null","","","","","<p><img src= images/blank.png width =""200"" height = ""200"" style = ""float:right""></p><p><img src=images/blank.png width =""800"" height = ""200""></p>","","","","","","","","","","","",""
"","372.80000001192093","sequential-stimulus-presentation","123","450799","0.0-26.0-1.3","SS1613178551082","trial","","40","800","1172.800000011921","images/stimuli/spore_stims/complex_13_A_b.gif","images/stimuli/spore_stims/complex_13_B_b.gif","","","","","6","complex_similar","images/stimuli/spore_stims/complex_13_B_b.gif","middle","","","","",""
"","null","html-keyboard-response","124","451741","0.0-26.0-0.4","SS1613178551082","","","null","","","","","<p><img src= images/blank.png width =""200"" height = ""200"" style = ""float:right""></p><p><img src=images/blank.png width =""800"" height = ""200""></p>","","","","","","","","","","","",""
"","193.59999988228083","sequential-stimulus-presentation","125","452743","0.0-26.0-1.4","SS1613178551082","trial","","40","800","993.5999998822808","images/stimuli/spore_stims/complex_13_A_b.gif","images/stimuli/spore_stims/complex_13_B_b.gif","","","","","6","complex_similar","images/stimuli/spore_stims/complex_13_B_b.gif","middle","","","","",""
"","null","html-keyboard-response","126","453730","0.0-26.0-0.5","SS1613178551082","","","null","","","","","<p><img src= images/blank.png width =""200"" height = ""200"" style = ""float:right""></p><p><img src=images/blank.png width =""800"" height = ""200""></p>","","","","","","","","","","","",""
"","212.40000007674098","sequential-stimulus-presentation","127","454750","0.0-26.0-1.5","SS1613178551082","trial","","40","800","1012.400000076741","images/stimuli/spore_stims/complex_13_A_b.gif","images/stimuli/spore_stims/complex_13_B_b.gif","","","","","6","complex_similar","images/stimuli/spore_stims/complex_13_B_b.gif","middle","","","","",""
"","null","html-keyboard-response","128","455772","0.0-26.0-0.6","SS1613178551082","","","null","","","","","<p><img src= images/blank.png width =""200"" height = ""200"" style = ""float:right""></p><p><img src=images/blank.png width =""800"" height = ""200""></p>","","","","","","","","","","","",""
"","290.2999999932945","sequential-stimulus-presentation","129","456870","0.0-26.0-1.6","SS1613178551082","trial","","40","800","1090.2999999932945","images/stimuli/spore_stims/complex_13_A_b.gif","images/stimuli/spore_stims/complex_13_B_b.gif","","","","","6","complex_similar","images/stimuli/spore_stims/complex_13_B_b.gif","middle","","","","",""
"","null","html-keyboard-response","130","457786","0.0-26.0-0.7","SS1613178551082","","","null","","","","","<p><img src= images/blank.png width =""200"" height = ""200"" style = ""float:right""></p><p><img src=images/blank.png width =""800"" height = ""200""></p>","","","","","","","","","","","",""
"","380.3000000771135","sequential-stimulus-presentation","131","458975","0.0-26.0-1.7","SS1613178551082","trial","","40","800","1180.3000000771135","images/stimuli/spore_stims/complex_13_A_b.gif","images/stimuli/spore_stims/complex_13_B_b.gif","","","","","6","complex_similar","images/stimuli/spore_stims/complex_13_A_b.gif","left","","","","",""
"","2618.2999999728054","html-keyboard-response","132","461607","0.0-27.0","SS1613178551082","pref_question","","98","","","","","<video width ='960' height = '540' style='padding-top:8%' autoplay muted><source src='images/stimuli/wall_pref.mp4' type='video/mp4'></video>","2","middle","45%","6","","","","","","","",""
"","449.8000000603497","sequential-stimulus-presentation","133","462872","0.0-28.0","SS1613178551082","pref_reveal","","40","800","1249.8000000603497","null","null","","","","","6","","","","background","","","",""
"","null","html-keyboard-response","134","464067","0.0-29.0-0.0","SS1613178551082","","","null","","","","","<p><img src= images/blank.png width =""200"" height = ""200"" style = ""float:right""></p><p><img src=images/blank.png width =""800"" height = ""200""></p>","","","","","","","","","","","",""
"","614.9999999906868","sequential-stimulus-presentation","135","465487","0.0-29.0-1.0","SS1613178551082","trial","","40","800","1414.9999999906868","images/stimuli/spore_stims/simple_20_B_c.gif","images/stimuli/spore_stims/simple_20_A_c.gif","","","","","7","simple_similar","images/stimuli/spore_stims/simple_20_A_c.gif","right","","","","",""
"","null","html-keyboard-response","136","466490","0.0-29.0-0.1","SS1613178551082","","","null","","","","","<p><img src= images/blank.png width =""200"" height = ""200"" style = ""float:right""></p><p><img src=images/blank.png width =""800"" height = ""200""></p>","","","","","","","","","","","",""
"","91.90000011585653","sequential-stimulus-presentation","137","467391","0.0-29.0-1.1","SS1613178551082","trial","","40","800","891.9000001158565","images/stimuli/spore_stims/simple_20_B_c.gif","images/stimuli/spore_stims/simple_20_A_c.gif","","","","","7","simple_similar","images/stimuli/spore_stims/simple_20_A_c.gif","right","","","","",""
"","null","html-keyboard-response","138","468238","0.0-29.0-0.2","SS1613178551082","","","null","","","","","<p><img src= images/blank.png width =""200"" height = ""200"" style = ""float:right""></p><p><img src=images/blank.png width =""800"" height = ""200""></p>","","","","","","","","","","","",""
"","62.59999983012676","sequential-stimulus-presentation","139","469111","0.0-29.0-1.2","SS1613178551082","trial","","40","800","862.5999998301268","images/stimuli/spore_stims/simple_20_B_c.gif","images/stimuli/spore_stims/simple_20_A_c.gif","","","","","7","simple_similar","images/stimuli/spore_stims/simple_20_A_c.gif","right","","","","",""
"","null","html-keyboard-response","140","470186","0.0-29.0-0.3","SS1613178551082","","","null","","","","","<p><img src= images/blank.png width =""200"" height = ""200"" style = ""float:right""></p><p><img src=images/blank.png width =""800"" height = ""200""></p>","","","","","","","","","","","",""
"","619.5000000298023","sequential-stimulus-presentation","141","471615","0.0-29.0-1.3","SS1613178551082","trial","","40","800","1419.5000000298023","images/stimuli/spore_stims/simple_20_B_c.gif","images/stimuli/spore_stims/simple_20_A_c.gif","","","","","7","simple_similar","images/stimuli/spore_stims/simple_20_B_c.gif","middle","","","","",""
"","null","html-keyboard-response","142","472759","0.0-29.0-0.4","SS1613178551082","","","null","","","","","<p><img src= images/blank.png width =""200"" height = ""200"" style = ""float:right""></p><p><img src=images/blank.png width =""800"" height = ""200""></p>","","","","","","","","","","","",""
"","218.4999999590218","sequential-stimulus-presentation","143","473784","0.0-29.0-1.4","SS1613178551082","trial","","40","800","1018.4999999590218","images/stimuli/spore_stims/simple_20_B_c.gif","images/stimuli/spore_stims/simple_20_A_c.gif","","","","","7","simple_similar","images/stimuli/spore_stims/simple_20_A_c.gif","right","","","","",""
"","null","html-keyboard-response","144","474668","0.0-29.0-0.5","SS1613178551082","","","null","","","","","<p><img src= images/blank.png width =""200"" height = ""200"" style = ""float:right""></p><p><img src=images/blank.png width =""800"" height = ""200""></p>","","","","","","","","","","","",""
"","74.0999998524785","sequential-stimulus-presentation","145","475551","0.0-29.0-1.5","SS1613178551082","trial","","40","800","874.0999998524785","images/stimuli/spore_stims/simple_20_B_c.gif","images/stimuli/spore_stims/simple_20_A_c.gif","","","","","7","simple_similar","images/stimuli/spore_stims/simple_20_A_c.gif","right","","","","",""
"","null","html-keyboard-response","146","476454","0.0-29.0-0.6","SS1613178551082","","","null","","","","","<p><img src= images/blank.png width =""200"" height = ""200"" style = ""float:right""></p><p><img src=images/blank.png width =""800"" height = ""200""></p>","","","","","","","","","","","",""
"","128.1999999191612","sequential-stimulus-presentation","147","477391","0.0-29.0-1.6","SS1613178551082","trial","","40","800","928.1999999191612","images/stimuli/spore_stims/simple_20_B_c.gif","images/stimuli/spore_stims/simple_20_A_c.gif","","","","","7","simple_similar","images/stimuli/spore_stims/simple_20_A_c.gif","right","","","","",""
"","null","html-keyboard-response","148","478286","0.0-29.0-0.7","SS1613178551082","","","null","","","","","<p><img src= images/blank.png width =""200"" height = ""200"" style = ""float:right""></p><p><img src=images/blank.png width =""800"" height = ""200""></p>","","","","","","","","","","","",""
"","50.20000017248094","sequential-stimulus-presentation","149","479143","0.0-29.0-1.7","SS1613178551082","trial","","40","800","850.2000001724809","images/stimuli/spore_stims/simple_20_B_c.gif","images/stimuli/spore_stims/simple_20_A_c.gif","","","","","7","simple_similar","images/stimuli/spore_stims/simple_20_A_c.gif","right","","","","",""
"","1417.3999999184161","html-keyboard-response","150","480575","0.0-30.0","SS1613178551082","pref_question","","97","","","","","<video width ='960' height = '540' style='padding-top:8%' autoplay muted><source src='images/stimuli/wall_pref.mp4' type='video/mp4'></video>","1","left","25%","7","","","","","","","",""
"","155.59999994002283","sequential-stimulus-presentation","151","481543","0.0-31.0","SS1613178551082","pref_reveal","","40","800","955.5999999400228","null","null","","","","","7","","","","novel","","","",""
"","null","html-keyboard-response","152","482592","0.0-32.0-0.0","SS1613178551082","","","null","","","","","<p><img src= images/blank.png width =""200"" height = ""200"" style = ""float:right""></p><p><img src=images/blank.png width =""800"" height = ""200""></p>","","","","","","","","","","","",""
"","602.9999998863786","sequential-stimulus-presentation","153","483999","0.0-32.0-1.0","SS1613178551082","trial","","40","800","1402.9999998863786","images/stimuli/spore_stims/simple_07_A_d.gif","images/stimuli/spore_stims/simple_19_A_d.gif","","","","","8","simple_dissimilar","images/stimuli/spore_stims/simple_19_A_d.gif","left","","","","",""
"","null","html-keyboard-response","154","484894","0.0-32.0-0.1","SS1613178551082","","","null","","","","","<p><img src= images/blank.png width =""200"" height = ""200"" style = ""float:right""></p><p><img src=images/blank.png width =""800"" height = ""200""></p>","","","","","","","","","","","",""
"","121.69999978505075","sequential-stimulus-presentation","155","485823","0.0-32.0-1.1","SS1613178551082","trial","","40","800","921.6999997850507","images/stimuli/spore_stims/simple_07_A_d.gif","images/stimuli/spore_stims/simple_19_A_d.gif","","","","","8","simple_dissimilar","images/stimuli/spore_stims/simple_19_A_d.gif","left","","","","",""
"","null","html-keyboard-response","156","486740","0.0-32.0-0.2","SS1613178551082","","","null","","","","","<p><img src= images/blank.png width =""200"" height = ""200"" style = ""float:right""></p><p><img src=images/blank.png width =""800"" height = ""200""></p>","","","","","","","","","","","",""
"","34.29999994114041","sequential-stimulus-presentation","157","487582","0.0-32.0-1.2","SS1613178551082","trial","","40","800","834.2999999411404","images/stimuli/spore_stims/simple_07_A_d.gif","images/stimuli/spore_stims/simple_19_A_d.gif","","","","","8","simple_dissimilar","images/stimuli/spore_stims/simple_19_A_d.gif","left","","","","",""
"","null","html-keyboard-response","158","488836","0.0-32.0-0.3","SS1613178551082","","","null","","","","","<p><img src= images/blank.png width =""200"" height = ""200"" style = ""float:right""></p><p><img src=images/blank.png width =""800"" height = ""200""></p>","","","","","","","","","","","",""
"","362.50000004656613","sequential-stimulus-presentation","159","490007","0.0-32.0-1.3","SS1613178551082","trial","","40","800","1162.5000000465661","images/stimuli/spore_stims/simple_07_A_d.gif","images/stimuli/spore_stims/simple_19_A_d.gif","","","","","8","simple_dissimilar","images/stimuli/spore_stims/simple_07_A_d.gif","middle","","","","",""
"","null","html-keyboard-response","160","491297","0.0-32.0-0.4","SS1613178551082","","","null","","","","","<p><img src= images/blank.png width =""200"" height = ""200"" style = ""float:right""></p><p><img src=images/blank.png width =""800"" height = ""200""></p>","","","","","","","","","","","",""
"","29.40000011585653","sequential-stimulus-presentation","161","492135","0.0-32.0-1.4","SS1613178551082","trial","","40","800","829.4000001158565","images/stimuli/spore_stims/simple_07_A_d.gif","images/stimuli/spore_stims/simple_19_A_d.gif","","","","","8","simple_dissimilar","images/stimuli/spore_stims/simple_19_A_d.gif","left","","","","",""
"","null","html-keyboard-response","162","493406","0.0-32.0-0.5","SS1613178551082","","","null","","","","","<p><img src= images/blank.png width =""200"" height = ""200"" style = ""float:right""></p><p><img src=images/blank.png width =""800"" height = ""200""></p>","","","","","","","","","","","",""
"","321.2999999523163","sequential-stimulus-presentation","163","494535","0.0-32.0-1.5","SS1613178551082","trial","","40","800","1121.2999999523163","images/stimuli/spore_stims/simple_07_A_d.gif","images/stimuli/spore_stims/simple_19_A_d.gif","","","","","8","simple_dissimilar","images/stimuli/spore_stims/simple_19_A_d.gif","left","","","","",""
"","null","html-keyboard-response","164","495641","0.0-32.0-0.6","SS1613178551082","","","null","","","","","<p><img src= images/blank.png width =""200"" height = ""200"" style = ""float:right""></p><p><img src=images/blank.png width =""800"" height = ""200""></p>","","","","","","","","","","","",""
"","86.1999997869134","sequential-stimulus-presentation","165","496535","0.0-32.0-1.6","SS1613178551082","trial","","40","800","886.1999997869134","images/stimuli/spore_stims/simple_07_A_d.gif","images/stimuli/spore_stims/simple_19_A_d.gif","","","","","8","simple_dissimilar","images/stimuli/spore_stims/simple_19_A_d.gif","left","","","","",""
"","null","html-keyboard-response","166","497768","0.0-32.0-0.7","SS1613178551082","","","null","","","","","<p><img src= images/blank.png width =""200"" height = ""200"" style = ""float:right""></p><p><img src=images/blank.png width =""800"" height = ""200""></p>","","","","","","","","","","","",""
"","192.50000012107193","sequential-stimulus-presentation","167","498769","0.0-32.0-1.7","SS1613178551082","trial","","40","800","992.5000001210719","images/stimuli/spore_stims/simple_07_A_d.gif","images/stimuli/spore_stims/simple_19_A_d.gif","","","","","8","simple_dissimilar","images/stimuli/spore_stims/simple_19_A_d.gif","left","","","","",""
"","3399.19999986887","html-keyboard-response","168","502184","0.0-33.0","SS1613178551082","pref_question","","97","","","","","<video width ='960' height = '540' style='padding-top:8%' autoplay muted><source src='images/stimuli/wall_pref.mp4' type='video/mp4'></video>","1","left","25%","8","","","","","","","",""
"","248.50000021979213","sequential-stimulus-presentation","169","503247","0.0-34.0","SS1613178551082","pref_reveal","","40","800","1048.5000002197921","null","null","","","","","8","","","","background","","","",""
"","null","html-keyboard-response","170","504142","0.0-35.0-0.0","SS1613178551082","","","null","","","","","<p><img src= images/blank.png width =""200"" height = ""200"" style = ""float:right""></p><p><img src=images/blank.png width =""800"" height = ""200""></p>","","","","","","","","","","","",""
"","454.5999998226762","sequential-stimulus-presentation","171","505407","0.0-35.0-1.0","SS1613178551082","trial","","40","800","1254.5999998226762","images/stimuli/spore_stims/simple_18_B_a.gif","images/stimuli/spore_stims/simple_18_A_a.gif","","","","","9","simple_similar","images/stimuli/spore_stims/simple_18_A_a.gif","right","","","","",""
"","null","html-keyboard-response","172","506244","0.0-35.0-0.1","SS1613178551082","","","null","","","","","<p><img src= images/blank.png width =""200"" height = ""200"" style = ""float:right""></p><p><img src=images/blank.png width =""800"" height = ""200""></p>","","","","","","","","","","","",""
"","328.6000001244247","sequential-stimulus-presentation","173","507383","0.0-35.0-1.1","SS1613178551082","trial","","40","800","1128.6000001244247","images/stimuli/spore_stims/simple_18_B_a.gif","images/stimuli/spore_stims/simple_18_A_a.gif","","","","","9","simple_similar","images/stimuli/spore_stims/simple_18_A_a.gif","right","","","","",""
"","null","html-keyboard-response","174","508311","0.0-35.0-0.2","SS1613178551082","","","null","","","","","<p><img src= images/blank.png width =""200"" height = ""200"" style = ""float:right""></p><p><img src=images/blank.png width =""800"" height = ""200""></p>","","","","","","","","","","","",""
"","441.300000064075","sequential-stimulus-presentation","175","509561","0.0-35.0-1.2","SS1613178551082","trial","","40","800","1241.300000064075","images/stimuli/spore_stims/simple_18_B_a.gif","images/stimuli/spore_stims/simple_18_A_a.gif","","","","","9","simple_similar","images/stimuli/spore_stims/simple_18_A_a.gif","right","","","","",""
"","null","html-keyboard-response","176","510534","0.0-35.0-0.3","SS1613178551082","","","null","","","","","<p><img src= images/blank.png width =""200"" height = ""200"" style = ""float:right""></p><p><img src=images/blank.png width =""800"" height = ""200""></p>","","","","","","","","","","","",""
"","95.40000022388995","sequential-stimulus-presentation","177","511439","0.0-35.0-1.3","SS1613178551082","trial","","40","800","895.40000022389","images/stimuli/spore_stims/simple_18_B_a.gif","images/stimuli/spore_stims/simple_18_A_a.gif","","","","","9","simple_similar","images/stimuli/spore_stims/simple_18_A_a.gif","right","","","","",""
"","null","html-keyboard-response","178","512705","0.0-35.0-0.4","SS1613178551082","","","null","","","","","<p><img src= images/blank.png width =""200"" height = ""200"" style = ""float:right""></p><p><img src=images/blank.png width =""800"" height = ""200""></p>","","","","","","","","","","","",""
"","374.2999997921288","sequential-stimulus-presentation","179","513887","0.0-35.0-1.4","SS1613178551082","trial","","40","800","1174.2999997921288","images/stimuli/spore_stims/simple_18_B_a.gif","images/stimuli/spore_stims/simple_18_A_a.gif","","","","","9","simple_similar","images/stimuli/spore_stims/simple_18_A_a.gif","right","","","","",""
"","null","html-keyboard-response","180","514983","0.0-35.0-0.5","SS1613178551082","","","null","","","","","<p><img src= images/blank.png width =""200"" height = ""200"" style = ""float:right""></p><p><img src=images/blank.png width =""800"" height = ""200""></p>","","","","","","","","","","","",""
"","255.0999999511987","sequential-stimulus-presentation","181","516047","0.0-35.0-1.5","SS1613178551082","trial","","40","800","1055.0999999511987","images/stimuli/spore_stims/simple_18_B_a.gif","images/stimuli/spore_stims/simple_18_A_a.gif","","","","","9","simple_similar","images/stimuli/spore_stims/simple_18_A_a.gif","right","","","","",""
"","null","html-keyboard-response","182","517134","0.0-35.0-0.6","SS1613178551082","","","null","","","","","<p><img src= images/blank.png width =""200"" height = ""200"" style = ""float:right""></p><p><img src=images/blank.png width =""800"" height = ""200""></p>","","","","","","","","","","","",""
"","19.79999989271164","sequential-stimulus-presentation","183","517959","0.0-35.0-1.6","SS1613178551082","trial","","40","800","819.7999998927116","images/stimuli/spore_stims/simple_18_B_a.gif","images/stimuli/spore_stims/simple_18_A_a.gif","","","","","9","simple_similar","images/stimuli/spore_stims/simple_18_B_a.gif","left","","","","",""
"","null","html-keyboard-response","184","519238","0.0-35.0-0.7","SS1613178551082","","","null","","","","","<p><img src= images/blank.png width =""200"" height = ""200"" style = ""float:right""></p><p><img src=images/blank.png width =""800"" height = ""200""></p>","","","","","","","","","","","",""
"","366.7000001296401","sequential-stimulus-presentation","185","520415","0.0-35.0-1.7","SS1613178551082","trial","","40","800","1166.70000012964","images/stimuli/spore_stims/simple_18_B_a.gif","images/stimuli/spore_stims/simple_18_A_a.gif","","","","","9","simple_similar","images/stimuli/spore_stims/simple_18_A_a.gif","right","","","","",""
"","1464.000000152737","html-keyboard-response","186","521894","0.0-36.0","SS1613178551082","pref_question","","98","","","","","<video width ='960' height = '540' style='padding-top:8%' autoplay muted><source src='images/stimuli/wall_pref.mp4' type='video/mp4'></video>","2","middle","45%","9","","","","","","","",""
"","7.400000002235174","sequential-stimulus-presentation","187","522717","0.0-37.0","SS1613178551082","pref_reveal","","40","800","807.4000000022352","null","null","","","","","9","","","","novel","","","",""
"","null","html-keyboard-response","188","523877","0.0-38.0-0.0","SS1613178551082","","","null","","","","","<p><img src= images/blank.png width =""200"" height = ""200"" style = ""float:right""></p><p><img src=images/blank.png width =""800"" height = ""200""></p>","","","","","","","","","","","",""
"","559.499999973923","sequential-stimulus-presentation","189","525246","0.0-38.0-1.0","SS1613178551082","trial","","40","800","1359.499999973923","images/stimuli/spore_stims/simple_17_A_c.gif","images/stimuli/spore_stims/simple_03_B_c.gif","","","","","10","simple_dissimilar","images/stimuli/spore_stims/simple_03_B_c.gif","right","","","","",""
"","null","html-keyboard-response","190","526284","0.0-38.0-0.1","SS1613178551082","","","null","","","","","<p><img src= images/blank.png width =""200"" height = ""200"" style = ""float:right""></p><p><img src=images/blank.png width =""800"" height = ""200""></p>","","","","","","","","","","","",""
"","338.30000017769635","sequential-stimulus-presentation","191","527430","0.0-38.0-1.1","SS1613178551082","trial","","40","800","1138.3000001776963","images/stimuli/spore_stims/simple_17_A_c.gif","images/stimuli/spore_stims/simple_03_B_c.gif","","","","","10","simple_dissimilar","images/stimuli/spore_stims/simple_03_B_c.gif","right","","","","",""
"","null","html-keyboard-response","192","528318","0.0-38.0-0.2","SS1613178551082","","","null","","","","","<p><img src= images/blank.png width =""200"" height = ""200"" style = ""float:right""></p><p><img src=images/blank.png width =""800"" height = ""200""></p>","","","","","","","","","","","",""
"","190.6999999191612","sequential-stimulus-presentation","193","529318","0.0-38.0-1.2","SS1613178551082","trial","","40","800","990.6999999191612","images/stimuli/spore_stims/simple_17_A_c.gif","images/stimuli/spore_stims/simple_03_B_c.gif","","","","","10","simple_dissimilar","images/stimuli/spore_stims/simple_03_B_c.gif","right","","","","",""
"","null","html-keyboard-response","194","530445","0.0-38.0-0.3","SS1613178551082","","","null","","","","","<p><img src= images/blank.png width =""200"" height = ""200"" style = ""float:right""></p><p><img src=images/blank.png width =""800"" height = ""200""></p>","","","","","","","","","","","",""
"","60.19999994896352","sequential-stimulus-presentation","195","531310","0.0-38.0-1.3","SS1613178551082","trial","","40","800","860.1999999489635","images/stimuli/spore_stims/simple_17_A_c.gif","images/stimuli/spore_stims/simple_03_B_c.gif","","","","","10","simple_dissimilar","images/stimuli/spore_stims/simple_03_B_c.gif","right","","","","",""
"","null","html-keyboard-response","196","532148","0.0-38.0-0.4","SS1613178551082","","","null","","","","","<p><img src= images/blank.png width =""200"" height = ""200"" style = ""float:right""></p><p><img src=images/blank.png width =""800"" height = ""200""></p>","","","","","","","","","","","",""
"","71.79999980144203","sequential-stimulus-presentation","197","533029","0.0-38.0-1.4","SS1613178551082","trial","","40","800","871.799999801442","images/stimuli/spore_stims/simple_17_A_c.gif","images/stimuli/spore_stims/simple_03_B_c.gif","","","","","10","simple_dissimilar","images/stimuli/spore_stims/simple_03_B_c.gif","right","","","","",""
"","null","html-keyboard-response","198","534269","0.0-38.0-0.5","SS1613178551082","","","null","","","","","<p><img src= images/blank.png width =""200"" height = ""200"" style = ""float:right""></p><p><img src=images/blank.png width =""800"" height = ""200""></p>","","","","","","","","","","","",""
"","519.899999955669","sequential-stimulus-presentation","199","535598","0.0-38.0-1.5","SS1613178551082","trial","","40","800","1319.899999955669","images/stimuli/spore_stims/simple_17_A_c.gif","images/stimuli/spore_stims/simple_03_B_c.gif","","","","","10","simple_dissimilar","images/stimuli/spore_stims/simple_17_A_c.gif","middle","","","","",""
"","null","html-keyboard-response","200","536742","0.0-38.0-0.6","SS1613178551082","","","null","","","","","<p><img src= images/blank.png width =""200"" height = ""200"" style = ""float:right""></p><p><img src=images/blank.png width =""800"" height = ""200""></p>","","","","","","","","","","","",""
"","286.7000000551343","sequential-stimulus-presentation","201","537838","0.0-38.0-1.6","SS1613178551082","trial","","40","800","1086.7000000551343","images/stimuli/spore_stims/simple_17_A_c.gif","images/stimuli/spore_stims/simple_03_B_c.gif","","","","","10","simple_dissimilar","images/stimuli/spore_stims/simple_03_B_c.gif","right","","","","",""
"","null","html-keyboard-response","202","538992","0.0-38.0-0.7","SS1613178551082","","","null","","","","","<p><img src= images/blank.png width =""200"" height = ""200"" style = ""float:right""></p><p><img src=images/blank.png width =""800"" height = ""200""></p>","","","","","","","","","","","",""
"","165.19999993033707","sequential-stimulus-presentation","203","539967","0.0-38.0-1.7","SS1613178551082","trial","","40","800","965.1999999303371","images/stimuli/spore_stims/simple_17_A_c.gif","images/stimuli/spore_stims/simple_03_B_c.gif","","","","","10","simple_dissimilar","images/stimuli/spore_stims/simple_03_B_c.gif","right","","","","",""
"","1855.699999956414","html-keyboard-response","204","541838","0.0-39.0","SS1613178551082","pref_question","","98","","","","","<video width ='960' height = '540' style='padding-top:8%' autoplay muted><source src='images/stimuli/wall_pref.mp4' type='video/mp4'></video>","2","middle","45%","10","","","","","","","",""
"","88.40000000782311","sequential-stimulus-presentation","205","542741","0.0-40.0","SS1613178551082","pref_reveal","","40","800","888.4000000078231","null","null","","","","","10","","","","deviant","","","",""
"","null","html-keyboard-response","206","543914","0.0-41.0-0.0","SS1613178551082","","","null","","","","","<p><img src= images/blank.png width =""200"" height = ""200"" style = ""float:right""></p><p><img src=images/blank.png width =""800"" height = ""200""></p>","","","","","","","","","","","",""
"","354.300000006333","sequential-stimulus-presentation","207","545077","0.0-41.0-1.0","SS1613178551082","trial","","40","800","1154.300000006333","images/stimuli/spore_stims/complex_18_B_d.gif","images/stimuli/spore_stims/complex_05_A_c.gif","","","","","11","complex_dissimilar","images/stimuli/spore_stims/complex_05_A_c.gif","right","","","","",""
"","null","html-keyboard-response","208","546365","0.0-41.0-0.1","SS1613178551082","","","null","","","","","<p><img src= images/blank.png width =""200"" height = ""200"" style = ""float:right""></p><p><img src=images/blank.png width =""800"" height = ""200""></p>","","","","","","","","","","","",""
"","2215.199999976903","sequential-stimulus-presentation","209","549390","0.0-41.0-1.1","SS1613178551082","trial","","40","800","3015.199999976903","images/stimuli/spore_stims/complex_18_B_d.gif","images/stimuli/spore_stims/complex_05_A_c.gif","","","","","11","complex_dissimilar","images/stimuli/spore_stims/complex_05_A_c.gif","right","","","","",""
"","null","html-keyboard-response","210","550623","0.0-41.0-0.2","SS1613178551082","","","null","","","","","<p><img src= images/blank.png width =""200"" height = ""200"" style = ""float:right""></p><p><img src=images/blank.png width =""800"" height = ""200""></p>","","","","","","","","","","","",""
"","1725.6999998353422","sequential-stimulus-presentation","211","553157","0.0-41.0-1.2","SS1613178551082","trial","","40","800","2525.699999835342","images/stimuli/spore_stims/complex_18_B_d.gif","images/stimuli/spore_stims/complex_05_A_c.gif","","","","","11","complex_dissimilar","images/stimuli/spore_stims/complex_05_A_c.gif","right","","","","",""
"","null","html-keyboard-response","212","553984","0.0-41.0-0.3","SS1613178551082","","","null","","","","","<p><img src= images/blank.png width =""200"" height = ""200"" style = ""float:right""></p><p><img src=images/blank.png width =""800"" height = ""200""></p>","","","","","","","","","","","",""
"","2579.799999948591","sequential-stimulus-presentation","213","557374","0.0-41.0-1.3","SS1613178551082","trial","","40","800","3379.799999948591","images/stimuli/spore_stims/complex_18_B_d.gif","images/stimuli/spore_stims/complex_05_A_c.gif","","","","","11","complex_dissimilar","images/stimuli/spore_stims/complex_18_B_d.gif","left","","","","",""
"","null","html-keyboard-response","214","558273","0.0-41.0-0.4","SS1613178551082","","","null","","","","","<p><img src= images/blank.png width =""200"" height = ""200"" style = ""float:right""></p><p><img src=images/blank.png width =""800"" height = ""200""></p>","","","","","","","","","","","",""
"","370.60000002384186","sequential-stimulus-presentation","215","559454","0.0-41.0-1.4","SS1613178551082","trial","","40","800","1170.6000000238419","images/stimuli/spore_stims/complex_18_B_d.gif","images/stimuli/spore_stims/complex_05_A_c.gif","","","","","11","complex_dissimilar","images/stimuli/spore_stims/complex_05_A_c.gif","right","","","","",""
"","null","html-keyboard-response","216","560560","0.0-41.0-0.5","SS1613178551082","","","null","","","","","<p><img src= images/blank.png width =""200"" height = ""200"" style = ""float:right""></p><p><img src=images/blank.png width =""800"" height = ""200""></p>","","","","","","","","","","","",""
"","1799.1000001784414","sequential-stimulus-presentation","217","563167","0.0-41.0-1.5","SS1613178551082","trial","","40","800","2599.1000001784414","images/stimuli/spore_stims/complex_18_B_d.gif","images/stimuli/spore_stims/complex_05_A_c.gif","","","","","11","complex_dissimilar","images/stimuli/spore_stims/complex_05_A_c.gif","right","","","","",""
"","null","html-keyboard-response","218","564152","0.0-41.0-0.6","SS1613178551082","","","null","","","","","<p><img src= images/blank.png width =""200"" height = ""200"" style = ""float:right""></p><p><img src=images/blank.png width =""800"" height = ""200""></p>","","","","","","","","","","","",""
"","379.29999991320074","sequential-stimulus-presentation","219","565342","0.0-41.0-1.6","SS1613178551082","trial","","40","800","1179.2999999132007","images/stimuli/spore_stims/complex_18_B_d.gif","images/stimuli/spore_stims/complex_05_A_c.gif","","","","","11","complex_dissimilar","images/stimuli/spore_stims/complex_05_A_c.gif","right","","","","",""
"","null","html-keyboard-response","220","566568","0.0-41.0-0.7","SS1613178551082","","","null","","","","","<p><img src= images/blank.png width =""200"" height = ""200"" style = ""float:right""></p><p><img src=images/blank.png width =""800"" height = ""200""></p>","","","","","","","","","","","",""
"","163.2000000681728","sequential-stimulus-presentation","221","567542","0.0-41.0-1.7","SS1613178551082","trial","","40","800","963.2000000681728","images/stimuli/spore_stims/complex_18_B_d.gif","images/stimuli/spore_stims/complex_05_A_c.gif","","","","","11","complex_dissimilar","images/stimuli/spore_stims/complex_05_A_c.gif","right","","","","",""
"","2144.5999999996275","html-keyboard-response","222","569702","0.0-42.0","SS1613178551082","pref_question","","97","","","","","<video width ='960' height = '540' style='padding-top:8%' autoplay muted><source src='images/stimuli/wall_pref.mp4' type='video/mp4'></video>","1","left","25%","11","","","","","","","",""
"","24.899999843910336","sequential-stimulus-presentation","223","570541","0.0-43.0","SS1613178551082","pref_reveal","","40","800","824.8999998439103","null","null","","","","","11","","","","deviant","","","",""
"","null","html-keyboard-response","224","571667","0.0-44.0-0.0","SS1613178551082","","","null","","","","","<p><img src= images/blank.png width =""200"" height = ""200"" style = ""float:right""></p><p><img src=images/blank.png width =""800"" height = ""200""></p>","","","","","","","","","","","",""
"","1248.7000001128763","sequential-stimulus-presentation","225","573728","0.0-44.0-1.0","SS1613178551082","trial","","40","800","2048.7000001128763","images/stimuli/spore_stims/complex_02_A_c.gif","images/stimuli/spore_stims/complex_04_B_c.gif","","","","","12","complex_dissimilar","images/stimuli/spore_stims/complex_04_B_c.gif","left","","","","",""
"","null","html-keyboard-response","226","574745","0.0-44.0-0.1","SS1613178551082","","","null","","","","","<p><img src= images/blank.png width =""200"" height = ""200"" style = ""float:right""></p><p><img src=images/blank.png width =""800"" height = ""200""></p>","","","","","","","","","","","",""
"","426.50000005960464","sequential-stimulus-presentation","227","575981","0.0-44.0-1.1","SS1613178551082","trial","","40","800","1226.5000000596046","images/stimuli/spore_stims/complex_02_A_c.gif","images/stimuli/spore_stims/complex_04_B_c.gif","","","","","12","complex_dissimilar","images/stimuli/spore_stims/complex_04_B_c.gif","left","","","","",""
"","null","html-keyboard-response","228","577024","0.0-44.0-0.2","SS1613178551082","","","null","","","","","<p><img src= images/blank.png width =""200"" height = ""200"" style = ""float:right""></p><p><img src=images/blank.png width =""800"" height = ""200""></p>","","","","","","","","","","","",""
"","667.4000001512468","sequential-stimulus-presentation","229","578502","0.0-44.0-1.2","SS1613178551082","trial","","40","800","1467.4000001512468","images/stimuli/spore_stims/complex_02_A_c.gif","images/stimuli/spore_stims/complex_04_B_c.gif","","","","","12","complex_dissimilar","images/stimuli/spore_stims/complex_04_B_c.gif","left","","","","",""
"","null","html-keyboard-response","230","579388","0.0-44.0-0.3","SS1613178551082","","","null","","","","","<p><img src= images/blank.png width =""200"" height = ""200"" style = ""float:right""></p><p><img src=images/blank.png width =""800"" height = ""200""></p>","","","","","","","","","","","",""
"","553.4000000916421","sequential-stimulus-presentation","231","580749","0.0-44.0-1.3","SS1613178551082","trial","","40","800","1353.4000000916421","images/stimuli/spore_stims/complex_02_A_c.gif","images/stimuli/spore_stims/complex_04_B_c.gif","","","","","12","complex_dissimilar","images/stimuli/spore_stims/complex_04_B_c.gif","left","","","","",""
"","null","html-keyboard-response","232","581753","0.0-44.0-0.4","SS1613178551082","","","null","","","","","<p><img src= images/blank.png width =""200"" height = ""200"" style = ""float:right""></p><p><img src=images/blank.png width =""800"" height = ""200""></p>","","","","","","","","","","","",""
"","249.19999996200204","sequential-stimulus-presentation","233","582813","0.0-44.0-1.4","SS1613178551082","trial","","40","800","1049.199999962002","images/stimuli/spore_stims/complex_02_A_c.gif","images/stimuli/spore_stims/complex_04_B_c.gif","","","","","12","complex_dissimilar","images/stimuli/spore_stims/complex_04_B_c.gif","left","","","","",""
"","null","html-keyboard-response","234","583665","0.0-44.0-0.5","SS1613178551082","","","null","","","","","<p><img src= images/blank.png width =""200"" height = ""200"" style = ""float:right""></p><p><img src=images/blank.png width =""800"" height = ""200""></p>","","","","","","","","","","","",""
"","1314.100000075996","sequential-stimulus-presentation","235","585788","0.0-44.0-1.5","SS1613178551082","trial","","40","800","2114.100000075996","images/stimuli/spore_stims/complex_02_A_c.gif","images/stimuli/spore_stims/complex_04_B_c.gif","","","","","12","complex_dissimilar","images/stimuli/spore_stims/complex_02_A_c.gif","right","","","","",""
"","null","html-keyboard-response","236","587002","0.0-44.0-0.6","SS1613178551082","","","null","","","","","<p><img src= images/blank.png width =""200"" height = ""200"" style = ""float:right""></p><p><img src=images/blank.png width =""800"" height = ""200""></p>","","","","","","","","","","","",""
"","495.0000001117587","sequential-stimulus-presentation","237","588309","0.0-44.0-1.6","SS1613178551082","trial","","40","800","1295.0000001117587","images/stimuli/spore_stims/complex_02_A_c.gif","images/stimuli/spore_stims/complex_04_B_c.gif","","","","","12","complex_dissimilar","images/stimuli/spore_stims/complex_04_B_c.gif","left","","","","",""
"","null","html-keyboard-response","238","589352","0.0-44.0-0.7","SS1613178551082","","","null","","","","","<p><img src= images/blank.png width =""200"" height = ""200"" style = ""float:right""></p><p><img src=images/blank.png width =""800"" height = ""200""></p>","","","","","","","","","","","",""
"","1362.6999999396503","sequential-stimulus-presentation","239","591524","0.0-44.0-1.7","SS1613178551082","trial","","40","800","2162.6999999396503","images/stimuli/spore_stims/complex_02_A_c.gif","images/stimuli/spore_stims/complex_04_B_c.gif","","","","","12","complex_dissimilar","images/stimuli/spore_stims/complex_04_B_c.gif","left","","","","",""
"","1727.7999999932945","html-keyboard-response","240","593268","0.0-45.0","SS1613178551082","pref_question","","99","","","","","<video width ='960' height = '540' style='padding-top:8%' autoplay muted><source src='images/stimuli/wall_pref.mp4' type='video/mp4'></video>","3","right","66%","12","","","","","","","",""
"","32.60000003501773","sequential-stimulus-presentation","241","594119","0.0-46.0","SS1613178551082","pref_reveal","","40","800","832.6000000350177","null","null","","","","","12","","","","deviant","","","",""
"","null","html-keyboard-response","242","595003","0.0-47.0-0.0","SS1613178551082","","","null","","","","","<p><img src= images/blank.png width =""200"" height = ""200"" style = ""float:right""></p><p><img src=images/blank.png width =""800"" height = ""200""></p>","","","","","","","","","","","",""
"","3734.500000020489","sequential-stimulus-presentation","243","599548","0.0-47.0-1.0","SS1613178551082","trial","","40","800","4534.500000020489","images/stimuli/spore_stims/complex_12_B_a.gif","images/stimuli/spore_stims/complex_12_A_a.gif","","","","","13","complex_similar","images/stimuli/spore_stims/complex_12_A_a.gif","right","","","","",""
"","null","html-keyboard-response","244","600701","0.0-47.0-0.1","SS1613178551082","","","null","","","","","<p><img src= images/blank.png width =""200"" height = ""200"" style = ""float:right""></p><p><img src=images/blank.png width =""800"" height = ""200""></p>","","","","","","","","","","","",""
"","1291.2000000942498","sequential-stimulus-presentation","245","602804","0.0-47.0-1.1","SS1613178551082","trial","","40","800","2091.20000009425","images/stimuli/spore_stims/complex_12_B_a.gif","images/stimuli/spore_stims/complex_12_A_a.gif","","","","","13","complex_similar","images/stimuli/spore_stims/complex_12_A_a.gif","right","","","","",""
"","null","html-keyboard-response","246","604049","0.0-47.0-0.2","SS1613178551082","","","null","","","","","<p><img src= images/blank.png width =""200"" height = ""200"" style = ""float:right""></p><p><img src=images/blank.png width =""800"" height = ""200""></p>","","","","","","","","","","","",""
"","4567.000000039116","sequential-stimulus-presentation","247","609428","0.0-47.0-1.2","SS1613178551082","trial","","40","800","5367.000000039116","images/stimuli/spore_stims/complex_12_B_a.gif","images/stimuli/spore_stims/complex_12_A_a.gif","","","","","13","complex_similar","images/stimuli/spore_stims/complex_12_B_a.gif","middle","","","","",""
"","null","html-keyboard-response","248","610419","0.0-47.0-0.3","SS1613178551082","","","null","","","","","<p><img src= images/blank.png width =""200"" height = ""200"" style = ""float:right""></p><p><img src=images/blank.png width =""800"" height = ""200""></p>","","","","","","","","","","","",""
"","1749.4999999180436","sequential-stimulus-presentation","249","612980","0.0-47.0-1.3","SS1613178551082","trial","","40","800","2549.4999999180436","images/stimuli/spore_stims/complex_12_B_a.gif","images/stimuli/spore_stims/complex_12_A_a.gif","","","","","13","complex_similar","images/stimuli/spore_stims/complex_12_A_a.gif","right","","","","",""
"","null","html-keyboard-response","250","614294","0.0-47.0-0.4","SS1613178551082","","","null","","","","","<p><img src= images/blank.png width =""200"" height = ""200"" style = ""float:right""></p><p><img src=images/blank.png width =""800"" height = ""200""></p>","","","","","","","","","","","",""
"","1298.2999999076128","sequential-stimulus-presentation","251","616404","0.0-47.0-1.4","SS1613178551082","trial","","40","800","2098.299999907613","images/stimuli/spore_stims/complex_12_B_a.gif","images/stimuli/spore_stims/complex_12_A_a.gif","","","","","13","complex_similar","images/stimuli/spore_stims/complex_12_A_a.gif","right","","","","",""
"","null","html-keyboard-response","252","617533","0.0-47.0-0.5","SS1613178551082","","","null","","","","","<p><img src= images/blank.png width =""200"" height = ""200"" style = ""float:right""></p><p><img src=images/blank.png width =""800"" height = ""200""></p>","","","","","","","","","","","",""
"","435.9999999869615","sequential-stimulus-presentation","253","618780","0.0-47.0-1.5","SS1613178551082","trial","","40","800","1235.9999999869615","images/stimuli/spore_stims/complex_12_B_a.gif","images/stimuli/spore_stims/complex_12_A_a.gif","","","","","13","complex_similar","images/stimuli/spore_stims/complex_12_A_a.gif","right","","","","",""
"","null","html-keyboard-response","254","619801","0.0-47.0-0.6","SS1613178551082","","","null","","","","","<p><img src= images/blank.png width =""200"" height = ""200"" style = ""float:right""></p><p><img src=images/blank.png width =""800"" height = ""200""></p>","","","","","","","","","","","",""
"","440.0999997742474","sequential-stimulus-presentation","255","621052","0.0-47.0-1.6","SS1613178551082","trial","","40","800","1240.0999997742474","images/stimuli/spore_stims/complex_12_B_a.gif","images/stimuli/spore_stims/complex_12_A_a.gif","","","","","13","complex_similar","images/stimuli/spore_stims/complex_12_A_a.gif","right","","","","",""
"","null","html-keyboard-response","256","622097","0.0-47.0-0.7","SS1613178551082","","","null","","","","","<p><img src= images/blank.png width =""200"" height = ""200"" style = ""float:right""></p><p><img src=images/blank.png width =""800"" height = ""200""></p>","","","","","","","","","","","",""
"","735.8000001404434","sequential-stimulus-presentation","257","623644","0.0-47.0-1.7","SS1613178551082","trial","","40","800","1535.8000001404434","images/stimuli/spore_stims/complex_12_B_a.gif","images/stimuli/spore_stims/complex_12_A_a.gif","","","","","13","complex_similar","images/stimuli/spore_stims/complex_12_A_a.gif","right","","","","",""
"","1985.8999999705702","html-keyboard-response","258","625645","0.0-48.0","SS1613178551082","pref_question","","99","","","","","<video width ='960' height = '540' style='padding-top:8%' autoplay muted><source src='images/stimuli/wall_pref.mp4' type='video/mp4'></video>","3","right","66%","13","","","","","","","",""
"","892.6000001374632","sequential-stimulus-presentation","259","627356","0.0-49.0","SS1613178551082","pref_reveal","","40","800","1692.6000001374632","null","null","","","","","13","","","","background","","","",""
"","null","html-keyboard-response","260","628218","0.0-50.0-0.0","SS1613178551082","","","null","","","","","<p><img src= images/blank.png width =""200"" height = ""200"" style = ""float:right""></p><p><img src=images/blank.png width =""800"" height = ""200""></p>","","","","","","","","","","","",""
"","120.39999989792705","sequential-stimulus-presentation","261","629148","0.0-50.0-1.0","SS1613178551082","trial","","40","800","920.399999897927","images/stimuli/spore_stims/simple_04_A_c.gif","images/stimuli/spore_stims/simple_03_A_d.gif","","","","","14","simple_dissimilar","images/stimuli/spore_stims/simple_03_A_d.gif","right","","","","",""
"","null","html-keyboard-response","262","630158","0.0-50.0-0.1","SS1613178551082","","","null","","","","","<p><img src= images/blank.png width =""200"" height = ""200"" style = ""float:right""></p><p><img src=images/blank.png width =""800"" height = ""200""></p>","","","","","","","","","","","",""
"","187.5","sequential-stimulus-presentation","263","631156","0.0-50.0-1.1","SS1613178551082","trial","","40","800","987.5","images/stimuli/spore_stims/simple_04_A_c.gif","images/stimuli/spore_stims/simple_03_A_d.gif","","","","","14","simple_dissimilar","images/stimuli/spore_stims/simple_03_A_d.gif","right","","","","",""
"","null","html-keyboard-response","264","632259","0.0-50.0-0.2","SS1613178551082","","","null","","","","","<p><img src= images/blank.png width =""200"" height = ""200"" style = ""float:right""></p><p><img src=images/blank.png width =""800"" height = ""200""></p>","","","","","","","","","","","",""
"","751.3999999500811","sequential-stimulus-presentation","265","633820","0.0-50.0-1.2","SS1613178551082","trial","","40","800","1551.399999950081","images/stimuli/spore_stims/simple_04_A_c.gif","images/stimuli/spore_stims/simple_03_A_d.gif","","","","","14","simple_dissimilar","images/stimuli/spore_stims/simple_04_A_c.gif","left","","","","",""
"","null","html-keyboard-response","266","634725","0.0-50.0-0.3","SS1613178551082","","","null","","","","","<p><img src= images/blank.png width =""200"" height = ""200"" style = ""float:right""></p><p><img src=images/blank.png width =""800"" height = ""200""></p>","","","","","","","","","","","",""
"","132.99999991431832","sequential-stimulus-presentation","267","635670","0.0-50.0-1.3","SS1613178551082","trial","","40","800","932.9999999143183","images/stimuli/spore_stims/simple_04_A_c.gif","images/stimuli/spore_stims/simple_03_A_d.gif","","","","","14","simple_dissimilar","images/stimuli/spore_stims/simple_03_A_d.gif","right","","","","",""
"","null","html-keyboard-response","268","636764","0.0-50.0-0.4","SS1613178551082","","","null","","","","","<p><img src= images/blank.png width =""200"" height = ""200"" style = ""float:right""></p><p><img src=images/blank.png width =""800"" height = ""200""></p>","","","","","","","","","","","",""
"","172.30000020936131","sequential-stimulus-presentation","269","637748","0.0-50.0-1.4","SS1613178551082","trial","","40","800","972.3000002093613","images/stimuli/spore_stims/simple_04_A_c.gif","images/stimuli/spore_stims/simple_03_A_d.gif","","","","","14","simple_dissimilar","images/stimuli/spore_stims/simple_03_A_d.gif","right","","","","",""
"","null","html-keyboard-response","270","638777","0.0-50.0-0.5","SS1613178551082","","","null","","","","","<p><img src= images/blank.png width =""200"" height = ""200"" style = ""float:right""></p><p><img src=images/blank.png width =""800"" height = ""200""></p>","","","","","","","","","","","",""
"","160.0000001490116","sequential-stimulus-presentation","271","639749","0.0-50.0-1.5","SS1613178551082","trial","","40","800","960.0000001490116","images/stimuli/spore_stims/simple_04_A_c.gif","images/stimuli/spore_stims/simple_03_A_d.gif","","","","","14","simple_dissimilar","images/stimuli/spore_stims/simple_03_A_d.gif","right","","","","",""
"","null","html-keyboard-response","272","640778","0.0-50.0-0.6","SS1613178551082","","","null","","","","","<p><img src= images/blank.png width =""200"" height = ""200"" style = ""float:right""></p><p><img src=images/blank.png width =""800"" height = ""200""></p>","","","","","","","","","","","",""
"","126.79999996908009","sequential-stimulus-presentation","273","641717","0.0-50.0-1.6","SS1613178551082","trial","","40","800","926.7999999690801","images/stimuli/spore_stims/simple_04_A_c.gif","images/stimuli/spore_stims/simple_03_A_d.gif","","","","","14","simple_dissimilar","images/stimuli/spore_stims/simple_03_A_d.gif","right","","","","",""
"","null","html-keyboard-response","274","642548","0.0-50.0-0.7","SS1613178551082","","","null","","","","","<p><img src= images/blank.png width =""200"" height = ""200"" style = ""float:right""></p><p><img src=images/blank.png width =""800"" height = ""200""></p>","","","","","","","","","","","",""
"","37.499999860301614","sequential-stimulus-presentation","275","643396","0.0-50.0-1.7","SS1613178551082","trial","","40","800","837.4999998603016","images/stimuli/spore_stims/simple_04_A_c.gif","images/stimuli/spore_stims/simple_03_A_d.gif","","","","","14","simple_dissimilar","images/stimuli/spore_stims/simple_03_A_d.gif","right","","","","",""
"","1478.3999999053776","html-keyboard-response","276","644892","0.0-51.0","SS1613178551082","pref_question","","98","","","","","<video width ='960' height = '540' style='padding-top:8%' autoplay muted><source src='images/stimuli/wall_pref.mp4' type='video/mp4'></video>","2","middle","45%","14","","","","","","","",""
"","63.599999994039536","sequential-stimulus-presentation","277","645774","0.0-52.0","SS1613178551082","pref_reveal","","40","800","863.5999999940395","null","null","","","","","14","","","","novel","","","",""
"","null","html-keyboard-response","278","646989","0.0-53.0-0.0","SS1613178551082","","","null","","","","","<p><img src= images/blank.png width =""200"" height = ""200"" style = ""float:right""></p><p><img src=images/blank.png width =""800"" height = ""200""></p>","","","","","","","","","","","",""
"","1220.5999998841435","sequential-stimulus-presentation","279","649021","0.0-53.0-1.0","SS1613178551082","trial","","40","800","2020.5999998841435","images/stimuli/spore_stims/simple_11_B_d.gif","images/stimuli/spore_stims/simple_06_B_b.gif","","","","","15","simple_dissimilar","images/stimuli/spore_stims/simple_06_B_b.gif","middle","","","","",""
"","null","html-keyboard-response","280","650221","0.0-53.0-0.1","SS1613178551082","","","null","","","","","<p><img src= images/blank.png width =""200"" height = ""200"" style = ""float:right""></p><p><img src=images/blank.png width =""800"" height = ""200""></p>","","","","","","","","","","","",""
"","60.30000001192093","sequential-stimulus-presentation","281","651092","0.0-53.0-1.1","SS1613178551082","trial","","40","800","860.3000000119209","images/stimuli/spore_stims/simple_11_B_d.gif","images/stimuli/spore_stims/simple_06_B_b.gif","","","","","15","simple_dissimilar","images/stimuli/spore_stims/simple_06_B_b.gif","middle","","","","",""
"","null","html-keyboard-response","282","652244","0.0-53.0-0.2","SS1613178551082","","","null","","","","","<p><img src= images/blank.png width =""200"" height = ""200"" style = ""float:right""></p><p><img src=images/blank.png width =""800"" height = ""200""></p>","","","","","","","","","","","",""
"","132.29999993927777","sequential-stimulus-presentation","283","653188","0.0-53.0-1.2","SS1613178551082","trial","","40","800","932.2999999392778","images/stimuli/spore_stims/simple_11_B_d.gif","images/stimuli/spore_stims/simple_06_B_b.gif","","","","","15","simple_dissimilar","images/stimuli/spore_stims/simple_06_B_b.gif","middle","","","","",""
"","null","html-keyboard-response","284","654025","0.0-53.0-0.3","SS1613178551082","","","null","","","","","<p><img src= images/blank.png width =""200"" height = ""200"" style = ""float:right""></p><p><img src=images/blank.png width =""800"" height = ""200""></p>","","","","","","","","","","","",""
"","95.10000003501773","sequential-stimulus-presentation","285","654933","0.0-53.0-1.3","SS1613178551082","trial","","40","800","895.1000000350177","images/stimuli/spore_stims/simple_11_B_d.gif","images/stimuli/spore_stims/simple_06_B_b.gif","","","","","15","simple_dissimilar","images/stimuli/spore_stims/simple_06_B_b.gif","middle","","","","",""
"","null","html-keyboard-response","286","656013","0.0-53.0-0.4","SS1613178551082","","","null","","","","","<p><img src= images/blank.png width =""200"" height = ""200"" style = ""float:right""></p><p><img src=images/blank.png width =""800"" height = ""200""></p>","","","","","","","","","","","",""
"","67.99999997019768","sequential-stimulus-presentation","287","656893","0.0-53.0-1.4","SS1613178551082","trial","","40","800","867.9999999701977","images/stimuli/spore_stims/simple_11_B_d.gif","images/stimuli/spore_stims/simple_06_B_b.gif","","","","","15","simple_dissimilar","images/stimuli/spore_stims/simple_06_B_b.gif","middle","","","","",""
"","null","html-keyboard-response","288","658175","0.0-53.0-0.5","SS1613178551082","","","null","","","","","<p><img src= images/blank.png width =""200"" height = ""200"" style = ""float:right""></p><p><img src=images/blank.png width =""800"" height = ""200""></p>","","","","","","","","","","","",""
"","754.8999998252839","sequential-stimulus-presentation","289","659740","0.0-53.0-1.5","SS1613178551082","trial","","40","800","1554.8999998252839","images/stimuli/spore_stims/simple_11_B_d.gif","images/stimuli/spore_stims/simple_06_B_b.gif","","","","","15","simple_dissimilar","images/stimuli/spore_stims/simple_11_B_d.gif","left","","","","",""
"","null","html-keyboard-response","290","660574","0.0-53.0-0.6","SS1613178551082","","","null","","","","","<p><img src= images/blank.png width =""200"" height = ""200"" style = ""float:right""></p><p><img src=images/blank.png width =""800"" height = ""200""></p>","","","","","","","","","","","",""
"","42.69999987445772","sequential-stimulus-presentation","291","661429","0.0-53.0-1.6","SS1613178551082","trial","","40","800","842.6999998744577","images/stimuli/spore_stims/simple_11_B_d.gif","images/stimuli/spore_stims/simple_06_B_b.gif","","","","","15","simple_dissimilar","images/stimuli/spore_stims/simple_06_B_b.gif","middle","","","","",""
"","null","html-keyboard-response","292","662613","0.0-53.0-0.7","SS1613178551082","","","null","","","","","<p><img src= images/blank.png width =""200"" height = ""200"" style = ""float:right""></p><p><img src=images/blank.png width =""800"" height = ""200""></p>","","","","","","","","","","","",""
"","111.49999988265336","sequential-stimulus-presentation","293","663532","0.0-53.0-1.7","SS1613178551082","trial","","40","800","911.4999998826534","images/stimuli/spore_stims/simple_11_B_d.gif","images/stimuli/spore_stims/simple_06_B_b.gif","","","","","15","simple_dissimilar","images/stimuli/spore_stims/simple_06_B_b.gif","middle","","","","",""
"","2045.9000000264496","html-keyboard-response","294","665597","0.0-54.0","SS1613178551082","pref_question","","97","","","","","<video width ='960' height = '540' style='padding-top:8%' autoplay muted><source src='images/stimuli/wall_pref.mp4' type='video/mp4'></video>","1","left","25%","15","","","","","","","",""
"","621.2999999988824","sequential-stimulus-presentation","295","667036","0.0-55.0","SS1613178551082","pref_reveal","","40","800","1421.2999999988824","null","null","","","","","15","","","","deviant","","","",""
"","null","html-keyboard-response","296","668084","0.0-56.0-0.0","SS1613178551082","","","null","","","","","<p><img src= images/blank.png width =""200"" height = ""200"" style = ""float:right""></p><p><img src=images/blank.png width =""800"" height = ""200""></p>","","","","","","","","","","","",""
"","89.19999981299043","sequential-stimulus-presentation","297","668989","0.0-56.0-1.0","SS1613178551082","trial","","40","800","889.1999998129904","images/stimuli/spore_stims/complex_16_A_c.gif","images/stimuli/spore_stims/complex_16_B_c.gif","","","","","16","complex_similar","images/stimuli/spore_stims/complex_16_B_c.gif","left","","","","",""
"","null","html-keyboard-response","298","669948","0.0-56.0-0.1","SS1613178551082","","","null","","","","","<p><img src= images/blank.png width =""200"" height = ""200"" style = ""float:right""></p><p><img src=images/blank.png width =""800"" height = ""200""></p>","","","","","","","","","","","",""
"","84.90000013262033","sequential-stimulus-presentation","299","670844","0.0-56.0-1.1","SS1613178551082","trial","","40","800","884.9000001326203","images/stimuli/spore_stims/complex_16_A_c.gif","images/stimuli/spore_stims/complex_16_B_c.gif","","","","","16","complex_similar","images/stimuli/spore_stims/complex_16_B_c.gif","left","","","","",""
"","null","html-keyboard-response","300","672121","0.0-56.0-0.2","SS1613178551082","","","null","","","","","<p><img src= images/blank.png width =""200"" height = ""200"" style = ""float:right""></p><p><img src=images/blank.png width =""800"" height = ""200""></p>","","","","","","","","","","","",""
"","2254.9000000581145","sequential-stimulus-presentation","301","675188","0.0-56.0-1.2","SS1613178551082","trial","","40","800","3054.9000000581145","images/stimuli/spore_stims/complex_16_A_c.gif","images/stimuli/spore_stims/complex_16_B_c.gif","","","","","16","complex_similar","images/stimuli/spore_stims/complex_16_B_c.gif","left","","","","",""
"","null","html-keyboard-response","302","676046","0.0-56.0-0.3","SS1613178551082","","","null","","","","","<p><img src= images/blank.png width =""200"" height = ""200"" style = ""float:right""></p><p><img src=images/blank.png width =""800"" height = ""200""></p>","","","","","","","","","","","",""
"","1274.8000000137836","sequential-stimulus-presentation","303","678132","0.0-56.0-1.3","SS1613178551082","trial","","40","800","2074.8000000137836","images/stimuli/spore_stims/complex_16_A_c.gif","images/stimuli/spore_stims/complex_16_B_c.gif","","","","","16","complex_similar","images/stimuli/spore_stims/complex_16_A_c.gif","right","","","","",""
"","null","html-keyboard-response","304","679323","0.0-56.0-0.4","SS1613178551082","","","null","","","","","<p><img src= images/blank.png width =""200"" height = ""200"" style = ""float:right""></p><p><img src=images/blank.png width =""800"" height = ""200""></p>","","","","","","","","","","","",""
"","1592.5999998580664","sequential-stimulus-presentation","305","681724","0.0-56.0-1.4","SS1613178551082","trial","","40","800","2392.5999998580664","images/stimuli/spore_stims/complex_16_A_c.gif","images/stimuli/spore_stims/complex_16_B_c.gif","","","","","16","complex_similar","images/stimuli/spore_stims/complex_16_B_c.gif","left","","","","",""
"","null","html-keyboard-response","306","682968","0.0-56.0-0.5","SS1613178551082","","","null","","","","","<p><img src= images/blank.png width =""200"" height = ""200"" style = ""float:right""></p><p><img src=images/blank.png width =""800"" height = ""200""></p>","","","","","","","","","","","",""
"","457.39999995566905","sequential-stimulus-presentation","307","684236","0.0-56.0-1.5","SS1613178551082","trial","","40","800","1257.399999955669","images/stimuli/spore_stims/complex_16_A_c.gif","images/stimuli/spore_stims/complex_16_B_c.gif","","","","","16","complex_similar","images/stimuli/spore_stims/complex_16_B_c.gif","left","","","","",""
"","null","html-keyboard-response","308","685189","0.0-56.0-0.6","SS1613178551082","","","null","","","","","<p><img src= images/blank.png width =""200"" height = ""200"" style = ""float:right""></p><p><img src=images/blank.png width =""800"" height = ""200""></p>","","","","","","","","","","","",""
"","1293.8999999314547","sequential-stimulus-presentation","309","687294","0.0-56.0-1.6","SS1613178551082","trial","","40","800","2093.8999999314547","images/stimuli/spore_stims/complex_16_A_c.gif","images/stimuli/spore_stims/complex_16_B_c.gif","","","","","16","complex_similar","images/stimuli/spore_stims/complex_16_B_c.gif","left","","","","",""
"","null","html-keyboard-response","310","688237","0.0-56.0-0.7","SS1613178551082","","","null","","","","","<p><img src= images/blank.png width =""200"" height = ""200"" style = ""float:right""></p><p><img src=images/blank.png width =""800"" height = ""200""></p>","","","","","","","","","","","",""
"","348.1999998912215","sequential-stimulus-presentation","311","689396","0.0-56.0-1.7","SS1613178551082","trial","","40","800","1148.1999998912215","images/stimuli/spore_stims/complex_16_A_c.gif","images/stimuli/spore_stims/complex_16_B_c.gif","","","","","16","complex_similar","images/stimuli/spore_stims/complex_16_B_c.gif","left","","","","",""
"","1193.100000033155","html-keyboard-response","312","690596","0.0-57.0","SS1613178551082","pref_question","","98","","","","","<video width ='960' height = '540' style='padding-top:8%' autoplay muted><source src='images/stimuli/wall_pref.mp4' type='video/mp4'></video>","2","middle","45%","16","","","","","","","",""
