"view_history","rt","trial_type","trial_index","time_elapsed","internal_node_id","subject","stimulus_type","trial_stimulus","key_press","minimum_viewing_duration","trial_looking_time","block_deviant","block_background","stimulus","wall_pref","location","location_percent","block_number","block_type","stimulus_displayed","position_displayed","stim_type_selected","responses","question_order","stimulus_left","stimulus_right"
"[{""page_index"":0,""viewing_time"":9405.735000007553}]","9408.200000005309","instructions","0","9411","0.0-0.0","SS1613174926979","","","","","","","","","","","","","","","","","","","",""
"[{""page_index"":0,""viewing_time"":1595.8449999743607},{""page_index"":1,""viewing_time"":3271.585000009509}]","4868.27499998617","instructions","1","16289","0.0-1.0","SS1613174926979","instructions","","","","","","","","","","","","","","","","","","",""
"","1733.4550000086892","sequential-stimulus-presentation","2","18836","0.0-2.0","SS1613174926979","","","40","800","2533.4550000086892","null","null","","","","","","","","","","","","",""
"","202.530000009574","sequential-stimulus-presentation","3","19845","0.0-3.0","SS1613174926979","","","40","800","1002.530000009574","null","null","","","","","","","","","","","","",""
"[{""page_index"":0,""viewing_time"":868.9849999791477}]","869.3849999981467","instructions","4","20718","0.0-4.0","SS1613174926979","instructions","","","","","","","","","","","","","","","","","","",""
"","1573.5399999830406","html-keyboard-response","5","22301","0.0-5.0","SS1613174926979","instructions","","98","","","","","<video width ='960' height = '540' autoplay muted><source src='images/stimuli/wall_pref.mp4' type='video/mp4'></video>","2","middle","45%","","","","","","","","",""
"","761.0900000145193","sequential-stimulus-presentation","6","23869","0.0-6.0","SS1613174926979","pref_reveal","","40","800","1561.0900000145193","null","null","","","","","","","","","","","","",""
"[{""page_index"":0,""viewing_time"":7228.005000011763},{""page_index"":1,""viewing_time"":767.8149999992456},{""page_index"":2,""viewing_time"":807.8800000075717},{""page_index"":3,""viewing_time"":984.344999975292}]","9788.520000001881","instructions","7","33660","0.0-7.0","SS1613174926979","instructions","","","","","","","","","","","","","","","","","","",""
"","null","html-keyboard-response","8","34544","0.0-8.0-0.0","SS1613174926979","","","null","","","","","<p><img src= images/blank.png width =""200"" height = ""200"" style = ""float:right""></p><p><img src=images/blank.png width =""800"" height = ""200""></p>","","","","","","","","","","","",""
"","509.9399999890011","sequential-stimulus-presentation","9","35867","0.0-8.0-1.0","SS1613174926979","trial","","40","800","1309.939999989001","images/stimuli/spore_stims/complex_01_A_a.gif","images/stimuli/spore_stims/complex_10_A_d.gif","","","","","0","complex_dissimilar","images/stimuli/spore_stims/complex_10_A_d.gif","left","","","","",""
"","null","html-keyboard-response","10","37152","0.0-8.0-0.1","SS1613174926979","","","null","","","","","<p><img src= images/blank.png width =""200"" height = ""200"" style = ""float:right""></p><p><img src=images/blank.png width =""800"" height = ""200""></p>","","","","","","","","","","","",""
"","286.7899999837391","sequential-stimulus-presentation","11","38249","0.0-8.0-1.1","SS1613174926979","trial","","40","800","1086.789999983739","images/stimuli/spore_stims/complex_01_A_a.gif","images/stimuli/spore_stims/complex_10_A_d.gif","","","","","0","complex_dissimilar","images/stimuli/spore_stims/complex_10_A_d.gif","left","","","","",""
"","null","html-keyboard-response","12","39064","0.0-8.0-0.2","SS1613174926979","","","null","","","","","<p><img src= images/blank.png width =""200"" height = ""200"" style = ""float:right""></p><p><img src=images/blank.png width =""800"" height = ""200""></p>","","","","","","","","","","","",""
"","497.47499998193234","sequential-stimulus-presentation","13","40373","0.0-8.0-1.2","SS1613174926979","trial","","40","800","1297.4749999819323","images/stimuli/spore_stims/complex_01_A_a.gif","images/stimuli/spore_stims/complex_10_A_d.gif","","","","","0","complex_dissimilar","images/stimuli/spore_stims/complex_10_A_d.gif","left","","","","",""
"","null","html-keyboard-response","14","41373","0.0-8.0-0.3","SS1613174926979","","","null","","","","","<p><img src= images/blank.png width =""200"" height = ""200"" style = ""float:right""></p><p><img src=images/blank.png width =""800"" height = ""200""></p>","","","","","","","","","","","",""
"","508.60000000102445","sequential-stimulus-presentation","15","42698","0.0-8.0-1.3","SS1613174926979","trial","","40","800","1308.6000000010245","images/stimuli/spore_stims/complex_01_A_a.gif","images/stimuli/spore_stims/complex_10_A_d.gif","","","","","0","complex_dissimilar","images/stimuli/spore_stims/complex_10_A_d.gif","left","","","","",""
"","null","html-keyboard-response","16","43564","0.0-8.0-0.4","SS1613174926979","","","null","","","","","<p><img src= images/blank.png width =""200"" height = ""200"" style = ""float:right""></p><p><img src=images/blank.png width =""800"" height = ""200""></p>","","","","","","","","","","","",""
"","168.81500001181848","sequential-stimulus-presentation","17","44544","0.0-8.0-1.4","SS1613174926979","trial","","40","800","968.8150000118185","images/stimuli/spore_stims/complex_01_A_a.gif","images/stimuli/spore_stims/complex_10_A_d.gif","","","","","0","complex_dissimilar","images/stimuli/spore_stims/complex_01_A_a.gif","right","","","","",""
"","null","html-keyboard-response","18","45384","0.0-8.0-0.5","SS1613174926979","","","null","","","","","<p><img src= images/blank.png width =""200"" height = ""200"" style = ""float:right""></p><p><img src=images/blank.png width =""800"" height = ""200""></p>","","","","","","","","","","","",""
"","5.969999998342246","sequential-stimulus-presentation","19","46201","0.0-8.0-1.5","SS1613174926979","trial","","40","800","805.9699999983422","images/stimuli/spore_stims/complex_01_A_a.gif","images/stimuli/spore_stims/complex_10_A_d.gif","","","","","0","complex_dissimilar","images/stimuli/spore_stims/complex_10_A_d.gif","left","","","","",""
"","null","html-keyboard-response","20","47267","0.0-8.0-0.6","SS1613174926979","","","null","","","","","<p><img src= images/blank.png width =""200"" height = ""200"" style = ""float:right""></p><p><img src=images/blank.png width =""800"" height = ""200""></p>","","","","","","","","","","","",""
"","738.565000006929","sequential-stimulus-presentation","21","48816","0.0-8.0-1.6","SS1613174926979","trial","","40","800","1538.565000006929","images/stimuli/spore_stims/complex_01_A_a.gif","images/stimuli/spore_stims/complex_10_A_d.gif","","","","","0","complex_dissimilar","images/stimuli/spore_stims/complex_10_A_d.gif","left","","","","",""
"","null","html-keyboard-response","22","49869","0.0-8.0-0.7","SS1613174926979","","","null","","","","","<p><img src= images/blank.png width =""200"" height = ""200"" style = ""float:right""></p><p><img src=images/blank.png width =""800"" height = ""200""></p>","","","","","","","","","","","",""
"","1977.565000008326","sequential-stimulus-presentation","23","52695","0.0-8.0-1.7","SS1613174926979","trial","","40","800","2777.565000008326","images/stimuli/spore_stims/complex_01_A_a.gif","images/stimuli/spore_stims/complex_10_A_d.gif","","","","","0","complex_dissimilar","images/stimuli/spore_stims/complex_10_A_d.gif","left","","","","",""
"","12100.515000027372","html-keyboard-response","24","64806","0.0-9.0","SS1613174926979","pref_question","","98","","","","","<video width ='960' height = '540' style='padding-top:8%' autoplay muted><source src='images/stimuli/wall_pref.mp4' type='video/mp4'></video>","2","middle","45%","0","","","","","","","",""
"","495.26500000501983","sequential-stimulus-presentation","25","66110","0.0-10.0","SS1613174926979","pref_reveal","","40","800","1295.2650000050198","null","null","","","","","0","","","","novel","","","",""
"","null","html-keyboard-response","26","67162","0.0-11.0-0.0","SS1613174926979","","","null","","","","","<p><img src= images/blank.png width =""200"" height = ""200"" style = ""float:right""></p><p><img src=images/blank.png width =""800"" height = ""200""></p>","","","","","","","","","","","",""
"","900.7200000050943","sequential-stimulus-presentation","27","68876","0.0-11.0-1.0","SS1613174926979","trial","","40","800","1700.7200000050943","images/stimuli/spore_stims/simple_17_B_a.gif","images/stimuli/spore_stims/simple_05_B_a.gif","","","","","1","simple_dissimilar","images/stimuli/spore_stims/simple_05_B_a.gif","right","","","","",""
"","null","html-keyboard-response","28","69810","0.0-11.0-0.1","SS1613174926979","","","null","","","","","<p><img src= images/blank.png width =""200"" height = ""200"" style = ""float:right""></p><p><img src=images/blank.png width =""800"" height = ""200""></p>","","","","","","","","","","","",""
"","1165.3050000022631","sequential-stimulus-presentation","29","71787","0.0-11.0-1.1","SS1613174926979","trial","","40","800","1965.3050000022631","images/stimuli/spore_stims/simple_17_B_a.gif","images/stimuli/spore_stims/simple_05_B_a.gif","","","","","1","simple_dissimilar","images/stimuli/spore_stims/simple_05_B_a.gif","right","","","","",""
"","null","html-keyboard-response","30","73088","0.0-11.0-0.2","SS1613174926979","","","null","","","","","<p><img src= images/blank.png width =""200"" height = ""200"" style = ""float:right""></p><p><img src=images/blank.png width =""800"" height = ""200""></p>","","","","","","","","","","","",""
"","4858.605000015814","sequential-stimulus-presentation","31","78753","0.0-11.0-1.2","SS1613174926979","trial","","40","800","5658.605000015814","images/stimuli/spore_stims/simple_17_B_a.gif","images/stimuli/spore_stims/simple_05_B_a.gif","","","","","1","simple_dissimilar","images/stimuli/spore_stims/simple_05_B_a.gif","right","","","","",""
"","null","html-keyboard-response","32","80005","0.0-11.0-0.3","SS1613174926979","","","null","","","","","<p><img src= images/blank.png width =""200"" height = ""200"" style = ""float:right""></p><p><img src=images/blank.png width =""800"" height = ""200""></p>","","","","","","","","","","","",""
"","4321.679999993648","sequential-stimulus-presentation","33","85133","0.0-11.0-1.3","SS1613174926979","trial","","40","800","5121.679999993648","images/stimuli/spore_stims/simple_17_B_a.gif","images/stimuli/spore_stims/simple_05_B_a.gif","","","","","1","simple_dissimilar","images/stimuli/spore_stims/simple_05_B_a.gif","right","","","","",""
"","null","html-keyboard-response","34","86043","0.0-11.0-0.4","SS1613174926979","","","null","","","","","<p><img src= images/blank.png width =""200"" height = ""200"" style = ""float:right""></p><p><img src=images/blank.png width =""800"" height = ""200""></p>","","","","","","","","","","","",""
"","2355.524999991758","sequential-stimulus-presentation","35","89207","0.0-11.0-1.4","SS1613174926979","trial","","40","800","3155.524999991758","images/stimuli/spore_stims/simple_17_B_a.gif","images/stimuli/spore_stims/simple_05_B_a.gif","","","","","1","simple_dissimilar","images/stimuli/spore_stims/simple_05_B_a.gif","right","","","","",""
"","null","html-keyboard-response","36","90449","0.0-11.0-0.5","SS1613174926979","","","null","","","","","<p><img src= images/blank.png width =""200"" height = ""200"" style = ""float:right""></p><p><img src=images/blank.png width =""800"" height = ""200""></p>","","","","","","","","","","","",""
"","1013.4850000031292","sequential-stimulus-presentation","37","92276","0.0-11.0-1.5","SS1613174926979","trial","","40","800","1813.4850000031292","images/stimuli/spore_stims/simple_17_B_a.gif","images/stimuli/spore_stims/simple_05_B_a.gif","","","","","1","simple_dissimilar","images/stimuli/spore_stims/simple_05_B_a.gif","right","","","","",""
"","null","html-keyboard-response","38","93232","0.0-11.0-0.6","SS1613174926979","","","null","","","","","<p><img src= images/blank.png width =""200"" height = ""200"" style = ""float:right""></p><p><img src=images/blank.png width =""800"" height = ""200""></p>","","","","","","","","","","","",""
"","29011.93500001682","sequential-stimulus-presentation","39","123057","0.0-11.0-1.6","SS1613174926979","trial","","40","800","29811.93500001682","images/stimuli/spore_stims/simple_17_B_a.gif","images/stimuli/spore_stims/simple_05_B_a.gif","","","","","1","simple_dissimilar","images/stimuli/spore_stims/simple_17_B_a.gif","left","","","","",""
"","null","html-keyboard-response","40","124203","0.0-11.0-0.7","SS1613174926979","","","null","","","","","<p><img src= images/blank.png width =""200"" height = ""200"" style = ""float:right""></p><p><img src=images/blank.png width =""800"" height = ""200""></p>","","","","","","","","","","","",""
"","421.0000000020955","sequential-stimulus-presentation","41","125437","0.0-11.0-1.7","SS1613174926979","trial","","40","800","1221.0000000020955","images/stimuli/spore_stims/simple_17_B_a.gif","images/stimuli/spore_stims/simple_05_B_a.gif","","","","","1","simple_dissimilar","images/stimuli/spore_stims/simple_05_B_a.gif","right","","","","",""
"","1241.970000002766","html-keyboard-response","42","126686","0.0-12.0","SS1613174926979","pref_question","","98","","","","","<video width ='960' height = '540' style='padding-top:8%' autoplay muted><source src='images/stimuli/wall_pref.mp4' type='video/mp4'></video>","2","middle","45%","1","","","","","","","",""
"","9188.339999993332","sequential-stimulus-presentation","43","136689","0.0-13.0","SS1613174926979","pref_reveal","","40","800","9988.339999993332","null","null","","","","","1","","","","novel","","","",""
"","null","html-keyboard-response","44","137974","0.0-14.0-0.0","SS1613174926979","","","null","","","","","<p><img src= images/blank.png width =""200"" height = ""200"" style = ""float:right""></p><p><img src=images/blank.png width =""800"" height = ""200""></p>","","","","","","","","","","","",""
"","942.9799999925308","sequential-stimulus-presentation","45","139726","0.0-14.0-1.0","SS1613174926979","trial","","40","800","1742.9799999925308","images/stimuli/spore_stims/complex_15_A_c.gif","images/stimuli/spore_stims/complex_15_B_c.gif","","","","","2","complex_similar","images/stimuli/spore_stims/complex_15_B_c.gif","left","","","","",""
"","null","html-keyboard-response","46","140915","0.0-14.0-0.1","SS1613174926979","","","null","","","","","<p><img src= images/blank.png width =""200"" height = ""200"" style = ""float:right""></p><p><img src=images/blank.png width =""800"" height = ""200""></p>","","","","","","","","","","","",""
"","6820.244999980787","sequential-stimulus-presentation","47","148551","0.0-14.0-1.1","SS1613174926979","trial","","40","800","7620.244999980787","images/stimuli/spore_stims/complex_15_A_c.gif","images/stimuli/spore_stims/complex_15_B_c.gif","","","","","2","complex_similar","images/stimuli/spore_stims/complex_15_B_c.gif","left","","","","",""
"","null","html-keyboard-response","48","149376","0.0-14.0-0.2","SS1613174926979","","","null","","","","","<p><img src= images/blank.png width =""200"" height = ""200"" style = ""float:right""></p><p><img src=images/blank.png width =""800"" height = ""200""></p>","","","","","","","","","","","",""
"","3274.985000025481","sequential-stimulus-presentation","49","153459","0.0-14.0-1.2","SS1613174926979","trial","","40","800","4074.985000025481","images/stimuli/spore_stims/complex_15_A_c.gif","images/stimuli/spore_stims/complex_15_B_c.gif","","","","","2","complex_similar","images/stimuli/spore_stims/complex_15_A_c.gif","right","","","","",""
"","null","html-keyboard-response","50","154486","0.0-14.0-0.3","SS1613174926979","","","null","","","","","<p><img src= images/blank.png width =""200"" height = ""200"" style = ""float:right""></p><p><img src=images/blank.png width =""800"" height = ""200""></p>","","","","","","","","","","","",""
"","5240.755000006175","sequential-stimulus-presentation","51","160541","0.0-14.0-1.3","SS1613174926979","trial","","40","800","6040.755000006175","images/stimuli/spore_stims/complex_15_A_c.gif","images/stimuli/spore_stims/complex_15_B_c.gif","","","","","2","complex_similar","images/stimuli/spore_stims/complex_15_B_c.gif","left","","","","",""
"","null","html-keyboard-response","52","161732","0.0-14.0-0.4","SS1613174926979","","","null","","","","","<p><img src= images/blank.png width =""200"" height = ""200"" style = ""float:right""></p><p><img src=images/blank.png width =""800"" height = ""200""></p>","","","","","","","","","","","",""
"","285.8249999990221","sequential-stimulus-presentation","53","162826","0.0-14.0-1.4","SS1613174926979","trial","","40","800","1085.824999999022","images/stimuli/spore_stims/complex_15_A_c.gif","images/stimuli/spore_stims/complex_15_B_c.gif","","","","","2","complex_similar","images/stimuli/spore_stims/complex_15_B_c.gif","left","","","","",""
"","null","html-keyboard-response","54","164065","0.0-14.0-0.5","SS1613174926979","","","null","","","","","<p><img src= images/blank.png width =""200"" height = ""200"" style = ""float:right""></p><p><img src=images/blank.png width =""800"" height = ""200""></p>","","","","","","","","","","","",""
"","1305.4049999918789","sequential-stimulus-presentation","55","166177","0.0-14.0-1.5","SS1613174926979","trial","","40","800","2105.404999991879","images/stimuli/spore_stims/complex_15_A_c.gif","images/stimuli/spore_stims/complex_15_B_c.gif","","","","","2","complex_similar","images/stimuli/spore_stims/complex_15_B_c.gif","left","","","","",""
"","null","html-keyboard-response","56","167125","0.0-14.0-0.6","SS1613174926979","","","null","","","","","<p><img src= images/blank.png width =""200"" height = ""200"" style = ""float:right""></p><p><img src=images/blank.png width =""800"" height = ""200""></p>","","","","","","","","","","","",""
"","925.4350000119302","sequential-stimulus-presentation","57","168864","0.0-14.0-1.6","SS1613174926979","trial","","40","800","1725.4350000119302","images/stimuli/spore_stims/complex_15_A_c.gif","images/stimuli/spore_stims/complex_15_B_c.gif","","","","","2","complex_similar","images/stimuli/spore_stims/complex_15_B_c.gif","left","","","","",""
"","null","html-keyboard-response","58","170056","0.0-14.0-0.7","SS1613174926979","","","null","","","","","<p><img src= images/blank.png width =""200"" height = ""200"" style = ""float:right""></p><p><img src=images/blank.png width =""800"" height = ""200""></p>","","","","","","","","","","","",""
"","2325.23499999661","sequential-stimulus-presentation","59","173194","0.0-14.0-1.7","SS1613174926979","trial","","40","800","3125.23499999661","images/stimuli/spore_stims/complex_15_A_c.gif","images/stimuli/spore_stims/complex_15_B_c.gif","","","","","2","complex_similar","images/stimuli/spore_stims/complex_15_B_c.gif","left","","","","",""
"","1176.034999982221","html-keyboard-response","60","174384","0.0-15.0","SS1613174926979","pref_question","","98","","","","","<video width ='960' height = '540' style='padding-top:8%' autoplay muted><source src='images/stimuli/wall_pref.mp4' type='video/mp4'></video>","2","middle","45%","2","","","","","","","",""
"","852.6150000107009","sequential-stimulus-presentation","61","176051","0.0-16.0","SS1613174926979","pref_reveal","","40","800","1652.615000010701","null","null","","","","","2","","","","novel","","","",""
"","null","html-keyboard-response","62","176862","0.0-17.0-0.0","SS1613174926979","","","null","","","","","<p><img src= images/blank.png width =""200"" height = ""200"" style = ""float:right""></p><p><img src=images/blank.png width =""800"" height = ""200""></p>","","","","","","","","","","","",""
"","156637.46500000707","sequential-stimulus-presentation","63","334326","0.0-17.0-1.0","SS1613174926979","trial","","40","800","157437.46500000707","images/stimuli/spore_stims/complex_10_B_c.gif","images/stimuli/spore_stims/complex_16_B_a.gif","","","","","3","complex_dissimilar","images/stimuli/spore_stims/complex_16_B_a.gif","left","","","","",""
"","null","html-keyboard-response","64","335188","0.0-17.0-0.1","SS1613174926979","","","null","","","","","<p><img src= images/blank.png width =""200"" height = ""200"" style = ""float:right""></p><p><img src=images/blank.png width =""800"" height = ""200""></p>","","","","","","","","","","","",""
"","198009.1900000116","sequential-stimulus-presentation","65","534026","0.0-17.0-1.1","SS1613174926979","trial","","40","800","198809.1900000116","images/stimuli/spore_stims/complex_10_B_c.gif","images/stimuli/spore_stims/complex_16_B_a.gif","","","","","3","complex_dissimilar","images/stimuli/spore_stims/complex_16_B_a.gif","left","","","","",""
"","null","html-keyboard-response","66","535155","0.0-17.0-0.2","SS1613174926979","","","null","","","","","<p><img src= images/blank.png width =""200"" height = ""200"" style = ""float:right""></p><p><img src=images/blank.png width =""800"" height = ""200""></p>","","","","","","","","","","","",""
"","243903.17000000505","sequential-stimulus-presentation","67","779890","0.0-17.0-1.2","SS1613174926979","trial","","40","800","244703.17000000505","images/stimuli/spore_stims/complex_10_B_c.gif","images/stimuli/spore_stims/complex_16_B_a.gif","","","","","3","complex_dissimilar","images/stimuli/spore_stims/complex_16_B_a.gif","left","","","","",""
"","null","html-keyboard-response","68","780970","0.0-17.0-0.3","SS1613174926979","","","null","","","","","<p><img src= images/blank.png width =""200"" height = ""200"" style = ""float:right""></p><p><img src=images/blank.png width =""800"" height = ""200""></p>","","","","","","","","","","","",""
"","6071.194999996806","sequential-stimulus-presentation","69","787860","0.0-17.0-1.3","SS1613174926979","trial","","40","800","6871.194999996806","images/stimuli/spore_stims/complex_10_B_c.gif","images/stimuli/spore_stims/complex_16_B_a.gif","","","","","3","complex_dissimilar","images/stimuli/spore_stims/complex_10_B_c.gif","middle","","","","",""
"","null","html-keyboard-response","70","789734","0.0-17.0-0.4","SS1613174926979","","","null","","","","","<p><img src= images/blank.png width =""200"" height = ""200"" style = ""float:right""></p><p><img src=images/blank.png width =""800"" height = ""200""></p>","","","","","","","","","","","",""
"","345.3999999910593","sequential-stimulus-presentation","71","790892","0.0-17.0-1.4","SS1613174926979","trial","","40","800","1145.3999999910593","images/stimuli/spore_stims/complex_10_B_c.gif","images/stimuli/spore_stims/complex_16_B_a.gif","","","","","3","complex_dissimilar","images/stimuli/spore_stims/complex_16_B_a.gif","left","","","","",""
"","null","html-keyboard-response","72","792734","0.0-17.0-0.5","SS1613174926979","","","null","","","","","<p><img src= images/blank.png width =""200"" height = ""200"" style = ""float:right""></p><p><img src=images/blank.png width =""800"" height = ""200""></p>","","","","","","","","","","","",""
"","18813.544999982696","sequential-stimulus-presentation","73","812552","0.0-17.0-1.5","SS1613174926979","trial","","40","800","19613.544999982696","images/stimuli/spore_stims/complex_10_B_c.gif","images/stimuli/spore_stims/complex_16_B_a.gif","","","","","3","complex_dissimilar","images/stimuli/spore_stims/complex_16_B_a.gif","left","","","","",""
"","null","html-keyboard-response","74","814738","0.0-17.0-0.6","SS1613174926979","","","null","","","","","<p><img src= images/blank.png width =""200"" height = ""200"" style = ""float:right""></p><p><img src=images/blank.png width =""800"" height = ""200""></p>","","","","","","","","","","","",""
"","149.2900000012014","sequential-stimulus-presentation","75","815737","0.0-17.0-1.6","SS1613174926979","trial","","40","800","949.2900000012014","images/stimuli/spore_stims/complex_10_B_c.gif","images/stimuli/spore_stims/complex_16_B_a.gif","","","","","3","complex_dissimilar","images/stimuli/spore_stims/complex_16_B_a.gif","left","","","","",""
"","null","html-keyboard-response","76","816765","0.0-17.0-0.7","SS1613174926979","","","null","","","","","<p><img src= images/blank.png width =""200"" height = ""200"" style = ""float:right""></p><p><img src=images/blank.png width =""800"" height = ""200""></p>","","","","","","","","","","","",""
"","10550.279999995837","sequential-stimulus-presentation","77","828289","0.0-17.0-1.7","SS1613174926979","trial","","40","800","11350.279999995837","images/stimuli/spore_stims/complex_10_B_c.gif","images/stimuli/spore_stims/complex_16_B_a.gif","","","","","3","complex_dissimilar","images/stimuli/spore_stims/complex_16_B_a.gif","left","","","","",""
"","1384.505000023637","html-keyboard-response","78","829682","0.0-18.0","SS1613174926979","pref_question","","98","","","","","<video width ='960' height = '540' style='padding-top:8%' autoplay muted><source src='images/stimuli/wall_pref.mp4' type='video/mp4'></video>","2","middle","45%","3","","","","","","","",""
"","390.59500000439584","sequential-stimulus-presentation","79","830882","0.0-19.0","SS1613174926979","pref_reveal","","40","800","1190.5950000043958","null","null","","","","","3","","","","deviant","","","",""
"","null","html-keyboard-response","80","833078","0.0-20.0-0.0","SS1613174926979","","","null","","","","","<p><img src= images/blank.png width =""200"" height = ""200"" style = ""float:right""></p><p><img src=images/blank.png width =""800"" height = ""200""></p>","","","","","","","","","","","",""
"","726.1550000112038","sequential-stimulus-presentation","81","834617","0.0-20.0-1.0","SS1613174926979","trial","","40","800","1526.1550000112038","images/stimuli/spore_stims/simple_15_B_a.gif","images/stimuli/spore_stims/simple_19_A_b.gif","","","","","4","simple_dissimilar","images/stimuli/spore_stims/simple_19_A_b.gif","left","","","","",""
"","null","html-keyboard-response","82","836738","0.0-20.0-0.1","SS1613174926979","","","null","","","","","<p><img src= images/blank.png width =""200"" height = ""200"" style = ""float:right""></p><p><img src=images/blank.png width =""800"" height = ""200""></p>","","","","","","","","","","","",""
"","26639.649999997346","sequential-stimulus-presentation","83","864378","0.0-20.0-1.1","SS1613174926979","trial","","40","800","27439.649999997346","images/stimuli/spore_stims/simple_15_B_a.gif","images/stimuli/spore_stims/simple_19_A_b.gif","","","","","4","simple_dissimilar","images/stimuli/spore_stims/simple_19_A_b.gif","left","","","","",""
"","null","html-keyboard-response","84","865737","0.0-20.0-0.2","SS1613174926979","","","null","","","","","<p><img src= images/blank.png width =""200"" height = ""200"" style = ""float:right""></p><p><img src=images/blank.png width =""800"" height = ""200""></p>","","","","","","","","","","","",""
"","3279.4799999974202","sequential-stimulus-presentation","85","870018","0.0-20.0-1.2","SS1613174926979","trial","","40","800","4079.4799999974202","images/stimuli/spore_stims/simple_15_B_a.gif","images/stimuli/spore_stims/simple_19_A_b.gif","","","","","4","simple_dissimilar","images/stimuli/spore_stims/simple_19_A_b.gif","left","","","","",""
"","null","html-keyboard-response","86","871738","0.0-20.0-0.3","SS1613174926979","","","null","","","","","<p><img src= images/blank.png width =""200"" height = ""200"" style = ""float:right""></p><p><img src=images/blank.png width =""800"" height = ""200""></p>","","","","","","","","","","","",""
"","526.1699999973644","sequential-stimulus-presentation","87","873267","0.0-20.0-1.3","SS1613174926979","trial","","40","800","1326.1699999973644","images/stimuli/spore_stims/simple_15_B_a.gif","images/stimuli/spore_stims/simple_19_A_b.gif","","","","","4","simple_dissimilar","images/stimuli/spore_stims/simple_19_A_b.gif","left","","","","",""
"","null","html-keyboard-response","88","874225","0.0-20.0-0.4","SS1613174926979","","","null","","","","","<p><img src= images/blank.png width =""200"" height = ""200"" style = ""float:right""></p><p><img src=images/blank.png width =""800"" height = ""200""></p>","","","","","","","","","","","",""
"","890.2600000146776","sequential-stimulus-presentation","89","875923","0.0-20.0-1.4","SS1613174926979","trial","","40","800","1690.2600000146776","images/stimuli/spore_stims/simple_15_B_a.gif","images/stimuli/spore_stims/simple_19_A_b.gif","","","","","4","simple_dissimilar","images/stimuli/spore_stims/simple_19_A_b.gif","left","","","","",""
"","null","html-keyboard-response","90","876887","0.0-20.0-0.5","SS1613174926979","","","null","","","","","<p><img src= images/blank.png width =""200"" height = ""200"" style = ""float:right""></p><p><img src=images/blank.png width =""800"" height = ""200""></p>","","","","","","","","","","","",""
"","7979.124999983469","sequential-stimulus-presentation","91","885693","0.0-20.0-1.5","SS1613174926979","trial","","40","800","8779.124999983469","images/stimuli/spore_stims/simple_15_B_a.gif","images/stimuli/spore_stims/simple_19_A_b.gif","","","","","4","simple_dissimilar","images/stimuli/spore_stims/simple_15_B_a.gif","middle","","","","",""
"","null","html-keyboard-response","92","886810","0.0-20.0-0.6","SS1613174926979","","","null","","","","","<p><img src= images/blank.png width =""200"" height = ""200"" style = ""float:right""></p><p><img src=images/blank.png width =""800"" height = ""200""></p>","","","","","","","","","","","",""
"","11109.974999999395","sequential-stimulus-presentation","93","898736","0.0-20.0-1.6","SS1613174926979","trial","","40","800","11909.974999999395","images/stimuli/spore_stims/simple_15_B_a.gif","images/stimuli/spore_stims/simple_19_A_b.gif","","","","","4","simple_dissimilar","images/stimuli/spore_stims/simple_19_A_b.gif","left","","","","",""
"","null","html-keyboard-response","94","900740","0.0-20.0-0.7","SS1613174926979","","","null","","","","","<p><img src= images/blank.png width =""200"" height = ""200"" style = ""float:right""></p><p><img src=images/blank.png width =""800"" height = ""200""></p>","","","","","","","","","","","",""
"","4913.284999987809","sequential-stimulus-presentation","95","906655","0.0-20.0-1.7","SS1613174926979","trial","","40","800","5713.284999987809","images/stimuli/spore_stims/simple_15_B_a.gif","images/stimuli/spore_stims/simple_19_A_b.gif","","","","","4","simple_dissimilar","images/stimuli/spore_stims/simple_19_A_b.gif","left","","","","",""
"","4681.34499998996","html-keyboard-response","96","911349","0.0-21.0","SS1613174926979","pref_question","","98","","","","","<video width ='960' height = '540' style='padding-top:8%' autoplay muted><source src='images/stimuli/wall_pref.mp4' type='video/mp4'></video>","2","middle","45%","4","","","","","","","",""
"","3255.3400000033434","sequential-stimulus-presentation","97","915420","0.0-22.0","SS1613174926979","pref_reveal","","40","800","4055.3400000033434","null","null","","","","","4","","","","deviant","","","",""
"","null","html-keyboard-response","98","916425","0.0-23.0-0.0","SS1613174926979","","","null","","","","","<p><img src= images/blank.png width =""200"" height = ""200"" style = ""float:right""></p><p><img src=images/blank.png width =""800"" height = ""200""></p>","","","","","","","","","","","",""
"","2814.8550000041723","sequential-stimulus-presentation","99","920049","0.0-23.0-1.0","SS1613174926979","trial","","40","800","3614.8550000041723","images/stimuli/spore_stims/simple_05_A_a.gif","images/stimuli/spore_stims/simple_06_B_c.gif","","","","","5","simple_dissimilar","images/stimuli/spore_stims/simple_06_B_c.gif","middle","","","","",""
"","null","html-keyboard-response","100","920952","0.0-23.0-0.1","SS1613174926979","","","null","","","","","<p><img src= images/blank.png width =""200"" height = ""200"" style = ""float:right""></p><p><img src=images/blank.png width =""800"" height = ""200""></p>","","","","","","","","","","","",""
"","453.84000000194646","sequential-stimulus-presentation","101","922228","0.0-23.0-1.1","SS1613174926979","trial","","40","800","1253.8400000019465","images/stimuli/spore_stims/simple_05_A_a.gif","images/stimuli/spore_stims/simple_06_B_c.gif","","","","","5","simple_dissimilar","images/stimuli/spore_stims/simple_06_B_c.gif","middle","","","","",""
"","null","html-keyboard-response","102","923123","0.0-23.0-0.2","SS1613174926979","","","null","","","","","<p><img src= images/blank.png width =""200"" height = ""200"" style = ""float:right""></p><p><img src=images/blank.png width =""800"" height = ""200""></p>","","","","","","","","","","","",""
"","374.69000002602115","sequential-stimulus-presentation","103","924307","0.0-23.0-1.2","SS1613174926979","trial","","40","800","1174.6900000260212","images/stimuli/spore_stims/simple_05_A_a.gif","images/stimuli/spore_stims/simple_06_B_c.gif","","","","","5","simple_dissimilar","images/stimuli/spore_stims/simple_06_B_c.gif","middle","","","","",""
"","null","html-keyboard-response","104","925546","0.0-23.0-0.3","SS1613174926979","","","null","","","","","<p><img src= images/blank.png width =""200"" height = ""200"" style = ""float:right""></p><p><img src=images/blank.png width =""800"" height = ""200""></p>","","","","","","","","","","","",""
"","3777.3900000029244","sequential-stimulus-presentation","105","930138","0.0-23.0-1.3","SS1613174926979","trial","","40","800","4577.390000002924","images/stimuli/spore_stims/simple_05_A_a.gif","images/stimuli/spore_stims/simple_06_B_c.gif","","","","","5","simple_dissimilar","images/stimuli/spore_stims/simple_05_A_a.gif","right","","","","",""
"","null","html-keyboard-response","106","931145","0.0-23.0-0.4","SS1613174926979","","","null","","","","","<p><img src= images/blank.png width =""200"" height = ""200"" style = ""float:right""></p><p><img src=images/blank.png width =""800"" height = ""200""></p>","","","","","","","","","","","",""
"","402.7300000016112","sequential-stimulus-presentation","107","932360","0.0-23.0-1.4","SS1613174926979","trial","","40","800","1202.7300000016112","images/stimuli/spore_stims/simple_05_A_a.gif","images/stimuli/spore_stims/simple_06_B_c.gif","","","","","5","simple_dissimilar","images/stimuli/spore_stims/simple_06_B_c.gif","middle","","","","",""
"","null","html-keyboard-response","108","933523","0.0-23.0-0.5","SS1613174926979","","","null","","","","","<p><img src= images/blank.png width =""200"" height = ""200"" style = ""float:right""></p><p><img src=images/blank.png width =""800"" height = ""200""></p>","","","","","","","","","","","",""
"","404.2499999923166","sequential-stimulus-presentation","109","934742","0.0-23.0-1.5","SS1613174926979","trial","","40","800","1204.2499999923166","images/stimuli/spore_stims/simple_05_A_a.gif","images/stimuli/spore_stims/simple_06_B_c.gif","","","","","5","simple_dissimilar","images/stimuli/spore_stims/simple_06_B_c.gif","middle","","","","",""
"","null","html-keyboard-response","110","935804","0.0-23.0-0.6","SS1613174926979","","","null","","","","","<p><img src= images/blank.png width =""200"" height = ""200"" style = ""float:right""></p><p><img src=images/blank.png width =""800"" height = ""200""></p>","","","","","","","","","","","",""
"","460.50499999546446","sequential-stimulus-presentation","111","937115","0.0-23.0-1.6","SS1613174926979","trial","","40","800","1260.5049999954645","images/stimuli/spore_stims/simple_05_A_a.gif","images/stimuli/spore_stims/simple_06_B_c.gif","","","","","5","simple_dissimilar","images/stimuli/spore_stims/simple_06_B_c.gif","middle","","","","",""
"","null","html-keyboard-response","112","938018","0.0-23.0-0.7","SS1613174926979","","","null","","","","","<p><img src= images/blank.png width =""200"" height = ""200"" style = ""float:right""></p><p><img src=images/blank.png width =""800"" height = ""200""></p>","","","","","","","","","","","",""
"","635.2800000167917","sequential-stimulus-presentation","113","939467","0.0-23.0-1.7","SS1613174926979","trial","","40","800","1435.2800000167917","images/stimuli/spore_stims/simple_05_A_a.gif","images/stimuli/spore_stims/simple_06_B_c.gif","","","","","5","simple_dissimilar","images/stimuli/spore_stims/simple_06_B_c.gif","middle","","","","",""
"","1589.1950000077486","html-keyboard-response","114","941067","0.0-24.0","SS1613174926979","pref_question","","97","","","","","<video width ='960' height = '540' style='padding-top:8%' autoplay muted><source src='images/stimuli/wall_pref.mp4' type='video/mp4'></video>","1","left","25%","5","","","","","","","",""
"","463.16500002285466","sequential-stimulus-presentation","115","942347","0.0-25.0","SS1613174926979","pref_reveal","","40","800","1263.1650000228547","null","null","","","","","5","","","","novel","","","",""
"","null","html-keyboard-response","116","943643","0.0-26.0-0.0","SS1613174926979","","","null","","","","","<p><img src= images/blank.png width =""200"" height = ""200"" style = ""float:right""></p><p><img src=images/blank.png width =""800"" height = ""200""></p>","","","","","","","","","","","",""
"","600.8199999923818","sequential-stimulus-presentation","117","945060","0.0-26.0-1.0","SS1613174926979","trial","","40","800","1400.8199999923818","images/stimuli/spore_stims/simple_17_B_b.gif","images/stimuli/spore_stims/simple_17_A_b.gif","","","","","6","simple_similar","images/stimuli/spore_stims/simple_17_A_b.gif","middle","","","","",""
"","null","html-keyboard-response","118","946046","0.0-26.0-0.1","SS1613174926979","","","null","","","","","<p><img src= images/blank.png width =""200"" height = ""200"" style = ""float:right""></p><p><img src=images/blank.png width =""800"" height = ""200""></p>","","","","","","","","","","","",""
"","387.8050000057556","sequential-stimulus-presentation","119","947249","0.0-26.0-1.1","SS1613174926979","trial","","40","800","1187.8050000057556","images/stimuli/spore_stims/simple_17_B_b.gif","images/stimuli/spore_stims/simple_17_A_b.gif","","","","","6","simple_similar","images/stimuli/spore_stims/simple_17_A_b.gif","middle","","","","",""
"","null","html-keyboard-response","120","948382","0.0-26.0-0.2","SS1613174926979","","","null","","","","","<p><img src= images/blank.png width =""200"" height = ""200"" style = ""float:right""></p><p><img src=images/blank.png width =""800"" height = ""200""></p>","","","","","","","","","","","",""
"","510.1449999783654","sequential-stimulus-presentation","121","949722","0.0-26.0-1.2","SS1613174926979","trial","","40","800","1310.1449999783654","images/stimuli/spore_stims/simple_17_B_b.gif","images/stimuli/spore_stims/simple_17_A_b.gif","","","","","6","simple_similar","images/stimuli/spore_stims/simple_17_A_b.gif","middle","","","","",""
"","null","html-keyboard-response","122","950704","0.0-26.0-0.3","SS1613174926979","","","null","","","","","<p><img src= images/blank.png width =""200"" height = ""200"" style = ""float:right""></p><p><img src=images/blank.png width =""800"" height = ""200""></p>","","","","","","","","","","","",""
"","2017.0250000082888","sequential-stimulus-presentation","123","953537","0.0-26.0-1.3","SS1613174926979","trial","","40","800","2817.0250000082888","images/stimuli/spore_stims/simple_17_B_b.gif","images/stimuli/spore_stims/simple_17_A_b.gif","","","","","6","simple_similar","images/stimuli/spore_stims/simple_17_B_b.gif","right","","","","",""
"","null","html-keyboard-response","124","954829","0.0-26.0-0.4","SS1613174926979","","","null","","","","","<p><img src= images/blank.png width =""200"" height = ""200"" style = ""float:right""></p><p><img src=images/blank.png width =""800"" height = ""200""></p>","","","","","","","","","","","",""
"","401.18999997503124","sequential-stimulus-presentation","125","956049","0.0-26.0-1.4","SS1613174926979","trial","","40","800","1201.1899999750312","images/stimuli/spore_stims/simple_17_B_b.gif","images/stimuli/spore_stims/simple_17_A_b.gif","","","","","6","simple_similar","images/stimuli/spore_stims/simple_17_A_b.gif","middle","","","","",""
"","null","html-keyboard-response","126","957110","0.0-26.0-0.5","SS1613174926979","","","null","","","","","<p><img src= images/blank.png width =""200"" height = ""200"" style = ""float:right""></p><p><img src=images/blank.png width =""800"" height = ""200""></p>","","","","","","","","","","","",""
"","676.0050000157207","sequential-stimulus-presentation","127","958599","0.0-26.0-1.5","SS1613174926979","trial","","40","800","1476.0050000157207","images/stimuli/spore_stims/simple_17_B_b.gif","images/stimuli/spore_stims/simple_17_A_b.gif","","","","","6","simple_similar","images/stimuli/spore_stims/simple_17_A_b.gif","middle","","","","",""
"","null","html-keyboard-response","128","959503","0.0-26.0-0.6","SS1613174926979","","","null","","","","","<p><img src= images/blank.png width =""200"" height = ""200"" style = ""float:right""></p><p><img src=images/blank.png width =""800"" height = ""200""></p>","","","","","","","","","","","",""
"","285.22499999962747","sequential-stimulus-presentation","129","960607","0.0-26.0-1.6","SS1613174926979","trial","","40","800","1085.2249999996275","images/stimuli/spore_stims/simple_17_B_b.gif","images/stimuli/spore_stims/simple_17_A_b.gif","","","","","6","simple_similar","images/stimuli/spore_stims/simple_17_A_b.gif","middle","","","","",""
"","null","html-keyboard-response","130","961862","0.0-26.0-0.7","SS1613174926979","","","null","","","","","<p><img src= images/blank.png width =""200"" height = ""200"" style = ""float:right""></p><p><img src=images/blank.png width =""800"" height = ""200""></p>","","","","","","","","","","","",""
"","95.74999997857958","sequential-stimulus-presentation","131","962766","0.0-26.0-1.7","SS1613174926979","trial","","40","800","895.7499999785796","images/stimuli/spore_stims/simple_17_B_b.gif","images/stimuli/spore_stims/simple_17_A_b.gif","","","","","6","simple_similar","images/stimuli/spore_stims/simple_17_A_b.gif","middle","","","","",""
"","1235.339999984717","html-keyboard-response","132","964014","0.0-27.0","SS1613174926979","pref_question","","97","","","","","<video width ='960' height = '540' style='padding-top:8%' autoplay muted><source src='images/stimuli/wall_pref.mp4' type='video/mp4'></video>","1","left","25%","6","","","","","","","",""
"","342.55999999004416","sequential-stimulus-presentation","133","965167","0.0-28.0","SS1613174926979","pref_reveal","","40","800","1142.5599999900442","null","null","","","","","6","","","","novel","","","",""
"","null","html-keyboard-response","134","966149","0.0-29.0-0.0","SS1613174926979","","","null","","","","","<p><img src= images/blank.png width =""200"" height = ""200"" style = ""float:right""></p><p><img src=images/blank.png width =""800"" height = ""200""></p>","","","","","","","","","","","",""
"","200.90999998501502","sequential-stimulus-presentation","135","967213","0.0-29.0-1.0","SS1613174926979","trial","","40","800","1000.909999985015","images/stimuli/spore_stims/complex_14_A_b.gif","images/stimuli/spore_stims/complex_14_B_b.gif","","","","","7","complex_similar","images/stimuli/spore_stims/complex_14_B_b.gif","middle","","","","",""
"","null","html-keyboard-response","136","968306","0.0-29.0-0.1","SS1613174926979","","","null","","","","","<p><img src= images/blank.png width =""200"" height = ""200"" style = ""float:right""></p><p><img src=images/blank.png width =""800"" height = ""200""></p>","","","","","","","","","","","",""
"","408.8950000004843","sequential-stimulus-presentation","137","969525","0.0-29.0-1.1","SS1613174926979","trial","","40","800","1208.8950000004843","images/stimuli/spore_stims/complex_14_A_b.gif","images/stimuli/spore_stims/complex_14_B_b.gif","","","","","7","complex_similar","images/stimuli/spore_stims/complex_14_B_b.gif","middle","","","","",""
"","null","html-keyboard-response","138","970424","0.0-29.0-0.2","SS1613174926979","","","null","","","","","<p><img src= images/blank.png width =""200"" height = ""200"" style = ""float:right""></p><p><img src=images/blank.png width =""800"" height = ""200""></p>","","","","","","","","","","","",""
"","718.2650000031572","sequential-stimulus-presentation","139","971961","0.0-29.0-1.2","SS1613174926979","trial","","40","800","1518.2650000031572","images/stimuli/spore_stims/complex_14_A_b.gif","images/stimuli/spore_stims/complex_14_B_b.gif","","","","","7","complex_similar","images/stimuli/spore_stims/complex_14_A_b.gif","right","","","","",""
"","null","html-keyboard-response","140","973213","0.0-29.0-0.3","SS1613174926979","","","null","","","","","<p><img src= images/blank.png width =""200"" height = ""200"" style = ""float:right""></p><p><img src=images/blank.png width =""800"" height = ""200""></p>","","","","","","","","","","","",""
"","329.7200000088196","sequential-stimulus-presentation","141","974362","0.0-29.0-1.3","SS1613174926979","trial","","40","800","1129.7200000088196","images/stimuli/spore_stims/complex_14_A_b.gif","images/stimuli/spore_stims/complex_14_B_b.gif","","","","","7","complex_similar","images/stimuli/spore_stims/complex_14_B_b.gif","middle","","","","",""
"","null","html-keyboard-response","142","975344","0.0-29.0-0.4","SS1613174926979","","","null","","","","","<p><img src= images/blank.png width =""200"" height = ""200"" style = ""float:right""></p><p><img src=images/blank.png width =""800"" height = ""200""></p>","","","","","","","","","","","",""
"","323.22999997995794","sequential-stimulus-presentation","143","976484","0.0-29.0-1.4","SS1613174926979","trial","","40","800","1123.229999979958","images/stimuli/spore_stims/complex_14_A_b.gif","images/stimuli/spore_stims/complex_14_B_b.gif","","","","","7","complex_similar","images/stimuli/spore_stims/complex_14_B_b.gif","middle","","","","",""
"","null","html-keyboard-response","144","977620","0.0-29.0-0.5","SS1613174926979","","","null","","","","","<p><img src= images/blank.png width =""200"" height = ""200"" style = ""float:right""></p><p><img src=images/blank.png width =""800"" height = ""200""></p>","","","","","","","","","","","",""
"","300.0250000040978","sequential-stimulus-presentation","145","978741","0.0-29.0-1.5","SS1613174926979","trial","","40","800","1100.0250000040978","images/stimuli/spore_stims/complex_14_A_b.gif","images/stimuli/spore_stims/complex_14_B_b.gif","","","","","7","complex_similar","images/stimuli/spore_stims/complex_14_B_b.gif","middle","","","","",""
"","null","html-keyboard-response","146","979899","0.0-29.0-0.6","SS1613174926979","","","null","","","","","<p><img src= images/blank.png width =""200"" height = ""200"" style = ""float:right""></p><p><img src=images/blank.png width =""800"" height = ""200""></p>","","","","","","","","","","","",""
"","4815.540000010515","sequential-stimulus-presentation","147","985546","0.0-29.0-1.6","SS1613174926979","trial","","40","800","5615.540000010515","images/stimuli/spore_stims/complex_14_A_b.gif","images/stimuli/spore_stims/complex_14_B_b.gif","","","","","7","complex_similar","images/stimuli/spore_stims/complex_14_B_b.gif","middle","","","","",""
"","null","html-keyboard-response","148","986744","0.0-29.0-0.7","SS1613174926979","","","null","","","","","<p><img src= images/blank.png width =""200"" height = ""200"" style = ""float:right""></p><p><img src=images/blank.png width =""800"" height = ""200""></p>","","","","","","","","","","","",""
"","1153.714999993099","sequential-stimulus-presentation","149","988900","0.0-29.0-1.7","SS1613174926979","trial","","40","800","1953.714999993099","images/stimuli/spore_stims/complex_14_A_b.gif","images/stimuli/spore_stims/complex_14_B_b.gif","","","","","7","complex_similar","images/stimuli/spore_stims/complex_14_B_b.gif","middle","","","","",""
"","3740.395000000717","html-keyboard-response","150","992661","0.0-30.0","SS1613174926979","pref_question","","98","","","","","<video width ='960' height = '540' style='padding-top:8%' autoplay muted><source src='images/stimuli/wall_pref.mp4' type='video/mp4'></video>","2","middle","45%","7","","","","","","","",""
"","364.4100000092294","sequential-stimulus-presentation","151","993845","0.0-31.0","SS1613174926979","pref_reveal","","40","800","1164.4100000092294","null","null","","","","","7","","","","background","","","",""
"","null","html-keyboard-response","152","994715","0.0-32.0-0.0","SS1613174926979","","","null","","","","","<p><img src= images/blank.png width =""200"" height = ""200"" style = ""float:right""></p><p><img src=images/blank.png width =""800"" height = ""200""></p>","","","","","","","","","","","",""
"","1241.5150000015274","sequential-stimulus-presentation","153","996775","0.0-32.0-1.0","SS1613174926979","trial","","40","800","2041.5150000015274","images/stimuli/spore_stims/simple_16_B_a.gif","images/stimuli/spore_stims/simple_16_A_a.gif","","","","","8","simple_similar","images/stimuli/spore_stims/simple_16_A_a.gif","left","","","","",""
"","null","html-keyboard-response","154","997609","0.0-32.0-0.1","SS1613174926979","","","null","","","","","<p><img src= images/blank.png width =""200"" height = ""200"" style = ""float:right""></p><p><img src=images/blank.png width =""800"" height = ""200""></p>","","","","","","","","","","","",""
"","2870.8799999731127","sequential-stimulus-presentation","155","1001300","0.0-32.0-1.1","SS1613174926979","trial","","40","800","3670.8799999731127","images/stimuli/spore_stims/simple_16_B_a.gif","images/stimuli/spore_stims/simple_16_A_a.gif","","","","","8","simple_similar","images/stimuli/spore_stims/simple_16_A_a.gif","left","","","","",""
"","null","html-keyboard-response","156","1002285","0.0-32.0-0.2","SS1613174926979","","","null","","","","","<p><img src= images/blank.png width =""200"" height = ""200"" style = ""float:right""></p><p><img src=images/blank.png width =""800"" height = ""200""></p>","","","","","","","","","","","",""
"","7084.819999989122","sequential-stimulus-presentation","157","1010181","0.0-32.0-1.2","SS1613174926979","trial","","40","800","7884.819999989122","images/stimuli/spore_stims/simple_16_B_a.gif","images/stimuli/spore_stims/simple_16_A_a.gif","","","","","8","simple_similar","images/stimuli/spore_stims/simple_16_A_a.gif","left","","","","",""
"","null","html-keyboard-response","158","1011184","0.0-32.0-0.3","SS1613174926979","","","null","","","","","<p><img src= images/blank.png width =""200"" height = ""200"" style = ""float:right""></p><p><img src=images/blank.png width =""800"" height = ""200""></p>","","","","","","","","","","","",""
"","4148.439999989932","sequential-stimulus-presentation","159","1016152","0.0-32.0-1.3","SS1613174926979","trial","","40","800","4948.439999989932","images/stimuli/spore_stims/simple_16_B_a.gif","images/stimuli/spore_stims/simple_16_A_a.gif","","","","","8","simple_similar","images/stimuli/spore_stims/simple_16_A_a.gif","left","","","","",""
"","null","html-keyboard-response","160","1017111","0.0-32.0-0.4","SS1613174926979","","","null","","","","","<p><img src= images/blank.png width =""200"" height = ""200"" style = ""float:right""></p><p><img src=images/blank.png width =""800"" height = ""200""></p>","","","","","","","","","","","",""
"","406.09499998390675","sequential-stimulus-presentation","161","1018335","0.0-32.0-1.4","SS1613174926979","trial","","40","800","1206.0949999839067","images/stimuli/spore_stims/simple_16_B_a.gif","images/stimuli/spore_stims/simple_16_A_a.gif","","","","","8","simple_similar","images/stimuli/spore_stims/simple_16_A_a.gif","left","","","","",""
"","null","html-keyboard-response","162","1019165","0.0-32.0-0.5","SS1613174926979","","","null","","","","","<p><img src= images/blank.png width =""200"" height = ""200"" style = ""float:right""></p><p><img src=images/blank.png width =""800"" height = ""200""></p>","","","","","","","","","","","",""
"","980.455000011716","sequential-stimulus-presentation","163","1020979","0.0-32.0-1.5","SS1613174926979","trial","","40","800","1780.455000011716","images/stimuli/spore_stims/simple_16_B_a.gif","images/stimuli/spore_stims/simple_16_A_a.gif","","","","","8","simple_similar","images/stimuli/spore_stims/simple_16_A_a.gif","left","","","","",""
"","null","html-keyboard-response","164","1021964","0.0-32.0-0.6","SS1613174926979","","","null","","","","","<p><img src= images/blank.png width =""200"" height = ""200"" style = ""float:right""></p><p><img src=images/blank.png width =""800"" height = ""200""></p>","","","","","","","","","","","",""
"","671.954999997979","sequential-stimulus-presentation","165","1023448","0.0-32.0-1.6","SS1613174926979","trial","","40","800","1471.954999997979","images/stimuli/spore_stims/simple_16_B_a.gif","images/stimuli/spore_stims/simple_16_A_a.gif","","","","","8","simple_similar","images/stimuli/spore_stims/simple_16_B_a.gif","right","","","","",""
"","null","html-keyboard-response","166","1024582","0.0-32.0-0.7","SS1613174926979","","","null","","","","","<p><img src= images/blank.png width =""200"" height = ""200"" style = ""float:right""></p><p><img src=images/blank.png width =""800"" height = ""200""></p>","","","","","","","","","","","",""
"","7590.575000009267","sequential-stimulus-presentation","167","1032992","0.0-32.0-1.7","SS1613174926979","trial","","40","800","8390.575000009267","images/stimuli/spore_stims/simple_16_B_a.gif","images/stimuli/spore_stims/simple_16_A_a.gif","","","","","8","simple_similar","images/stimuli/spore_stims/simple_16_A_a.gif","left","","","","",""
"","1673.6349999846425","html-keyboard-response","168","1034684","0.0-33.0","SS1613174926979","pref_question","","97","","","","","<video width ='960' height = '540' style='padding-top:8%' autoplay muted><source src='images/stimuli/wall_pref.mp4' type='video/mp4'></video>","1","left","25%","8","","","","","","","",""
"","333.87000000220723","sequential-stimulus-presentation","169","1035828","0.0-34.0","SS1613174926979","pref_reveal","","40","800","1133.8700000022072","null","null","","","","","8","","","","background","","","",""
"","null","html-keyboard-response","170","1036781","0.0-35.0-0.0","SS1613174926979","","","null","","","","","<p><img src= images/blank.png width =""200"" height = ""200"" style = ""float:right""></p><p><img src=images/blank.png width =""800"" height = ""200""></p>","","","","","","","","","","","",""
"","4625.614999997197","sequential-stimulus-presentation","171","1042227","0.0-35.0-1.0","SS1613174926979","trial","","40","800","5425.614999997197","images/stimuli/spore_stims/complex_04_B_a.gif","images/stimuli/spore_stims/complex_04_A_a.gif","","","","","9","complex_similar","images/stimuli/spore_stims/complex_04_A_a.gif","right","","","","",""
"","null","html-keyboard-response","172","1043238","0.0-35.0-0.1","SS1613174926979","","","null","","","","","<p><img src= images/blank.png width =""200"" height = ""200"" style = ""float:right""></p><p><img src=images/blank.png width =""800"" height = ""200""></p>","","","","","","","","","","","",""
"","771.4749999868218","sequential-stimulus-presentation","173","1044836","0.0-35.0-1.1","SS1613174926979","trial","","40","800","1571.4749999868218","images/stimuli/spore_stims/complex_04_B_a.gif","images/stimuli/spore_stims/complex_04_A_a.gif","","","","","9","complex_similar","images/stimuli/spore_stims/complex_04_A_a.gif","right","","","","",""
"","null","html-keyboard-response","174","1045694","0.0-35.0-0.2","SS1613174926979","","","null","","","","","<p><img src= images/blank.png width =""200"" height = ""200"" style = ""float:right""></p><p><img src=images/blank.png width =""800"" height = ""200""></p>","","","","","","","","","","","",""
"","582.5949999853037","sequential-stimulus-presentation","175","1047154","0.0-35.0-1.2","SS1613174926979","trial","","40","800","1382.5949999853037","images/stimuli/spore_stims/complex_04_B_a.gif","images/stimuli/spore_stims/complex_04_A_a.gif","","","","","9","complex_similar","images/stimuli/spore_stims/complex_04_A_a.gif","right","","","","",""
"","null","html-keyboard-response","176","1048747","0.0-35.0-0.3","SS1613174926979","","","null","","","","","<p><img src= images/blank.png width =""200"" height = ""200"" style = ""float:right""></p><p><img src=images/blank.png width =""800"" height = ""200""></p>","","","","","","","","","","","",""
"","531.025000003865","sequential-stimulus-presentation","177","1050090","0.0-35.0-1.3","SS1613174926979","trial","","40","800","1331.025000003865","images/stimuli/spore_stims/complex_04_B_a.gif","images/stimuli/spore_stims/complex_04_A_a.gif","","","","","9","complex_similar","images/stimuli/spore_stims/complex_04_B_a.gif","left","","","","",""
"","null","html-keyboard-response","178","1051201","0.0-35.0-0.4","SS1613174926979","","","null","","","","","<p><img src= images/blank.png width =""200"" height = ""200"" style = ""float:right""></p><p><img src=images/blank.png width =""800"" height = ""200""></p>","","","","","","","","","","","",""
"","453.3700000029057","sequential-stimulus-presentation","179","1052489","0.0-35.0-1.4","SS1613174926979","trial","","40","800","1253.3700000029057","images/stimuli/spore_stims/complex_04_B_a.gif","images/stimuli/spore_stims/complex_04_A_a.gif","","","","","9","complex_similar","images/stimuli/spore_stims/complex_04_A_a.gif","right","","","","",""
"","null","html-keyboard-response","180","1053568","0.0-35.0-0.5","SS1613174926979","","","null","","","","","<p><img src= images/blank.png width =""200"" height = ""200"" style = ""float:right""></p><p><img src=images/blank.png width =""800"" height = ""200""></p>","","","","","","","","","","","",""
"","3545.4550000140443","sequential-stimulus-presentation","181","1057925","0.0-35.0-1.5","SS1613174926979","trial","","40","800","4345.455000014044","images/stimuli/spore_stims/complex_04_B_a.gif","images/stimuli/spore_stims/complex_04_A_a.gif","","","","","9","complex_similar","images/stimuli/spore_stims/complex_04_A_a.gif","right","","","","",""
"","null","html-keyboard-response","182","1059172","0.0-35.0-0.6","SS1613174926979","","","null","","","","","<p><img src= images/blank.png width =""200"" height = ""200"" style = ""float:right""></p><p><img src=images/blank.png width =""800"" height = ""200""></p>","","","","","","","","","","","",""
"","1048.0350000143517","sequential-stimulus-presentation","183","1061043","0.0-35.0-1.6","SS1613174926979","trial","","40","800","1848.0350000143517","images/stimuli/spore_stims/complex_04_B_a.gif","images/stimuli/spore_stims/complex_04_A_a.gif","","","","","9","complex_similar","images/stimuli/spore_stims/complex_04_A_a.gif","right","","","","",""
"","null","html-keyboard-response","184","1062026","0.0-35.0-0.7","SS1613174926979","","","null","","","","","<p><img src= images/blank.png width =""200"" height = ""200"" style = ""float:right""></p><p><img src=images/blank.png width =""800"" height = ""200""></p>","","","","","","","","","","","",""
"","299.6299999940675","sequential-stimulus-presentation","185","1063138","0.0-35.0-1.7","SS1613174926979","trial","","40","800","1099.6299999940675","images/stimuli/spore_stims/complex_04_B_a.gif","images/stimuli/spore_stims/complex_04_A_a.gif","","","","","9","complex_similar","images/stimuli/spore_stims/complex_04_A_a.gif","right","","","","",""
"","1363.390000013169","html-keyboard-response","186","1064514","0.0-36.0","SS1613174926979","pref_question","","98","","","","","<video width ='960' height = '540' style='padding-top:8%' autoplay muted><source src='images/stimuli/wall_pref.mp4' type='video/mp4'></video>","2","middle","45%","9","","","","","","","",""
"","316.52500000200234","sequential-stimulus-presentation","187","1065653","0.0-37.0","SS1613174926979","pref_reveal","","40","800","1116.5250000020023","null","null","","","","","9","","","","novel","","","",""
"","null","html-keyboard-response","188","1066581","0.0-38.0-0.0","SS1613174926979","","","null","","","","","<p><img src= images/blank.png width =""200"" height = ""200"" style = ""float:right""></p><p><img src=images/blank.png width =""800"" height = ""200""></p>","","","","","","","","","","","",""
"","310.06999997771345","sequential-stimulus-presentation","189","1067714","0.0-38.0-1.0","SS1613174926979","trial","","40","800","1110.0699999777135","images/stimuli/spore_stims/simple_04_A_d.gif","images/stimuli/spore_stims/simple_04_B_d.gif","","","","","10","simple_similar","images/stimuli/spore_stims/simple_04_B_d.gif","left","","","","",""
"","null","html-keyboard-response","190","1068721","0.0-38.0-0.1","SS1613174926979","","","null","","","","","<p><img src= images/blank.png width =""200"" height = ""200"" style = ""float:right""></p><p><img src=images/blank.png width =""800"" height = ""200""></p>","","","","","","","","","","","",""
"","327.2700000088662","sequential-stimulus-presentation","191","1069871","0.0-38.0-1.1","SS1613174926979","trial","","40","800","1127.2700000088662","images/stimuli/spore_stims/simple_04_A_d.gif","images/stimuli/spore_stims/simple_04_B_d.gif","","","","","10","simple_similar","images/stimuli/spore_stims/simple_04_B_d.gif","left","","","","",""
"","null","html-keyboard-response","192","1070994","0.0-38.0-0.2","SS1613174926979","","","null","","","","","<p><img src= images/blank.png width =""200"" height = ""200"" style = ""float:right""></p><p><img src=images/blank.png width =""800"" height = ""200""></p>","","","","","","","","","","","",""
"","223.76000002259389","sequential-stimulus-presentation","193","1072041","0.0-38.0-1.2","SS1613174926979","trial","","40","800","1023.7600000225939","images/stimuli/spore_stims/simple_04_A_d.gif","images/stimuli/spore_stims/simple_04_B_d.gif","","","","","10","simple_similar","images/stimuli/spore_stims/simple_04_A_d.gif","right","","","","",""
"","null","html-keyboard-response","194","1072918","0.0-38.0-0.3","SS1613174926979","","","null","","","","","<p><img src= images/blank.png width =""200"" height = ""200"" style = ""float:right""></p><p><img src=images/blank.png width =""800"" height = ""200""></p>","","","","","","","","","","","",""
"","765.8649999939371","sequential-stimulus-presentation","195","1074505","0.0-38.0-1.3","SS1613174926979","trial","","40","800","1565.864999993937","images/stimuli/spore_stims/simple_04_A_d.gif","images/stimuli/spore_stims/simple_04_B_d.gif","","","","","10","simple_similar","images/stimuli/spore_stims/simple_04_B_d.gif","left","","","","",""
"","null","html-keyboard-response","196","1075658","0.0-38.0-0.4","SS1613174926979","","","null","","","","","<p><img src= images/blank.png width =""200"" height = ""200"" style = ""float:right""></p><p><img src=images/blank.png width =""800"" height = ""200""></p>","","","","","","","","","","","",""
"","358.410000015283","sequential-stimulus-presentation","197","1076840","0.0-38.0-1.4","SS1613174926979","trial","","40","800","1158.410000015283","images/stimuli/spore_stims/simple_04_A_d.gif","images/stimuli/spore_stims/simple_04_B_d.gif","","","","","10","simple_similar","images/stimuli/spore_stims/simple_04_B_d.gif","left","","","","",""
"","null","html-keyboard-response","198","1078025","0.0-38.0-0.5","SS1613174926979","","","null","","","","","<p><img src= images/blank.png width =""200"" height = ""200"" style = ""float:right""></p><p><img src=images/blank.png width =""800"" height = ""200""></p>","","","","","","","","","","","",""
"","494.3550000025425","sequential-stimulus-presentation","199","1079343","0.0-38.0-1.5","SS1613174926979","trial","","40","800","1294.3550000025425","images/stimuli/spore_stims/simple_04_A_d.gif","images/stimuli/spore_stims/simple_04_B_d.gif","","","","","10","simple_similar","images/stimuli/spore_stims/simple_04_B_d.gif","left","","","","",""
"","null","html-keyboard-response","200","1080483","0.0-38.0-0.6","SS1613174926979","","","null","","","","","<p><img src= images/blank.png width =""200"" height = ""200"" style = ""float:right""></p><p><img src=images/blank.png width =""800"" height = ""200""></p>","","","","","","","","","","","",""
"","321.28000000375323","sequential-stimulus-presentation","201","1081618","0.0-38.0-1.6","SS1613174926979","trial","","40","800","1121.2800000037532","images/stimuli/spore_stims/simple_04_A_d.gif","images/stimuli/spore_stims/simple_04_B_d.gif","","","","","10","simple_similar","images/stimuli/spore_stims/simple_04_B_d.gif","left","","","","",""
"","null","html-keyboard-response","202","1082745","0.0-38.0-0.7","SS1613174926979","","","null","","","","","<p><img src= images/blank.png width =""200"" height = ""200"" style = ""float:right""></p><p><img src=images/blank.png width =""800"" height = ""200""></p>","","","","","","","","","","","",""
"","322.7850000257604","sequential-stimulus-presentation","203","1083887","0.0-38.0-1.7","SS1613174926979","trial","","40","800","1122.7850000257604","images/stimuli/spore_stims/simple_04_A_d.gif","images/stimuli/spore_stims/simple_04_B_d.gif","","","","","10","simple_similar","images/stimuli/spore_stims/simple_04_B_d.gif","left","","","","",""
"","1352.8799999912735","html-keyboard-response","204","1085255","0.0-39.0","SS1613174926979","pref_question","","97","","","","","<video width ='960' height = '540' style='padding-top:8%' autoplay muted><source src='images/stimuli/wall_pref.mp4' type='video/mp4'></video>","1","left","25%","10","","","","","","","",""
"","3055.7949999929406","sequential-stimulus-presentation","205","1089133","0.0-40.0","SS1613174926979","pref_reveal","","40","800","3855.7949999929406","null","null","","","","","10","","","","background","","","",""
"","null","html-keyboard-response","206","1090400","0.0-41.0-0.0","SS1613174926979","","","null","","","","","<p><img src= images/blank.png width =""200"" height = ""200"" style = ""float:right""></p><p><img src=images/blank.png width =""800"" height = ""200""></p>","","","","","","","","","","","",""
"","603.9199999941047","sequential-stimulus-presentation","207","1091821","0.0-41.0-1.0","SS1613174926979","trial","","40","800","1403.9199999941047","images/stimuli/spore_stims/complex_07_B_a.gif","images/stimuli/spore_stims/complex_11_B_b.gif","","","","","11","complex_dissimilar","images/stimuli/spore_stims/complex_11_B_b.gif","middle","","","","",""
"","null","html-keyboard-response","208","1093024","0.0-41.0-0.1","SS1613174926979","","","null","","","","","<p><img src= images/blank.png width =""200"" height = ""200"" style = ""float:right""></p><p><img src=images/blank.png width =""800"" height = ""200""></p>","","","","","","","","","","","",""
"","942.1450000081677","sequential-stimulus-presentation","209","1094831","0.0-41.0-1.1","SS1613174926979","trial","","40","800","1742.1450000081677","images/stimuli/spore_stims/complex_07_B_a.gif","images/stimuli/spore_stims/complex_11_B_b.gif","","","","","11","complex_dissimilar","images/stimuli/spore_stims/complex_11_B_b.gif","middle","","","","",""
"","null","html-keyboard-response","210","1095878","0.0-41.0-0.2","SS1613174926979","","","null","","","","","<p><img src= images/blank.png width =""200"" height = ""200"" style = ""float:right""></p><p><img src=images/blank.png width =""800"" height = ""200""></p>","","","","","","","","","","","",""
"","329.30499999201857","sequential-stimulus-presentation","211","1097021","0.0-41.0-1.2","SS1613174926979","trial","","40","800","1129.3049999920186","images/stimuli/spore_stims/complex_07_B_a.gif","images/stimuli/spore_stims/complex_11_B_b.gif","","","","","11","complex_dissimilar","images/stimuli/spore_stims/complex_11_B_b.gif","middle","","","","",""
"","null","html-keyboard-response","212","1098235","0.0-41.0-0.3","SS1613174926979","","","null","","","","","<p><img src= images/blank.png width =""200"" height = ""200"" style = ""float:right""></p><p><img src=images/blank.png width =""800"" height = ""200""></p>","","","","","","","","","","","",""
"","283.66499999538064","sequential-stimulus-presentation","213","1099332","0.0-41.0-1.3","SS1613174926979","trial","","40","800","1083.6649999953806","images/stimuli/spore_stims/complex_07_B_a.gif","images/stimuli/spore_stims/complex_11_B_b.gif","","","","","11","complex_dissimilar","images/stimuli/spore_stims/complex_11_B_b.gif","middle","","","","",""
"","null","html-keyboard-response","214","1100356","0.0-41.0-0.4","SS1613174926979","","","null","","","","","<p><img src= images/blank.png width =""200"" height = ""200"" style = ""float:right""></p><p><img src=images/blank.png width =""800"" height = ""200""></p>","","","","","","","","","","","",""
"","315.5599999881815","sequential-stimulus-presentation","215","1101483","0.0-41.0-1.4","SS1613174926979","trial","","40","800","1115.5599999881815","images/stimuli/spore_stims/complex_07_B_a.gif","images/stimuli/spore_stims/complex_11_B_b.gif","","","","","11","complex_dissimilar","images/stimuli/spore_stims/complex_11_B_b.gif","middle","","","","",""
"","null","html-keyboard-response","216","1102320","0.0-41.0-0.5","SS1613174926979","","","null","","","","","<p><img src= images/blank.png width =""200"" height = ""200"" style = ""float:right""></p><p><img src=images/blank.png width =""800"" height = ""200""></p>","","","","","","","","","","","",""
"","1085.6849999981932","sequential-stimulus-presentation","217","1104228","0.0-41.0-1.5","SS1613174926979","trial","","40","800","1885.6849999981932","images/stimuli/spore_stims/complex_07_B_a.gif","images/stimuli/spore_stims/complex_11_B_b.gif","","","","","11","complex_dissimilar","images/stimuli/spore_stims/complex_11_B_b.gif","middle","","","","",""
"","null","html-keyboard-response","218","1105131","0.0-41.0-0.6","SS1613174926979","","","null","","","","","<p><img src= images/blank.png width =""200"" height = ""200"" style = ""float:right""></p><p><img src=images/blank.png width =""800"" height = ""200""></p>","","","","","","","","","","","",""
"","504.85999998636544","sequential-stimulus-presentation","219","1106460","0.0-41.0-1.6","SS1613174926979","trial","","40","800","1304.8599999863654","images/stimuli/spore_stims/complex_07_B_a.gif","images/stimuli/spore_stims/complex_11_B_b.gif","","","","","11","complex_dissimilar","images/stimuli/spore_stims/complex_11_B_b.gif","middle","","","","",""
"","null","html-keyboard-response","220","1107583","0.0-41.0-0.7","SS1613174926979","","","null","","","","","<p><img src= images/blank.png width =""200"" height = ""200"" style = ""float:right""></p><p><img src=images/blank.png width =""800"" height = ""200""></p>","","","","","","","","","","","",""
"","340.02499998314306","sequential-stimulus-presentation","221","1108746","0.0-41.0-1.7","SS1613174926979","trial","","40","800","1140.024999983143","images/stimuli/spore_stims/complex_07_B_a.gif","images/stimuli/spore_stims/complex_11_B_b.gif","","","","","11","complex_dissimilar","images/stimuli/spore_stims/complex_07_B_a.gif","right","","","","",""
"","1192.2999999951571","html-keyboard-response","222","1109962","0.0-42.0","SS1613174926979","pref_question","","99","","","","","<video width ='960' height = '540' style='padding-top:8%' autoplay muted><source src='images/stimuli/wall_pref.mp4' type='video/mp4'></video>","3","right","66%","11","","","","","","","",""
"","1162.3599999875296","sequential-stimulus-presentation","223","1111937","0.0-43.0","SS1613174926979","pref_reveal","","40","800","1962.3599999875296","null","null","","","","","11","","","","deviant","","","",""
"","null","html-keyboard-response","224","1112938","0.0-44.0-0.0","SS1613174926979","","","null","","","","","<p><img src= images/blank.png width =""200"" height = ""200"" style = ""float:right""></p><p><img src=images/blank.png width =""800"" height = ""200""></p>","","","","","","","","","","","",""
"","451.89500000560656","sequential-stimulus-presentation","225","1114220","0.0-44.0-1.0","SS1613174926979","trial","","40","800","1251.8950000056066","images/stimuli/spore_stims/complex_05_A_b.gif","images/stimuli/spore_stims/complex_03_B_a.gif","","","","","12","complex_dissimilar","images/stimuli/spore_stims/complex_03_B_a.gif","left","","","","",""
"","null","html-keyboard-response","226","1115209","0.0-44.0-0.1","SS1613174926979","","","null","","","","","<p><img src= images/blank.png width =""200"" height = ""200"" style = ""float:right""></p><p><img src=images/blank.png width =""800"" height = ""200""></p>","","","","","","","","","","","",""
"","273.2550000073388","sequential-stimulus-presentation","227","1116315","0.0-44.0-1.1","SS1613174926979","trial","","40","800","1073.2550000073388","images/stimuli/spore_stims/complex_05_A_b.gif","images/stimuli/spore_stims/complex_03_B_a.gif","","","","","12","complex_dissimilar","images/stimuli/spore_stims/complex_03_B_a.gif","left","","","","",""
"","null","html-keyboard-response","228","1117546","0.0-44.0-0.2","SS1613174926979","","","null","","","","","<p><img src= images/blank.png width =""200"" height = ""200"" style = ""float:right""></p><p><img src=images/blank.png width =""800"" height = ""200""></p>","","","","","","","","","","","",""
"","288.3250000013504","sequential-stimulus-presentation","229","1118660","0.0-44.0-1.2","SS1613174926979","trial","","40","800","1088.3250000013504","images/stimuli/spore_stims/complex_05_A_b.gif","images/stimuli/spore_stims/complex_03_B_a.gif","","","","","12","complex_dissimilar","images/stimuli/spore_stims/complex_03_B_a.gif","left","","","","",""
"","null","html-keyboard-response","230","1119632","0.0-44.0-0.3","SS1613174926979","","","null","","","","","<p><img src= images/blank.png width =""200"" height = ""200"" style = ""float:right""></p><p><img src=images/blank.png width =""800"" height = ""200""></p>","","","","","","","","","","","",""
"","275.59499998460524","sequential-stimulus-presentation","231","1120730","0.0-44.0-1.3","SS1613174926979","trial","","40","800","1075.5949999846052","images/stimuli/spore_stims/complex_05_A_b.gif","images/stimuli/spore_stims/complex_03_B_a.gif","","","","","12","complex_dissimilar","images/stimuli/spore_stims/complex_03_B_a.gif","left","","","","",""
"","null","html-keyboard-response","232","1121839","0.0-44.0-0.4","SS1613174926979","","","null","","","","","<p><img src= images/blank.png width =""200"" height = ""200"" style = ""float:right""></p><p><img src=images/blank.png width =""800"" height = ""200""></p>","","","","","","","","","","","",""
"","393.06500001112","sequential-stimulus-presentation","233","1123050","0.0-44.0-1.4","SS1613174926979","trial","","40","800","1193.06500001112","images/stimuli/spore_stims/complex_05_A_b.gif","images/stimuli/spore_stims/complex_03_B_a.gif","","","","","12","complex_dissimilar","images/stimuli/spore_stims/complex_05_A_b.gif","middle","","","","",""
"","null","html-keyboard-response","234","1124192","0.0-44.0-0.5","SS1613174926979","","","null","","","","","<p><img src= images/blank.png width =""200"" height = ""200"" style = ""float:right""></p><p><img src=images/blank.png width =""800"" height = ""200""></p>","","","","","","","","","","","",""
"","153.77500001341105","sequential-stimulus-presentation","235","1125170","0.0-44.0-1.5","SS1613174926979","trial","","40","800","953.775000013411","images/stimuli/spore_stims/complex_05_A_b.gif","images/stimuli/spore_stims/complex_03_B_a.gif","","","","","12","complex_dissimilar","images/stimuli/spore_stims/complex_03_B_a.gif","left","","","","",""
"","null","html-keyboard-response","236","1126021","0.0-44.0-0.6","SS1613174926979","","","null","","","","","<p><img src= images/blank.png width =""200"" height = ""200"" style = ""float:right""></p><p><img src=images/blank.png width =""800"" height = ""200""></p>","","","","","","","","","","","",""
"","5566.404999990482","sequential-stimulus-presentation","237","1132412","0.0-44.0-1.6","SS1613174926979","trial","","40","800","6366.404999990482","images/stimuli/spore_stims/complex_05_A_b.gif","images/stimuli/spore_stims/complex_03_B_a.gif","","","","","12","complex_dissimilar","images/stimuli/spore_stims/complex_03_B_a.gif","left","","","","",""
"","null","html-keyboard-response","238","1133605","0.0-44.0-0.7","SS1613174926979","","","null","","","","","<p><img src= images/blank.png width =""200"" height = ""200"" style = ""float:right""></p><p><img src=images/blank.png width =""800"" height = ""200""></p>","","","","","","","","","","","",""
"","130.81500001135282","sequential-stimulus-presentation","239","1134561","0.0-44.0-1.7","SS1613174926979","trial","","40","800","930.8150000113528","images/stimuli/spore_stims/complex_05_A_b.gif","images/stimuli/spore_stims/complex_03_B_a.gif","","","","","12","complex_dissimilar","images/stimuli/spore_stims/complex_03_B_a.gif","left","","","","",""
"","2737.089999980526","html-keyboard-response","240","1137313","0.0-45.0","SS1613174926979","pref_question","","99","","","","","<video width ='960' height = '540' style='padding-top:8%' autoplay muted><source src='images/stimuli/wall_pref.mp4' type='video/mp4'></video>","3","right","66%","12","","","","","","","",""
"","534.9200000055134","sequential-stimulus-presentation","241","1138672","0.0-46.0","SS1613174926979","pref_reveal","","40","800","1334.9200000055134","null","null","","","","","12","","","","novel","","","",""
"","null","html-keyboard-response","242","1139669","0.0-47.0-0.0","SS1613174926979","","","null","","","","","<p><img src= images/blank.png width =""200"" height = ""200"" style = ""float:right""></p><p><img src=images/blank.png width =""800"" height = ""200""></p>","","","","","","","","","","","",""
"","434.8199999949429","sequential-stimulus-presentation","243","1140951","0.0-47.0-1.0","SS1613174926979","trial","","40","800","1234.819999994943","images/stimuli/spore_stims/simple_10_A_b.gif","images/stimuli/spore_stims/simple_10_B_b.gif","","","","","13","simple_similar","images/stimuli/spore_stims/simple_10_B_b.gif","middle","","","","",""
"","null","html-keyboard-response","244","1142140","0.0-47.0-0.1","SS1613174926979","","","null","","","","","<p><img src= images/blank.png width =""200"" height = ""200"" style = ""float:right""></p><p><img src=images/blank.png width =""800"" height = ""200""></p>","","","","","","","","","","","",""
"","133.49000000744127","sequential-stimulus-presentation","245","1143120","0.0-47.0-1.1","SS1613174926979","trial","","40","800","933.4900000074413","images/stimuli/spore_stims/simple_10_A_b.gif","images/stimuli/spore_stims/simple_10_B_b.gif","","","","","13","simple_similar","images/stimuli/spore_stims/simple_10_B_b.gif","middle","","","","",""
"","null","html-keyboard-response","246","1144101","0.0-47.0-0.2","SS1613174926979","","","null","","","","","<p><img src= images/blank.png width =""200"" height = ""200"" style = ""float:right""></p><p><img src=images/blank.png width =""800"" height = ""200""></p>","","","","","","","","","","","",""
"","292.58999999728985","sequential-stimulus-presentation","247","1145217","0.0-47.0-1.2","SS1613174926979","trial","","40","800","1092.5899999972899","images/stimuli/spore_stims/simple_10_A_b.gif","images/stimuli/spore_stims/simple_10_B_b.gif","","","","","13","simple_similar","images/stimuli/spore_stims/simple_10_B_b.gif","middle","","","","",""
"","null","html-keyboard-response","248","1146498","0.0-47.0-0.3","SS1613174926979","","","null","","","","","<p><img src= images/blank.png width =""200"" height = ""200"" style = ""float:right""></p><p><img src=images/blank.png width =""800"" height = ""200""></p>","","","","","","","","","","","",""
"","221.61000000778586","sequential-stimulus-presentation","249","1147534","0.0-47.0-1.3","SS1613174926979","trial","","40","800","1021.6100000077859","images/stimuli/spore_stims/simple_10_A_b.gif","images/stimuli/spore_stims/simple_10_B_b.gif","","","","","13","simple_similar","images/stimuli/spore_stims/simple_10_A_b.gif","right","","","","",""
"","null","html-keyboard-response","250","1148758","0.0-47.0-0.4","SS1613174926979","","","null","","","","","<p><img src= images/blank.png width =""200"" height = ""200"" style = ""float:right""></p><p><img src=images/blank.png width =""800"" height = ""200""></p>","","","","","","","","","","","",""
"","537.2999999963213","sequential-stimulus-presentation","251","1150110","0.0-47.0-1.4","SS1613174926979","trial","","40","800","1337.2999999963213","images/stimuli/spore_stims/simple_10_A_b.gif","images/stimuli/spore_stims/simple_10_B_b.gif","","","","","13","simple_similar","images/stimuli/spore_stims/simple_10_B_b.gif","middle","","","","",""
"","null","html-keyboard-response","252","1151399","0.0-47.0-0.5","SS1613174926979","","","null","","","","","<p><img src= images/blank.png width =""200"" height = ""200"" style = ""float:right""></p><p><img src=images/blank.png width =""800"" height = ""200""></p>","","","","","","","","","","","",""
"","728.9250000030734","sequential-stimulus-presentation","253","1152957","0.0-47.0-1.5","SS1613174926979","trial","","40","800","1528.9250000030734","images/stimuli/spore_stims/simple_10_A_b.gif","images/stimuli/spore_stims/simple_10_B_b.gif","","","","","13","simple_similar","images/stimuli/spore_stims/simple_10_B_b.gif","middle","","","","",""
"","null","html-keyboard-response","254","1153817","0.0-47.0-0.6","SS1613174926979","","","null","","","","","<p><img src= images/blank.png width =""200"" height = ""200"" style = ""float:right""></p><p><img src=images/blank.png width =""800"" height = ""200""></p>","","","","","","","","","","","",""
"","384.4450000033248","sequential-stimulus-presentation","255","1155015","0.0-47.0-1.6","SS1613174926979","trial","","40","800","1184.4450000033248","images/stimuli/spore_stims/simple_10_A_b.gif","images/stimuli/spore_stims/simple_10_B_b.gif","","","","","13","simple_similar","images/stimuli/spore_stims/simple_10_B_b.gif","middle","","","","",""
"","null","html-keyboard-response","256","1155870","0.0-47.0-0.7","SS1613174926979","","","null","","","","","<p><img src= images/blank.png width =""200"" height = ""200"" style = ""float:right""></p><p><img src=images/blank.png width =""800"" height = ""200""></p>","","","","","","","","","","","",""
"","678.715000016382","sequential-stimulus-presentation","257","1157364","0.0-47.0-1.7","SS1613174926979","trial","","40","800","1478.715000016382","images/stimuli/spore_stims/simple_10_A_b.gif","images/stimuli/spore_stims/simple_10_B_b.gif","","","","","13","simple_similar","images/stimuli/spore_stims/simple_10_B_b.gif","middle","","","","",""
"","1122.1049999876413","html-keyboard-response","258","1158499","0.0-48.0","SS1613174926979","pref_question","","97","","","","","<video width ='960' height = '540' style='padding-top:8%' autoplay muted><source src='images/stimuli/wall_pref.mp4' type='video/mp4'></video>","1","left","25%","13","","","","","","","",""
"","334.92999998270534","sequential-stimulus-presentation","259","1159652","0.0-49.0","SS1613174926979","pref_reveal","","40","800","1134.9299999827053","null","null","","","","","13","","","","novel","","","",""
"","null","html-keyboard-response","260","1160599","0.0-50.0-0.0","SS1613174926979","","","null","","","","","<p><img src= images/blank.png width =""200"" height = ""200"" style = ""float:right""></p><p><img src=images/blank.png width =""800"" height = ""200""></p>","","","","","","","","","","","",""
"","362.30500001693144","sequential-stimulus-presentation","261","1161787","0.0-50.0-1.0","SS1613174926979","trial","","40","800","1162.3050000169314","images/stimuli/spore_stims/complex_01_B_d.gif","images/stimuli/spore_stims/complex_13_B_a.gif","","","","","14","complex_dissimilar","images/stimuli/spore_stims/complex_13_B_a.gif","right","","","","",""
"","null","html-keyboard-response","262","1163030","0.0-50.0-0.1","SS1613174926979","","","null","","","","","<p><img src= images/blank.png width =""200"" height = ""200"" style = ""float:right""></p><p><img src=images/blank.png width =""800"" height = ""200""></p>","","","","","","","","","","","",""
"","380.87500000256114","sequential-stimulus-presentation","263","1164235","0.0-50.0-1.1","SS1613174926979","trial","","40","800","1180.8750000025611","images/stimuli/spore_stims/complex_01_B_d.gif","images/stimuli/spore_stims/complex_13_B_a.gif","","","","","14","complex_dissimilar","images/stimuli/spore_stims/complex_13_B_a.gif","right","","","","",""
"","null","html-keyboard-response","264","1165243","0.0-50.0-0.2","SS1613174926979","","","null","","","","","<p><img src= images/blank.png width =""200"" height = ""200"" style = ""float:right""></p><p><img src=images/blank.png width =""800"" height = ""200""></p>","","","","","","","","","","","",""
"","432.0049999805633","sequential-stimulus-presentation","265","1166502","0.0-50.0-1.2","SS1613174926979","trial","","40","800","1232.0049999805633","images/stimuli/spore_stims/complex_01_B_d.gif","images/stimuli/spore_stims/complex_13_B_a.gif","","","","","14","complex_dissimilar","images/stimuli/spore_stims/complex_13_B_a.gif","right","","","","",""
"","null","html-keyboard-response","266","1167486","0.0-50.0-0.3","SS1613174926979","","","null","","","","","<p><img src= images/blank.png width =""200"" height = ""200"" style = ""float:right""></p><p><img src=images/blank.png width =""800"" height = ""200""></p>","","","","","","","","","","","",""
"","332.5299999851268","sequential-stimulus-presentation","267","1168642","0.0-50.0-1.3","SS1613174926979","trial","","40","800","1132.5299999851268","images/stimuli/spore_stims/complex_01_B_d.gif","images/stimuli/spore_stims/complex_13_B_a.gif","","","","","14","complex_dissimilar","images/stimuli/spore_stims/complex_13_B_a.gif","right","","","","",""
"","null","html-keyboard-response","268","1169940","0.0-50.0-0.4","SS1613174926979","","","null","","","","","<p><img src= images/blank.png width =""200"" height = ""200"" style = ""float:right""></p><p><img src=images/blank.png width =""800"" height = ""200""></p>","","","","","","","","","","","",""
"","493.079999985639","sequential-stimulus-presentation","269","1171257","0.0-50.0-1.4","SS1613174926979","trial","","40","800","1293.079999985639","images/stimuli/spore_stims/complex_01_B_d.gif","images/stimuli/spore_stims/complex_13_B_a.gif","","","","","14","complex_dissimilar","images/stimuli/spore_stims/complex_13_B_a.gif","right","","","","",""
"","null","html-keyboard-response","270","1172113","0.0-50.0-0.5","SS1613174926979","","","null","","","","","<p><img src= images/blank.png width =""200"" height = ""200"" style = ""float:right""></p><p><img src=images/blank.png width =""800"" height = ""200""></p>","","","","","","","","","","","",""
"","696.9600000011269","sequential-stimulus-presentation","271","1173629","0.0-50.0-1.5","SS1613174926979","trial","","40","800","1496.960000001127","images/stimuli/spore_stims/complex_01_B_d.gif","images/stimuli/spore_stims/complex_13_B_a.gif","","","","","14","complex_dissimilar","images/stimuli/spore_stims/complex_13_B_a.gif","right","","","","",""
"","null","html-keyboard-response","272","1174795","0.0-50.0-0.6","SS1613174926979","","","null","","","","","<p><img src= images/blank.png width =""200"" height = ""200"" style = ""float:right""></p><p><img src=images/blank.png width =""800"" height = ""200""></p>","","","","","","","","","","","",""
"","325.0350000162143","sequential-stimulus-presentation","273","1175947","0.0-50.0-1.6","SS1613174926979","trial","","40","800","1125.0350000162143","images/stimuli/spore_stims/complex_01_B_d.gif","images/stimuli/spore_stims/complex_13_B_a.gif","","","","","14","complex_dissimilar","images/stimuli/spore_stims/complex_13_B_a.gif","right","","","","",""
"","null","html-keyboard-response","274","1177075","0.0-50.0-0.7","SS1613174926979","","","null","","","","","<p><img src= images/blank.png width =""200"" height = ""200"" style = ""float:right""></p><p><img src=images/blank.png width =""800"" height = ""200""></p>","","","","","","","","","","","",""
"","1201.7249999917112","sequential-stimulus-presentation","275","1179102","0.0-50.0-1.7","SS1613174926979","trial","","40","800","2001.7249999917112","images/stimuli/spore_stims/complex_01_B_d.gif","images/stimuli/spore_stims/complex_13_B_a.gif","","","","","14","complex_dissimilar","images/stimuli/spore_stims/complex_01_B_d.gif","middle","","","","",""
"","12750.230000005104","html-keyboard-response","276","1191873","0.0-51.0","SS1613174926979","pref_question","","98","","","","","<video width ='960' height = '540' style='padding-top:8%' autoplay muted><source src='images/stimuli/wall_pref.mp4' type='video/mp4'></video>","2","middle","45%","14","","","","","","","",""
"","1108.3499999949709","sequential-stimulus-presentation","277","1193809","0.0-52.0","SS1613174926979","pref_reveal","","40","800","1908.3499999949709","null","null","","","","","14","","","","deviant","","","",""
"","null","html-keyboard-response","278","1194983","0.0-53.0-0.0","SS1613174926979","","","null","","","","","<p><img src= images/blank.png width =""200"" height = ""200"" style = ""float:right""></p><p><img src=images/blank.png width =""800"" height = ""200""></p>","","","","","","","","","","","",""
"","840.9600000013597","sequential-stimulus-presentation","279","1196657","0.0-53.0-1.0","SS1613174926979","trial","","40","800","1640.9600000013597","images/stimuli/spore_stims/simple_01_A_a.gif","images/stimuli/spore_stims/simple_11_A_d.gif","","","","","15","simple_dissimilar","images/stimuli/spore_stims/simple_11_A_d.gif","middle","","","","",""
"","null","html-keyboard-response","280","1197638","0.0-53.0-0.1","SS1613174926979","","","null","","","","","<p><img src= images/blank.png width =""200"" height = ""200"" style = ""float:right""></p><p><img src=images/blank.png width =""800"" height = ""200""></p>","","","","","","","","","","","",""
"","700.0549999938812","sequential-stimulus-presentation","281","1199152","0.0-53.0-1.1","SS1613174926979","trial","","40","800","1500.0549999938812","images/stimuli/spore_stims/simple_01_A_a.gif","images/stimuli/spore_stims/simple_11_A_d.gif","","","","","15","simple_dissimilar","images/stimuli/spore_stims/simple_11_A_d.gif","middle","","","","",""
"","null","html-keyboard-response","282","1200286","0.0-53.0-0.2","SS1613174926979","","","null","","","","","<p><img src= images/blank.png width =""200"" height = ""200"" style = ""float:right""></p><p><img src=images/blank.png width =""800"" height = ""200""></p>","","","","","","","","","","","",""
"","614.8099999991246","sequential-stimulus-presentation","283","1201728","0.0-53.0-1.2","SS1613174926979","trial","","40","800","1414.8099999991246","images/stimuli/spore_stims/simple_01_A_a.gif","images/stimuli/spore_stims/simple_11_A_d.gif","","","","","15","simple_dissimilar","images/stimuli/spore_stims/simple_11_A_d.gif","middle","","","","",""
"","null","html-keyboard-response","284","1202558","0.0-53.0-0.3","SS1613174926979","","","null","","","","","<p><img src= images/blank.png width =""200"" height = ""200"" style = ""float:right""></p><p><img src=images/blank.png width =""800"" height = ""200""></p>","","","","","","","","","","","",""
"","1792.0049999956973","sequential-stimulus-presentation","285","1205167","0.0-53.0-1.3","SS1613174926979","trial","","40","800","2592.0049999956973","images/stimuli/spore_stims/simple_01_A_a.gif","images/stimuli/spore_stims/simple_11_A_d.gif","","","","","15","simple_dissimilar","images/stimuli/spore_stims/simple_11_A_d.gif","middle","","","","",""
"","null","html-keyboard-response","286","1206412","0.0-53.0-0.4","SS1613174926979","","","null","","","","","<p><img src= images/blank.png width =""200"" height = ""200"" style = ""float:right""></p><p><img src=images/blank.png width =""800"" height = ""200""></p>","","","","","","","","","","","",""
"","434.12499999976717","sequential-stimulus-presentation","287","1207671","0.0-53.0-1.4","SS1613174926979","trial","","40","800","1234.1249999997672","images/stimuli/spore_stims/simple_01_A_a.gif","images/stimuli/spore_stims/simple_11_A_d.gif","","","","","15","simple_dissimilar","images/stimuli/spore_stims/simple_11_A_d.gif","middle","","","","",""
"","null","html-keyboard-response","288","1208903","0.0-53.0-0.5","SS1613174926979","","","null","","","","","<p><img src= images/blank.png width =""200"" height = ""200"" style = ""float:right""></p><p><img src=images/blank.png width =""800"" height = ""200""></p>","","","","","","","","","","","",""
"","975.414999993518","sequential-stimulus-presentation","289","1210717","0.0-53.0-1.5","SS1613174926979","trial","","40","800","1775.414999993518","images/stimuli/spore_stims/simple_01_A_a.gif","images/stimuli/spore_stims/simple_11_A_d.gif","","","","","15","simple_dissimilar","images/stimuli/spore_stims/simple_01_A_a.gif","left","","","","",""
"","null","html-keyboard-response","290","1212004","0.0-53.0-0.6","SS1613174926979","","","null","","","","","<p><img src= images/blank.png width =""200"" height = ""200"" style = ""float:right""></p><p><img src=images/blank.png width =""800"" height = ""200""></p>","","","","","","","","","","","",""
"","365.2550000115298","sequential-stimulus-presentation","291","1213197","0.0-53.0-1.6","SS1613174926979","trial","","40","800","1165.2550000115298","images/stimuli/spore_stims/simple_01_A_a.gif","images/stimuli/spore_stims/simple_11_A_d.gif","","","","","15","simple_dissimilar","images/stimuli/spore_stims/simple_11_A_d.gif","middle","","","","",""
"","null","html-keyboard-response","292","1214041","0.0-53.0-0.7","SS1613174926979","","","null","","","","","<p><img src= images/blank.png width =""200"" height = ""200"" style = ""float:right""></p><p><img src=images/blank.png width =""800"" height = ""200""></p>","","","","","","","","","","","",""
"","556.4149999991059","sequential-stimulus-presentation","293","1215426","0.0-53.0-1.7","SS1613174926979","trial","","40","800","1356.414999999106","images/stimuli/spore_stims/simple_01_A_a.gif","images/stimuli/spore_stims/simple_11_A_d.gif","","","","","15","simple_dissimilar","images/stimuli/spore_stims/simple_11_A_d.gif","middle","","","","",""
"","2273.6100000038277","html-keyboard-response","294","1217719","0.0-54.0","SS1613174926979","pref_question","","97","","","","","<video width ='960' height = '540' style='padding-top:8%' autoplay muted><source src='images/stimuli/wall_pref.mp4' type='video/mp4'></video>","1","left","25%","15","","","","","","","",""
"","596.449999982724","sequential-stimulus-presentation","295","1219148","0.0-55.0","SS1613174926979","pref_reveal","","40","800","1396.449999982724","null","null","","","","","15","","","","deviant","","","",""
"","null","html-keyboard-response","296","1220384","0.0-56.0-0.0","SS1613174926979","","","null","","","","","<p><img src= images/blank.png width =""200"" height = ""200"" style = ""float:right""></p><p><img src=images/blank.png width =""800"" height = ""200""></p>","","","","","","","","","","","",""
"","407.7150000084657","sequential-stimulus-presentation","297","1221643","0.0-56.0-1.0","SS1613174926979","trial","","40","800","1207.7150000084657","images/stimuli/spore_stims/complex_13_B_a.gif","images/stimuli/spore_stims/complex_13_A_a.gif","","","","","16","complex_similar","images/stimuli/spore_stims/complex_13_A_a.gif","middle","","","","",""
"","null","html-keyboard-response","298","1222954","0.0-56.0-0.1","SS1613174926979","","","null","","","","","<p><img src= images/blank.png width =""200"" height = ""200"" style = ""float:right""></p><p><img src=images/blank.png width =""800"" height = ""200""></p>","","","","","","","","","","","",""
"","894.0599999914411","sequential-stimulus-presentation","299","1224675","0.0-56.0-1.1","SS1613174926979","trial","","40","800","1694.0599999914411","images/stimuli/spore_stims/complex_13_B_a.gif","images/stimuli/spore_stims/complex_13_A_a.gif","","","","","16","complex_similar","images/stimuli/spore_stims/complex_13_A_a.gif","middle","","","","",""
"","null","html-keyboard-response","300","1225923","0.0-56.0-0.2","SS1613174926979","","","null","","","","","<p><img src= images/blank.png width =""200"" height = ""200"" style = ""float:right""></p><p><img src=images/blank.png width =""800"" height = ""200""></p>","","","","","","","","","","","",""
"","101.20000000461005","sequential-stimulus-presentation","301","1226850","0.0-56.0-1.2","SS1613174926979","trial","","40","800","901.20000000461","images/stimuli/spore_stims/complex_13_B_a.gif","images/stimuli/spore_stims/complex_13_A_a.gif","","","","","16","complex_similar","images/stimuli/spore_stims/complex_13_B_a.gif","left","","","","",""
"","null","html-keyboard-response","302","1227821","0.0-56.0-0.3","SS1613174926979","","","null","","","","","<p><img src= images/blank.png width =""200"" height = ""200"" style = ""float:right""></p><p><img src=images/blank.png width =""800"" height = ""200""></p>","","","","","","","","","","","",""
"","708.6450000060722","sequential-stimulus-presentation","303","1229347","0.0-56.0-1.3","SS1613174926979","trial","","40","800","1508.6450000060722","images/stimuli/spore_stims/complex_13_B_a.gif","images/stimuli/spore_stims/complex_13_A_a.gif","","","","","16","complex_similar","images/stimuli/spore_stims/complex_13_A_a.gif","middle","","","","",""
"","null","html-keyboard-response","304","1230322","0.0-56.0-0.4","SS1613174926979","","","null","","","","","<p><img src= images/blank.png width =""200"" height = ""200"" style = ""float:right""></p><p><img src=images/blank.png width =""800"" height = ""200""></p>","","","","","","","","","","","",""
"","141.23000000836328","sequential-stimulus-presentation","305","1231299","0.0-56.0-1.4","SS1613174926979","trial","","40","800","941.2300000083633","images/stimuli/spore_stims/complex_13_B_a.gif","images/stimuli/spore_stims/complex_13_A_a.gif","","","","","16","complex_similar","images/stimuli/spore_stims/complex_13_A_a.gif","middle","","","","",""
"","null","html-keyboard-response","306","1232129","0.0-56.0-0.5","SS1613174926979","","","null","","","","","<p><img src= images/blank.png width =""200"" height = ""200"" style = ""float:right""></p><p><img src=images/blank.png width =""800"" height = ""200""></p>","","","","","","","","","","","",""
"","281.7849999992177","sequential-stimulus-presentation","307","1233226","0.0-56.0-1.5","SS1613174926979","trial","","40","800","1081.7849999992177","images/stimuli/spore_stims/complex_13_B_a.gif","images/stimuli/spore_stims/complex_13_A_a.gif","","","","","16","complex_similar","images/stimuli/spore_stims/complex_13_A_a.gif","middle","","","","",""
"","null","html-keyboard-response","308","1234417","0.0-56.0-0.6","SS1613174926979","","","null","","","","","<p><img src= images/blank.png width =""200"" height = ""200"" style = ""float:right""></p><p><img src=images/blank.png width =""800"" height = ""200""></p>","","","","","","","","","","","",""
"","218.3200000145007","sequential-stimulus-presentation","309","1235451","0.0-56.0-1.6","SS1613174926979","trial","","40","800","1018.3200000145007","images/stimuli/spore_stims/complex_13_B_a.gif","images/stimuli/spore_stims/complex_13_A_a.gif","","","","","16","complex_similar","images/stimuli/spore_stims/complex_13_A_a.gif","middle","","","","",""
"","null","html-keyboard-response","310","1236381","0.0-56.0-0.7","SS1613174926979","","","null","","","","","<p><img src= images/blank.png width =""200"" height = ""200"" style = ""float:right""></p><p><img src=images/blank.png width =""800"" height = ""200""></p>","","","","","","","","","","","",""
"","387.53999999607913","sequential-stimulus-presentation","311","1237595","0.0-56.0-1.7","SS1613174926979","trial","","40","800","1187.5399999960791","images/stimuli/spore_stims/complex_13_B_a.gif","images/stimuli/spore_stims/complex_13_A_a.gif","","","","","16","complex_similar","images/stimuli/spore_stims/complex_13_A_a.gif","middle","","","","",""
