"view_history","rt","trial_type","trial_index","time_elapsed","internal_node_id","subject","stimulus_type","trial_stimulus","key_press","minimum_viewing_duration","trial_looking_time","block_deviant","block_background","stimulus","wall_pref","location","location_percent","block_number","block_type","stimulus_displayed","position_displayed","stim_type_selected","responses","question_order","stimulus_left","stimulus_right"
"[{""page_index"":0,""viewing_time"":5151.024999999208}]","5151.749999989988","instructions","0","5154","0.0-0.0","SS1613080786554","","","","","","","","","","","","","","","","","","","",""
"[{""page_index"":0,""viewing_time"":9237.334999983432},{""page_index"":1,""viewing_time"":4271.609999996144}]","13509.559999976773","instructions","1","20670","0.0-1.0","SS1613080786554","instructions","","","","","","","","","","","","","","","","","","",""
"","9537.85500000231","sequential-stimulus-presentation","2","31035","0.0-2.0","SS1613080786554","","","40","800","10337.85500000231","null","null","","","","","","","","","","","","",""
"","3055.945000000065","sequential-stimulus-presentation","3","34898","0.0-3.0","SS1613080786554","","","40","800","3855.945000000065","null","null","","","","","","","","","","","","",""
"[{""page_index"":0,""viewing_time"":4359.095000021625}]","4359.415000013541","instructions","4","39260","0.0-4.0","SS1613080786554","instructions","","","","","","","","","","","","","","","","","","",""
"","12477.14500001166","html-keyboard-response","5","51745","0.0-5.0","SS1613080786554","instructions","","49","","","","","<video width ='960' height = '540' autoplay muted><source src='images/stimuli/wall_pref.mp4' type='video/mp4'></video>","1","left","25%","","","","","","","","",""
"","38976.720000006026","sequential-stimulus-presentation","6","91526","0.0-6.0","SS1613080786554","pref_reveal","","40","800","39776.720000006026","null","null","","","","","","","","","","","","",""
"[{""page_index"":0,""viewing_time"":11700.230000016745},{""page_index"":1,""viewing_time"":3362.5100000062957},{""page_index"":2,""viewing_time"":1088.4599999990314},{""page_index"":3,""viewing_time"":713.6250000039581}]","16865.0750000088","instructions","7","108393","0.0-7.0","SS1613080786554","instructions","","","","","","","","","","","","","","","","","","",""
"","null","html-keyboard-response","8","109280","0.0-8.0-0.0","SS1613080786554","","","null","","","","","<p><img src= images/blank.png width =""200"" height = ""200"" style = ""float:right""></p><p><img src=images/blank.png width =""800"" height = ""200""></p>","","","","","","","","","","","",""
"","1981.755000015255","sequential-stimulus-presentation","9","112068","0.0-8.0-1.0","SS1613080786554","trial","","40","800","2781.755000015255","images/stimuli/spore_stims/complex_02_A_c.gif","images/stimuli/spore_stims/complex_02_B_c.gif","","","","","0","complex_similar","images/stimuli/spore_stims/complex_02_B_c.gif","middle","","","","",""
"","null","html-keyboard-response","10","113247","0.0-8.0-0.1","SS1613080786554","","","null","","","","","<p><img src= images/blank.png width =""200"" height = ""200"" style = ""float:right""></p><p><img src=images/blank.png width =""800"" height = ""200""></p>","","","","","","","","","","","",""
"","2906.365000002552","sequential-stimulus-presentation","11","116958","0.0-8.0-1.1","SS1613080786554","trial","","40","800","3706.365000002552","images/stimuli/spore_stims/complex_02_A_c.gif","images/stimuli/spore_stims/complex_02_B_c.gif","","","","","0","complex_similar","images/stimuli/spore_stims/complex_02_B_c.gif","middle","","","","",""
"","null","html-keyboard-response","12","118200","0.0-8.0-0.2","SS1613080786554","","","null","","","","","<p><img src= images/blank.png width =""200"" height = ""200"" style = ""float:right""></p><p><img src=images/blank.png width =""800"" height = ""200""></p>","","","","","","","","","","","",""
"","1019.2249999963678","sequential-stimulus-presentation","13","120025","0.0-8.0-1.2","SS1613080786554","trial","","40","800","1819.2249999963678","images/stimuli/spore_stims/complex_02_A_c.gif","images/stimuli/spore_stims/complex_02_B_c.gif","","","","","0","complex_similar","images/stimuli/spore_stims/complex_02_B_c.gif","middle","","","","",""
"","null","html-keyboard-response","14","121145","0.0-8.0-0.3","SS1613080786554","","","null","","","","","<p><img src= images/blank.png width =""200"" height = ""200"" style = ""float:right""></p><p><img src=images/blank.png width =""800"" height = ""200""></p>","","","","","","","","","","","",""
"","5316.304999985732","sequential-stimulus-presentation","15","127267","0.0-8.0-1.3","SS1613080786554","trial","","40","800","6116.304999985732","images/stimuli/spore_stims/complex_02_A_c.gif","images/stimuli/spore_stims/complex_02_B_c.gif","","","","","0","complex_similar","images/stimuli/spore_stims/complex_02_A_c.gif","left","","","","",""
"","null","html-keyboard-response","16","128366","0.0-8.0-0.4","SS1613080786554","","","null","","","","","<p><img src= images/blank.png width =""200"" height = ""200"" style = ""float:right""></p><p><img src=images/blank.png width =""800"" height = ""200""></p>","","","","","","","","","","","",""
"","3246.9099999871105","sequential-stimulus-presentation","17","132418","0.0-8.0-1.4","SS1613080786554","trial","","40","800","4046.9099999871105","images/stimuli/spore_stims/complex_02_A_c.gif","images/stimuli/spore_stims/complex_02_B_c.gif","","","","","0","complex_similar","images/stimuli/spore_stims/complex_02_B_c.gif","middle","","","","",""
"","null","html-keyboard-response","18","133502","0.0-8.0-0.5","SS1613080786554","","","null","","","","","<p><img src= images/blank.png width =""200"" height = ""200"" style = ""float:right""></p><p><img src=images/blank.png width =""800"" height = ""200""></p>","","","","","","","","","","","",""
"","4518.454999983078","sequential-stimulus-presentation","19","138829","0.0-8.0-1.5","SS1613080786554","trial","","40","800","5318.454999983078","images/stimuli/spore_stims/complex_02_A_c.gif","images/stimuli/spore_stims/complex_02_B_c.gif","","","","","0","complex_similar","images/stimuli/spore_stims/complex_02_B_c.gif","middle","","","","",""
"","null","html-keyboard-response","20","139977","0.0-8.0-0.6","SS1613080786554","","","null","","","","","<p><img src= images/blank.png width =""200"" height = ""200"" style = ""float:right""></p><p><img src=images/blank.png width =""800"" height = ""200""></p>","","","","","","","","","","","",""
"","900.1949999947101","sequential-stimulus-presentation","21","141684","0.0-8.0-1.6","SS1613080786554","trial","","40","800","1700.19499999471","images/stimuli/spore_stims/complex_02_A_c.gif","images/stimuli/spore_stims/complex_02_B_c.gif","","","","","0","complex_similar","images/stimuli/spore_stims/complex_02_B_c.gif","middle","","","","",""
"","null","html-keyboard-response","22","142711","0.0-8.0-0.7","SS1613080786554","","","null","","","","","<p><img src= images/blank.png width =""200"" height = ""200"" style = ""float:right""></p><p><img src=images/blank.png width =""800"" height = ""200""></p>","","","","","","","","","","","",""
"","926.980000018375","sequential-stimulus-presentation","23","144472","0.0-8.0-1.7","SS1613080786554","trial","","40","800","1726.980000018375","images/stimuli/spore_stims/complex_02_A_c.gif","images/stimuli/spore_stims/complex_02_B_c.gif","","","","","0","complex_similar","images/stimuli/spore_stims/complex_02_B_c.gif","middle","","","","",""
"","1389.5700000284705","html-keyboard-response","24","145865","0.0-9.0","SS1613080786554","pref_question","","51","","","","","<video width ='960' height = '540' style='padding-top:8%' autoplay muted><source src='images/stimuli/wall_pref.mp4' type='video/mp4'></video>","3","right","66%","0","","","","","","","",""
"","2577.389999991283","sequential-stimulus-presentation","25","149249","0.0-10.0","SS1613080786554","pref_reveal","","40","800","3377.389999991283","null","null","","","","","0","","","","novel","","","",""
"","null","html-keyboard-response","26","150118","0.0-11.0-0.0","SS1613080786554","","","null","","","","","<p><img src= images/blank.png width =""200"" height = ""200"" style = ""float:right""></p><p><img src=images/blank.png width =""800"" height = ""200""></p>","","","","","","","","","","","",""
"","60.440000001108274","sequential-stimulus-presentation","27","150988","0.0-11.0-1.0","SS1613080786554","trial","","40","800","860.4400000011083","images/stimuli/spore_stims/complex_20_B_d.gif","images/stimuli/spore_stims/complex_18_B_a.gif","","","","","1","complex_dissimilar","images/stimuli/spore_stims/complex_18_B_a.gif","right","","","","",""
"","null","html-keyboard-response","28","151876","0.0-11.0-0.1","SS1613080786554","","","null","","","","","<p><img src= images/blank.png width =""200"" height = ""200"" style = ""float:right""></p><p><img src=images/blank.png width =""800"" height = ""200""></p>","","","","","","","","","","","",""
"","787.3099999851547","sequential-stimulus-presentation","29","153468","0.0-11.0-1.1","SS1613080786554","trial","","40","800","1587.3099999851547","images/stimuli/spore_stims/complex_20_B_d.gif","images/stimuli/spore_stims/complex_18_B_a.gif","","","","","1","complex_dissimilar","images/stimuli/spore_stims/complex_18_B_a.gif","right","","","","",""
"","null","html-keyboard-response","30","154687","0.0-11.0-0.2","SS1613080786554","","","null","","","","","<p><img src= images/blank.png width =""200"" height = ""200"" style = ""float:right""></p><p><img src=images/blank.png width =""800"" height = ""200""></p>","","","","","","","","","","","",""
"","2102.294999989681","sequential-stimulus-presentation","31","157595","0.0-11.0-1.2","SS1613080786554","trial","","40","800","2902.294999989681","images/stimuli/spore_stims/complex_20_B_d.gif","images/stimuli/spore_stims/complex_18_B_a.gif","","","","","1","complex_dissimilar","images/stimuli/spore_stims/complex_18_B_a.gif","right","","","","",""
"","null","html-keyboard-response","32","158648","0.0-11.0-0.3","SS1613080786554","","","null","","","","","<p><img src= images/blank.png width =""200"" height = ""200"" style = ""float:right""></p><p><img src=images/blank.png width =""800"" height = ""200""></p>","","","","","","","","","","","",""
"","1424.1200000105891","sequential-stimulus-presentation","33","160876","0.0-11.0-1.3","SS1613080786554","trial","","40","800","2224.120000010589","images/stimuli/spore_stims/complex_20_B_d.gif","images/stimuli/spore_stims/complex_18_B_a.gif","","","","","1","complex_dissimilar","images/stimuli/spore_stims/complex_18_B_a.gif","right","","","","",""
"","null","html-keyboard-response","34","161842","0.0-11.0-0.4","SS1613080786554","","","null","","","","","<p><img src= images/blank.png width =""200"" height = ""200"" style = ""float:right""></p><p><img src=images/blank.png width =""800"" height = ""200""></p>","","","","","","","","","","","",""
"","2876.4500000106636","sequential-stimulus-presentation","35","165527","0.0-11.0-1.4","SS1613080786554","trial","","40","800","3676.4500000106636","images/stimuli/spore_stims/complex_20_B_d.gif","images/stimuli/spore_stims/complex_18_B_a.gif","","","","","1","complex_dissimilar","images/stimuli/spore_stims/complex_20_B_d.gif","middle","","","","",""
"","null","html-keyboard-response","36","166461","0.0-11.0-0.5","SS1613080786554","","","null","","","","","<p><img src= images/blank.png width =""200"" height = ""200"" style = ""float:right""></p><p><img src=images/blank.png width =""800"" height = ""200""></p>","","","","","","","","","","","",""
"","1823.5400000121444","sequential-stimulus-presentation","37","169097","0.0-11.0-1.5","SS1613080786554","trial","","40","800","2623.5400000121444","images/stimuli/spore_stims/complex_20_B_d.gif","images/stimuli/spore_stims/complex_18_B_a.gif","","","","","1","complex_dissimilar","images/stimuli/spore_stims/complex_18_B_a.gif","right","","","","",""
"","null","html-keyboard-response","38","170393","0.0-11.0-0.6","SS1613080786554","","","null","","","","","<p><img src= images/blank.png width =""200"" height = ""200"" style = ""float:right""></p><p><img src=images/blank.png width =""800"" height = ""200""></p>","","","","","","","","","","","",""
"","591.9200000062119","sequential-stimulus-presentation","39","171788","0.0-11.0-1.6","SS1613080786554","trial","","40","800","1391.920000006212","images/stimuli/spore_stims/complex_20_B_d.gif","images/stimuli/spore_stims/complex_18_B_a.gif","","","","","1","complex_dissimilar","images/stimuli/spore_stims/complex_18_B_a.gif","right","","","","",""
"","null","html-keyboard-response","40","173083","0.0-11.0-0.7","SS1613080786554","","","null","","","","","<p><img src= images/blank.png width =""200"" height = ""200"" style = ""float:right""></p><p><img src=images/blank.png width =""800"" height = ""200""></p>","","","","","","","","","","","",""
"","493.30500001087785","sequential-stimulus-presentation","41","174381","0.0-11.0-1.7","SS1613080786554","trial","","40","800","1293.3050000108778","images/stimuli/spore_stims/complex_20_B_d.gif","images/stimuli/spore_stims/complex_18_B_a.gif","","","","","1","complex_dissimilar","images/stimuli/spore_stims/complex_18_B_a.gif","right","","","","",""
"","1524.3099999788683","html-keyboard-response","42","175913","0.0-12.0","SS1613080786554","pref_question","","49","","","","","<video width ='960' height = '540' style='padding-top:8%' autoplay muted><source src='images/stimuli/wall_pref.mp4' type='video/mp4'></video>","1","left","25%","1","","","","","","","",""
"","3502.184999990277","sequential-stimulus-presentation","43","180221","0.0-13.0","SS1613080786554","pref_reveal","","40","800","4302.184999990277","null","null","","","","","1","","","","novel","","","",""
"","null","html-keyboard-response","44","181272","0.0-14.0-0.0","SS1613080786554","","","null","","","","","<p><img src= images/blank.png width =""200"" height = ""200"" style = ""float:right""></p><p><img src=images/blank.png width =""800"" height = ""200""></p>","","","","","","","","","","","",""
"","2621.034999989206","sequential-stimulus-presentation","45","184701","0.0-14.0-1.0","SS1613080786554","trial","","40","800","3421.034999989206","images/stimuli/spore_stims/simple_15_A_a.gif","images/stimuli/spore_stims/simple_15_B_a.gif","","","","","2","simple_similar","images/stimuli/spore_stims/simple_15_B_a.gif","right","","","","",""
"","null","html-keyboard-response","46","185663","0.0-14.0-0.1","SS1613080786554","","","null","","","","","<p><img src= images/blank.png width =""200"" height = ""200"" style = ""float:right""></p><p><img src=images/blank.png width =""800"" height = ""200""></p>","","","","","","","","","","","",""
"","572.6950000098441","sequential-stimulus-presentation","47","187040","0.0-14.0-1.1","SS1613080786554","trial","","40","800","1372.695000009844","images/stimuli/spore_stims/simple_15_A_a.gif","images/stimuli/spore_stims/simple_15_B_a.gif","","","","","2","simple_similar","images/stimuli/spore_stims/simple_15_B_a.gif","right","","","","",""
"","null","html-keyboard-response","48","188159","0.0-14.0-0.2","SS1613080786554","","","null","","","","","<p><img src= images/blank.png width =""200"" height = ""200"" style = ""float:right""></p><p><img src=images/blank.png width =""800"" height = ""200""></p>","","","","","","","","","","","",""
"","409.1300000145566","sequential-stimulus-presentation","49","189374","0.0-14.0-1.2","SS1613080786554","trial","","40","800","1209.1300000145566","images/stimuli/spore_stims/simple_15_A_a.gif","images/stimuli/spore_stims/simple_15_B_a.gif","","","","","2","simple_similar","images/stimuli/spore_stims/simple_15_B_a.gif","right","","","","",""
"","null","html-keyboard-response","50","190436","0.0-14.0-0.3","SS1613080786554","","","null","","","","","<p><img src= images/blank.png width =""200"" height = ""200"" style = ""float:right""></p><p><img src=images/blank.png width =""800"" height = ""200""></p>","","","","","","","","","","","",""
"","381.5750000067055","sequential-stimulus-presentation","51","191624","0.0-14.0-1.3","SS1613080786554","trial","","40","800","1181.5750000067055","images/stimuli/spore_stims/simple_15_A_a.gif","images/stimuli/spore_stims/simple_15_B_a.gif","","","","","2","simple_similar","images/stimuli/spore_stims/simple_15_B_a.gif","right","","","","",""
"","null","html-keyboard-response","52","192733","0.0-14.0-0.4","SS1613080786554","","","null","","","","","<p><img src= images/blank.png width =""200"" height = ""200"" style = ""float:right""></p><p><img src=images/blank.png width =""800"" height = ""200""></p>","","","","","","","","","","","",""
"","386.144999996759","sequential-stimulus-presentation","53","193928","0.0-14.0-1.4","SS1613080786554","trial","","40","800","1186.144999996759","images/stimuli/spore_stims/simple_15_A_a.gif","images/stimuli/spore_stims/simple_15_B_a.gif","","","","","2","simple_similar","images/stimuli/spore_stims/simple_15_A_a.gif","left","","","","",""
"","null","html-keyboard-response","54","195085","0.0-14.0-0.5","SS1613080786554","","","null","","","","","<p><img src= images/blank.png width =""200"" height = ""200"" style = ""float:right""></p><p><img src=images/blank.png width =""800"" height = ""200""></p>","","","","","","","","","","","",""
"","1695.9349999960978","sequential-stimulus-presentation","55","197585","0.0-14.0-1.5","SS1613080786554","trial","","40","800","2495.9349999960978","images/stimuli/spore_stims/simple_15_A_a.gif","images/stimuli/spore_stims/simple_15_B_a.gif","","","","","2","simple_similar","images/stimuli/spore_stims/simple_15_B_a.gif","right","","","","",""
"","null","html-keyboard-response","56","198740","0.0-14.0-0.6","SS1613080786554","","","null","","","","","<p><img src= images/blank.png width =""200"" height = ""200"" style = ""float:right""></p><p><img src=images/blank.png width =""800"" height = ""200""></p>","","","","","","","","","","","",""
"","934.464999998454","sequential-stimulus-presentation","57","200481","0.0-14.0-1.6","SS1613080786554","trial","","40","800","1734.464999998454","images/stimuli/spore_stims/simple_15_A_a.gif","images/stimuli/spore_stims/simple_15_B_a.gif","","","","","2","simple_similar","images/stimuli/spore_stims/simple_15_B_a.gif","right","","","","",""
"","null","html-keyboard-response","58","201548","0.0-14.0-0.7","SS1613080786554","","","null","","","","","<p><img src= images/blank.png width =""200"" height = ""200"" style = ""float:right""></p><p><img src=images/blank.png width =""800"" height = ""200""></p>","","","","","","","","","","","",""
"","1716.3650000002235","sequential-stimulus-presentation","59","204072","0.0-14.0-1.7","SS1613080786554","trial","","40","800","2516.3650000002235","images/stimuli/spore_stims/simple_15_A_a.gif","images/stimuli/spore_stims/simple_15_B_a.gif","","","","","2","simple_similar","images/stimuli/spore_stims/simple_15_B_a.gif","right","","","","",""
"","1321.8650000053458","html-keyboard-response","60","205397","0.0-15.0","SS1613080786554","pref_question","","50","","","","","<video width ='960' height = '540' style='padding-top:8%' autoplay muted><source src='images/stimuli/wall_pref.mp4' type='video/mp4'></video>","2","middle","45%","2","","","","","","","",""
"","3497.3799999861512","sequential-stimulus-presentation","61","209702","0.0-16.0","SS1613080786554","pref_reveal","","40","800","4297.379999986151","null","null","","","","","2","","","","novel","","","",""
"","null","html-keyboard-response","62","210510","0.0-17.0-0.0","SS1613080786554","","","null","","","","","<p><img src= images/blank.png width =""200"" height = ""200"" style = ""float:right""></p><p><img src=images/blank.png width =""800"" height = ""200""></p>","","","","","","","","","","","",""
"","6805.59999999241","sequential-stimulus-presentation","63","218125","0.0-17.0-1.0","SS1613080786554","trial","","40","800","7605.59999999241","images/stimuli/spore_stims/simple_11_A_d.gif","images/stimuli/spore_stims/simple_19_A_a.gif","","","","","3","simple_dissimilar","images/stimuli/spore_stims/simple_19_A_a.gif","left","","","","",""
"","null","html-keyboard-response","64","219236","0.0-17.0-0.1","SS1613080786554","","","null","","","","","<p><img src= images/blank.png width =""200"" height = ""200"" style = ""float:right""></p><p><img src=images/blank.png width =""800"" height = ""200""></p>","","","","","","","","","","","",""
"","6191.675000009127","sequential-stimulus-presentation","65","226236","0.0-17.0-1.1","SS1613080786554","trial","","40","800","6991.675000009127","images/stimuli/spore_stims/simple_11_A_d.gif","images/stimuli/spore_stims/simple_19_A_a.gif","","","","","3","simple_dissimilar","images/stimuli/spore_stims/simple_19_A_a.gif","left","","","","",""
"","null","html-keyboard-response","66","227082","0.0-17.0-0.2","SS1613080786554","","","null","","","","","<p><img src= images/blank.png width =""200"" height = ""200"" style = ""float:right""></p><p><img src=images/blank.png width =""800"" height = ""200""></p>","","","","","","","","","","","",""
"","2071.639999980107","sequential-stimulus-presentation","67","229964","0.0-17.0-1.2","SS1613080786554","trial","","40","800","2871.639999980107","images/stimuli/spore_stims/simple_11_A_d.gif","images/stimuli/spore_stims/simple_19_A_a.gif","","","","","3","simple_dissimilar","images/stimuli/spore_stims/simple_19_A_a.gif","left","","","","",""
"","null","html-keyboard-response","68","230777","0.0-17.0-0.3","SS1613080786554","","","null","","","","","<p><img src= images/blank.png width =""200"" height = ""200"" style = ""float:right""></p><p><img src=images/blank.png width =""800"" height = ""200""></p>","","","","","","","","","","","",""
"","1733.1100000010338","sequential-stimulus-presentation","69","233316","0.0-17.0-1.3","SS1613080786554","trial","","40","800","2533.1100000010338","images/stimuli/spore_stims/simple_11_A_d.gif","images/stimuli/spore_stims/simple_19_A_a.gif","","","","","3","simple_dissimilar","images/stimuli/spore_stims/simple_19_A_a.gif","left","","","","",""
"","null","html-keyboard-response","70","234331","0.0-17.0-0.4","SS1613080786554","","","null","","","","","<p><img src= images/blank.png width =""200"" height = ""200"" style = ""float:right""></p><p><img src=images/blank.png width =""800"" height = ""200""></p>","","","","","","","","","","","",""
"","368.64499998046085","sequential-stimulus-presentation","71","235507","0.0-17.0-1.4","SS1613080786554","trial","","40","800","1168.6449999804609","images/stimuli/spore_stims/simple_11_A_d.gif","images/stimuli/spore_stims/simple_19_A_a.gif","","","","","3","simple_dissimilar","images/stimuli/spore_stims/simple_19_A_a.gif","left","","","","",""
"","null","html-keyboard-response","72","236708","0.0-17.0-0.5","SS1613080786554","","","null","","","","","<p><img src= images/blank.png width =""200"" height = ""200"" style = ""float:right""></p><p><img src=images/blank.png width =""800"" height = ""200""></p>","","","","","","","","","","","",""
"","342.0449999975972","sequential-stimulus-presentation","73","237857","0.0-17.0-1.5","SS1613080786554","trial","","40","800","1142.0449999975972","images/stimuli/spore_stims/simple_11_A_d.gif","images/stimuli/spore_stims/simple_19_A_a.gif","","","","","3","simple_dissimilar","images/stimuli/spore_stims/simple_19_A_a.gif","left","","","","",""
"","null","html-keyboard-response","74","238965","0.0-17.0-0.6","SS1613080786554","","","null","","","","","<p><img src= images/blank.png width =""200"" height = ""200"" style = ""float:right""></p><p><img src=images/blank.png width =""800"" height = ""200""></p>","","","","","","","","","","","",""
"","272.35499999369495","sequential-stimulus-presentation","75","240042","0.0-17.0-1.6","SS1613080786554","trial","","40","800","1072.354999993695","images/stimuli/spore_stims/simple_11_A_d.gif","images/stimuli/spore_stims/simple_19_A_a.gif","","","","","3","simple_dissimilar","images/stimuli/spore_stims/simple_19_A_a.gif","left","","","","",""
"","null","html-keyboard-response","76","241338","0.0-17.0-0.7","SS1613080786554","","","null","","","","","<p><img src= images/blank.png width =""200"" height = ""200"" style = ""float:right""></p><p><img src=images/blank.png width =""800"" height = ""200""></p>","","","","","","","","","","","",""
"","1477.0399999979418","sequential-stimulus-presentation","77","243623","0.0-17.0-1.7","SS1613080786554","trial","","40","800","2277.039999997942","images/stimuli/spore_stims/simple_11_A_d.gif","images/stimuli/spore_stims/simple_19_A_a.gif","","","","","3","simple_dissimilar","images/stimuli/spore_stims/simple_11_A_d.gif","right","","","","",""
"","814.9299999931827","html-keyboard-response","78","244444","0.0-18.0","SS1613080786554","pref_question","","50","","","","","<video width ='960' height = '540' style='padding-top:8%' autoplay muted><source src='images/stimuli/wall_pref.mp4' type='video/mp4'></video>","2","middle","45%","3","","","","","","","",""
"","1302.7949999959674","sequential-stimulus-presentation","79","246556","0.0-19.0","SS1613080786554","pref_reveal","","40","800","2102.7949999959674","null","null","","","","","3","","","","novel","","","",""
"","null","html-keyboard-response","80","247790","0.0-20.0-0.0","SS1613080786554","","","null","","","","","<p><img src= images/blank.png width =""200"" height = ""200"" style = ""float:right""></p><p><img src=images/blank.png width =""800"" height = ""200""></p>","","","","","","","","","","","",""
"","1920.1350000221282","sequential-stimulus-presentation","81","250531","0.0-20.0-1.0","SS1613080786554","trial","","40","800","2720.135000022128","images/stimuli/spore_stims/complex_17_B_a.gif","images/stimuli/spore_stims/complex_17_A_a.gif","","","","","4","complex_similar","images/stimuli/spore_stims/complex_17_A_a.gif","right","","","","",""
"","null","html-keyboard-response","82","251416","0.0-20.0-0.1","SS1613080786554","","","null","","","","","<p><img src= images/blank.png width =""200"" height = ""200"" style = ""float:right""></p><p><img src=images/blank.png width =""800"" height = ""200""></p>","","","","","","","","","","","",""
"","299.60500000743195","sequential-stimulus-presentation","83","252526","0.0-20.0-1.1","SS1613080786554","trial","","40","800","1099.605000007432","images/stimuli/spore_stims/complex_17_B_a.gif","images/stimuli/spore_stims/complex_17_A_a.gif","","","","","4","complex_similar","images/stimuli/spore_stims/complex_17_A_a.gif","right","","","","",""
"","null","html-keyboard-response","84","253438","0.0-20.0-0.2","SS1613080786554","","","null","","","","","<p><img src= images/blank.png width =""200"" height = ""200"" style = ""float:right""></p><p><img src=images/blank.png width =""800"" height = ""200""></p>","","","","","","","","","","","",""
"","443.1100000219885","sequential-stimulus-presentation","85","254686","0.0-20.0-1.2","SS1613080786554","trial","","40","800","1243.1100000219885","images/stimuli/spore_stims/complex_17_B_a.gif","images/stimuli/spore_stims/complex_17_A_a.gif","","","","","4","complex_similar","images/stimuli/spore_stims/complex_17_A_a.gif","right","","","","",""
"","null","html-keyboard-response","86","255937","0.0-20.0-0.3","SS1613080786554","","","null","","","","","<p><img src= images/blank.png width =""200"" height = ""200"" style = ""float:right""></p><p><img src=images/blank.png width =""800"" height = ""200""></p>","","","","","","","","","","","",""
"","422.79499999131076","sequential-stimulus-presentation","87","257165","0.0-20.0-1.3","SS1613080786554","trial","","40","800","1222.7949999913108","images/stimuli/spore_stims/complex_17_B_a.gif","images/stimuli/spore_stims/complex_17_A_a.gif","","","","","4","complex_similar","images/stimuli/spore_stims/complex_17_A_a.gif","right","","","","",""
"","null","html-keyboard-response","88","258035","0.0-20.0-0.4","SS1613080786554","","","null","","","","","<p><img src= images/blank.png width =""200"" height = ""200"" style = ""float:right""></p><p><img src=images/blank.png width =""800"" height = ""200""></p>","","","","","","","","","","","",""
"","2240.575000003446","sequential-stimulus-presentation","89","261083","0.0-20.0-1.4","SS1613080786554","trial","","40","800","3040.575000003446","images/stimuli/spore_stims/complex_17_B_a.gif","images/stimuli/spore_stims/complex_17_A_a.gif","","","","","4","complex_similar","images/stimuli/spore_stims/complex_17_B_a.gif","left","","","","",""
"","null","html-keyboard-response","90","262157","0.0-20.0-0.5","SS1613080786554","","","null","","","","","<p><img src= images/blank.png width =""200"" height = ""200"" style = ""float:right""></p><p><img src=images/blank.png width =""800"" height = ""200""></p>","","","","","","","","","","","",""
"","218.36500000790693","sequential-stimulus-presentation","91","263180","0.0-20.0-1.5","SS1613080786554","trial","","40","800","1018.3650000079069","images/stimuli/spore_stims/complex_17_B_a.gif","images/stimuli/spore_stims/complex_17_A_a.gif","","","","","4","complex_similar","images/stimuli/spore_stims/complex_17_A_a.gif","right","","","","",""
"","null","html-keyboard-response","92","264187","0.0-20.0-0.6","SS1613080786554","","","null","","","","","<p><img src= images/blank.png width =""200"" height = ""200"" style = ""float:right""></p><p><img src=images/blank.png width =""800"" height = ""200""></p>","","","","","","","","","","","",""
"","502.5949999981094","sequential-stimulus-presentation","93","265498","0.0-20.0-1.6","SS1613080786554","trial","","40","800","1302.5949999981094","images/stimuli/spore_stims/complex_17_B_a.gif","images/stimuli/spore_stims/complex_17_A_a.gif","","","","","4","complex_similar","images/stimuli/spore_stims/complex_17_A_a.gif","right","","","","",""
"","null","html-keyboard-response","94","266409","0.0-20.0-0.7","SS1613080786554","","","null","","","","","<p><img src= images/blank.png width =""200"" height = ""200"" style = ""float:right""></p><p><img src=images/blank.png width =""800"" height = ""200""></p>","","","","","","","","","","","",""
"","563.2000000041444","sequential-stimulus-presentation","95","267782","0.0-20.0-1.7","SS1613080786554","trial","","40","800","1363.2000000041444","images/stimuli/spore_stims/complex_17_B_a.gif","images/stimuli/spore_stims/complex_17_A_a.gif","","","","","4","complex_similar","images/stimuli/spore_stims/complex_17_A_a.gif","right","","","","",""
"","1752.085000014631","html-keyboard-response","96","269538","0.0-21.0","SS1613080786554","pref_question","","50","","","","","<video width ='960' height = '540' style='padding-top:8%' autoplay muted><source src='images/stimuli/wall_pref.mp4' type='video/mp4'></video>","2","middle","45%","4","","","","","","","",""
"","1623.7100000143982","sequential-stimulus-presentation","97","271972","0.0-22.0","SS1613080786554","pref_reveal","","40","800","2423.7100000143982","null","null","","","","","4","","","","novel","","","",""
"","null","html-keyboard-response","98","272965","0.0-23.0-0.0","SS1613080786554","","","null","","","","","<p><img src= images/blank.png width =""200"" height = ""200"" style = ""float:right""></p><p><img src=images/blank.png width =""800"" height = ""200""></p>","","","","","","","","","","","",""
"","2409.1999999945983","sequential-stimulus-presentation","99","276181","0.0-23.0-1.0","SS1613080786554","trial","","40","800","3209.1999999945983","images/stimuli/spore_stims/simple_07_A_a.gif","images/stimuli/spore_stims/simple_07_B_d.gif","","","","","5","simple_dissimilar","images/stimuli/spore_stims/simple_07_B_d.gif","middle","","","","",""
"","null","html-keyboard-response","100","277081","0.0-23.0-0.1","SS1613080786554","","","null","","","","","<p><img src= images/blank.png width =""200"" height = ""200"" style = ""float:right""></p><p><img src=images/blank.png width =""800"" height = ""200""></p>","","","","","","","","","","","",""
"","802.8500000073109","sequential-stimulus-presentation","101","278689","0.0-23.0-1.1","SS1613080786554","trial","","40","800","1602.8500000073109","images/stimuli/spore_stims/simple_07_A_a.gif","images/stimuli/spore_stims/simple_07_B_d.gif","","","","","5","simple_dissimilar","images/stimuli/spore_stims/simple_07_B_d.gif","middle","","","","",""
"","null","html-keyboard-response","102","279682","0.0-23.0-0.2","SS1613080786554","","","null","","","","","<p><img src= images/blank.png width =""200"" height = ""200"" style = ""float:right""></p><p><img src=images/blank.png width =""800"" height = ""200""></p>","","","","","","","","","","","",""
"","1859.2899999930523","sequential-stimulus-presentation","103","282347","0.0-23.0-1.2","SS1613080786554","trial","","40","800","2659.2899999930523","images/stimuli/spore_stims/simple_07_A_a.gif","images/stimuli/spore_stims/simple_07_B_d.gif","","","","","5","simple_dissimilar","images/stimuli/spore_stims/simple_07_A_a.gif","right","","","","",""
"","null","html-keyboard-response","104","283474","0.0-23.0-0.3","SS1613080786554","","","null","","","","","<p><img src= images/blank.png width =""200"" height = ""200"" style = ""float:right""></p><p><img src=images/blank.png width =""800"" height = ""200""></p>","","","","","","","","","","","",""
"","519.3100000033155","sequential-stimulus-presentation","105","284800","0.0-23.0-1.3","SS1613080786554","trial","","40","800","1319.3100000033155","images/stimuli/spore_stims/simple_07_A_a.gif","images/stimuli/spore_stims/simple_07_B_d.gif","","","","","5","simple_dissimilar","images/stimuli/spore_stims/simple_07_B_d.gif","middle","","","","",""
"","null","html-keyboard-response","106","286071","0.0-23.0-0.4","SS1613080786554","","","null","","","","","<p><img src= images/blank.png width =""200"" height = ""200"" style = ""float:right""></p><p><img src=images/blank.png width =""800"" height = ""200""></p>","","","","","","","","","","","",""
"","401.46500000264496","sequential-stimulus-presentation","107","287276","0.0-23.0-1.4","SS1613080786554","trial","","40","800","1201.465000002645","images/stimuli/spore_stims/simple_07_A_a.gif","images/stimuli/spore_stims/simple_07_B_d.gif","","","","","5","simple_dissimilar","images/stimuli/spore_stims/simple_07_B_d.gif","middle","","","","",""
"","null","html-keyboard-response","108","288150","0.0-23.0-0.5","SS1613080786554","","","null","","","","","<p><img src= images/blank.png width =""200"" height = ""200"" style = ""float:right""></p><p><img src=images/blank.png width =""800"" height = ""200""></p>","","","","","","","","","","","",""
"","299.6749999874737","sequential-stimulus-presentation","109","289258","0.0-23.0-1.5","SS1613080786554","trial","","40","800","1099.6749999874737","images/stimuli/spore_stims/simple_07_A_a.gif","images/stimuli/spore_stims/simple_07_B_d.gif","","","","","5","simple_dissimilar","images/stimuli/spore_stims/simple_07_B_d.gif","middle","","","","",""
"","null","html-keyboard-response","110","290196","0.0-23.0-0.6","SS1613080786554","","","null","","","","","<p><img src= images/blank.png width =""200"" height = ""200"" style = ""float:right""></p><p><img src=images/blank.png width =""800"" height = ""200""></p>","","","","","","","","","","","",""
"","293.5750000178814","sequential-stimulus-presentation","111","291293","0.0-23.0-1.6","SS1613080786554","trial","","40","800","1093.5750000178814","images/stimuli/spore_stims/simple_07_A_a.gif","images/stimuli/spore_stims/simple_07_B_d.gif","","","","","5","simple_dissimilar","images/stimuli/spore_stims/simple_07_B_d.gif","middle","","","","",""
"","null","html-keyboard-response","112","292378","0.0-23.0-0.7","SS1613080786554","","","null","","","","","<p><img src= images/blank.png width =""200"" height = ""200"" style = ""float:right""></p><p><img src=images/blank.png width =""800"" height = ""200""></p>","","","","","","","","","","","",""
"","447.8499999968335","sequential-stimulus-presentation","113","293636","0.0-23.0-1.7","SS1613080786554","trial","","40","800","1247.8499999968335","images/stimuli/spore_stims/simple_07_A_a.gif","images/stimuli/spore_stims/simple_07_B_d.gif","","","","","5","simple_dissimilar","images/stimuli/spore_stims/simple_07_B_d.gif","middle","","","","",""
"","986.8450000067241","html-keyboard-response","114","294627","0.0-24.0","SS1613080786554","pref_question","","49","","","","","<video width ='960' height = '540' style='padding-top:8%' autoplay muted><source src='images/stimuli/wall_pref.mp4' type='video/mp4'></video>","1","left","25%","5","","","","","","","",""
"","1176.6749999951571","sequential-stimulus-presentation","115","296610","0.0-25.0","SS1613080786554","pref_reveal","","40","800","1976.6749999951571","null","null","","","","","5","","","","novel","","","",""
"","null","html-keyboard-response","116","297600","0.0-26.0-0.0","SS1613080786554","","","null","","","","","<p><img src= images/blank.png width =""200"" height = ""200"" style = ""float:right""></p><p><img src=images/blank.png width =""800"" height = ""200""></p>","","","","","","","","","","","",""
"","1440.0099999911617","sequential-stimulus-presentation","117","299844","0.0-26.0-1.0","SS1613080786554","trial","","40","800","2240.0099999911617","images/stimuli/spore_stims/simple_12_B_c.gif","images/stimuli/spore_stims/simple_04_A_d.gif","","","","","6","simple_dissimilar","images/stimuli/spore_stims/simple_04_A_d.gif","right","","","","",""
"","null","html-keyboard-response","118","300699","0.0-26.0-0.1","SS1613080786554","","","null","","","","","<p><img src= images/blank.png width =""200"" height = ""200"" style = ""float:right""></p><p><img src=images/blank.png width =""800"" height = ""200""></p>","","","","","","","","","","","",""
"","394.57999999285676","sequential-stimulus-presentation","119","301897","0.0-26.0-1.1","SS1613080786554","trial","","40","800","1194.5799999928568","images/stimuli/spore_stims/simple_12_B_c.gif","images/stimuli/spore_stims/simple_04_A_d.gif","","","","","6","simple_dissimilar","images/stimuli/spore_stims/simple_04_A_d.gif","right","","","","",""
"","null","html-keyboard-response","120","303013","0.0-26.0-0.2","SS1613080786554","","","null","","","","","<p><img src= images/blank.png width =""200"" height = ""200"" style = ""float:right""></p><p><img src=images/blank.png width =""800"" height = ""200""></p>","","","","","","","","","","","",""
"","795.3299999935552","sequential-stimulus-presentation","121","304613","0.0-26.0-1.2","SS1613080786554","trial","","40","800","1595.3299999935552","images/stimuli/spore_stims/simple_12_B_c.gif","images/stimuli/spore_stims/simple_04_A_d.gif","","","","","6","simple_dissimilar","images/stimuli/spore_stims/simple_04_A_d.gif","right","","","","",""
"","null","html-keyboard-response","122","305502","0.0-26.0-0.3","SS1613080786554","","","null","","","","","<p><img src= images/blank.png width =""200"" height = ""200"" style = ""float:right""></p><p><img src=images/blank.png width =""800"" height = ""200""></p>","","","","","","","","","","","",""
"","893.0950000067241","sequential-stimulus-presentation","123","307203","0.0-26.0-1.3","SS1613080786554","trial","","40","800","1693.0950000067241","images/stimuli/spore_stims/simple_12_B_c.gif","images/stimuli/spore_stims/simple_04_A_d.gif","","","","","6","simple_dissimilar","images/stimuli/spore_stims/simple_04_A_d.gif","right","","","","",""
"","null","html-keyboard-response","124","308402","0.0-26.0-0.4","SS1613080786554","","","null","","","","","<p><img src= images/blank.png width =""200"" height = ""200"" style = ""float:right""></p><p><img src=images/blank.png width =""800"" height = ""200""></p>","","","","","","","","","","","",""
"","404.09500000532717","sequential-stimulus-presentation","125","309613","0.0-26.0-1.4","SS1613080786554","trial","","40","800","1204.0950000053272","images/stimuli/spore_stims/simple_12_B_c.gif","images/stimuli/spore_stims/simple_04_A_d.gif","","","","","6","simple_dissimilar","images/stimuli/spore_stims/simple_04_A_d.gif","right","","","","",""
"","null","html-keyboard-response","126","310783","0.0-26.0-0.5","SS1613080786554","","","null","","","","","<p><img src= images/blank.png width =""200"" height = ""200"" style = ""float:right""></p><p><img src=images/blank.png width =""800"" height = ""200""></p>","","","","","","","","","","","",""
"","1355.825000006007","sequential-stimulus-presentation","127","312945","0.0-26.0-1.5","SS1613080786554","trial","","40","800","2155.825000006007","images/stimuli/spore_stims/simple_12_B_c.gif","images/stimuli/spore_stims/simple_04_A_d.gif","","","","","6","simple_dissimilar","images/stimuli/spore_stims/simple_04_A_d.gif","right","","","","",""
"","null","html-keyboard-response","128","313820","0.0-26.0-0.6","SS1613080786554","","","null","","","","","<p><img src= images/blank.png width =""200"" height = ""200"" style = ""float:right""></p><p><img src=images/blank.png width =""800"" height = ""200""></p>","","","","","","","","","","","",""
"","2243.22000000393","sequential-stimulus-presentation","129","316870","0.0-26.0-1.6","SS1613080786554","trial","","40","800","3043.22000000393","images/stimuli/spore_stims/simple_12_B_c.gif","images/stimuli/spore_stims/simple_04_A_d.gif","","","","","6","simple_dissimilar","images/stimuli/spore_stims/simple_12_B_c.gif","left","","","","",""
"","null","html-keyboard-response","130","317779","0.0-26.0-0.7","SS1613080786554","","","null","","","","","<p><img src= images/blank.png width =""200"" height = ""200"" style = ""float:right""></p><p><img src=images/blank.png width =""800"" height = ""200""></p>","","","","","","","","","","","",""
"","1207.6349999988452","sequential-stimulus-presentation","131","319792","0.0-26.0-1.7","SS1613080786554","trial","","40","800","2007.6349999988452","images/stimuli/spore_stims/simple_12_B_c.gif","images/stimuli/spore_stims/simple_04_A_d.gif","","","","","6","simple_dissimilar","images/stimuli/spore_stims/simple_04_A_d.gif","right","","","","",""
"","1759.4300000055227","html-keyboard-response","132","321556","0.0-27.0","SS1613080786554","pref_question","","50","","","","","<video width ='960' height = '540' style='padding-top:8%' autoplay muted><source src='images/stimuli/wall_pref.mp4' type='video/mp4'></video>","2","middle","45%","6","","","","","","","",""
"","585.3750000242144","sequential-stimulus-presentation","133","322947","0.0-28.0","SS1613080786554","pref_reveal","","40","800","1385.3750000242144","null","null","","","","","6","","","","novel","","","",""
"","null","html-keyboard-response","134","323854","0.0-29.0-0.0","SS1613080786554","","","null","","","","","<p><img src= images/blank.png width =""200"" height = ""200"" style = ""float:right""></p><p><img src=images/blank.png width =""800"" height = ""200""></p>","","","","","","","","","","","",""
"","420.7899999746587","sequential-stimulus-presentation","135","325089","0.0-29.0-1.0","SS1613080786554","trial","","40","800","1220.7899999746587","images/stimuli/spore_stims/simple_10_A_b.gif","images/stimuli/spore_stims/simple_09_A_c.gif","","","","","7","simple_dissimilar","images/stimuli/spore_stims/simple_09_A_c.gif","left","","","","",""
"","null","html-keyboard-response","136","325898","0.0-29.0-0.1","SS1613080786554","","","null","","","","","<p><img src= images/blank.png width =""200"" height = ""200"" style = ""float:right""></p><p><img src=images/blank.png width =""800"" height = ""200""></p>","","","","","","","","","","","",""
"","283.0149999936111","sequential-stimulus-presentation","137","326985","0.0-29.0-1.1","SS1613080786554","trial","","40","800","1083.0149999936111","images/stimuli/spore_stims/simple_10_A_b.gif","images/stimuli/spore_stims/simple_09_A_c.gif","","","","","7","simple_dissimilar","images/stimuli/spore_stims/simple_09_A_c.gif","left","","","","",""
"","null","html-keyboard-response","138","328220","0.0-29.0-0.2","SS1613080786554","","","null","","","","","<p><img src= images/blank.png width =""200"" height = ""200"" style = ""float:right""></p><p><img src=images/blank.png width =""800"" height = ""200""></p>","","","","","","","","","","","",""
"","676.9799999892712","sequential-stimulus-presentation","139","329705","0.0-29.0-1.2","SS1613080786554","trial","","40","800","1476.9799999892712","images/stimuli/spore_stims/simple_10_A_b.gif","images/stimuli/spore_stims/simple_09_A_c.gif","","","","","7","simple_dissimilar","images/stimuli/spore_stims/simple_09_A_c.gif","left","","","","",""
"","null","html-keyboard-response","140","330957","0.0-29.0-0.3","SS1613080786554","","","null","","","","","<p><img src= images/blank.png width =""200"" height = ""200"" style = ""float:right""></p><p><img src=images/blank.png width =""800"" height = ""200""></p>","","","","","","","","","","","",""
"","213.8799999956973","sequential-stimulus-presentation","141","331979","0.0-29.0-1.3","SS1613080786554","trial","","40","800","1013.8799999956973","images/stimuli/spore_stims/simple_10_A_b.gif","images/stimuli/spore_stims/simple_09_A_c.gif","","","","","7","simple_dissimilar","images/stimuli/spore_stims/simple_09_A_c.gif","left","","","","",""
"","null","html-keyboard-response","142","332801","0.0-29.0-0.4","SS1613080786554","","","null","","","","","<p><img src= images/blank.png width =""200"" height = ""200"" style = ""float:right""></p><p><img src=images/blank.png width =""800"" height = ""200""></p>","","","","","","","","","","","",""
"","1386.5550000045914","sequential-stimulus-presentation","143","334994","0.0-29.0-1.4","SS1613080786554","trial","","40","800","2186.5550000045914","images/stimuli/spore_stims/simple_10_A_b.gif","images/stimuli/spore_stims/simple_09_A_c.gif","","","","","7","simple_dissimilar","images/stimuli/spore_stims/simple_10_A_b.gif","middle","","","","",""
"","null","html-keyboard-response","144","335899","0.0-29.0-0.5","SS1613080786554","","","null","","","","","<p><img src= images/blank.png width =""200"" height = ""200"" style = ""float:right""></p><p><img src=images/blank.png width =""800"" height = ""200""></p>","","","","","","","","","","","",""
"","929.3149999866728","sequential-stimulus-presentation","145","337660","0.0-29.0-1.5","SS1613080786554","trial","","40","800","1729.3149999866728","images/stimuli/spore_stims/simple_10_A_b.gif","images/stimuli/spore_stims/simple_09_A_c.gif","","","","","7","simple_dissimilar","images/stimuli/spore_stims/simple_09_A_c.gif","left","","","","",""
"","null","html-keyboard-response","146","338790","0.0-29.0-0.6","SS1613080786554","","","null","","","","","<p><img src= images/blank.png width =""200"" height = ""200"" style = ""float:right""></p><p><img src=images/blank.png width =""800"" height = ""200""></p>","","","","","","","","","","","",""
"","1215.0850000034552","sequential-stimulus-presentation","147","340815","0.0-29.0-1.6","SS1613080786554","trial","","40","800","2015.0850000034552","images/stimuli/spore_stims/simple_10_A_b.gif","images/stimuli/spore_stims/simple_09_A_c.gif","","","","","7","simple_dissimilar","images/stimuli/spore_stims/simple_09_A_c.gif","left","","","","",""
"","null","html-keyboard-response","148","341777","0.0-29.0-0.7","SS1613080786554","","","null","","","","","<p><img src= images/blank.png width =""200"" height = ""200"" style = ""float:right""></p><p><img src=images/blank.png width =""800"" height = ""200""></p>","","","","","","","","","","","",""
"","476.36999998940155","sequential-stimulus-presentation","149","343061","0.0-29.0-1.7","SS1613080786554","trial","","40","800","1276.3699999894015","images/stimuli/spore_stims/simple_10_A_b.gif","images/stimuli/spore_stims/simple_09_A_c.gif","","","","","7","simple_dissimilar","images/stimuli/spore_stims/simple_09_A_c.gif","left","","","","",""
"","1792.4000000057276","html-keyboard-response","150","344858","0.0-30.0","SS1613080786554","pref_question","","50","","","","","<video width ='960' height = '540' style='padding-top:8%' autoplay muted><source src='images/stimuli/wall_pref.mp4' type='video/mp4'></video>","2","middle","45%","7","","","","","","","",""
"","1490.7700000039767","sequential-stimulus-presentation","151","347154","0.0-31.0","SS1613080786554","pref_reveal","","40","800","2290.7700000039767","null","null","","","","","7","","","","deviant","","","",""
"","null","html-keyboard-response","152","348196","0.0-32.0-0.0","SS1613080786554","","","null","","","","","<p><img src= images/blank.png width =""200"" height = ""200"" style = ""float:right""></p><p><img src=images/blank.png width =""800"" height = ""200""></p>","","","","","","","","","","","",""
"","1503.8799999747425","sequential-stimulus-presentation","153","350509","0.0-32.0-1.0","SS1613080786554","trial","","40","800","2303.8799999747425","images/stimuli/spore_stims/complex_03_B_b.gif","images/stimuli/spore_stims/complex_10_B_d.gif","","","","","8","complex_dissimilar","images/stimuli/spore_stims/complex_10_B_d.gif","right","","","","",""
"","null","html-keyboard-response","154","351774","0.0-32.0-0.1","SS1613080786554","","","null","","","","","<p><img src= images/blank.png width =""200"" height = ""200"" style = ""float:right""></p><p><img src=images/blank.png width =""800"" height = ""200""></p>","","","","","","","","","","","",""
"","331.13000000594184","sequential-stimulus-presentation","155","352914","0.0-32.0-1.1","SS1613080786554","trial","","40","800","1131.1300000059418","images/stimuli/spore_stims/complex_03_B_b.gif","images/stimuli/spore_stims/complex_10_B_d.gif","","","","","8","complex_dissimilar","images/stimuli/spore_stims/complex_10_B_d.gif","right","","","","",""
"","null","html-keyboard-response","156","354056","0.0-32.0-0.2","SS1613080786554","","","null","","","","","<p><img src= images/blank.png width =""200"" height = ""200"" style = ""float:right""></p><p><img src=images/blank.png width =""800"" height = ""200""></p>","","","","","","","","","","","",""
"","553.7550000008196","sequential-stimulus-presentation","157","355415","0.0-32.0-1.2","SS1613080786554","trial","","40","800","1353.7550000008196","images/stimuli/spore_stims/complex_03_B_b.gif","images/stimuli/spore_stims/complex_10_B_d.gif","","","","","8","complex_dissimilar","images/stimuli/spore_stims/complex_10_B_d.gif","right","","","","",""
"","null","html-keyboard-response","158","356453","0.0-32.0-0.3","SS1613080786554","","","null","","","","","<p><img src= images/blank.png width =""200"" height = ""200"" style = ""float:right""></p><p><img src=images/blank.png width =""800"" height = ""200""></p>","","","","","","","","","","","",""
"","342.48500000103377","sequential-stimulus-presentation","159","357601","0.0-32.0-1.3","SS1613080786554","trial","","40","800","1142.4850000010338","images/stimuli/spore_stims/complex_03_B_b.gif","images/stimuli/spore_stims/complex_10_B_d.gif","","","","","8","complex_dissimilar","images/stimuli/spore_stims/complex_03_B_b.gif","left","","","","",""
"","null","html-keyboard-response","160","358906","0.0-32.0-0.4","SS1613080786554","","","null","","","","","<p><img src= images/blank.png width =""200"" height = ""200"" style = ""float:right""></p><p><img src=images/blank.png width =""800"" height = ""200""></p>","","","","","","","","","","","",""
"","468.81500000017695","sequential-stimulus-presentation","161","360181","0.0-32.0-1.4","SS1613080786554","trial","","40","800","1268.815000000177","images/stimuli/spore_stims/complex_03_B_b.gif","images/stimuli/spore_stims/complex_10_B_d.gif","","","","","8","complex_dissimilar","images/stimuli/spore_stims/complex_10_B_d.gif","right","","","","",""
"","null","html-keyboard-response","162","361068","0.0-32.0-0.5","SS1613080786554","","","null","","","","","<p><img src= images/blank.png width =""200"" height = ""200"" style = ""float:right""></p><p><img src=images/blank.png width =""800"" height = ""200""></p>","","","","","","","","","","","",""
"","1269.8600000003353","sequential-stimulus-presentation","163","363147","0.0-32.0-1.5","SS1613080786554","trial","","40","800","2069.8600000003353","images/stimuli/spore_stims/complex_03_B_b.gif","images/stimuli/spore_stims/complex_10_B_d.gif","","","","","8","complex_dissimilar","images/stimuli/spore_stims/complex_10_B_d.gif","right","","","","",""
"","null","html-keyboard-response","164","364367","0.0-32.0-0.6","SS1613080786554","","","null","","","","","<p><img src= images/blank.png width =""200"" height = ""200"" style = ""float:right""></p><p><img src=images/blank.png width =""800"" height = ""200""></p>","","","","","","","","","","","",""
"","708.8600000133738","sequential-stimulus-presentation","165","365885","0.0-32.0-1.6","SS1613080786554","trial","","40","800","1508.8600000133738","images/stimuli/spore_stims/complex_03_B_b.gif","images/stimuli/spore_stims/complex_10_B_d.gif","","","","","8","complex_dissimilar","images/stimuli/spore_stims/complex_10_B_d.gif","right","","","","",""
"","null","html-keyboard-response","166","367005","0.0-32.0-0.7","SS1613080786554","","","null","","","","","<p><img src= images/blank.png width =""200"" height = ""200"" style = ""float:right""></p><p><img src=images/blank.png width =""800"" height = ""200""></p>","","","","","","","","","","","",""
"","708.2100000116043","sequential-stimulus-presentation","167","368518","0.0-32.0-1.7","SS1613080786554","trial","","40","800","1508.2100000116043","images/stimuli/spore_stims/complex_03_B_b.gif","images/stimuli/spore_stims/complex_10_B_d.gif","","","","","8","complex_dissimilar","images/stimuli/spore_stims/complex_10_B_d.gif","right","","","","",""
"","1270.9299999987707","html-keyboard-response","168","369796","0.0-33.0","SS1613080786554","pref_question","","50","","","","","<video width ='960' height = '540' style='padding-top:8%' autoplay muted><source src='images/stimuli/wall_pref.mp4' type='video/mp4'></video>","2","middle","45%","8","","","","","","","",""
"","3980.604999989737","sequential-stimulus-presentation","169","374587","0.0-34.0","SS1613080786554","pref_reveal","","40","800","4780.604999989737","null","null","","","","","8","","","","novel","","","",""
"","null","html-keyboard-response","170","375586","0.0-35.0-0.0","SS1613080786554","","","null","","","","","<p><img src= images/blank.png width =""200"" height = ""200"" style = ""float:right""></p><p><img src=images/blank.png width =""800"" height = ""200""></p>","","","","","","","","","","","",""
"","1934.850000019651","sequential-stimulus-presentation","171","378327","0.0-35.0-1.0","SS1613080786554","trial","","40","800","2734.850000019651","images/stimuli/spore_stims/complex_18_A_c.gif","images/stimuli/spore_stims/complex_13_A_c.gif","","","","","9","complex_dissimilar","images/stimuli/spore_stims/complex_13_A_c.gif","left","","","","",""
"","null","html-keyboard-response","172","379336","0.0-35.0-0.1","SS1613080786554","","","null","","","","","<p><img src= images/blank.png width =""200"" height = ""200"" style = ""float:right""></p><p><img src=images/blank.png width =""800"" height = ""200""></p>","","","","","","","","","","","",""
"","498.86500000138767","sequential-stimulus-presentation","173","380645","0.0-35.0-1.1","SS1613080786554","trial","","40","800","1298.8650000013877","images/stimuli/spore_stims/complex_18_A_c.gif","images/stimuli/spore_stims/complex_13_A_c.gif","","","","","9","complex_dissimilar","images/stimuli/spore_stims/complex_13_A_c.gif","left","","","","",""
"","null","html-keyboard-response","174","381818","0.0-35.0-0.2","SS1613080786554","","","null","","","","","<p><img src= images/blank.png width =""200"" height = ""200"" style = ""float:right""></p><p><img src=images/blank.png width =""800"" height = ""200""></p>","","","","","","","","","","","",""
"","965.8400000189431","sequential-stimulus-presentation","175","383589","0.0-35.0-1.2","SS1613080786554","trial","","40","800","1765.840000018943","images/stimuli/spore_stims/complex_18_A_c.gif","images/stimuli/spore_stims/complex_13_A_c.gif","","","","","9","complex_dissimilar","images/stimuli/spore_stims/complex_13_A_c.gif","left","","","","",""
"","null","html-keyboard-response","176","384552","0.0-35.0-0.3","SS1613080786554","","","null","","","","","<p><img src= images/blank.png width =""200"" height = ""200"" style = ""float:right""></p><p><img src=images/blank.png width =""800"" height = ""200""></p>","","","","","","","","","","","",""
"","773.0200000223704","sequential-stimulus-presentation","177","386130","0.0-35.0-1.3","SS1613080786554","trial","","40","800","1573.0200000223704","images/stimuli/spore_stims/complex_18_A_c.gif","images/stimuli/spore_stims/complex_13_A_c.gif","","","","","9","complex_dissimilar","images/stimuli/spore_stims/complex_13_A_c.gif","left","","","","",""
"","null","html-keyboard-response","178","387057","0.0-35.0-0.4","SS1613080786554","","","null","","","","","<p><img src= images/blank.png width =""200"" height = ""200"" style = ""float:right""></p><p><img src=images/blank.png width =""800"" height = ""200""></p>","","","","","","","","","","","",""
"","322.39999997545965","sequential-stimulus-presentation","179","388190","0.0-35.0-1.4","SS1613080786554","trial","","40","800","1122.3999999754597","images/stimuli/spore_stims/complex_18_A_c.gif","images/stimuli/spore_stims/complex_13_A_c.gif","","","","","9","complex_dissimilar","images/stimuli/spore_stims/complex_13_A_c.gif","left","","","","",""
"","null","html-keyboard-response","180","389041","0.0-35.0-0.5","SS1613080786554","","","null","","","","","<p><img src= images/blank.png width =""200"" height = ""200"" style = ""float:right""></p><p><img src=images/blank.png width =""800"" height = ""200""></p>","","","","","","","","","","","",""
"","274.4599999859929","sequential-stimulus-presentation","181","390124","0.0-35.0-1.5","SS1613080786554","trial","","40","800","1074.459999985993","images/stimuli/spore_stims/complex_18_A_c.gif","images/stimuli/spore_stims/complex_13_A_c.gif","","","","","9","complex_dissimilar","images/stimuli/spore_stims/complex_13_A_c.gif","left","","","","",""
"","null","html-keyboard-response","182","391018","0.0-35.0-0.6","SS1613080786554","","","null","","","","","<p><img src= images/blank.png width =""200"" height = ""200"" style = ""float:right""></p><p><img src=images/blank.png width =""800"" height = ""200""></p>","","","","","","","","","","","",""
"","271.61999998497777","sequential-stimulus-presentation","183","392099","0.0-35.0-1.6","SS1613080786554","trial","","40","800","1071.6199999849778","images/stimuli/spore_stims/complex_18_A_c.gif","images/stimuli/spore_stims/complex_13_A_c.gif","","","","","9","complex_dissimilar","images/stimuli/spore_stims/complex_18_A_c.gif","right","","","","",""
"","null","html-keyboard-response","184","393269","0.0-35.0-0.7","SS1613080786554","","","null","","","","","<p><img src= images/blank.png width =""200"" height = ""200"" style = ""float:right""></p><p><img src=images/blank.png width =""800"" height = ""200""></p>","","","","","","","","","","","",""
"","391.105000016978","sequential-stimulus-presentation","185","394467","0.0-35.0-1.7","SS1613080786554","trial","","40","800","1191.105000016978","images/stimuli/spore_stims/complex_18_A_c.gif","images/stimuli/spore_stims/complex_13_A_c.gif","","","","","9","complex_dissimilar","images/stimuli/spore_stims/complex_13_A_c.gif","left","","","","",""
"","1842.754999990575","html-keyboard-response","186","396316","0.0-36.0","SS1613080786554","pref_question","","50","","","","","<video width ='960' height = '540' style='padding-top:8%' autoplay muted><source src='images/stimuli/wall_pref.mp4' type='video/mp4'></video>","2","middle","45%","9","","","","","","","",""
"","1206.0399999900255","sequential-stimulus-presentation","187","398331","0.0-37.0","SS1613080786554","pref_reveal","","40","800","2006.0399999900255","null","null","","","","","9","","","","novel","","","",""
"","null","html-keyboard-response","188","399479","0.0-38.0-0.0","SS1613080786554","","","null","","","","","<p><img src= images/blank.png width =""200"" height = ""200"" style = ""float:right""></p><p><img src=images/blank.png width =""800"" height = ""200""></p>","","","","","","","","","","","",""
"","889.8000000044703","sequential-stimulus-presentation","189","401178","0.0-38.0-1.0","SS1613080786554","trial","","40","800","1689.8000000044703","images/stimuli/spore_stims/simple_02_B_d.gif","images/stimuli/spore_stims/simple_02_A_d.gif","","","","","10","simple_similar","images/stimuli/spore_stims/simple_02_A_d.gif","right","","","","",""
"","null","html-keyboard-response","190","402263","0.0-38.0-0.1","SS1613080786554","","","null","","","","","<p><img src= images/blank.png width =""200"" height = ""200"" style = ""float:right""></p><p><img src=images/blank.png width =""800"" height = ""200""></p>","","","","","","","","","","","",""
"","2992.530000017723","sequential-stimulus-presentation","191","406062","0.0-38.0-1.1","SS1613080786554","trial","","40","800","3792.530000017723","images/stimuli/spore_stims/simple_02_B_d.gif","images/stimuli/spore_stims/simple_02_A_d.gif","","","","","10","simple_similar","images/stimuli/spore_stims/simple_02_A_d.gif","right","","","","",""
"","null","html-keyboard-response","192","407069","0.0-38.0-0.2","SS1613080786554","","","null","","","","","<p><img src= images/blank.png width =""200"" height = ""200"" style = ""float:right""></p><p><img src=images/blank.png width =""800"" height = ""200""></p>","","","","","","","","","","","",""
"","1081.6449999983888","sequential-stimulus-presentation","193","408961","0.0-38.0-1.2","SS1613080786554","trial","","40","800","1881.6449999983888","images/stimuli/spore_stims/simple_02_B_d.gif","images/stimuli/spore_stims/simple_02_A_d.gif","","","","","10","simple_similar","images/stimuli/spore_stims/simple_02_A_d.gif","right","","","","",""
"","null","html-keyboard-response","194","410126","0.0-38.0-0.3","SS1613080786554","","","null","","","","","<p><img src= images/blank.png width =""200"" height = ""200"" style = ""float:right""></p><p><img src=images/blank.png width =""800"" height = ""200""></p>","","","","","","","","","","","",""
"","1826.8950000056066","sequential-stimulus-presentation","195","412764","0.0-38.0-1.3","SS1613080786554","trial","","40","800","2626.8950000056066","images/stimuli/spore_stims/simple_02_B_d.gif","images/stimuli/spore_stims/simple_02_A_d.gif","","","","","10","simple_similar","images/stimuli/spore_stims/simple_02_B_d.gif","left","","","","",""
"","null","html-keyboard-response","196","413782","0.0-38.0-0.4","SS1613080786554","","","null","","","","","<p><img src= images/blank.png width =""200"" height = ""200"" style = ""float:right""></p><p><img src=images/blank.png width =""800"" height = ""200""></p>","","","","","","","","","","","",""
"","849.2649999971036","sequential-stimulus-presentation","197","415437","0.0-38.0-1.4","SS1613080786554","trial","","40","800","1649.2649999971036","images/stimuli/spore_stims/simple_02_B_d.gif","images/stimuli/spore_stims/simple_02_A_d.gif","","","","","10","simple_similar","images/stimuli/spore_stims/simple_02_A_d.gif","right","","","","",""
"","null","html-keyboard-response","198","416618","0.0-38.0-0.5","SS1613080786554","","","null","","","","","<p><img src= images/blank.png width =""200"" height = ""200"" style = ""float:right""></p><p><img src=images/blank.png width =""800"" height = ""200""></p>","","","","","","","","","","","",""
"","5605.864999990445","sequential-stimulus-presentation","199","423033","0.0-38.0-1.5","SS1613080786554","trial","","40","800","6405.864999990445","images/stimuli/spore_stims/simple_02_B_d.gif","images/stimuli/spore_stims/simple_02_A_d.gif","","","","","10","simple_similar","images/stimuli/spore_stims/simple_02_A_d.gif","right","","","","",""
"","null","html-keyboard-response","200","424020","0.0-38.0-0.6","SS1613080786554","","","null","","","","","<p><img src= images/blank.png width =""200"" height = ""200"" style = ""float:right""></p><p><img src=images/blank.png width =""800"" height = ""200""></p>","","","","","","","","","","","",""
"","1352.7149999863468","sequential-stimulus-presentation","201","426182","0.0-38.0-1.6","SS1613080786554","trial","","40","800","2152.714999986347","images/stimuli/spore_stims/simple_02_B_d.gif","images/stimuli/spore_stims/simple_02_A_d.gif","","","","","10","simple_similar","images/stimuli/spore_stims/simple_02_A_d.gif","right","","","","",""
"","null","html-keyboard-response","202","427315","0.0-38.0-0.7","SS1613080786554","","","null","","","","","<p><img src= images/blank.png width =""200"" height = ""200"" style = ""float:right""></p><p><img src=images/blank.png width =""800"" height = ""200""></p>","","","","","","","","","","","",""
"","467.01500000199303","sequential-stimulus-presentation","203","428587","0.0-38.0-1.7","SS1613080786554","trial","","40","800","1267.015000001993","images/stimuli/spore_stims/simple_02_B_d.gif","images/stimuli/spore_stims/simple_02_A_d.gif","","","","","10","simple_similar","images/stimuli/spore_stims/simple_02_A_d.gif","right","","","","",""
"","1148.2649999961723","html-keyboard-response","204","429740","0.0-39.0","SS1613080786554","pref_question","","50","","","","","<video width ='960' height = '540' style='padding-top:8%' autoplay muted><source src='images/stimuli/wall_pref.mp4' type='video/mp4'></video>","2","middle","45%","10","","","","","","","",""
"","2409.7750000073574","sequential-stimulus-presentation","205","432956","0.0-40.0","SS1613080786554","pref_reveal","","40","800","3209.7750000073574","null","null","","","","","10","","","","novel","","","",""
"","null","html-keyboard-response","206","434196","0.0-41.0-0.0","SS1613080786554","","","null","","","","","<p><img src= images/blank.png width =""200"" height = ""200"" style = ""float:right""></p><p><img src=images/blank.png width =""800"" height = ""200""></p>","","","","","","","","","","","",""
"","2663.315000012517","sequential-stimulus-presentation","207","437667","0.0-41.0-1.0","SS1613080786554","trial","","40","800","3463.315000012517","images/stimuli/spore_stims/simple_16_B_d.gif","images/stimuli/spore_stims/simple_16_A_d.gif","","","","","11","simple_similar","images/stimuli/spore_stims/simple_16_A_d.gif","right","","","","",""
"","null","html-keyboard-response","208","438942","0.0-41.0-0.1","SS1613080786554","","","null","","","","","<p><img src= images/blank.png width =""200"" height = ""200"" style = ""float:right""></p><p><img src=images/blank.png width =""800"" height = ""200""></p>","","","","","","","","","","","",""
"","880.1899999962188","sequential-stimulus-presentation","209","440630","0.0-41.0-1.1","SS1613080786554","trial","","40","800","1680.1899999962188","images/stimuli/spore_stims/simple_16_B_d.gif","images/stimuli/spore_stims/simple_16_A_d.gif","","","","","11","simple_similar","images/stimuli/spore_stims/simple_16_A_d.gif","right","","","","",""
"","null","html-keyboard-response","210","441797","0.0-41.0-0.2","SS1613080786554","","","null","","","","","<p><img src= images/blank.png width =""200"" height = ""200"" style = ""float:right""></p><p><img src=images/blank.png width =""800"" height = ""200""></p>","","","","","","","","","","","",""
"","984.9300000059884","sequential-stimulus-presentation","211","443592","0.0-41.0-1.2","SS1613080786554","trial","","40","800","1784.9300000059884","images/stimuli/spore_stims/simple_16_B_d.gif","images/stimuli/spore_stims/simple_16_A_d.gif","","","","","11","simple_similar","images/stimuli/spore_stims/simple_16_A_d.gif","right","","","","",""
"","null","html-keyboard-response","212","444528","0.0-41.0-0.3","SS1613080786554","","","null","","","","","<p><img src= images/blank.png width =""200"" height = ""200"" style = ""float:right""></p><p><img src=images/blank.png width =""800"" height = ""200""></p>","","","","","","","","","","","",""
"","1108.4700000064913","sequential-stimulus-presentation","213","446445","0.0-41.0-1.3","SS1613080786554","trial","","40","800","1908.4700000064913","images/stimuli/spore_stims/simple_16_B_d.gif","images/stimuli/spore_stims/simple_16_A_d.gif","","","","","11","simple_similar","images/stimuli/spore_stims/simple_16_A_d.gif","right","","","","",""
"","null","html-keyboard-response","214","447729","0.0-41.0-0.4","SS1613080786554","","","null","","","","","<p><img src= images/blank.png width =""200"" height = ""200"" style = ""float:right""></p><p><img src=images/blank.png width =""800"" height = ""200""></p>","","","","","","","","","","","",""
"","1639.244999998482","sequential-stimulus-presentation","215","450175","0.0-41.0-1.4","SS1613080786554","trial","","40","800","2439.244999998482","images/stimuli/spore_stims/simple_16_B_d.gif","images/stimuli/spore_stims/simple_16_A_d.gif","","","","","11","simple_similar","images/stimuli/spore_stims/simple_16_A_d.gif","right","","","","",""
"","null","html-keyboard-response","216","451051","0.0-41.0-0.5","SS1613080786554","","","null","","","","","<p><img src= images/blank.png width =""200"" height = ""200"" style = ""float:right""></p><p><img src=images/blank.png width =""800"" height = ""200""></p>","","","","","","","","","","","",""
"","448.0150000017602","sequential-stimulus-presentation","217","452307","0.0-41.0-1.5","SS1613080786554","trial","","40","800","1248.0150000017602","images/stimuli/spore_stims/simple_16_B_d.gif","images/stimuli/spore_stims/simple_16_A_d.gif","","","","","11","simple_similar","images/stimuli/spore_stims/simple_16_A_d.gif","right","","","","",""
"","null","html-keyboard-response","218","453279","0.0-41.0-0.6","SS1613080786554","","","null","","","","","<p><img src= images/blank.png width =""200"" height = ""200"" style = ""float:right""></p><p><img src=images/blank.png width =""800"" height = ""200""></p>","","","","","","","","","","","",""
"","1552.0399999804795","sequential-stimulus-presentation","219","455638","0.0-41.0-1.6","SS1613080786554","trial","","40","800","2352.0399999804795","images/stimuli/spore_stims/simple_16_B_d.gif","images/stimuli/spore_stims/simple_16_A_d.gif","","","","","11","simple_similar","images/stimuli/spore_stims/simple_16_A_d.gif","right","","","","",""
"","null","html-keyboard-response","220","456919","0.0-41.0-0.7","SS1613080786554","","","null","","","","","<p><img src= images/blank.png width =""200"" height = ""200"" style = ""float:right""></p><p><img src=images/blank.png width =""800"" height = ""200""></p>","","","","","","","","","","","",""
"","698.7749999971129","sequential-stimulus-presentation","221","458425","0.0-41.0-1.7","SS1613080786554","trial","","40","800","1498.774999997113","images/stimuli/spore_stims/simple_16_B_d.gif","images/stimuli/spore_stims/simple_16_A_d.gif","","","","","11","simple_similar","images/stimuli/spore_stims/simple_16_B_d.gif","middle","","","","",""
"","1785.4150000202935","html-keyboard-response","222","460215","0.0-42.0","SS1613080786554","pref_question","","49","","","","","<video width ='960' height = '540' style='padding-top:8%' autoplay muted><source src='images/stimuli/wall_pref.mp4' type='video/mp4'></video>","1","left","25%","11","","","","","","","",""
"","11832.61000001221","sequential-stimulus-presentation","223","472857","0.0-43.0","SS1613080786554","pref_reveal","","40","800","12632.61000001221","null","null","","","","","11","","","","novel","","","",""
"","null","html-keyboard-response","224","474113","0.0-44.0-0.0","SS1613080786554","","","null","","","","","<p><img src= images/blank.png width =""200"" height = ""200"" style = ""float:right""></p><p><img src=images/blank.png width =""800"" height = ""200""></p>","","","","","","","","","","","",""
"","730.0099999993108","sequential-stimulus-presentation","225","475650","0.0-44.0-1.0","SS1613080786554","trial","","40","800","1530.0099999993108","images/stimuli/spore_stims/complex_03_A_d.gif","images/stimuli/spore_stims/complex_10_A_c.gif","","","","","12","complex_dissimilar","images/stimuli/spore_stims/complex_10_A_c.gif","left","","","","",""
"","null","html-keyboard-response","226","476532","0.0-44.0-0.1","SS1613080786554","","","null","","","","","<p><img src= images/blank.png width =""200"" height = ""200"" style = ""float:right""></p><p><img src=images/blank.png width =""800"" height = ""200""></p>","","","","","","","","","","","",""
"","695.2999999921303","sequential-stimulus-presentation","227","478034","0.0-44.0-1.1","SS1613080786554","trial","","40","800","1495.2999999921303","images/stimuli/spore_stims/complex_03_A_d.gif","images/stimuli/spore_stims/complex_10_A_c.gif","","","","","12","complex_dissimilar","images/stimuli/spore_stims/complex_10_A_c.gif","left","","","","",""
"","null","html-keyboard-response","228","479032","0.0-44.0-0.2","SS1613080786554","","","null","","","","","<p><img src= images/blank.png width =""200"" height = ""200"" style = ""float:right""></p><p><img src=images/blank.png width =""800"" height = ""200""></p>","","","","","","","","","","","",""
"","2322.214999992866","sequential-stimulus-presentation","229","482162","0.0-44.0-1.2","SS1613080786554","trial","","40","800","3122.214999992866","images/stimuli/spore_stims/complex_03_A_d.gif","images/stimuli/spore_stims/complex_10_A_c.gif","","","","","12","complex_dissimilar","images/stimuli/spore_stims/complex_10_A_c.gif","left","","","","",""
"","null","html-keyboard-response","230","483296","0.0-44.0-0.3","SS1613080786554","","","null","","","","","<p><img src= images/blank.png width =""200"" height = ""200"" style = ""float:right""></p><p><img src=images/blank.png width =""800"" height = ""200""></p>","","","","","","","","","","","",""
"","19.9350000184495","sequential-stimulus-presentation","231","484130","0.0-44.0-1.3","SS1613080786554","trial","","40","800","819.9350000184495","images/stimuli/spore_stims/complex_03_A_d.gif","images/stimuli/spore_stims/complex_10_A_c.gif","","","","","12","complex_dissimilar","images/stimuli/spore_stims/complex_03_A_d.gif","right","","","","",""
"","null","html-keyboard-response","232","485146","0.0-44.0-0.4","SS1613080786554","","","null","","","","","<p><img src= images/blank.png width =""200"" height = ""200"" style = ""float:right""></p><p><img src=images/blank.png width =""800"" height = ""200""></p>","","","","","","","","","","","",""
"","520.9200000099372","sequential-stimulus-presentation","233","486474","0.0-44.0-1.4","SS1613080786554","trial","","40","800","1320.9200000099372","images/stimuli/spore_stims/complex_03_A_d.gif","images/stimuli/spore_stims/complex_10_A_c.gif","","","","","12","complex_dissimilar","images/stimuli/spore_stims/complex_10_A_c.gif","left","","","","",""
"","null","html-keyboard-response","234","487760","0.0-44.0-0.5","SS1613080786554","","","null","","","","","<p><img src= images/blank.png width =""200"" height = ""200"" style = ""float:right""></p><p><img src=images/blank.png width =""800"" height = ""200""></p>","","","","","","","","","","","",""
"","1047.1599999873433","sequential-stimulus-presentation","235","489618","0.0-44.0-1.5","SS1613080786554","trial","","40","800","1847.1599999873433","images/stimuli/spore_stims/complex_03_A_d.gif","images/stimuli/spore_stims/complex_10_A_c.gif","","","","","12","complex_dissimilar","images/stimuli/spore_stims/complex_10_A_c.gif","left","","","","",""
"","null","html-keyboard-response","236","490590","0.0-44.0-0.6","SS1613080786554","","","null","","","","","<p><img src= images/blank.png width =""200"" height = ""200"" style = ""float:right""></p><p><img src=images/blank.png width =""800"" height = ""200""></p>","","","","","","","","","","","",""
"","989.2800000088755","sequential-stimulus-presentation","237","492386","0.0-44.0-1.6","SS1613080786554","trial","","40","800","1789.2800000088755","images/stimuli/spore_stims/complex_03_A_d.gif","images/stimuli/spore_stims/complex_10_A_c.gif","","","","","12","complex_dissimilar","images/stimuli/spore_stims/complex_10_A_c.gif","left","","","","",""
"","null","html-keyboard-response","238","493534","0.0-44.0-0.7","SS1613080786554","","","null","","","","","<p><img src= images/blank.png width =""200"" height = ""200"" style = ""float:right""></p><p><img src=images/blank.png width =""800"" height = ""200""></p>","","","","","","","","","","","",""
"","362.9899999941699","sequential-stimulus-presentation","239","494721","0.0-44.0-1.7","SS1613080786554","trial","","40","800","1162.98999999417","images/stimuli/spore_stims/complex_03_A_d.gif","images/stimuli/spore_stims/complex_10_A_c.gif","","","","","12","complex_dissimilar","images/stimuli/spore_stims/complex_10_A_c.gif","left","","","","",""
"","1519.8049999889918","html-keyboard-response","240","496247","0.0-45.0","SS1613080786554","pref_question","","50","","","","","<video width ='960' height = '540' style='padding-top:8%' autoplay muted><source src='images/stimuli/wall_pref.mp4' type='video/mp4'></video>","2","middle","45%","12","","","","","","","",""
"","1270.440000022063","sequential-stimulus-presentation","241","498328","0.0-46.0","SS1613080786554","pref_reveal","","40","800","2070.440000022063","null","null","","","","","12","","","","novel","","","",""
"","null","html-keyboard-response","242","499270","0.0-47.0-0.0","SS1613080786554","","","null","","","","","<p><img src= images/blank.png width =""200"" height = ""200"" style = ""float:right""></p><p><img src=images/blank.png width =""800"" height = ""200""></p>","","","","","","","","","","","",""
"","904.9200000008568","sequential-stimulus-presentation","243","500983","0.0-47.0-1.0","SS1613080786554","trial","","40","800","1704.9200000008568","images/stimuli/spore_stims/complex_15_A_d.gif","images/stimuli/spore_stims/complex_15_B_d.gif","","","","","13","complex_similar","images/stimuli/spore_stims/complex_15_B_d.gif","right","","","","",""
"","null","html-keyboard-response","244","501987","0.0-47.0-0.1","SS1613080786554","","","null","","","","","<p><img src= images/blank.png width =""200"" height = ""200"" style = ""float:right""></p><p><img src=images/blank.png width =""800"" height = ""200""></p>","","","","","","","","","","","",""
"","290.70499999215826","sequential-stimulus-presentation","245","503090","0.0-47.0-1.1","SS1613080786554","trial","","40","800","1090.7049999921583","images/stimuli/spore_stims/complex_15_A_d.gif","images/stimuli/spore_stims/complex_15_B_d.gif","","","","","13","complex_similar","images/stimuli/spore_stims/complex_15_B_d.gif","right","","","","",""
"","null","html-keyboard-response","246","504160","0.0-47.0-0.2","SS1613080786554","","","null","","","","","<p><img src= images/blank.png width =""200"" height = ""200"" style = ""float:right""></p><p><img src=images/blank.png width =""800"" height = ""200""></p>","","","","","","","","","","","",""
"","135.63999999314547","sequential-stimulus-presentation","247","505106","0.0-47.0-1.2","SS1613080786554","trial","","40","800","935.6399999931455","images/stimuli/spore_stims/complex_15_A_d.gif","images/stimuli/spore_stims/complex_15_B_d.gif","","","","","13","complex_similar","images/stimuli/spore_stims/complex_15_B_d.gif","right","","","","",""
"","null","html-keyboard-response","248","506228","0.0-47.0-0.3","SS1613080786554","","","null","","","","","<p><img src= images/blank.png width =""200"" height = ""200"" style = ""float:right""></p><p><img src=images/blank.png width =""800"" height = ""200""></p>","","","","","","","","","","","",""
"","291.8049999861978","sequential-stimulus-presentation","249","507330","0.0-47.0-1.3","SS1613080786554","trial","","40","800","1091.8049999861978","images/stimuli/spore_stims/complex_15_A_d.gif","images/stimuli/spore_stims/complex_15_B_d.gif","","","","","13","complex_similar","images/stimuli/spore_stims/complex_15_B_d.gif","right","","","","",""
"","null","html-keyboard-response","250","508564","0.0-47.0-0.4","SS1613080786554","","","null","","","","","<p><img src= images/blank.png width =""200"" height = ""200"" style = ""float:right""></p><p><img src=images/blank.png width =""800"" height = ""200""></p>","","","","","","","","","","","",""
"","827.1750000130851","sequential-stimulus-presentation","251","510200","0.0-47.0-1.4","SS1613080786554","trial","","40","800","1627.175000013085","images/stimuli/spore_stims/complex_15_A_d.gif","images/stimuli/spore_stims/complex_15_B_d.gif","","","","","13","complex_similar","images/stimuli/spore_stims/complex_15_B_d.gif","right","","","","",""
"","null","html-keyboard-response","252","511399","0.0-47.0-0.5","SS1613080786554","","","null","","","","","<p><img src= images/blank.png width =""200"" height = ""200"" style = ""float:right""></p><p><img src=images/blank.png width =""800"" height = ""200""></p>","","","","","","","","","","","",""
"","325.3700000059325","sequential-stimulus-presentation","253","512533","0.0-47.0-1.5","SS1613080786554","trial","","40","800","1125.3700000059325","images/stimuli/spore_stims/complex_15_A_d.gif","images/stimuli/spore_stims/complex_15_B_d.gif","","","","","13","complex_similar","images/stimuli/spore_stims/complex_15_B_d.gif","right","","","","",""
"","null","html-keyboard-response","254","513471","0.0-47.0-0.6","SS1613080786554","","","null","","","","","<p><img src= images/blank.png width =""200"" height = ""200"" style = ""float:right""></p><p><img src=images/blank.png width =""800"" height = ""200""></p>","","","","","","","","","","","",""
"","519.7299999999814","sequential-stimulus-presentation","255","514800","0.0-47.0-1.6","SS1613080786554","trial","","40","800","1319.7299999999814","images/stimuli/spore_stims/complex_15_A_d.gif","images/stimuli/spore_stims/complex_15_B_d.gif","","","","","13","complex_similar","images/stimuli/spore_stims/complex_15_B_d.gif","right","","","","",""
"","null","html-keyboard-response","256","515645","0.0-47.0-0.7","SS1613080786554","","","null","","","","","<p><img src= images/blank.png width =""200"" height = ""200"" style = ""float:right""></p><p><img src=images/blank.png width =""800"" height = ""200""></p>","","","","","","","","","","","",""
"","1958.199999993667","sequential-stimulus-presentation","257","518414","0.0-47.0-1.7","SS1613080786554","trial","","40","800","2758.199999993667","images/stimuli/spore_stims/complex_15_A_d.gif","images/stimuli/spore_stims/complex_15_B_d.gif","","","","","13","complex_similar","images/stimuli/spore_stims/complex_15_A_d.gif","middle","","","","",""
"","994.074999995064","html-keyboard-response","258","519425","0.0-48.0","SS1613080786554","pref_question","","49","","","","","<video width ='960' height = '540' style='padding-top:8%' autoplay muted><source src='images/stimuli/wall_pref.mp4' type='video/mp4'></video>","1","left","25%","13","","","","","","","",""
"","1129.0700000245124","sequential-stimulus-presentation","259","521368","0.0-49.0","SS1613080786554","pref_reveal","","40","800","1929.0700000245124","null","null","","","","","13","","","","novel","","","",""
"","null","html-keyboard-response","260","522298","0.0-50.0-0.0","SS1613080786554","","","null","","","","","<p><img src= images/blank.png width =""200"" height = ""200"" style = ""float:right""></p><p><img src=images/blank.png width =""800"" height = ""200""></p>","","","","","","","","","","","",""
"","746.6199999907985","sequential-stimulus-presentation","261","523855","0.0-50.0-1.0","SS1613080786554","trial","","40","800","1546.6199999907985","images/stimuli/spore_stims/simple_20_B_c.gif","images/stimuli/spore_stims/simple_20_A_c.gif","","","","","14","simple_similar","images/stimuli/spore_stims/simple_20_A_c.gif","left","","","","",""
"","null","html-keyboard-response","262","524971","0.0-50.0-0.1","SS1613080786554","","","null","","","","","<p><img src= images/blank.png width =""200"" height = ""200"" style = ""float:right""></p><p><img src=images/blank.png width =""800"" height = ""200""></p>","","","","","","","","","","","",""
"","422.0449999847915","sequential-stimulus-presentation","263","526217","0.0-50.0-1.1","SS1613080786554","trial","","40","800","1222.0449999847915","images/stimuli/spore_stims/simple_20_B_c.gif","images/stimuli/spore_stims/simple_20_A_c.gif","","","","","14","simple_similar","images/stimuli/spore_stims/simple_20_A_c.gif","left","","","","",""
"","null","html-keyboard-response","264","527272","0.0-50.0-0.2","SS1613080786554","","","null","","","","","<p><img src= images/blank.png width =""200"" height = ""200"" style = ""float:right""></p><p><img src=images/blank.png width =""800"" height = ""200""></p>","","","","","","","","","","","",""
"","382.67500000074506","sequential-stimulus-presentation","265","528466","0.0-50.0-1.2","SS1613080786554","trial","","40","800","1182.675000000745","images/stimuli/spore_stims/simple_20_B_c.gif","images/stimuli/spore_stims/simple_20_A_c.gif","","","","","14","simple_similar","images/stimuli/spore_stims/simple_20_B_c.gif","right","","","","",""
"","null","html-keyboard-response","266","529614","0.0-50.0-0.3","SS1613080786554","","","null","","","","","<p><img src= images/blank.png width =""200"" height = ""200"" style = ""float:right""></p><p><img src=images/blank.png width =""800"" height = ""200""></p>","","","","","","","","","","","",""
"","4.87000000430271","sequential-stimulus-presentation","267","530427","0.0-50.0-1.3","SS1613080786554","trial","","40","800","804.8700000043027","images/stimuli/spore_stims/simple_20_B_c.gif","images/stimuli/spore_stims/simple_20_A_c.gif","","","","","14","simple_similar","images/stimuli/spore_stims/simple_20_A_c.gif","left","","","","",""
"","null","html-keyboard-response","268","531530","0.0-50.0-0.4","SS1613080786554","","","null","","","","","<p><img src= images/blank.png width =""200"" height = ""200"" style = ""float:right""></p><p><img src=images/blank.png width =""800"" height = ""200""></p>","","","","","","","","","","","",""
"","261.72999999835156","sequential-stimulus-presentation","269","532603","0.0-50.0-1.4","SS1613080786554","trial","","40","800","1061.7299999983516","images/stimuli/spore_stims/simple_20_B_c.gif","images/stimuli/spore_stims/simple_20_A_c.gif","","","","","14","simple_similar","images/stimuli/spore_stims/simple_20_A_c.gif","left","","","","",""
"","null","html-keyboard-response","270","533471","0.0-50.0-0.5","SS1613080786554","","","null","","","","","<p><img src= images/blank.png width =""200"" height = ""200"" style = ""float:right""></p><p><img src=images/blank.png width =""800"" height = ""200""></p>","","","","","","","","","","","",""
"","623.699999996461","sequential-stimulus-presentation","271","534903","0.0-50.0-1.5","SS1613080786554","trial","","40","800","1423.699999996461","images/stimuli/spore_stims/simple_20_B_c.gif","images/stimuli/spore_stims/simple_20_A_c.gif","","","","","14","simple_similar","images/stimuli/spore_stims/simple_20_A_c.gif","left","","","","",""
"","null","html-keyboard-response","272","536038","0.0-50.0-0.6","SS1613080786554","","","null","","","","","<p><img src= images/blank.png width =""200"" height = ""200"" style = ""float:right""></p><p><img src=images/blank.png width =""800"" height = ""200""></p>","","","","","","","","","","","",""
"","40.60500001651235","sequential-stimulus-presentation","273","536888","0.0-50.0-1.6","SS1613080786554","trial","","40","800","840.6050000165123","images/stimuli/spore_stims/simple_20_B_c.gif","images/stimuli/spore_stims/simple_20_A_c.gif","","","","","14","simple_similar","images/stimuli/spore_stims/simple_20_A_c.gif","left","","","","",""
"","null","html-keyboard-response","274","538162","0.0-50.0-0.7","SS1613080786554","","","null","","","","","<p><img src= images/blank.png width =""200"" height = ""200"" style = ""float:right""></p><p><img src=images/blank.png width =""800"" height = ""200""></p>","","","","","","","","","","","",""
"","265.00499999383464","sequential-stimulus-presentation","275","539235","0.0-50.0-1.7","SS1613080786554","trial","","40","800","1065.0049999938346","images/stimuli/spore_stims/simple_20_B_c.gif","images/stimuli/spore_stims/simple_20_A_c.gif","","","","","14","simple_similar","images/stimuli/spore_stims/simple_20_A_c.gif","left","","","","",""
"","1423.2999999949243","html-keyboard-response","276","540664","0.0-51.0","SS1613080786554","pref_question","","51","","","","","<video width ='960' height = '540' style='padding-top:8%' autoplay muted><source src='images/stimuli/wall_pref.mp4' type='video/mp4'></video>","3","right","66%","14","","","","","","","",""
"","438.97499999729916","sequential-stimulus-presentation","277","541914","0.0-52.0","SS1613080786554","pref_reveal","","40","800","1238.9749999972992","null","null","","","","","14","","","","deviant","","","",""
"","null","html-keyboard-response","278","543192","0.0-53.0-0.0","SS1613080786554","","","null","","","","","<p><img src= images/blank.png width =""200"" height = ""200"" style = ""float:right""></p><p><img src=images/blank.png width =""800"" height = ""200""></p>","","","","","","","","","","","",""
"","906.9850000087172","sequential-stimulus-presentation","279","544911","0.0-53.0-1.0","SS1613080786554","trial","","40","800","1706.9850000087172","images/stimuli/spore_stims/complex_01_B_d.gif","images/stimuli/spore_stims/complex_07_B_c.gif","","","","","15","complex_dissimilar","images/stimuli/spore_stims/complex_07_B_c.gif","middle","","","","",""
"","null","html-keyboard-response","280","545809","0.0-53.0-0.1","SS1613080786554","","","null","","","","","<p><img src= images/blank.png width =""200"" height = ""200"" style = ""float:right""></p><p><img src=images/blank.png width =""800"" height = ""200""></p>","","","","","","","","","","","",""
"","394.6799999976065","sequential-stimulus-presentation","281","547024","0.0-53.0-1.1","SS1613080786554","trial","","40","800","1194.6799999976065","images/stimuli/spore_stims/complex_01_B_d.gif","images/stimuli/spore_stims/complex_07_B_c.gif","","","","","15","complex_dissimilar","images/stimuli/spore_stims/complex_07_B_c.gif","middle","","","","",""
"","null","html-keyboard-response","282","548146","0.0-53.0-0.2","SS1613080786554","","","null","","","","","<p><img src= images/blank.png width =""200"" height = ""200"" style = ""float:right""></p><p><img src=images/blank.png width =""800"" height = ""200""></p>","","","","","","","","","","","",""
"","279.76000000489876","sequential-stimulus-presentation","283","549233","0.0-53.0-1.2","SS1613080786554","trial","","40","800","1079.7600000048988","images/stimuli/spore_stims/complex_01_B_d.gif","images/stimuli/spore_stims/complex_07_B_c.gif","","","","","15","complex_dissimilar","images/stimuli/spore_stims/complex_07_B_c.gif","middle","","","","",""
"","null","html-keyboard-response","284","550042","0.0-53.0-0.3","SS1613080786554","","","null","","","","","<p><img src= images/blank.png width =""200"" height = ""200"" style = ""float:right""></p><p><img src=images/blank.png width =""800"" height = ""200""></p>","","","","","","","","","","","",""
"","459.0250000183005","sequential-stimulus-presentation","285","551308","0.0-53.0-1.3","SS1613080786554","trial","","40","800","1259.0250000183005","images/stimuli/spore_stims/complex_01_B_d.gif","images/stimuli/spore_stims/complex_07_B_c.gif","","","","","15","complex_dissimilar","images/stimuli/spore_stims/complex_07_B_c.gif","middle","","","","",""
"","null","html-keyboard-response","286","552270","0.0-53.0-0.4","SS1613080786554","","","null","","","","","<p><img src= images/blank.png width =""200"" height = ""200"" style = ""float:right""></p><p><img src=images/blank.png width =""800"" height = ""200""></p>","","","","","","","","","","","",""
"","411.29000001819804","sequential-stimulus-presentation","287","553488","0.0-53.0-1.4","SS1613080786554","trial","","40","800","1211.290000018198","images/stimuli/spore_stims/complex_01_B_d.gif","images/stimuli/spore_stims/complex_07_B_c.gif","","","","","15","complex_dissimilar","images/stimuli/spore_stims/complex_07_B_c.gif","middle","","","","",""
"","null","html-keyboard-response","288","554515","0.0-53.0-0.5","SS1613080786554","","","null","","","","","<p><img src= images/blank.png width =""200"" height = ""200"" style = ""float:right""></p><p><img src=images/blank.png width =""800"" height = ""200""></p>","","","","","","","","","","","",""
"","744.8249999724794","sequential-stimulus-presentation","289","556067","0.0-53.0-1.5","SS1613080786554","trial","","40","800","1544.8249999724794","images/stimuli/spore_stims/complex_01_B_d.gif","images/stimuli/spore_stims/complex_07_B_c.gif","","","","","15","complex_dissimilar","images/stimuli/spore_stims/complex_07_B_c.gif","middle","","","","",""
"","null","html-keyboard-response","290","557048","0.0-53.0-0.6","SS1613080786554","","","null","","","","","<p><img src= images/blank.png width =""200"" height = ""200"" style = ""float:right""></p><p><img src=images/blank.png width =""800"" height = ""200""></p>","","","","","","","","","","","",""
"","2084.369999996852","sequential-stimulus-presentation","291","559945","0.0-53.0-1.6","SS1613080786554","trial","","40","800","2884.369999996852","images/stimuli/spore_stims/complex_01_B_d.gif","images/stimuli/spore_stims/complex_07_B_c.gif","","","","","15","complex_dissimilar","images/stimuli/spore_stims/complex_01_B_d.gif","left","","","","",""
"","null","html-keyboard-response","292","561150","0.0-53.0-0.7","SS1613080786554","","","null","","","","","<p><img src= images/blank.png width =""200"" height = ""200"" style = ""float:right""></p><p><img src=images/blank.png width =""800"" height = ""200""></p>","","","","","","","","","","","",""
"","713.835000002291","sequential-stimulus-presentation","293","562673","0.0-53.0-1.7","SS1613080786554","trial","","40","800","1513.835000002291","images/stimuli/spore_stims/complex_01_B_d.gif","images/stimuli/spore_stims/complex_07_B_c.gif","","","","","15","complex_dissimilar","images/stimuli/spore_stims/complex_07_B_c.gif","middle","","","","",""
"","634.185000002617","html-keyboard-response","294","563313","0.0-54.0","SS1613080786554","pref_question","","51","","","","","<video width ='960' height = '540' style='padding-top:8%' autoplay muted><source src='images/stimuli/wall_pref.mp4' type='video/mp4'></video>","3","right","66%","15","","","","","","","",""
"","518.6650000105146","sequential-stimulus-presentation","295","564641","0.0-55.0","SS1613080786554","pref_reveal","","40","800","1318.6650000105146","null","null","","","","","15","","","","novel","","","",""
"","null","html-keyboard-response","296","565727","0.0-56.0-0.0","SS1613080786554","","","null","","","","","<p><img src= images/blank.png width =""200"" height = ""200"" style = ""float:right""></p><p><img src=images/blank.png width =""800"" height = ""200""></p>","","","","","","","","","","","",""
"","522.1650000021327","sequential-stimulus-presentation","297","567061","0.0-56.0-1.0","SS1613080786554","trial","","40","800","1322.1650000021327","images/stimuli/spore_stims/complex_14_B_a.gif","images/stimuli/spore_stims/complex_14_A_a.gif","","","","","16","complex_similar","images/stimuli/spore_stims/complex_14_A_a.gif","left","","","","",""
"","null","html-keyboard-response","298","568164","0.0-56.0-0.1","SS1613080786554","","","null","","","","","<p><img src= images/blank.png width =""200"" height = ""200"" style = ""float:right""></p><p><img src=images/blank.png width =""800"" height = ""200""></p>","","","","","","","","","","","",""
"","215.70000000065193","sequential-stimulus-presentation","299","569189","0.0-56.0-1.1","SS1613080786554","trial","","40","800","1015.7000000006519","images/stimuli/spore_stims/complex_14_B_a.gif","images/stimuli/spore_stims/complex_14_A_a.gif","","","","","16","complex_similar","images/stimuli/spore_stims/complex_14_A_a.gif","left","","","","",""
"","null","html-keyboard-response","300","570448","0.0-56.0-0.2","SS1613080786554","","","null","","","","","<p><img src= images/blank.png width =""200"" height = ""200"" style = ""float:right""></p><p><img src=images/blank.png width =""800"" height = ""200""></p>","","","","","","","","","","","",""
"","487.9149999760557","sequential-stimulus-presentation","301","571746","0.0-56.0-1.2","SS1613080786554","trial","","40","800","1287.9149999760557","images/stimuli/spore_stims/complex_14_B_a.gif","images/stimuli/spore_stims/complex_14_A_a.gif","","","","","16","complex_similar","images/stimuli/spore_stims/complex_14_A_a.gif","left","","","","",""
"","null","html-keyboard-response","302","572868","0.0-56.0-0.3","SS1613080786554","","","null","","","","","<p><img src= images/blank.png width =""200"" height = ""200"" style = ""float:right""></p><p><img src=images/blank.png width =""800"" height = ""200""></p>","","","","","","","","","","","",""
"","265.21000001230277","sequential-stimulus-presentation","303","573941","0.0-56.0-1.3","SS1613080786554","trial","","40","800","1065.2100000123028","images/stimuli/spore_stims/complex_14_B_a.gif","images/stimuli/spore_stims/complex_14_A_a.gif","","","","","16","complex_similar","images/stimuli/spore_stims/complex_14_A_a.gif","left","","","","",""
"","null","html-keyboard-response","304","575143","0.0-56.0-0.4","SS1613080786554","","","null","","","","","<p><img src= images/blank.png width =""200"" height = ""200"" style = ""float:right""></p><p><img src=images/blank.png width =""800"" height = ""200""></p>","","","","","","","","","","","",""
"","218.07500001159497","sequential-stimulus-presentation","305","576172","0.0-56.0-1.4","SS1613080786554","trial","","40","800","1018.075000011595","images/stimuli/spore_stims/complex_14_B_a.gif","images/stimuli/spore_stims/complex_14_A_a.gif","","","","","16","complex_similar","images/stimuli/spore_stims/complex_14_A_a.gif","left","","","","",""
"","null","html-keyboard-response","306","577224","0.0-56.0-0.5","SS1613080786554","","","null","","","","","<p><img src= images/blank.png width =""200"" height = ""200"" style = ""float:right""></p><p><img src=images/blank.png width =""800"" height = ""200""></p>","","","","","","","","","","","",""
"","376.86000001849607","sequential-stimulus-presentation","307","578413","0.0-56.0-1.5","SS1613080786554","trial","","40","800","1176.860000018496","images/stimuli/spore_stims/complex_14_B_a.gif","images/stimuli/spore_stims/complex_14_A_a.gif","","","","","16","complex_similar","images/stimuli/spore_stims/complex_14_A_a.gif","left","","","","",""
"","null","html-keyboard-response","308","579450","0.0-56.0-0.6","SS1613080786554","","","null","","","","","<p><img src= images/blank.png width =""200"" height = ""200"" style = ""float:right""></p><p><img src=images/blank.png width =""800"" height = ""200""></p>","","","","","","","","","","","",""
"","113.6500000138767","sequential-stimulus-presentation","309","580372","0.0-56.0-1.6","SS1613080786554","trial","","40","800","913.6500000138767","images/stimuli/spore_stims/complex_14_B_a.gif","images/stimuli/spore_stims/complex_14_A_a.gif","","","","","16","complex_similar","images/stimuli/spore_stims/complex_14_A_a.gif","left","","","","",""
"","null","html-keyboard-response","310","581662","0.0-56.0-0.7","SS1613080786554","","","null","","","","","<p><img src= images/blank.png width =""200"" height = ""200"" style = ""float:right""></p><p><img src=images/blank.png width =""800"" height = ""200""></p>","","","","","","","","","","","",""
"","233.69500000262633","sequential-stimulus-presentation","311","582706","0.0-56.0-1.7","SS1613080786554","trial","","40","800","1033.6950000026263","images/stimuli/spore_stims/complex_14_B_a.gif","images/stimuli/spore_stims/complex_14_A_a.gif","","","","","16","complex_similar","images/stimuli/spore_stims/complex_14_B_a.gif","right","","","","",""
"","1106.9049999932759","html-keyboard-response","312","583825","0.0-57.0","SS1613080786554","pref_question","","50","","","","","<video width ='960' height = '540' style='padding-top:8%' autoplay muted><source src='images/stimuli/wall_pref.mp4' type='video/mp4'></video>","2","middle","45%","16","","","","","","","",""
