"view_history","rt","trial_type","trial_index","time_elapsed","internal_node_id","subject","stimulus_type","trial_stimulus","key_press","minimum_viewing_duration","trial_looking_time","block_deviant","block_background","stimulus","wall_pref","location","location_percent","block_number","block_type","stimulus_displayed","position_displayed","stim_type_selected"
"[{""page_index"":0,""viewing_time"":3338.7600000132807}]","3340.550000022631","instructions","0","3344","0.0-0.0","SS1613099237624","","","","","","","","","","","","","","","",""
"[{""page_index"":0,""viewing_time"":1634.4499999831896},{""page_index"":1,""viewing_time"":3077.530000009574}]","4712.614999996731","instructions","1","10062","0.0-1.0","SS1613099237624","instructions","","","","","","","","","","","","","","",""
"","3144.929999980377","sequential-stimulus-presentation","2","14017","0.0-2.0","SS1613099237624","","","40","800","3944.929999980377","null","null","","","","","","","","",""
"","241.62000001524575","sequential-stimulus-presentation","3","15067","0.0-3.0","SS1613099237624","","","40","800","1041.6200000152458","null","null","","","","","","","","",""
"[{""page_index"":0,""viewing_time"":2577.9200000106357}]","2578.5650000034366","instructions","4","17647","0.0-4.0","SS1613099237624","instructions","","","","","","","","","","","","","","",""
"","3857.8550000092946","html-keyboard-response","5","21514","0.0-5.0","SS1613099237624","instructions","","50","","","","","<video width ='960' height = '540' autoplay muted><source src='images/stimuli/wall_pref.mp4' type='video/mp4'></video>","2","middle","45%","","","","",""
"","1674.4349999935366","sequential-stimulus-presentation","6","24003","0.0-6.0","SS1613099237624","pref_reveal","","40","800","2474.4349999935366","null","null","","","","","","","","",""
"[{""page_index"":0,""viewing_time"":2125.1000000047497},{""page_index"":1,""viewing_time"":1239.2699999909382},{""page_index"":2,""viewing_time"":1570.6650000065565},{""page_index"":3,""viewing_time"":1487.154999980703}]","6423.339999979362","instructions","7","30429","0.0-7.0","SS1613099237624","instructions","","","","","","","","","","","","","","",""
"","null","html-keyboard-response","8","31681","0.0-8.0-0.0","SS1613099237624","","","null","","","","","<p><img src= images/blank.png width =""200"" height = ""200"" style = ""float:right""></p><p><img src=images/blank.png width =""800"" height = ""200""></p>","","","","","","","",""
"","579.8199999844655","sequential-stimulus-presentation","9","33081","0.0-8.0-1.0","SS1613099237624","trial","","40","800","1379.8199999844655","images/stimuli/spore_stims/simple_11_A_d.gif","images/stimuli/spore_stims/simple_05_A_c.gif","","","","","0","simple_dissimilar","images/stimuli/spore_stims/simple_05_A_c.gif","right",""
"","null","html-keyboard-response","10","33957","0.0-8.0-0.1","SS1613099237624","","","null","","","","","<p><img src= images/blank.png width =""200"" height = ""200"" style = ""float:right""></p><p><img src=images/blank.png width =""800"" height = ""200""></p>","","","","","","","",""
"","369.0000000060536","sequential-stimulus-presentation","11","35137","0.0-8.0-1.1","SS1613099237624","trial","","40","800","1169.0000000060536","images/stimuli/spore_stims/simple_11_A_d.gif","images/stimuli/spore_stims/simple_05_A_c.gif","","","","","0","simple_dissimilar","images/stimuli/spore_stims/simple_05_A_c.gif","right",""
"","null","html-keyboard-response","12","36229","0.0-8.0-0.2","SS1613099237624","","","null","","","","","<p><img src= images/blank.png width =""200"" height = ""200"" style = ""float:right""></p><p><img src=images/blank.png width =""800"" height = ""200""></p>","","","","","","","",""
"","275.67000000271946","sequential-stimulus-presentation","13","37317","0.0-8.0-1.2","SS1613099237624","trial","","40","800","1075.6700000027195","images/stimuli/spore_stims/simple_11_A_d.gif","images/stimuli/spore_stims/simple_05_A_c.gif","","","","","0","simple_dissimilar","images/stimuli/spore_stims/simple_05_A_c.gif","right",""
"","null","html-keyboard-response","14","38154","0.0-8.0-0.3","SS1613099237624","","","null","","","","","<p><img src= images/blank.png width =""200"" height = ""200"" style = ""float:right""></p><p><img src=images/blank.png width =""800"" height = ""200""></p>","","","","","","","",""
"","1218.9199999847915","sequential-stimulus-presentation","15","40180","0.0-8.0-1.3","SS1613099237624","trial","","40","800","2018.9199999847915","images/stimuli/spore_stims/simple_11_A_d.gif","images/stimuli/spore_stims/simple_05_A_c.gif","","","","","0","simple_dissimilar","images/stimuli/spore_stims/simple_11_A_d.gif","left",""
"","null","html-keyboard-response","16","41330","0.0-8.0-0.4","SS1613099237624","","","null","","","","","<p><img src= images/blank.png width =""200"" height = ""200"" style = ""float:right""></p><p><img src=images/blank.png width =""800"" height = ""200""></p>","","","","","","","",""
"","315.6400000152644","sequential-stimulus-presentation","17","42461","0.0-8.0-1.4","SS1613099237624","trial","","40","800","1115.6400000152644","images/stimuli/spore_stims/simple_11_A_d.gif","images/stimuli/spore_stims/simple_05_A_c.gif","","","","","0","simple_dissimilar","images/stimuli/spore_stims/simple_05_A_c.gif","right",""
"","null","html-keyboard-response","18","43515","0.0-8.0-0.5","SS1613099237624","","","null","","","","","<p><img src= images/blank.png width =""200"" height = ""200"" style = ""float:right""></p><p><img src=images/blank.png width =""800"" height = ""200""></p>","","","","","","","",""
"","307.8500000119675","sequential-stimulus-presentation","19","44635","0.0-8.0-1.5","SS1613099237624","trial","","40","800","1107.8500000119675","images/stimuli/spore_stims/simple_11_A_d.gif","images/stimuli/spore_stims/simple_05_A_c.gif","","","","","0","simple_dissimilar","images/stimuli/spore_stims/simple_05_A_c.gif","right",""
"","null","html-keyboard-response","20","45559","0.0-8.0-0.6","SS1613099237624","","","null","","","","","<p><img src= images/blank.png width =""200"" height = ""200"" style = ""float:right""></p><p><img src=images/blank.png width =""800"" height = ""200""></p>","","","","","","","",""
"","373.440000024857","sequential-stimulus-presentation","21","46747","0.0-8.0-1.6","SS1613099237624","trial","","40","800","1173.440000024857","images/stimuli/spore_stims/simple_11_A_d.gif","images/stimuli/spore_stims/simple_05_A_c.gif","","","","","0","simple_dissimilar","images/stimuli/spore_stims/simple_05_A_c.gif","right",""
"","null","html-keyboard-response","22","48043","0.0-8.0-0.7","SS1613099237624","","","null","","","","","<p><img src= images/blank.png width =""200"" height = ""200"" style = ""float:right""></p><p><img src=images/blank.png width =""800"" height = ""200""></p>","","","","","","","",""
"","451.9950000103563","sequential-stimulus-presentation","23","49308","0.0-8.0-1.7","SS1613099237624","trial","","40","800","1251.9950000103563","images/stimuli/spore_stims/simple_11_A_d.gif","images/stimuli/spore_stims/simple_05_A_c.gif","","","","","0","simple_dissimilar","images/stimuli/spore_stims/simple_05_A_c.gif","right",""
"","942.685000016354","html-keyboard-response","24","50257","0.0-9.0","SS1613099237624","pref_question","","51","","","","","<video width ='960' height = '540' style='padding-top:8%' autoplay muted><source src='images/stimuli/wall_pref.mp4' type='video/mp4'></video>","3","right","66%","0","","","",""
"","863.7400000006892","sequential-stimulus-presentation","25","51929","0.0-10.0","SS1613099237624","pref_reveal","","40","800","1663.7400000006892","null","null","","","","","0","","","","background"
"","null","html-keyboard-response","26","52832","0.0-11.0-0.0","SS1613099237624","","","null","","","","","<p><img src= images/blank.png width =""200"" height = ""200"" style = ""float:right""></p><p><img src=images/blank.png width =""800"" height = ""200""></p>","","","","","","","",""
"","373.60999998054467","sequential-stimulus-presentation","27","54021","0.0-11.0-1.0","SS1613099237624","trial","","40","800","1173.6099999805447","images/stimuli/spore_stims/complex_20_B_b.gif","images/stimuli/spore_stims/complex_12_A_c.gif","","","","","1","complex_dissimilar","images/stimuli/spore_stims/complex_12_A_c.gif","right",""
"","null","html-keyboard-response","28","55061","0.0-11.0-0.1","SS1613099237624","","","null","","","","","<p><img src= images/blank.png width =""200"" height = ""200"" style = ""float:right""></p><p><img src=images/blank.png width =""800"" height = ""200""></p>","","","","","","","",""
"","386.7350000073202","sequential-stimulus-presentation","29","56256","0.0-11.0-1.1","SS1613099237624","trial","","40","800","1186.7350000073202","images/stimuli/spore_stims/complex_20_B_b.gif","images/stimuli/spore_stims/complex_12_A_c.gif","","","","","1","complex_dissimilar","images/stimuli/spore_stims/complex_12_A_c.gif","right",""
"","null","html-keyboard-response","30","57211","0.0-11.0-0.2","SS1613099237624","","","null","","","","","<p><img src= images/blank.png width =""200"" height = ""200"" style = ""float:right""></p><p><img src=images/blank.png width =""800"" height = ""200""></p>","","","","","","","",""
"","298.97999999229796","sequential-stimulus-presentation","31","58324","0.0-11.0-1.2","SS1613099237624","trial","","40","800","1098.979999992298","images/stimuli/spore_stims/complex_20_B_b.gif","images/stimuli/spore_stims/complex_12_A_c.gif","","","","","1","complex_dissimilar","images/stimuli/spore_stims/complex_12_A_c.gif","right",""
"","null","html-keyboard-response","32","59596","0.0-11.0-0.3","SS1613099237624","","","null","","","","","<p><img src= images/blank.png width =""200"" height = ""200"" style = ""float:right""></p><p><img src=images/blank.png width =""800"" height = ""200""></p>","","","","","","","",""
"","239.66500000096858","sequential-stimulus-presentation","33","60650","0.0-11.0-1.3","SS1613099237624","trial","","40","800","1039.6650000009686","images/stimuli/spore_stims/complex_20_B_b.gif","images/stimuli/spore_stims/complex_12_A_c.gif","","","","","1","complex_dissimilar","images/stimuli/spore_stims/complex_12_A_c.gif","right",""
"","null","html-keyboard-response","34","61637","0.0-11.0-0.4","SS1613099237624","","","null","","","","","<p><img src= images/blank.png width =""200"" height = ""200"" style = ""float:right""></p><p><img src=images/blank.png width =""800"" height = ""200""></p>","","","","","","","",""
"","394.83999999356456","sequential-stimulus-presentation","35","62890","0.0-11.0-1.4","SS1613099237624","trial","","40","800","1194.8399999935646","images/stimuli/spore_stims/complex_20_B_b.gif","images/stimuli/spore_stims/complex_12_A_c.gif","","","","","1","complex_dissimilar","images/stimuli/spore_stims/complex_12_A_c.gif","right",""
"","null","html-keyboard-response","36","63915","0.0-11.0-0.5","SS1613099237624","","","null","","","","","<p><img src= images/blank.png width =""200"" height = ""200"" style = ""float:right""></p><p><img src=images/blank.png width =""800"" height = ""200""></p>","","","","","","","",""
"","370.7949999952689","sequential-stimulus-presentation","37","65101","0.0-11.0-1.5","SS1613099237624","trial","","40","800","1170.7949999952689","images/stimuli/spore_stims/complex_20_B_b.gif","images/stimuli/spore_stims/complex_12_A_c.gif","","","","","1","complex_dissimilar","images/stimuli/spore_stims/complex_12_A_c.gif","right",""
"","null","html-keyboard-response","38","66386","0.0-11.0-0.6","SS1613099237624","","","null","","","","","<p><img src= images/blank.png width =""200"" height = ""200"" style = ""float:right""></p><p><img src=images/blank.png width =""800"" height = ""200""></p>","","","","","","","",""
"","400.98000000580214","sequential-stimulus-presentation","39","67601","0.0-11.0-1.6","SS1613099237624","trial","","40","800","1200.9800000058021","images/stimuli/spore_stims/complex_20_B_b.gif","images/stimuli/spore_stims/complex_12_A_c.gif","","","","","1","complex_dissimilar","images/stimuli/spore_stims/complex_20_B_b.gif","left",""
"","null","html-keyboard-response","40","68457","0.0-11.0-0.7","SS1613099237624","","","null","","","","","<p><img src= images/blank.png width =""200"" height = ""200"" style = ""float:right""></p><p><img src=images/blank.png width =""800"" height = ""200""></p>","","","","","","","",""
"","292.17999998945743","sequential-stimulus-presentation","41","69564","0.0-11.0-1.7","SS1613099237624","trial","","40","800","1092.1799999894574","images/stimuli/spore_stims/complex_20_B_b.gif","images/stimuli/spore_stims/complex_12_A_c.gif","","","","","1","complex_dissimilar","images/stimuli/spore_stims/complex_12_A_c.gif","right",""
"","1242.404999997234","html-keyboard-response","42","70814","0.0-12.0","SS1613099237624","pref_question","","50","","","","","<video width ='960' height = '540' style='padding-top:8%' autoplay muted><source src='images/stimuli/wall_pref.mp4' type='video/mp4'></video>","2","middle","45%","1","","","",""
"","919.9549999902956","sequential-stimulus-presentation","43","72543","0.0-13.0","SS1613099237624","pref_reveal","","40","800","1719.9549999902956","null","null","","","","","1","","","","novel"
"","null","html-keyboard-response","44","73529","0.0-14.0-0.0","SS1613099237624","","","null","","","","","<p><img src= images/blank.png width =""200"" height = ""200"" style = ""float:right""></p><p><img src=images/blank.png width =""800"" height = ""200""></p>","","","","","","","",""
"","498.60999998054467","sequential-stimulus-presentation","45","74844","0.0-14.0-1.0","SS1613099237624","trial","","40","800","1298.6099999805447","images/stimuli/spore_stims/complex_03_A_d.gif","images/stimuli/spore_stims/complex_03_B_d.gif","","","","","2","complex_similar","images/stimuli/spore_stims/complex_03_B_d.gif","right",""
"","null","html-keyboard-response","46","76097","0.0-14.0-0.1","SS1613099237624","","","null","","","","","<p><img src= images/blank.png width =""200"" height = ""200"" style = ""float:right""></p><p><img src=images/blank.png width =""800"" height = ""200""></p>","","","","","","","",""
"","270.1849999721162","sequential-stimulus-presentation","47","77182","0.0-14.0-1.1","SS1613099237624","trial","","40","800","1070.1849999721162","images/stimuli/spore_stims/complex_03_A_d.gif","images/stimuli/spore_stims/complex_03_B_d.gif","","","","","2","complex_similar","images/stimuli/spore_stims/complex_03_B_d.gif","right",""
"","null","html-keyboard-response","48","78238","0.0-14.0-0.2","SS1613099237624","","","null","","","","","<p><img src= images/blank.png width =""200"" height = ""200"" style = ""float:right""></p><p><img src=images/blank.png width =""800"" height = ""200""></p>","","","","","","","",""
"","365.3500000073109","sequential-stimulus-presentation","49","79417","0.0-14.0-1.2","SS1613099237624","trial","","40","800","1165.3500000073109","images/stimuli/spore_stims/complex_03_A_d.gif","images/stimuli/spore_stims/complex_03_B_d.gif","","","","","2","complex_similar","images/stimuli/spore_stims/complex_03_B_d.gif","right",""
"","null","html-keyboard-response","50","80284","0.0-14.0-0.3","SS1613099237624","","","null","","","","","<p><img src= images/blank.png width =""200"" height = ""200"" style = ""float:right""></p><p><img src=images/blank.png width =""800"" height = ""200""></p>","","","","","","","",""
"","291.92999997758307","sequential-stimulus-presentation","51","81393","0.0-14.0-1.3","SS1613099237624","trial","","40","800","1091.929999977583","images/stimuli/spore_stims/complex_03_A_d.gif","images/stimuli/spore_stims/complex_03_B_d.gif","","","","","2","complex_similar","images/stimuli/spore_stims/complex_03_B_d.gif","right",""
"","null","html-keyboard-response","52","82258","0.0-14.0-0.4","SS1613099237624","","","null","","","","","<p><img src= images/blank.png width =""200"" height = ""200"" style = ""float:right""></p><p><img src=images/blank.png width =""800"" height = ""200""></p>","","","","","","","",""
"","431.15999997826293","sequential-stimulus-presentation","53","83504","0.0-14.0-1.4","SS1613099237624","trial","","40","800","1231.159999978263","images/stimuli/spore_stims/complex_03_A_d.gif","images/stimuli/spore_stims/complex_03_B_d.gif","","","","","2","complex_similar","images/stimuli/spore_stims/complex_03_A_d.gif","middle",""
"","null","html-keyboard-response","54","84688","0.0-14.0-0.5","SS1613099237624","","","null","","","","","<p><img src= images/blank.png width =""200"" height = ""200"" style = ""float:right""></p><p><img src=images/blank.png width =""800"" height = ""200""></p>","","","","","","","",""
"","339.0499999804888","sequential-stimulus-presentation","55","85896","0.0-14.0-1.5","SS1613099237624","trial","","40","800","1139.0499999804888","images/stimuli/spore_stims/complex_03_A_d.gif","images/stimuli/spore_stims/complex_03_B_d.gif","","","","","2","complex_similar","images/stimuli/spore_stims/complex_03_B_d.gif","right",""
"","null","html-keyboard-response","56","87019","0.0-14.0-0.6","SS1613099237624","","","null","","","","","<p><img src= images/blank.png width =""200"" height = ""200"" style = ""float:right""></p><p><img src=images/blank.png width =""800"" height = ""200""></p>","","","","","","","",""
"","339.36500002164394","sequential-stimulus-presentation","57","88170","0.0-14.0-1.6","SS1613099237624","trial","","40","800","1139.365000021644","images/stimuli/spore_stims/complex_03_A_d.gif","images/stimuli/spore_stims/complex_03_B_d.gif","","","","","2","complex_similar","images/stimuli/spore_stims/complex_03_B_d.gif","right",""
"","null","html-keyboard-response","58","89242","0.0-14.0-0.7","SS1613099237624","","","null","","","","","<p><img src= images/blank.png width =""200"" height = ""200"" style = ""float:right""></p><p><img src=images/blank.png width =""800"" height = ""200""></p>","","","","","","","",""
"","622.6949999982025","sequential-stimulus-presentation","59","90677","0.0-14.0-1.7","SS1613099237624","trial","","40","800","1422.6949999982025","images/stimuli/spore_stims/complex_03_A_d.gif","images/stimuli/spore_stims/complex_03_B_d.gif","","","","","2","complex_similar","images/stimuli/spore_stims/complex_03_B_d.gif","right",""
"","1567.9050000035204","html-keyboard-response","60","92251","0.0-15.0","SS1613099237624","pref_question","","49","","","","","<video width ='960' height = '540' style='padding-top:8%' autoplay muted><source src='images/stimuli/wall_pref.mp4' type='video/mp4'></video>","1","left","25%","2","","","",""
"","1782.760000001872","sequential-stimulus-presentation","61","94843","0.0-16.0","SS1613099237624","pref_reveal","","40","800","2582.760000001872","null","null","","","","","2","","","","novel"
"","null","html-keyboard-response","62","95996","0.0-17.0-0.0","SS1613099237624","","","null","","","","","<p><img src= images/blank.png width =""200"" height = ""200"" style = ""float:right""></p><p><img src=images/blank.png width =""800"" height = ""200""></p>","","","","","","","",""
"","432.5799999933224","sequential-stimulus-presentation","63","97248","0.0-17.0-1.0","SS1613099237624","trial","","40","800","1232.5799999933224","images/stimuli/spore_stims/simple_19_A_b.gif","images/stimuli/spore_stims/simple_11_B_c.gif","","","","","3","simple_dissimilar","images/stimuli/spore_stims/simple_11_B_c.gif","right",""
"","null","html-keyboard-response","64","98528","0.0-17.0-0.1","SS1613099237624","","","null","","","","","<p><img src= images/blank.png width =""200"" height = ""200"" style = ""float:right""></p><p><img src=images/blank.png width =""800"" height = ""200""></p>","","","","","","","",""
"","532.9900000069756","sequential-stimulus-presentation","65","99877","0.0-17.0-1.1","SS1613099237624","trial","","40","800","1332.9900000069756","images/stimuli/spore_stims/simple_19_A_b.gif","images/stimuli/spore_stims/simple_11_B_c.gif","","","","","3","simple_dissimilar","images/stimuli/spore_stims/simple_11_B_c.gif","right",""
"","null","html-keyboard-response","66","100934","0.0-17.0-0.2","SS1613099237624","","","null","","","","","<p><img src= images/blank.png width =""200"" height = ""200"" style = ""float:right""></p><p><img src=images/blank.png width =""800"" height = ""200""></p>","","","","","","","",""
"","377.1149999811314","sequential-stimulus-presentation","67","102129","0.0-17.0-1.2","SS1613099237624","trial","","40","800","1177.1149999811314","images/stimuli/spore_stims/simple_19_A_b.gif","images/stimuli/spore_stims/simple_11_B_c.gif","","","","","3","simple_dissimilar","images/stimuli/spore_stims/simple_11_B_c.gif","right",""
"","null","html-keyboard-response","68","103379","0.0-17.0-0.3","SS1613099237624","","","null","","","","","<p><img src= images/blank.png width =""200"" height = ""200"" style = ""float:right""></p><p><img src=images/blank.png width =""800"" height = ""200""></p>","","","","","","","",""
"","269.0350000048056","sequential-stimulus-presentation","69","104466","0.0-17.0-1.3","SS1613099237624","trial","","40","800","1069.0350000048056","images/stimuli/spore_stims/simple_19_A_b.gif","images/stimuli/spore_stims/simple_11_B_c.gif","","","","","3","simple_dissimilar","images/stimuli/spore_stims/simple_11_B_c.gif","right",""
"","null","html-keyboard-response","70","105644","0.0-17.0-0.4","SS1613099237624","","","null","","","","","<p><img src= images/blank.png width =""200"" height = ""200"" style = ""float:right""></p><p><img src=images/blank.png width =""800"" height = ""200""></p>","","","","","","","",""
"","432.3750000039581","sequential-stimulus-presentation","71","106895","0.0-17.0-1.4","SS1613099237624","trial","","40","800","1232.3750000039581","images/stimuli/spore_stims/simple_19_A_b.gif","images/stimuli/spore_stims/simple_11_B_c.gif","","","","","3","simple_dissimilar","images/stimuli/spore_stims/simple_11_B_c.gif","right",""
"","null","html-keyboard-response","72","107818","0.0-17.0-0.5","SS1613099237624","","","null","","","","","<p><img src= images/blank.png width =""200"" height = ""200"" style = ""float:right""></p><p><img src=images/blank.png width =""800"" height = ""200""></p>","","","","","","","",""
"","453.7049999926239","sequential-stimulus-presentation","73","109081","0.0-17.0-1.5","SS1613099237624","trial","","40","800","1253.704999992624","images/stimuli/spore_stims/simple_19_A_b.gif","images/stimuli/spore_stims/simple_11_B_c.gif","","","","","3","simple_dissimilar","images/stimuli/spore_stims/simple_11_B_c.gif","right",""
"","null","html-keyboard-response","74","109888","0.0-17.0-0.6","SS1613099237624","","","null","","","","","<p><img src= images/blank.png width =""200"" height = ""200"" style = ""float:right""></p><p><img src=images/blank.png width =""800"" height = ""200""></p>","","","","","","","",""
"","473.7500000046566","sequential-stimulus-presentation","75","111169","0.0-17.0-1.6","SS1613099237624","trial","","40","800","1273.7500000046566","images/stimuli/spore_stims/simple_19_A_b.gif","images/stimuli/spore_stims/simple_11_B_c.gif","","","","","3","simple_dissimilar","images/stimuli/spore_stims/simple_11_B_c.gif","right",""
"","null","html-keyboard-response","76","112359","0.0-17.0-0.7","SS1613099237624","","","null","","","","","<p><img src= images/blank.png width =""200"" height = ""200"" style = ""float:right""></p><p><img src=images/blank.png width =""800"" height = ""200""></p>","","","","","","","",""
"","780.7949999987613","sequential-stimulus-presentation","77","113956","0.0-17.0-1.7","SS1613099237624","trial","","40","800","1580.7949999987613","images/stimuli/spore_stims/simple_19_A_b.gif","images/stimuli/spore_stims/simple_11_B_c.gif","","","","","3","simple_dissimilar","images/stimuli/spore_stims/simple_19_A_b.gif","middle",""
"","1541.6200000036042","html-keyboard-response","78","115505","0.0-18.0","SS1613099237624","pref_question","","49","","","","","<video width ='960' height = '540' style='padding-top:8%' autoplay muted><source src='images/stimuli/wall_pref.mp4' type='video/mp4'></video>","1","left","25%","3","","","",""
"","1118.4549999888986","sequential-stimulus-presentation","79","117487","0.0-19.0","SS1613099237624","pref_reveal","","40","800","1918.4549999888986","null","null","","","","","3","","","","novel"
"","null","html-keyboard-response","80","118433","0.0-20.0-0.0","SS1613099237624","","","null","","","","","<p><img src= images/blank.png width =""200"" height = ""200"" style = ""float:right""></p><p><img src=images/blank.png width =""800"" height = ""200""></p>","","","","","","","",""
"","409.37499998835847","sequential-stimulus-presentation","81","119658","0.0-20.0-1.0","SS1613099237624","trial","","40","800","1209.3749999883585","images/stimuli/spore_stims/simple_08_B_b.gif","images/stimuli/spore_stims/simple_08_A_b.gif","","","","","4","simple_similar","images/stimuli/spore_stims/simple_08_A_b.gif","middle",""
"","null","html-keyboard-response","82","120490","0.0-20.0-0.1","SS1613099237624","","","null","","","","","<p><img src= images/blank.png width =""200"" height = ""200"" style = ""float:right""></p><p><img src=images/blank.png width =""800"" height = ""200""></p>","","","","","","","",""
"","363.2450000150129","sequential-stimulus-presentation","83","121676","0.0-20.0-1.1","SS1613099237624","trial","","40","800","1163.245000015013","images/stimuli/spore_stims/simple_08_B_b.gif","images/stimuli/spore_stims/simple_08_A_b.gif","","","","","4","simple_similar","images/stimuli/spore_stims/simple_08_A_b.gif","middle",""
"","null","html-keyboard-response","84","122957","0.0-20.0-0.2","SS1613099237624","","","null","","","","","<p><img src= images/blank.png width =""200"" height = ""200"" style = ""float:right""></p><p><img src=images/blank.png width =""800"" height = ""200""></p>","","","","","","","",""
"","405.9300000080839","sequential-stimulus-presentation","85","124183","0.0-20.0-1.2","SS1613099237624","trial","","40","800","1205.9300000080839","images/stimuli/spore_stims/simple_08_B_b.gif","images/stimuli/spore_stims/simple_08_A_b.gif","","","","","4","simple_similar","images/stimuli/spore_stims/simple_08_A_b.gif","middle",""
"","null","html-keyboard-response","86","125035","0.0-20.0-0.3","SS1613099237624","","","null","","","","","<p><img src= images/blank.png width =""200"" height = ""200"" style = ""float:right""></p><p><img src=images/blank.png width =""800"" height = ""200""></p>","","","","","","","",""
"","625.3399999986868","sequential-stimulus-presentation","87","126515","0.0-20.0-1.3","SS1613099237624","trial","","40","800","1425.3399999986868","images/stimuli/spore_stims/simple_08_B_b.gif","images/stimuli/spore_stims/simple_08_A_b.gif","","","","","4","simple_similar","images/stimuli/spore_stims/simple_08_A_b.gif","middle",""
"","null","html-keyboard-response","88","127777","0.0-20.0-0.4","SS1613099237624","","","null","","","","","<p><img src= images/blank.png width =""200"" height = ""200"" style = ""float:right""></p><p><img src=images/blank.png width =""800"" height = ""200""></p>","","","","","","","",""
"","745.7049999793526","sequential-stimulus-presentation","89","129334","0.0-20.0-1.4","SS1613099237624","trial","","40","800","1545.7049999793526","images/stimuli/spore_stims/simple_08_B_b.gif","images/stimuli/spore_stims/simple_08_A_b.gif","","","","","4","simple_similar","images/stimuli/spore_stims/simple_08_B_b.gif","left",""
"","null","html-keyboard-response","90","130172","0.0-20.0-0.5","SS1613099237624","","","null","","","","","<p><img src= images/blank.png width =""200"" height = ""200"" style = ""float:right""></p><p><img src=images/blank.png width =""800"" height = ""200""></p>","","","","","","","",""
"","1308.9900000195485","sequential-stimulus-presentation","91","132297","0.0-20.0-1.5","SS1613099237624","trial","","40","800","2108.9900000195485","images/stimuli/spore_stims/simple_08_B_b.gif","images/stimuli/spore_stims/simple_08_A_b.gif","","","","","4","simple_similar","images/stimuli/spore_stims/simple_08_A_b.gif","middle",""
"","null","html-keyboard-response","92","133212","0.0-20.0-0.6","SS1613099237624","","","null","","","","","<p><img src= images/blank.png width =""200"" height = ""200"" style = ""float:right""></p><p><img src=images/blank.png width =""800"" height = ""200""></p>","","","","","","","",""
"","5273.905000009108","sequential-stimulus-presentation","93","139305","0.0-20.0-1.6","SS1613099237624","trial","","40","800","6073.905000009108","images/stimuli/spore_stims/simple_08_B_b.gif","images/stimuli/spore_stims/simple_08_A_b.gif","","","","","4","simple_similar","images/stimuli/spore_stims/simple_08_A_b.gif","middle",""
"","null","html-keyboard-response","94","140404","0.0-20.0-0.7","SS1613099237624","","","null","","","","","<p><img src= images/blank.png width =""200"" height = ""200"" style = ""float:right""></p><p><img src=images/blank.png width =""800"" height = ""200""></p>","","","","","","","",""
"","599.225000012666","sequential-stimulus-presentation","95","141825","0.0-20.0-1.7","SS1613099237624","trial","","40","800","1399.225000012666","images/stimuli/spore_stims/simple_08_B_b.gif","images/stimuli/spore_stims/simple_08_A_b.gif","","","","","4","simple_similar","images/stimuli/spore_stims/simple_08_A_b.gif","middle",""
"","1594.1649999876972","html-keyboard-response","96","143476","0.0-21.0","SS1613099237624","pref_question","","51","","","","","<video width ='960' height = '540' style='padding-top:8%' autoplay muted><source src='images/stimuli/wall_pref.mp4' type='video/mp4'></video>","3","right","66%","4","","","",""
"","507.60000001173466","sequential-stimulus-presentation","97","144795","0.0-22.0","SS1613099237624","pref_reveal","","40","800","1307.6000000117347","null","null","","","","","4","","","","novel"
"","null","html-keyboard-response","98","145873","0.0-23.0-0.0","SS1613099237624","","","null","","","","","<p><img src= images/blank.png width =""200"" height = ""200"" style = ""float:right""></p><p><img src=images/blank.png width =""800"" height = ""200""></p>","","","","","","","",""
"","476.27000001375563","sequential-stimulus-presentation","99","147169","0.0-23.0-1.0","SS1613099237624","trial","","40","800","1276.2700000137556","images/stimuli/spore_stims/complex_11_A_d.gif","images/stimuli/spore_stims/complex_11_B_d.gif","","","","","5","complex_similar","images/stimuli/spore_stims/complex_11_B_d.gif","middle",""
"","null","html-keyboard-response","100","148030","0.0-23.0-0.1","SS1613099237624","","","null","","","","","<p><img src= images/blank.png width =""200"" height = ""200"" style = ""float:right""></p><p><img src=images/blank.png width =""800"" height = ""200""></p>","","","","","","","",""
"","382.52499999362044","sequential-stimulus-presentation","101","149232","0.0-23.0-1.1","SS1613099237624","trial","","40","800","1182.5249999936204","images/stimuli/spore_stims/complex_11_A_d.gif","images/stimuli/spore_stims/complex_11_B_d.gif","","","","","5","complex_similar","images/stimuli/spore_stims/complex_11_B_d.gif","middle",""
"","null","html-keyboard-response","102","150141","0.0-23.0-0.2","SS1613099237624","","","null","","","","","<p><img src= images/blank.png width =""200"" height = ""200"" style = ""float:right""></p><p><img src=images/blank.png width =""800"" height = ""200""></p>","","","","","","","",""
"","658.6200000019744","sequential-stimulus-presentation","103","151617","0.0-23.0-1.2","SS1613099237624","trial","","40","800","1458.6200000019744","images/stimuli/spore_stims/complex_11_A_d.gif","images/stimuli/spore_stims/complex_11_B_d.gif","","","","","5","complex_similar","images/stimuli/spore_stims/complex_11_B_d.gif","middle",""
"","null","html-keyboard-response","104","152514","0.0-23.0-0.3","SS1613099237624","","","null","","","","","<p><img src= images/blank.png width =""200"" height = ""200"" style = ""float:right""></p><p><img src=images/blank.png width =""800"" height = ""200""></p>","","","","","","","",""
"","404.2149999877438","sequential-stimulus-presentation","105","153740","0.0-23.0-1.3","SS1613099237624","trial","","40","800","1204.2149999877438","images/stimuli/spore_stims/complex_11_A_d.gif","images/stimuli/spore_stims/complex_11_B_d.gif","","","","","5","complex_similar","images/stimuli/spore_stims/complex_11_A_d.gif","left",""
"","null","html-keyboard-response","106","154603","0.0-23.0-0.4","SS1613099237624","","","null","","","","","<p><img src= images/blank.png width =""200"" height = ""200"" style = ""float:right""></p><p><img src=images/blank.png width =""800"" height = ""200""></p>","","","","","","","",""
"","443.4999999939464","sequential-stimulus-presentation","107","155866","0.0-23.0-1.4","SS1613099237624","trial","","40","800","1243.4999999939464","images/stimuli/spore_stims/complex_11_A_d.gif","images/stimuli/spore_stims/complex_11_B_d.gif","","","","","5","complex_similar","images/stimuli/spore_stims/complex_11_B_d.gif","middle",""
"","null","html-keyboard-response","108","156739","0.0-23.0-0.5","SS1613099237624","","","null","","","","","<p><img src= images/blank.png width =""200"" height = ""200"" style = ""float:right""></p><p><img src=images/blank.png width =""800"" height = ""200""></p>","","","","","","","",""
"","332.82000001054257","sequential-stimulus-presentation","109","157890","0.0-23.0-1.5","SS1613099237624","trial","","40","800","1132.8200000105426","images/stimuli/spore_stims/complex_11_A_d.gif","images/stimuli/spore_stims/complex_11_B_d.gif","","","","","5","complex_similar","images/stimuli/spore_stims/complex_11_B_d.gif","middle",""
"","null","html-keyboard-response","110","159080","0.0-23.0-0.6","SS1613099237624","","","null","","","","","<p><img src= images/blank.png width =""200"" height = ""200"" style = ""float:right""></p><p><img src=images/blank.png width =""800"" height = ""200""></p>","","","","","","","",""
"","390.33999998355284","sequential-stimulus-presentation","111","160288","0.0-23.0-1.6","SS1613099237624","trial","","40","800","1190.3399999835528","images/stimuli/spore_stims/complex_11_A_d.gif","images/stimuli/spore_stims/complex_11_B_d.gif","","","","","5","complex_similar","images/stimuli/spore_stims/complex_11_B_d.gif","middle",""
"","null","html-keyboard-response","112","161347","0.0-23.0-0.7","SS1613099237624","","","null","","","","","<p><img src= images/blank.png width =""200"" height = ""200"" style = ""float:right""></p><p><img src=images/blank.png width =""800"" height = ""200""></p>","","","","","","","",""
"","307.21999998786487","sequential-stimulus-presentation","113","162473","0.0-23.0-1.7","SS1613099237624","trial","","40","800","1107.2199999878649","images/stimuli/spore_stims/complex_11_A_d.gif","images/stimuli/spore_stims/complex_11_B_d.gif","","","","","5","complex_similar","images/stimuli/spore_stims/complex_11_B_d.gif","middle",""
"","1810.330000007525","html-keyboard-response","114","164292","0.0-24.0","SS1613099237624","pref_question","","49","","","","","<video width ='960' height = '540' style='padding-top:8%' autoplay muted><source src='images/stimuli/wall_pref.mp4' type='video/mp4'></video>","1","left","25%","5","","","",""
"","723.8099999958649","sequential-stimulus-presentation","115","165883","0.0-25.0","SS1613099237624","pref_reveal","","40","800","1523.809999995865","null","null","","","","","5","","","","deviant"
"","null","html-keyboard-response","116","166693","0.0-26.0-0.0","SS1613099237624","","","null","","","","","<p><img src= images/blank.png width =""200"" height = ""200"" style = ""float:right""></p><p><img src=images/blank.png width =""800"" height = ""200""></p>","","","","","","","",""
"","755.700000008801","sequential-stimulus-presentation","117","168265","0.0-26.0-1.0","SS1613099237624","trial","","40","800","1555.700000008801","images/stimuli/spore_stims/complex_06_A_b.gif","images/stimuli/spore_stims/complex_06_B_b.gif","","","","","6","complex_similar","images/stimuli/spore_stims/complex_06_B_b.gif","right",""
"","null","html-keyboard-response","118","169401","0.0-26.0-0.1","SS1613099237624","","","null","","","","","<p><img src= images/blank.png width =""200"" height = ""200"" style = ""float:right""></p><p><img src=images/blank.png width =""800"" height = ""200""></p>","","","","","","","",""
"","752.2000000171829","sequential-stimulus-presentation","119","170972","0.0-26.0-1.1","SS1613099237624","trial","","40","800","1552.200000017183","images/stimuli/spore_stims/complex_06_A_b.gif","images/stimuli/spore_stims/complex_06_B_b.gif","","","","","6","complex_similar","images/stimuli/spore_stims/complex_06_B_b.gif","right",""
"","null","html-keyboard-response","120","171810","0.0-26.0-0.2","SS1613099237624","","","null","","","","","<p><img src= images/blank.png width =""200"" height = ""200"" style = ""float:right""></p><p><img src=images/blank.png width =""800"" height = ""200""></p>","","","","","","","",""
"","384.89499999559484","sequential-stimulus-presentation","121","173014","0.0-26.0-1.2","SS1613099237624","trial","","40","800","1184.8949999955948","images/stimuli/spore_stims/complex_06_A_b.gif","images/stimuli/spore_stims/complex_06_B_b.gif","","","","","6","complex_similar","images/stimuli/spore_stims/complex_06_A_b.gif","left",""
"","null","html-keyboard-response","122","174034","0.0-26.0-0.3","SS1613099237624","","","null","","","","","<p><img src= images/blank.png width =""200"" height = ""200"" style = ""float:right""></p><p><img src=images/blank.png width =""800"" height = ""200""></p>","","","","","","","",""
"","295.35000000032596","sequential-stimulus-presentation","123","175150","0.0-26.0-1.3","SS1613099237624","trial","","40","800","1095.350000000326","images/stimuli/spore_stims/complex_06_A_b.gif","images/stimuli/spore_stims/complex_06_B_b.gif","","","","","6","complex_similar","images/stimuli/spore_stims/complex_06_B_b.gif","right",""
"","null","html-keyboard-response","124","176368","0.0-26.0-0.4","SS1613099237624","","","null","","","","","<p><img src= images/blank.png width =""200"" height = ""200"" style = ""float:right""></p><p><img src=images/blank.png width =""800"" height = ""200""></p>","","","","","","","",""
"","302.8999999805819","sequential-stimulus-presentation","125","177490","0.0-26.0-1.4","SS1613099237624","trial","","40","800","1102.899999980582","images/stimuli/spore_stims/complex_06_A_b.gif","images/stimuli/spore_stims/complex_06_B_b.gif","","","","","6","complex_similar","images/stimuli/spore_stims/complex_06_B_b.gif","right",""
"","null","html-keyboard-response","126","178572","0.0-26.0-0.5","SS1613099237624","","","null","","","","","<p><img src= images/blank.png width =""200"" height = ""200"" style = ""float:right""></p><p><img src=images/blank.png width =""800"" height = ""200""></p>","","","","","","","",""
"","521.7399999964982","sequential-stimulus-presentation","127","179914","0.0-26.0-1.5","SS1613099237624","trial","","40","800","1321.7399999964982","images/stimuli/spore_stims/complex_06_A_b.gif","images/stimuli/spore_stims/complex_06_B_b.gif","","","","","6","complex_similar","images/stimuli/spore_stims/complex_06_B_b.gif","right",""
"","null","html-keyboard-response","128","180855","0.0-26.0-0.6","SS1613099237624","","","null","","","","","<p><img src= images/blank.png width =""200"" height = ""200"" style = ""float:right""></p><p><img src=images/blank.png width =""800"" height = ""200""></p>","","","","","","","",""
"","334.4349999970291","sequential-stimulus-presentation","129","182012","0.0-26.0-1.6","SS1613099237624","trial","","40","800","1134.434999997029","images/stimuli/spore_stims/complex_06_A_b.gif","images/stimuli/spore_stims/complex_06_B_b.gif","","","","","6","complex_similar","images/stimuli/spore_stims/complex_06_B_b.gif","right",""
"","null","html-keyboard-response","130","183139","0.0-26.0-0.7","SS1613099237624","","","null","","","","","<p><img src= images/blank.png width =""200"" height = ""200"" style = ""float:right""></p><p><img src=images/blank.png width =""800"" height = ""200""></p>","","","","","","","",""
"","237.2400000167545","sequential-stimulus-presentation","131","184197","0.0-26.0-1.7","SS1613099237624","trial","","40","800","1037.2400000167545","images/stimuli/spore_stims/complex_06_A_b.gif","images/stimuli/spore_stims/complex_06_B_b.gif","","","","","6","complex_similar","images/stimuli/spore_stims/complex_06_B_b.gif","right",""
"","1733.540000015637","html-keyboard-response","132","185942","0.0-27.0","SS1613099237624","pref_question","","51","","","","","<video width ='960' height = '540' style='padding-top:8%' autoplay muted><source src='images/stimuli/wall_pref.mp4' type='video/mp4'></video>","3","right","66%","6","","","",""
"","1453.719999990426","sequential-stimulus-presentation","133","188216","0.0-28.0","SS1613099237624","pref_reveal","","40","800","2253.719999990426","null","null","","","","","6","","","","background"
"","null","html-keyboard-response","134","189302","0.0-29.0-0.0","SS1613099237624","","","null","","","","","<p><img src= images/blank.png width =""200"" height = ""200"" style = ""float:right""></p><p><img src=images/blank.png width =""800"" height = ""200""></p>","","","","","","","",""
"","362.3950000037439","sequential-stimulus-presentation","135","190486","0.0-29.0-1.0","SS1613099237624","trial","","40","800","1162.395000003744","images/stimuli/spore_stims/simple_09_B_b.gif","images/stimuli/spore_stims/simple_13_B_c.gif","","","","","7","simple_dissimilar","images/stimuli/spore_stims/simple_13_B_c.gif","left",""
"","null","html-keyboard-response","136","191771","0.0-29.0-0.1","SS1613099237624","","","null","","","","","<p><img src= images/blank.png width =""200"" height = ""200"" style = ""float:right""></p><p><img src=images/blank.png width =""800"" height = ""200""></p>","","","","","","","",""
"","36.36999998707324","sequential-stimulus-presentation","137","192629","0.0-29.0-1.1","SS1613099237624","trial","","40","800","836.3699999870732","images/stimuli/spore_stims/simple_09_B_b.gif","images/stimuli/spore_stims/simple_13_B_c.gif","","","","","7","simple_dissimilar","images/stimuli/spore_stims/simple_13_B_c.gif","left",""
"","null","html-keyboard-response","138","193925","0.0-29.0-0.2","SS1613099237624","","","null","","","","","<p><img src= images/blank.png width =""200"" height = ""200"" style = ""float:right""></p><p><img src=images/blank.png width =""800"" height = ""200""></p>","","","","","","","",""
"","522.5150000187568","sequential-stimulus-presentation","139","195311","0.0-29.0-1.2","SS1613099237624","trial","","40","800","1322.5150000187568","images/stimuli/spore_stims/simple_09_B_b.gif","images/stimuli/spore_stims/simple_13_B_c.gif","","","","","7","simple_dissimilar","images/stimuli/spore_stims/simple_13_B_c.gif","left",""
"","null","html-keyboard-response","140","196163","0.0-29.0-0.3","SS1613099237624","","","null","","","","","<p><img src= images/blank.png width =""200"" height = ""200"" style = ""float:right""></p><p><img src=images/blank.png width =""800"" height = ""200""></p>","","","","","","","",""
"","597.4600000190549","sequential-stimulus-presentation","141","197576","0.0-29.0-1.3","SS1613099237624","trial","","40","800","1397.4600000190549","images/stimuli/spore_stims/simple_09_B_b.gif","images/stimuli/spore_stims/simple_13_B_c.gif","","","","","7","simple_dissimilar","images/stimuli/spore_stims/simple_13_B_c.gif","left",""
"","null","html-keyboard-response","142","198667","0.0-29.0-0.4","SS1613099237624","","","null","","","","","<p><img src= images/blank.png width =""200"" height = ""200"" style = ""float:right""></p><p><img src=images/blank.png width =""800"" height = ""200""></p>","","","","","","","",""
"","364.7049999854062","sequential-stimulus-presentation","143","199844","0.0-29.0-1.4","SS1613099237624","trial","","40","800","1164.7049999854062","images/stimuli/spore_stims/simple_09_B_b.gif","images/stimuli/spore_stims/simple_13_B_c.gif","","","","","7","simple_dissimilar","images/stimuli/spore_stims/simple_09_B_b.gif","middle",""
"","null","html-keyboard-response","144","200823","0.0-29.0-0.5","SS1613099237624","","","null","","","","","<p><img src= images/blank.png width =""200"" height = ""200"" style = ""float:right""></p><p><img src=images/blank.png width =""800"" height = ""200""></p>","","","","","","","",""
"","545.0750000018161","sequential-stimulus-presentation","145","202190","0.0-29.0-1.5","SS1613099237624","trial","","40","800","1345.075000001816","images/stimuli/spore_stims/simple_09_B_b.gif","images/stimuli/spore_stims/simple_13_B_c.gif","","","","","7","simple_dissimilar","images/stimuli/spore_stims/simple_13_B_c.gif","left",""
"","null","html-keyboard-response","146","203101","0.0-29.0-0.6","SS1613099237624","","","null","","","","","<p><img src= images/blank.png width =""200"" height = ""200"" style = ""float:right""></p><p><img src=images/blank.png width =""800"" height = ""200""></p>","","","","","","","",""
"","518.4400000143796","sequential-stimulus-presentation","147","204439","0.0-29.0-1.6","SS1613099237624","trial","","40","800","1318.4400000143796","images/stimuli/spore_stims/simple_09_B_b.gif","images/stimuli/spore_stims/simple_13_B_c.gif","","","","","7","simple_dissimilar","images/stimuli/spore_stims/simple_13_B_c.gif","left",""
"","null","html-keyboard-response","148","205509","0.0-29.0-0.7","SS1613099237624","","","null","","","","","<p><img src= images/blank.png width =""200"" height = ""200"" style = ""float:right""></p><p><img src=images/blank.png width =""800"" height = ""200""></p>","","","","","","","",""
"","356.51499999221414","sequential-stimulus-presentation","149","206687","0.0-29.0-1.7","SS1613099237624","trial","","40","800","1156.5149999922141","images/stimuli/spore_stims/simple_09_B_b.gif","images/stimuli/spore_stims/simple_13_B_c.gif","","","","","7","simple_dissimilar","images/stimuli/spore_stims/simple_13_B_c.gif","left",""
"","7503.23999999091","html-keyboard-response","150","214201","0.0-30.0","SS1613099237624","pref_question","","50","","","","","<video width ='960' height = '540' style='padding-top:8%' autoplay muted><source src='images/stimuli/wall_pref.mp4' type='video/mp4'></video>","2","middle","45%","7","","","",""
"","594.569999986561","sequential-stimulus-presentation","151","215610","0.0-31.0","SS1613099237624","pref_reveal","","40","800","1394.569999986561","null","null","","","","","7","","","","deviant"
"","null","html-keyboard-response","152","216656","0.0-32.0-0.0","SS1613099237624","","","null","","","","","<p><img src= images/blank.png width =""200"" height = ""200"" style = ""float:right""></p><p><img src=images/blank.png width =""800"" height = ""200""></p>","","","","","","","",""
"","896.5650000027381","sequential-stimulus-presentation","153","218376","0.0-32.0-1.0","SS1613099237624","trial","","40","800","1696.565000002738","images/stimuli/spore_stims/simple_18_A_c.gif","images/stimuli/spore_stims/simple_18_B_c.gif","","","","","8","simple_similar","images/stimuli/spore_stims/simple_18_B_c.gif","left",""
"","null","html-keyboard-response","154","219404","0.0-32.0-0.1","SS1613099237624","","","null","","","","","<p><img src= images/blank.png width =""200"" height = ""200"" style = ""float:right""></p><p><img src=images/blank.png width =""800"" height = ""200""></p>","","","","","","","",""
"","544.0799999923911","sequential-stimulus-presentation","155","220771","0.0-32.0-1.1","SS1613099237624","trial","","40","800","1344.079999992391","images/stimuli/spore_stims/simple_18_A_c.gif","images/stimuli/spore_stims/simple_18_B_c.gif","","","","","8","simple_similar","images/stimuli/spore_stims/simple_18_B_c.gif","left",""
"","null","html-keyboard-response","156","221968","0.0-32.0-0.2","SS1613099237624","","","null","","","","","<p><img src= images/blank.png width =""200"" height = ""200"" style = ""float:right""></p><p><img src=images/blank.png width =""800"" height = ""200""></p>","","","","","","","",""
"","585.350000008475","sequential-stimulus-presentation","157","223375","0.0-32.0-1.2","SS1613099237624","trial","","40","800","1385.350000008475","images/stimuli/spore_stims/simple_18_A_c.gif","images/stimuli/spore_stims/simple_18_B_c.gif","","","","","8","simple_similar","images/stimuli/spore_stims/simple_18_B_c.gif","left",""
"","null","html-keyboard-response","158","224215","0.0-32.0-0.3","SS1613099237624","","","null","","","","","<p><img src= images/blank.png width =""200"" height = ""200"" style = ""float:right""></p><p><img src=images/blank.png width =""800"" height = ""200""></p>","","","","","","","",""
"","460.239999985788","sequential-stimulus-presentation","159","225496","0.0-32.0-1.3","SS1613099237624","trial","","40","800","1260.239999985788","images/stimuli/spore_stims/simple_18_A_c.gif","images/stimuli/spore_stims/simple_18_B_c.gif","","","","","8","simple_similar","images/stimuli/spore_stims/simple_18_A_c.gif","middle",""
"","null","html-keyboard-response","160","226602","0.0-32.0-0.4","SS1613099237624","","","null","","","","","<p><img src= images/blank.png width =""200"" height = ""200"" style = ""float:right""></p><p><img src=images/blank.png width =""800"" height = ""200""></p>","","","","","","","",""
"","532.8150000132155","sequential-stimulus-presentation","161","227959","0.0-32.0-1.4","SS1613099237624","trial","","40","800","1332.8150000132155","images/stimuli/spore_stims/simple_18_A_c.gif","images/stimuli/spore_stims/simple_18_B_c.gif","","","","","8","simple_similar","images/stimuli/spore_stims/simple_18_B_c.gif","left",""
"","null","html-keyboard-response","162","229047","0.0-32.0-0.5","SS1613099237624","","","null","","","","","<p><img src= images/blank.png width =""200"" height = ""200"" style = ""float:right""></p><p><img src=images/blank.png width =""800"" height = ""200""></p>","","","","","","","",""
"","393.9300000201911","sequential-stimulus-presentation","163","230263","0.0-32.0-1.5","SS1613099237624","trial","","40","800","1193.930000020191","images/stimuli/spore_stims/simple_18_A_c.gif","images/stimuli/spore_stims/simple_18_B_c.gif","","","","","8","simple_similar","images/stimuli/spore_stims/simple_18_B_c.gif","left",""
"","null","html-keyboard-response","164","231388","0.0-32.0-0.6","SS1613099237624","","","null","","","","","<p><img src= images/blank.png width =""200"" height = ""200"" style = ""float:right""></p><p><img src=images/blank.png width =""800"" height = ""200""></p>","","","","","","","",""
"","401.8999999971129","sequential-stimulus-presentation","165","232611","0.0-32.0-1.6","SS1613099237624","trial","","40","800","1201.899999997113","images/stimuli/spore_stims/simple_18_A_c.gif","images/stimuli/spore_stims/simple_18_B_c.gif","","","","","8","simple_similar","images/stimuli/spore_stims/simple_18_B_c.gif","left",""
"","null","html-keyboard-response","166","233463","0.0-32.0-0.7","SS1613099237624","","","null","","","","","<p><img src= images/blank.png width =""200"" height = ""200"" style = ""float:right""></p><p><img src=images/blank.png width =""800"" height = ""200""></p>","","","","","","","",""
"","421.0800000000745","sequential-stimulus-presentation","167","234705","0.0-32.0-1.7","SS1613099237624","trial","","40","800","1221.0800000000745","images/stimuli/spore_stims/simple_18_A_c.gif","images/stimuli/spore_stims/simple_18_B_c.gif","","","","","8","simple_similar","images/stimuli/spore_stims/simple_18_B_c.gif","left",""
"","1592.4650000233669","html-keyboard-response","168","236308","0.0-33.0","SS1613099237624","pref_question","","51","","","","","<video width ='960' height = '540' style='padding-top:8%' autoplay muted><source src='images/stimuli/wall_pref.mp4' type='video/mp4'></video>","3","right","66%","8","","","",""
"","1353.8149999803863","sequential-stimulus-presentation","169","238476","0.0-34.0","SS1613099237624","pref_reveal","","40","800","2153.8149999803863","null","null","","","","","8","","","","novel"
"","null","html-keyboard-response","170","239642","0.0-35.0-0.0","SS1613099237624","","","null","","","","","<p><img src= images/blank.png width =""200"" height = ""200"" style = ""float:right""></p><p><img src=images/blank.png width =""800"" height = ""200""></p>","","","","","","","",""
"","396.3299999886658","sequential-stimulus-presentation","171","240856","0.0-35.0-1.0","SS1613099237624","trial","","40","800","1196.3299999886658","images/stimuli/spore_stims/complex_18_B_d.gif","images/stimuli/spore_stims/complex_18_A_d.gif","","","","","9","complex_similar","images/stimuli/spore_stims/complex_18_A_d.gif","left",""
"","null","html-keyboard-response","172","241899","0.0-35.0-0.1","SS1613099237624","","","null","","","","","<p><img src= images/blank.png width =""200"" height = ""200"" style = ""float:right""></p><p><img src=images/blank.png width =""800"" height = ""200""></p>","","","","","","","",""
"","324.8500000045169","sequential-stimulus-presentation","173","243049","0.0-35.0-1.1","SS1613099237624","trial","","40","800","1124.850000004517","images/stimuli/spore_stims/complex_18_B_d.gif","images/stimuli/spore_stims/complex_18_A_d.gif","","","","","9","complex_similar","images/stimuli/spore_stims/complex_18_A_d.gif","left",""
"","null","html-keyboard-response","174","244133","0.0-35.0-0.2","SS1613099237624","","","null","","","","","<p><img src= images/blank.png width =""200"" height = ""200"" style = ""float:right""></p><p><img src=images/blank.png width =""800"" height = ""200""></p>","","","","","","","",""
"","259.28000002750196","sequential-stimulus-presentation","175","245213","0.0-35.0-1.2","SS1613099237624","trial","","40","800","1059.280000027502","images/stimuli/spore_stims/complex_18_B_d.gif","images/stimuli/spore_stims/complex_18_A_d.gif","","","","","9","complex_similar","images/stimuli/spore_stims/complex_18_A_d.gif","left",""
"","null","html-keyboard-response","176","246263","0.0-35.0-0.3","SS1613099237624","","","null","","","","","<p><img src= images/blank.png width =""200"" height = ""200"" style = ""float:right""></p><p><img src=images/blank.png width =""800"" height = ""200""></p>","","","","","","","",""
"","432.58000002242625","sequential-stimulus-presentation","177","247519","0.0-35.0-1.3","SS1613099237624","trial","","40","800","1232.5800000224262","images/stimuli/spore_stims/complex_18_B_d.gif","images/stimuli/spore_stims/complex_18_A_d.gif","","","","","9","complex_similar","images/stimuli/spore_stims/complex_18_B_d.gif","middle",""
"","null","html-keyboard-response","178","248365","0.0-35.0-0.4","SS1613099237624","","","null","","","","","<p><img src= images/blank.png width =""200"" height = ""200"" style = ""float:right""></p><p><img src=images/blank.png width =""800"" height = ""200""></p>","","","","","","","",""
"","405.4150000156369","sequential-stimulus-presentation","179","249592","0.0-35.0-1.4","SS1613099237624","trial","","40","800","1205.415000015637","images/stimuli/spore_stims/complex_18_B_d.gif","images/stimuli/spore_stims/complex_18_A_d.gif","","","","","9","complex_similar","images/stimuli/spore_stims/complex_18_A_d.gif","left",""
"","null","html-keyboard-response","180","250458","0.0-35.0-0.5","SS1613099237624","","","null","","","","","<p><img src= images/blank.png width =""200"" height = ""200"" style = ""float:right""></p><p><img src=images/blank.png width =""800"" height = ""200""></p>","","","","","","","",""
"","721.5900000010151","sequential-stimulus-presentation","181","252003","0.0-35.0-1.5","SS1613099237624","trial","","40","800","1521.5900000010151","images/stimuli/spore_stims/complex_18_B_d.gif","images/stimuli/spore_stims/complex_18_A_d.gif","","","","","9","complex_similar","images/stimuli/spore_stims/complex_18_A_d.gif","left",""
"","null","html-keyboard-response","182","253006","0.0-35.0-0.6","SS1613099237624","","","null","","","","","<p><img src= images/blank.png width =""200"" height = ""200"" style = ""float:right""></p><p><img src=images/blank.png width =""800"" height = ""200""></p>","","","","","","","",""
"","624.4899999874178","sequential-stimulus-presentation","183","254451","0.0-35.0-1.6","SS1613099237624","trial","","40","800","1424.4899999874178","images/stimuli/spore_stims/complex_18_B_d.gif","images/stimuli/spore_stims/complex_18_A_d.gif","","","","","9","complex_similar","images/stimuli/spore_stims/complex_18_A_d.gif","left",""
"","null","html-keyboard-response","184","255696","0.0-35.0-0.7","SS1613099237624","","","null","","","","","<p><img src= images/blank.png width =""200"" height = ""200"" style = ""float:right""></p><p><img src=images/blank.png width =""800"" height = ""200""></p>","","","","","","","",""
"","653.7399999797344","sequential-stimulus-presentation","185","257176","0.0-35.0-1.7","SS1613099237624","trial","","40","800","1453.7399999797344","images/stimuli/spore_stims/complex_18_B_d.gif","images/stimuli/spore_stims/complex_18_A_d.gif","","","","","9","complex_similar","images/stimuli/spore_stims/complex_18_A_d.gif","left",""
"","16919.47500000242","html-keyboard-response","186","274143","0.0-36.0","SS1613099237624","pref_question","","51","","","","","<video width ='960' height = '540' style='padding-top:8%' autoplay muted><source src='images/stimuli/wall_pref.mp4' type='video/mp4'></video>","3","right","66%","9","","","",""
"","2125.77000001329","sequential-stimulus-presentation","187","277083","0.0-37.0","SS1613099237624","pref_reveal","","40","800","2925.77000001329","null","null","","","","","9","","","","novel"
"","null","html-keyboard-response","188","278360","0.0-38.0-0.0","SS1613099237624","","","null","","","","","<p><img src= images/blank.png width =""200"" height = ""200"" style = ""float:right""></p><p><img src=images/blank.png width =""800"" height = ""200""></p>","","","","","","","",""
"","1395.844999991823","sequential-stimulus-presentation","189","280582","0.0-38.0-1.0","SS1613099237624","trial","","40","800","2195.844999991823","images/stimuli/spore_stims/simple_10_A_d.gif","images/stimuli/spore_stims/simple_10_B_d.gif","","","","","10","simple_similar","images/stimuli/spore_stims/simple_10_B_d.gif","middle",""
"","null","html-keyboard-response","190","281819","0.0-38.0-0.1","SS1613099237624","","","null","","","","","<p><img src= images/blank.png width =""200"" height = ""200"" style = ""float:right""></p><p><img src=images/blank.png width =""800"" height = ""200""></p>","","","","","","","",""
"","924.6550000098068","sequential-stimulus-presentation","191","283571","0.0-38.0-1.1","SS1613099237624","trial","","40","800","1724.6550000098068","images/stimuli/spore_stims/simple_10_A_d.gif","images/stimuli/spore_stims/simple_10_B_d.gif","","","","","10","simple_similar","images/stimuli/spore_stims/simple_10_B_d.gif","middle",""
"","null","html-keyboard-response","192","284609","0.0-38.0-0.2","SS1613099237624","","","null","","","","","<p><img src= images/blank.png width =""200"" height = ""200"" style = ""float:right""></p><p><img src=images/blank.png width =""800"" height = ""200""></p>","","","","","","","",""
"","541.3300000072923","sequential-stimulus-presentation","193","285977","0.0-38.0-1.2","SS1613099237624","trial","","40","800","1341.3300000072923","images/stimuli/spore_stims/simple_10_A_d.gif","images/stimuli/spore_stims/simple_10_B_d.gif","","","","","10","simple_similar","images/stimuli/spore_stims/simple_10_B_d.gif","middle",""
"","null","html-keyboard-response","194","286996","0.0-38.0-0.3","SS1613099237624","","","null","","","","","<p><img src= images/blank.png width =""200"" height = ""200"" style = ""float:right""></p><p><img src=images/blank.png width =""800"" height = ""200""></p>","","","","","","","",""
"","522.1600000222679","sequential-stimulus-presentation","195","288343","0.0-38.0-1.3","SS1613099237624","trial","","40","800","1322.160000022268","images/stimuli/spore_stims/simple_10_A_d.gif","images/stimuli/spore_stims/simple_10_B_d.gif","","","","","10","simple_similar","images/stimuli/spore_stims/simple_10_B_d.gif","middle",""
"","null","html-keyboard-response","196","289170","0.0-38.0-0.4","SS1613099237624","","","null","","","","","<p><img src= images/blank.png width =""200"" height = ""200"" style = ""float:right""></p><p><img src=images/blank.png width =""800"" height = ""200""></p>","","","","","","","",""
"","735.4749999940395","sequential-stimulus-presentation","197","290731","0.0-38.0-1.4","SS1613099237624","trial","","40","800","1535.4749999940395","images/stimuli/spore_stims/simple_10_A_d.gif","images/stimuli/spore_stims/simple_10_B_d.gif","","","","","10","simple_similar","images/stimuli/spore_stims/simple_10_B_d.gif","middle",""
"","null","html-keyboard-response","198","291587","0.0-38.0-0.5","SS1613099237624","","","null","","","","","<p><img src= images/blank.png width =""200"" height = ""200"" style = ""float:right""></p><p><img src=images/blank.png width =""800"" height = ""200""></p>","","","","","","","",""
"","529.0950000053272","sequential-stimulus-presentation","199","292931","0.0-38.0-1.5","SS1613099237624","trial","","40","800","1329.0950000053272","images/stimuli/spore_stims/simple_10_A_d.gif","images/stimuli/spore_stims/simple_10_B_d.gif","","","","","10","simple_similar","images/stimuli/spore_stims/simple_10_B_d.gif","middle",""
"","null","html-keyboard-response","200","293814","0.0-38.0-0.6","SS1613099237624","","","null","","","","","<p><img src= images/blank.png width =""200"" height = ""200"" style = ""float:right""></p><p><img src=images/blank.png width =""800"" height = ""200""></p>","","","","","","","",""
"","556.6950000065845","sequential-stimulus-presentation","201","295184","0.0-38.0-1.6","SS1613099237624","trial","","40","800","1356.6950000065845","images/stimuli/spore_stims/simple_10_A_d.gif","images/stimuli/spore_stims/simple_10_B_d.gif","","","","","10","simple_similar","images/stimuli/spore_stims/simple_10_A_d.gif","right",""
"","null","html-keyboard-response","202","296468","0.0-38.0-0.7","SS1613099237624","","","null","","","","","<p><img src= images/blank.png width =""200"" height = ""200"" style = ""float:right""></p><p><img src=images/blank.png width =""800"" height = ""200""></p>","","","","","","","",""
"","412.3449999897275","sequential-stimulus-presentation","203","297709","0.0-38.0-1.7","SS1613099237624","trial","","40","800","1212.3449999897275","images/stimuli/spore_stims/simple_10_A_d.gif","images/stimuli/spore_stims/simple_10_B_d.gif","","","","","10","simple_similar","images/stimuli/spore_stims/simple_10_B_d.gif","middle",""
"","2195.8099999756087","html-keyboard-response","204","299918","0.0-39.0","SS1613099237624","pref_question","","49","","","","","<video width ='960' height = '540' style='padding-top:8%' autoplay muted><source src='images/stimuli/wall_pref.mp4' type='video/mp4'></video>","1","left","25%","10","","","",""
"","3156.9799999997485","sequential-stimulus-presentation","205","303888","0.0-40.0","SS1613099237624","pref_reveal","","40","800","3956.9799999997485","null","null","","","","","10","","","","novel"
"","null","html-keyboard-response","206","305079","0.0-41.0-0.0","SS1613099237624","","","null","","","","","<p><img src= images/blank.png width =""200"" height = ""200"" style = ""float:right""></p><p><img src=images/blank.png width =""800"" height = ""200""></p>","","","","","","","",""
"","1618.659999978263","sequential-stimulus-presentation","207","307527","0.0-41.0-1.0","SS1613099237624","trial","","40","800","2418.659999978263","images/stimuli/spore_stims/complex_05_B_b.gif","images/stimuli/spore_stims/complex_13_B_c.gif","","","","","11","complex_dissimilar","images/stimuli/spore_stims/complex_13_B_c.gif","right",""
"","null","html-keyboard-response","208","308654","0.0-41.0-0.1","SS1613099237624","","","null","","","","","<p><img src= images/blank.png width =""200"" height = ""200"" style = ""float:right""></p><p><img src=images/blank.png width =""800"" height = ""200""></p>","","","","","","","",""
"","1117.3300000082236","sequential-stimulus-presentation","209","310587","0.0-41.0-1.1","SS1613099237624","trial","","40","800","1917.3300000082236","images/stimuli/spore_stims/complex_05_B_b.gif","images/stimuli/spore_stims/complex_13_B_c.gif","","","","","11","complex_dissimilar","images/stimuli/spore_stims/complex_13_B_c.gif","right",""
"","null","html-keyboard-response","210","311759","0.0-41.0-0.2","SS1613099237624","","","null","","","","","<p><img src= images/blank.png width =""200"" height = ""200"" style = ""float:right""></p><p><img src=images/blank.png width =""800"" height = ""200""></p>","","","","","","","",""
"","430.1749999867752","sequential-stimulus-presentation","211","313061","0.0-41.0-1.2","SS1613099237624","trial","","40","800","1230.1749999867752","images/stimuli/spore_stims/complex_05_B_b.gif","images/stimuli/spore_stims/complex_13_B_c.gif","","","","","11","complex_dissimilar","images/stimuli/spore_stims/complex_13_B_c.gif","right",""
"","null","html-keyboard-response","212","313926","0.0-41.0-0.3","SS1613099237624","","","null","","","","","<p><img src= images/blank.png width =""200"" height = ""200"" style = ""float:right""></p><p><img src=images/blank.png width =""800"" height = ""200""></p>","","","","","","","",""
"","506.65500000468455","sequential-stimulus-presentation","213","315254","0.0-41.0-1.3","SS1613099237624","trial","","40","800","1306.6550000046846","images/stimuli/spore_stims/complex_05_B_b.gif","images/stimuli/spore_stims/complex_13_B_c.gif","","","","","11","complex_dissimilar","images/stimuli/spore_stims/complex_13_B_c.gif","right",""
"","null","html-keyboard-response","214","316388","0.0-41.0-0.4","SS1613099237624","","","null","","","","","<p><img src= images/blank.png width =""200"" height = ""200"" style = ""float:right""></p><p><img src=images/blank.png width =""800"" height = ""200""></p>","","","","","","","",""
"","436.93500000517815","sequential-stimulus-presentation","215","317641","0.0-41.0-1.4","SS1613099237624","trial","","40","800","1236.9350000051782","images/stimuli/spore_stims/complex_05_B_b.gif","images/stimuli/spore_stims/complex_13_B_c.gif","","","","","11","complex_dissimilar","images/stimuli/spore_stims/complex_13_B_c.gif","right",""
"","null","html-keyboard-response","216","318563","0.0-41.0-0.5","SS1613099237624","","","null","","","","","<p><img src= images/blank.png width =""200"" height = ""200"" style = ""float:right""></p><p><img src=images/blank.png width =""800"" height = ""200""></p>","","","","","","","",""
"","521.2449999817181","sequential-stimulus-presentation","217","319913","0.0-41.0-1.5","SS1613099237624","trial","","40","800","1321.2449999817181","images/stimuli/spore_stims/complex_05_B_b.gif","images/stimuli/spore_stims/complex_13_B_c.gif","","","","","11","complex_dissimilar","images/stimuli/spore_stims/complex_13_B_c.gif","right",""
"","null","html-keyboard-response","218","320799","0.0-41.0-0.6","SS1613099237624","","","null","","","","","<p><img src= images/blank.png width =""200"" height = ""200"" style = ""float:right""></p><p><img src=images/blank.png width =""800"" height = ""200""></p>","","","","","","","",""
"","444.69000000390224","sequential-stimulus-presentation","219","322058","0.0-41.0-1.6","SS1613099237624","trial","","40","800","1244.6900000039022","images/stimuli/spore_stims/complex_05_B_b.gif","images/stimuli/spore_stims/complex_13_B_c.gif","","","","","11","complex_dissimilar","images/stimuli/spore_stims/complex_13_B_c.gif","right",""
"","null","html-keyboard-response","220","323056","0.0-41.0-0.7","SS1613099237624","","","null","","","","","<p><img src= images/blank.png width =""200"" height = ""200"" style = ""float:right""></p><p><img src=images/blank.png width =""800"" height = ""200""></p>","","","","","","","",""
"","1247.6449999958277","sequential-stimulus-presentation","221","325132","0.0-41.0-1.7","SS1613099237624","trial","","40","800","2047.6449999958277","images/stimuli/spore_stims/complex_05_B_b.gif","images/stimuli/spore_stims/complex_13_B_c.gif","","","","","11","complex_dissimilar","images/stimuli/spore_stims/complex_05_B_b.gif","left",""
"","2161.5949999832083","html-keyboard-response","222","327309","0.0-42.0","SS1613099237624","pref_question","","50","","","","","<video width ='960' height = '540' style='padding-top:8%' autoplay muted><source src='images/stimuli/wall_pref.mp4' type='video/mp4'></video>","2","middle","45%","11","","","",""
"","855.3799999936018","sequential-stimulus-presentation","223","328979","0.0-43.0","SS1613099237624","pref_reveal","","40","800","1655.3799999936018","null","null","","","","","11","","","","novel"
"","null","html-keyboard-response","224","329988","0.0-44.0-0.0","SS1613099237624","","","null","","","","","<p><img src= images/blank.png width =""200"" height = ""200"" style = ""float:right""></p><p><img src=images/blank.png width =""800"" height = ""200""></p>","","","","","","","",""
"","386.4600000088103","sequential-stimulus-presentation","225","331204","0.0-44.0-1.0","SS1613099237624","trial","","40","800","1186.4600000088103","images/stimuli/spore_stims/simple_05_B_c.gif","images/stimuli/spore_stims/simple_07_A_a.gif","","","","","12","simple_dissimilar","images/stimuli/spore_stims/simple_07_A_a.gif","middle",""
"","null","html-keyboard-response","226","332132","0.0-44.0-0.1","SS1613099237624","","","null","","","","","<p><img src= images/blank.png width =""200"" height = ""200"" style = ""float:right""></p><p><img src=images/blank.png width =""800"" height = ""200""></p>","","","","","","","",""
"","485.8900000108406","sequential-stimulus-presentation","227","333529","0.0-44.0-1.1","SS1613099237624","trial","","40","800","1285.8900000108406","images/stimuli/spore_stims/simple_05_B_c.gif","images/stimuli/spore_stims/simple_07_A_a.gif","","","","","12","simple_dissimilar","images/stimuli/spore_stims/simple_07_A_a.gif","middle",""
"","null","html-keyboard-response","228","334765","0.0-44.0-0.2","SS1613099237624","","","null","","","","","<p><img src= images/blank.png width =""200"" height = ""200"" style = ""float:right""></p><p><img src=images/blank.png width =""800"" height = ""200""></p>","","","","","","","",""
"","315.9750000049826","sequential-stimulus-presentation","229","335896","0.0-44.0-1.2","SS1613099237624","trial","","40","800","1115.9750000049826","images/stimuli/spore_stims/simple_05_B_c.gif","images/stimuli/spore_stims/simple_07_A_a.gif","","","","","12","simple_dissimilar","images/stimuli/spore_stims/simple_07_A_a.gif","middle",""
"","null","html-keyboard-response","230","337042","0.0-44.0-0.3","SS1613099237624","","","null","","","","","<p><img src= images/blank.png width =""200"" height = ""200"" style = ""float:right""></p><p><img src=images/blank.png width =""800"" height = ""200""></p>","","","","","","","",""
"","1506.6000000224449","sequential-stimulus-presentation","231","339380","0.0-44.0-1.3","SS1613099237624","trial","","40","800","2306.600000022445","images/stimuli/spore_stims/simple_05_B_c.gif","images/stimuli/spore_stims/simple_07_A_a.gif","","","","","12","simple_dissimilar","images/stimuli/spore_stims/simple_07_A_a.gif","middle",""
"","null","html-keyboard-response","232","340213","0.0-44.0-0.4","SS1613099237624","","","null","","","","","<p><img src= images/blank.png width =""200"" height = ""200"" style = ""float:right""></p><p><img src=images/blank.png width =""800"" height = ""200""></p>","","","","","","","",""
"","900.1149999967311","sequential-stimulus-presentation","233","341988","0.0-44.0-1.4","SS1613099237624","trial","","40","800","1700.114999996731","images/stimuli/spore_stims/simple_05_B_c.gif","images/stimuli/spore_stims/simple_07_A_a.gif","","","","","12","simple_dissimilar","images/stimuli/spore_stims/simple_07_A_a.gif","middle",""
"","null","html-keyboard-response","234","343124","0.0-44.0-0.5","SS1613099237624","","","null","","","","","<p><img src= images/blank.png width =""200"" height = ""200"" style = ""float:right""></p><p><img src=images/blank.png width =""800"" height = ""200""></p>","","","","","","","",""
"","598.6700000066776","sequential-stimulus-presentation","235","344555","0.0-44.0-1.5","SS1613099237624","trial","","40","800","1398.6700000066776","images/stimuli/spore_stims/simple_05_B_c.gif","images/stimuli/spore_stims/simple_07_A_a.gif","","","","","12","simple_dissimilar","images/stimuli/spore_stims/simple_07_A_a.gif","middle",""
"","null","html-keyboard-response","236","345513","0.0-44.0-0.6","SS1613099237624","","","null","","","","","<p><img src= images/blank.png width =""200"" height = ""200"" style = ""float:right""></p><p><img src=images/blank.png width =""800"" height = ""200""></p>","","","","","","","",""
"","536.0050000017509","sequential-stimulus-presentation","237","346874","0.0-44.0-1.6","SS1613099237624","trial","","40","800","1336.005000001751","images/stimuli/spore_stims/simple_05_B_c.gif","images/stimuli/spore_stims/simple_07_A_a.gif","","","","","12","simple_dissimilar","images/stimuli/spore_stims/simple_05_B_c.gif","left",""
"","null","html-keyboard-response","238","347821","0.0-44.0-0.7","SS1613099237624","","","null","","","","","<p><img src= images/blank.png width =""200"" height = ""200"" style = ""float:right""></p><p><img src=images/blank.png width =""800"" height = ""200""></p>","","","","","","","",""
"","348.3849999902304","sequential-stimulus-presentation","239","348994","0.0-44.0-1.7","SS1613099237624","trial","","40","800","1148.3849999902304","images/stimuli/spore_stims/simple_05_B_c.gif","images/stimuli/spore_stims/simple_07_A_a.gif","","","","","12","simple_dissimilar","images/stimuli/spore_stims/simple_07_A_a.gif","middle",""
"","1675.0250000040978","html-keyboard-response","240","350727","0.0-45.0","SS1613099237624","pref_question","","51","","","","","<video width ='960' height = '540' style='padding-top:8%' autoplay muted><source src='images/stimuli/wall_pref.mp4' type='video/mp4'></video>","3","right","66%","12","","","",""
"","578.2849999959581","sequential-stimulus-presentation","241","352122","0.0-46.0","SS1613099237624","pref_reveal","","40","800","1378.284999995958","null","null","","","","","12","","","","novel"
"","null","html-keyboard-response","242","353138","0.0-47.0-0.0","SS1613099237624","","","null","","","","","<p><img src= images/blank.png width =""200"" height = ""200"" style = ""float:right""></p><p><img src=images/blank.png width =""800"" height = ""200""></p>","","","","","","","",""
"","591.8949999904726","sequential-stimulus-presentation","243","354560","0.0-47.0-1.0","SS1613099237624","trial","","40","800","1391.8949999904726","images/stimuli/spore_stims/simple_12_B_a.gif","images/stimuli/spore_stims/simple_14_B_c.gif","","","","","13","simple_dissimilar","images/stimuli/spore_stims/simple_14_B_c.gif","left",""
"","null","html-keyboard-response","244","355693","0.0-47.0-0.1","SS1613099237624","","","null","","","","","<p><img src= images/blank.png width =""200"" height = ""200"" style = ""float:right""></p><p><img src=images/blank.png width =""800"" height = ""200""></p>","","","","","","","",""
"","763.1750000000466","sequential-stimulus-presentation","245","357284","0.0-47.0-1.1","SS1613099237624","trial","","40","800","1563.1750000000466","images/stimuli/spore_stims/simple_12_B_a.gif","images/stimuli/spore_stims/simple_14_B_c.gif","","","","","13","simple_dissimilar","images/stimuli/spore_stims/simple_14_B_c.gif","left",""
"","null","html-keyboard-response","246","358373","0.0-47.0-0.2","SS1613099237624","","","null","","","","","<p><img src= images/blank.png width =""200"" height = ""200"" style = ""float:right""></p><p><img src=images/blank.png width =""800"" height = ""200""></p>","","","","","","","",""
"","117.39500000840053","sequential-stimulus-presentation","247","359316","0.0-47.0-1.2","SS1613099237624","trial","","40","800","917.3950000084005","images/stimuli/spore_stims/simple_12_B_a.gif","images/stimuli/spore_stims/simple_14_B_c.gif","","","","","13","simple_dissimilar","images/stimuli/spore_stims/simple_14_B_c.gif","left",""
"","null","html-keyboard-response","248","360392","0.0-47.0-0.3","SS1613099237624","","","null","","","","","<p><img src= images/blank.png width =""200"" height = ""200"" style = ""float:right""></p><p><img src=images/blank.png width =""800"" height = ""200""></p>","","","","","","","",""
"","477.6750000019092","sequential-stimulus-presentation","249","361700","0.0-47.0-1.3","SS1613099237624","trial","","40","800","1277.6750000019092","images/stimuli/spore_stims/simple_12_B_a.gif","images/stimuli/spore_stims/simple_14_B_c.gif","","","","","13","simple_dissimilar","images/stimuli/spore_stims/simple_14_B_c.gif","left",""
"","null","html-keyboard-response","250","363012","0.0-47.0-0.4","SS1613099237624","","","null","","","","","<p><img src= images/blank.png width =""200"" height = ""200"" style = ""float:right""></p><p><img src=images/blank.png width =""800"" height = ""200""></p>","","","","","","","",""
"","515.625","sequential-stimulus-presentation","251","364355","0.0-47.0-1.4","SS1613099237624","trial","","40","800","1315.625","images/stimuli/spore_stims/simple_12_B_a.gif","images/stimuli/spore_stims/simple_14_B_c.gif","","","","","13","simple_dissimilar","images/stimuli/spore_stims/simple_14_B_c.gif","left",""
"","null","html-keyboard-response","252","365373","0.0-47.0-0.5","SS1613099237624","","","null","","","","","<p><img src= images/blank.png width =""200"" height = ""200"" style = ""float:right""></p><p><img src=images/blank.png width =""800"" height = ""200""></p>","","","","","","","",""
"","1103.000000002794","sequential-stimulus-presentation","253","367303","0.0-47.0-1.5","SS1613099237624","trial","","40","800","1903.000000002794","images/stimuli/spore_stims/simple_12_B_a.gif","images/stimuli/spore_stims/simple_14_B_c.gif","","","","","13","simple_dissimilar","images/stimuli/spore_stims/simple_12_B_a.gif","right",""
"","null","html-keyboard-response","254","368576","0.0-47.0-0.6","SS1613099237624","","","null","","","","","<p><img src= images/blank.png width =""200"" height = ""200"" style = ""float:right""></p><p><img src=images/blank.png width =""800"" height = ""200""></p>","","","","","","","",""
"","466.83499999926426","sequential-stimulus-presentation","255","369873","0.0-47.0-1.6","SS1613099237624","trial","","40","800","1266.8349999992643","images/stimuli/spore_stims/simple_12_B_a.gif","images/stimuli/spore_stims/simple_14_B_c.gif","","","","","13","simple_dissimilar","images/stimuli/spore_stims/simple_14_B_c.gif","left",""
"","null","html-keyboard-response","256","370971","0.0-47.0-0.7","SS1613099237624","","","null","","","","","<p><img src= images/blank.png width =""200"" height = ""200"" style = ""float:right""></p><p><img src=images/blank.png width =""800"" height = ""200""></p>","","","","","","","",""
"","528.5750000039116","sequential-stimulus-presentation","257","372330","0.0-47.0-1.7","SS1613099237624","trial","","40","800","1328.5750000039116","images/stimuli/spore_stims/simple_12_B_a.gif","images/stimuli/spore_stims/simple_14_B_c.gif","","","","","13","simple_dissimilar","images/stimuli/spore_stims/simple_14_B_c.gif","left",""
"","2211.8000000191387","html-keyboard-response","258","374555","0.0-48.0","SS1613099237624","pref_question","","50","","","","","<video width ='960' height = '540' style='padding-top:8%' autoplay muted><source src='images/stimuli/wall_pref.mp4' type='video/mp4'></video>","2","middle","45%","13","","","",""
"","2400.6899999803863","sequential-stimulus-presentation","259","377775","0.0-49.0","SS1613099237624","pref_reveal","","40","800","3200.6899999803863","null","null","","","","","13","","","","novel"
"","null","html-keyboard-response","260","378833","0.0-50.0-0.0","SS1613099237624","","","null","","","","","<p><img src= images/blank.png width =""200"" height = ""200"" style = ""float:right""></p><p><img src=images/blank.png width =""800"" height = ""200""></p>","","","","","","","",""
"","519.6200000063982","sequential-stimulus-presentation","261","380182","0.0-50.0-1.0","SS1613099237624","trial","","40","800","1319.6200000063982","images/stimuli/spore_stims/simple_13_B_b.gif","images/stimuli/spore_stims/simple_13_A_b.gif","","","","","14","simple_similar","images/stimuli/spore_stims/simple_13_A_b.gif","middle",""
"","null","html-keyboard-response","262","381058","0.0-50.0-0.1","SS1613099237624","","","null","","","","","<p><img src= images/blank.png width =""200"" height = ""200"" style = ""float:right""></p><p><img src=images/blank.png width =""800"" height = ""200""></p>","","","","","","","",""
"","395.79999999841675","sequential-stimulus-presentation","263","382353","0.0-50.0-1.1","SS1613099237624","trial","","40","800","1195.7999999984168","images/stimuli/spore_stims/simple_13_B_b.gif","images/stimuli/spore_stims/simple_13_A_b.gif","","","","","14","simple_similar","images/stimuli/spore_stims/simple_13_A_b.gif","middle",""
"","null","html-keyboard-response","264","383520","0.0-50.0-0.2","SS1613099237624","","","null","","","","","<p><img src= images/blank.png width =""200"" height = ""200"" style = ""float:right""></p><p><img src=images/blank.png width =""800"" height = ""200""></p>","","","","","","","",""
"","517.5400000007357","sequential-stimulus-presentation","265","384867","0.0-50.0-1.2","SS1613099237624","trial","","40","800","1317.5400000007357","images/stimuli/spore_stims/simple_13_B_b.gif","images/stimuli/spore_stims/simple_13_A_b.gif","","","","","14","simple_similar","images/stimuli/spore_stims/simple_13_A_b.gif","middle",""
"","null","html-keyboard-response","266","386102","0.0-50.0-0.3","SS1613099237624","","","null","","","","","<p><img src= images/blank.png width =""200"" height = ""200"" style = ""float:right""></p><p><img src=images/blank.png width =""800"" height = ""200""></p>","","","","","","","",""
"","475.68499998305924","sequential-stimulus-presentation","267","387408","0.0-50.0-1.3","SS1613099237624","trial","","40","800","1275.6849999830592","images/stimuli/spore_stims/simple_13_B_b.gif","images/stimuli/spore_stims/simple_13_A_b.gif","","","","","14","simple_similar","images/stimuli/spore_stims/simple_13_A_b.gif","middle",""
"","null","html-keyboard-response","268","388273","0.0-50.0-0.4","SS1613099237624","","","null","","","","","<p><img src= images/blank.png width =""200"" height = ""200"" style = ""float:right""></p><p><img src=images/blank.png width =""800"" height = ""200""></p>","","","","","","","",""
"","694.7999999974854","sequential-stimulus-presentation","269","389798","0.0-50.0-1.4","SS1613099237624","trial","","40","800","1494.7999999974854","images/stimuli/spore_stims/simple_13_B_b.gif","images/stimuli/spore_stims/simple_13_A_b.gif","","","","","14","simple_similar","images/stimuli/spore_stims/simple_13_A_b.gif","middle",""
"","null","html-keyboard-response","270","390875","0.0-50.0-0.5","SS1613099237624","","","null","","","","","<p><img src= images/blank.png width =""200"" height = ""200"" style = ""float:right""></p><p><img src=images/blank.png width =""800"" height = ""200""></p>","","","","","","","",""
"","504.09500001114793","sequential-stimulus-presentation","271","392211","0.0-50.0-1.5","SS1613099237624","trial","","40","800","1304.095000011148","images/stimuli/spore_stims/simple_13_B_b.gif","images/stimuli/spore_stims/simple_13_A_b.gif","","","","","14","simple_similar","images/stimuli/spore_stims/simple_13_A_b.gif","middle",""
"","null","html-keyboard-response","272","393395","0.0-50.0-0.6","SS1613099237624","","","null","","","","","<p><img src= images/blank.png width =""200"" height = ""200"" style = ""float:right""></p><p><img src=images/blank.png width =""800"" height = ""200""></p>","","","","","","","",""
"","675.905000010971","sequential-stimulus-presentation","273","394900","0.0-50.0-1.6","SS1613099237624","trial","","40","800","1475.905000010971","images/stimuli/spore_stims/simple_13_B_b.gif","images/stimuli/spore_stims/simple_13_A_b.gif","","","","","14","simple_similar","images/stimuli/spore_stims/simple_13_B_b.gif","left",""
"","null","html-keyboard-response","274","395956","0.0-50.0-0.7","SS1613099237624","","","null","","","","","<p><img src= images/blank.png width =""200"" height = ""200"" style = ""float:right""></p><p><img src=images/blank.png width =""800"" height = ""200""></p>","","","","","","","",""
"","417.09000000264496","sequential-stimulus-presentation","275","397205","0.0-50.0-1.7","SS1613099237624","trial","","40","800","1217.090000002645","images/stimuli/spore_stims/simple_13_B_b.gif","images/stimuli/spore_stims/simple_13_A_b.gif","","","","","14","simple_similar","images/stimuli/spore_stims/simple_13_A_b.gif","middle",""
"","6161.1550000088755","html-keyboard-response","276","403380","0.0-51.0","SS1613099237624","pref_question","","51","","","","","<video width ='960' height = '540' style='padding-top:8%' autoplay muted><source src='images/stimuli/wall_pref.mp4' type='video/mp4'></video>","3","right","66%","14","","","",""
"","1671.0650000022724","sequential-stimulus-presentation","277","405877","0.0-52.0","SS1613099237624","pref_reveal","","40","800","2471.0650000022724","null","null","","","","","14","","","","novel"
"","null","html-keyboard-response","278","406774","0.0-53.0-0.0","SS1613099237624","","","null","","","","","<p><img src= images/blank.png width =""200"" height = ""200"" style = ""float:right""></p><p><img src=images/blank.png width =""800"" height = ""200""></p>","","","","","","","",""
"","1191.1699999764096","sequential-stimulus-presentation","279","408799","0.0-53.0-1.0","SS1613099237624","trial","","40","800","1991.1699999764096","images/stimuli/spore_stims/simple_15_A_a.gif","images/stimuli/spore_stims/simple_15_B_a.gif","","","","","15","simple_similar","images/stimuli/spore_stims/simple_15_B_a.gif","left",""
"","null","html-keyboard-response","280","409658","0.0-53.0-0.1","SS1613099237624","","","null","","","","","<p><img src= images/blank.png width =""200"" height = ""200"" style = ""float:right""></p><p><img src=images/blank.png width =""800"" height = ""200""></p>","","","","","","","",""
"","674.1750000219326","sequential-stimulus-presentation","281","411159","0.0-53.0-1.1","SS1613099237624","trial","","40","800","1474.1750000219326","images/stimuli/spore_stims/simple_15_A_a.gif","images/stimuli/spore_stims/simple_15_B_a.gif","","","","","15","simple_similar","images/stimuli/spore_stims/simple_15_B_a.gif","left",""
"","null","html-keyboard-response","282","412188","0.0-53.0-0.2","SS1613099237624","","","null","","","","","<p><img src= images/blank.png width =""200"" height = ""200"" style = ""float:right""></p><p><img src=images/blank.png width =""800"" height = ""200""></p>","","","","","","","",""
"","700.8399999758694","sequential-stimulus-presentation","283","413724","0.0-53.0-1.2","SS1613099237624","trial","","40","800","1500.8399999758694","images/stimuli/spore_stims/simple_15_A_a.gif","images/stimuli/spore_stims/simple_15_B_a.gif","","","","","15","simple_similar","images/stimuli/spore_stims/simple_15_B_a.gif","left",""
"","null","html-keyboard-response","284","414795","0.0-53.0-0.3","SS1613099237624","","","null","","","","","<p><img src= images/blank.png width =""200"" height = ""200"" style = ""float:right""></p><p><img src=images/blank.png width =""800"" height = ""200""></p>","","","","","","","",""
"","622.1650000079535","sequential-stimulus-presentation","285","416248","0.0-53.0-1.3","SS1613099237624","trial","","40","800","1422.1650000079535","images/stimuli/spore_stims/simple_15_A_a.gif","images/stimuli/spore_stims/simple_15_B_a.gif","","","","","15","simple_similar","images/stimuli/spore_stims/simple_15_B_a.gif","left",""
"","null","html-keyboard-response","286","417083","0.0-53.0-0.4","SS1613099237624","","","null","","","","","<p><img src= images/blank.png width =""200"" height = ""200"" style = ""float:right""></p><p><img src=images/blank.png width =""800"" height = ""200""></p>","","","","","","","",""
"","1030.0800000259187","sequential-stimulus-presentation","287","418941","0.0-53.0-1.4","SS1613099237624","trial","","40","800","1830.0800000259187","images/stimuli/spore_stims/simple_15_A_a.gif","images/stimuli/spore_stims/simple_15_B_a.gif","","","","","15","simple_similar","images/stimuli/spore_stims/simple_15_B_a.gif","left",""
"","null","html-keyboard-response","288","420022","0.0-53.0-0.5","SS1613099237624","","","null","","","","","<p><img src= images/blank.png width =""200"" height = ""200"" style = ""float:right""></p><p><img src=images/blank.png width =""800"" height = ""200""></p>","","","","","","","",""
"","459.7150000045076","sequential-stimulus-presentation","289","421313","0.0-53.0-1.5","SS1613099237624","trial","","40","800","1259.7150000045076","images/stimuli/spore_stims/simple_15_A_a.gif","images/stimuli/spore_stims/simple_15_B_a.gif","","","","","15","simple_similar","images/stimuli/spore_stims/simple_15_B_a.gif","left",""
"","null","html-keyboard-response","290","422236","0.0-53.0-0.6","SS1613099237624","","","null","","","","","<p><img src= images/blank.png width =""200"" height = ""200"" style = ""float:right""></p><p><img src=images/blank.png width =""800"" height = ""200""></p>","","","","","","","",""
"","447.39000001573004","sequential-stimulus-presentation","291","423515","0.0-53.0-1.6","SS1613099237624","trial","","40","800","1247.39000001573","images/stimuli/spore_stims/simple_15_A_a.gif","images/stimuli/spore_stims/simple_15_B_a.gif","","","","","15","simple_similar","images/stimuli/spore_stims/simple_15_B_a.gif","left",""
"","null","html-keyboard-response","292","424398","0.0-53.0-0.7","SS1613099237624","","","null","","","","","<p><img src= images/blank.png width =""200"" height = ""200"" style = ""float:right""></p><p><img src=images/blank.png width =""800"" height = ""200""></p>","","","","","","","",""
"","645.0300000142306","sequential-stimulus-presentation","293","425876","0.0-53.0-1.7","SS1613099237624","trial","","40","800","1445.0300000142306","images/stimuli/spore_stims/simple_15_A_a.gif","images/stimuli/spore_stims/simple_15_B_a.gif","","","","","15","simple_similar","images/stimuli/spore_stims/simple_15_A_a.gif","middle",""
"","1981.5400000079535","html-keyboard-response","294","427872","0.0-54.0","SS1613099237624","pref_question","","51","","","","","<video width ='960' height = '540' style='padding-top:8%' autoplay muted><source src='images/stimuli/wall_pref.mp4' type='video/mp4'></video>","3","right","66%","15","","","",""
"","1100.284999993164","sequential-stimulus-presentation","295","429792","0.0-55.0","SS1613099237624","pref_reveal","","40","800","1900.284999993164","null","null","","","","","15","","","","novel"
"","null","html-keyboard-response","296","430760","0.0-56.0-0.0","SS1613099237624","","","null","","","","","<p><img src= images/blank.png width =""200"" height = ""200"" style = ""float:right""></p><p><img src=images/blank.png width =""800"" height = ""200""></p>","","","","","","","",""
"","1405.4999999934807","sequential-stimulus-presentation","297","432996","0.0-56.0-1.0","SS1613099237624","trial","","40","800","2205.4999999934807","images/stimuli/spore_stims/complex_14_A_b.gif","images/stimuli/spore_stims/complex_19_B_c.gif","","","","","16","complex_dissimilar","images/stimuli/spore_stims/complex_19_B_c.gif","right",""
"","null","html-keyboard-response","298","433813","0.0-56.0-0.1","SS1613099237624","","","null","","","","","<p><img src= images/blank.png width =""200"" height = ""200"" style = ""float:right""></p><p><img src=images/blank.png width =""800"" height = ""200""></p>","","","","","","","",""
"","1521.3700000022072","sequential-stimulus-presentation","299","436151","0.0-56.0-1.1","SS1613099237624","trial","","40","800","2321.3700000022072","images/stimuli/spore_stims/complex_14_A_b.gif","images/stimuli/spore_stims/complex_19_B_c.gif","","","","","16","complex_dissimilar","images/stimuli/spore_stims/complex_19_B_c.gif","right",""
"","null","html-keyboard-response","300","437235","0.0-56.0-0.2","SS1613099237624","","","null","","","","","<p><img src= images/blank.png width =""200"" height = ""200"" style = ""float:right""></p><p><img src=images/blank.png width =""800"" height = ""200""></p>","","","","","","","",""
"","353.6700000113342","sequential-stimulus-presentation","301","438417","0.0-56.0-1.2","SS1613099237624","trial","","40","800","1153.6700000113342","images/stimuli/spore_stims/complex_14_A_b.gif","images/stimuli/spore_stims/complex_19_B_c.gif","","","","","16","complex_dissimilar","images/stimuli/spore_stims/complex_19_B_c.gif","right",""
"","null","html-keyboard-response","302","439493","0.0-56.0-0.3","SS1613099237624","","","null","","","","","<p><img src= images/blank.png width =""200"" height = ""200"" style = ""float:right""></p><p><img src=images/blank.png width =""800"" height = ""200""></p>","","","","","","","",""
"","202.3250000202097","sequential-stimulus-presentation","303","440524","0.0-56.0-1.3","SS1613099237624","trial","","40","800","1002.3250000202097","images/stimuli/spore_stims/complex_14_A_b.gif","images/stimuli/spore_stims/complex_19_B_c.gif","","","","","16","complex_dissimilar","images/stimuli/spore_stims/complex_19_B_c.gif","right",""
"","null","html-keyboard-response","304","441704","0.0-56.0-0.4","SS1613099237624","","","null","","","","","<p><img src= images/blank.png width =""200"" height = ""200"" style = ""float:right""></p><p><img src=images/blank.png width =""800"" height = ""200""></p>","","","","","","","",""
"","289.7050000028685","sequential-stimulus-presentation","305","442826","0.0-56.0-1.4","SS1613099237624","trial","","40","800","1089.7050000028685","images/stimuli/spore_stims/complex_14_A_b.gif","images/stimuli/spore_stims/complex_19_B_c.gif","","","","","16","complex_dissimilar","images/stimuli/spore_stims/complex_19_B_c.gif","right",""
"","null","html-keyboard-response","306","443885","0.0-56.0-0.5","SS1613099237624","","","null","","","","","<p><img src= images/blank.png width =""200"" height = ""200"" style = ""float:right""></p><p><img src=images/blank.png width =""800"" height = ""200""></p>","","","","","","","",""
"","791.09499999322","sequential-stimulus-presentation","307","445492","0.0-56.0-1.5","SS1613099237624","trial","","40","800","1591.09499999322","images/stimuli/spore_stims/complex_14_A_b.gif","images/stimuli/spore_stims/complex_19_B_c.gif","","","","","16","complex_dissimilar","images/stimuli/spore_stims/complex_14_A_b.gif","middle",""
"","null","html-keyboard-response","308","446613","0.0-56.0-0.6","SS1613099237624","","","null","","","","","<p><img src= images/blank.png width =""200"" height = ""200"" style = ""float:right""></p><p><img src=images/blank.png width =""800"" height = ""200""></p>","","","","","","","",""
"","612.2849999810569","sequential-stimulus-presentation","309","448056","0.0-56.0-1.6","SS1613099237624","trial","","40","800","1412.284999981057","images/stimuli/spore_stims/complex_14_A_b.gif","images/stimuli/spore_stims/complex_19_B_c.gif","","","","","16","complex_dissimilar","images/stimuli/spore_stims/complex_19_B_c.gif","right",""
"","null","html-keyboard-response","310","449037","0.0-56.0-0.7","SS1613099237624","","","null","","","","","<p><img src= images/blank.png width =""200"" height = ""200"" style = ""float:right""></p><p><img src=images/blank.png width =""800"" height = ""200""></p>","","","","","","","",""
"","1307.5299999909475","sequential-stimulus-presentation","311","451172","0.0-56.0-1.7","SS1613099237624","trial","","40","800","2107.5299999909475","images/stimuli/spore_stims/complex_14_A_b.gif","images/stimuli/spore_stims/complex_19_B_c.gif","","","","","16","complex_dissimilar","images/stimuli/spore_stims/complex_19_B_c.gif","right",""
"","1814.5349999831524","html-keyboard-response","312","453001","0.0-57.0","SS1613099237624","pref_question","","49","","","","","<video width ='960' height = '540' style='padding-top:8%' autoplay muted><source src='images/stimuli/wall_pref.mp4' type='video/mp4'></video>","1","left","25%","16","","","",""
"","536.179999995511","sequential-stimulus-presentation","313","454354","0.0-58.0","SS1613099237624","pref_reveal","","40","800","1336.179999995511","null","null","","","","","16","","","","novel"
"","null","html-keyboard-response","314","455352","0.0-59.0-0.0","SS1613099237624","","","null","","","","","<p><img src= images/blank.png width =""200"" height = ""200"" style = ""float:right""></p><p><img src=images/blank.png width =""800"" height = ""200""></p>","","","","","","","",""
"","454.3749999720603","sequential-stimulus-presentation","315","456624","0.0-59.0-1.0","SS1613099237624","trial","","40","800","1254.3749999720603","images/stimuli/spore_stims/complex_15_B_b.gif","images/stimuli/spore_stims/complex_05_A_c.gif","","","","","17","complex_dissimilar","images/stimuli/spore_stims/complex_05_A_c.gif","right",""
"","null","html-keyboard-response","316","457681","0.0-59.0-0.1","SS1613099237624","","","null","","","","","<p><img src= images/blank.png width =""200"" height = ""200"" style = ""float:right""></p><p><img src=images/blank.png width =""800"" height = ""200""></p>","","","","","","","",""
"","1621.6700000222772","sequential-stimulus-presentation","317","460130","0.0-59.0-1.1","SS1613099237624","trial","","40","800","2421.6700000222772","images/stimuli/spore_stims/complex_15_B_b.gif","images/stimuli/spore_stims/complex_05_A_c.gif","","","","","17","complex_dissimilar","images/stimuli/spore_stims/complex_05_A_c.gif","right",""
"","null","html-keyboard-response","318","461268","0.0-59.0-0.2","SS1613099237624","","","null","","","","","<p><img src= images/blank.png width =""200"" height = ""200"" style = ""float:right""></p><p><img src=images/blank.png width =""800"" height = ""200""></p>","","","","","","","",""
"","566.3599999970756","sequential-stimulus-presentation","319","462667","0.0-59.0-1.2","SS1613099237624","trial","","40","800","1366.3599999970756","images/stimuli/spore_stims/complex_15_B_b.gif","images/stimuli/spore_stims/complex_05_A_c.gif","","","","","17","complex_dissimilar","images/stimuli/spore_stims/complex_05_A_c.gif","right",""
"","null","html-keyboard-response","320","463923","0.0-59.0-0.3","SS1613099237624","","","null","","","","","<p><img src= images/blank.png width =""200"" height = ""200"" style = ""float:right""></p><p><img src=images/blank.png width =""800"" height = ""200""></p>","","","","","","","",""
"","102.01499998220243","sequential-stimulus-presentation","321","464842","0.0-59.0-1.3","SS1613099237624","trial","","40","800","902.0149999822024","images/stimuli/spore_stims/complex_15_B_b.gif","images/stimuli/spore_stims/complex_05_A_c.gif","","","","","17","complex_dissimilar","images/stimuli/spore_stims/complex_15_B_b.gif","middle",""
"","null","html-keyboard-response","322","465813","0.0-59.0-0.4","SS1613099237624","","","null","","","","","<p><img src= images/blank.png width =""200"" height = ""200"" style = ""float:right""></p><p><img src=images/blank.png width =""800"" height = ""200""></p>","","","","","","","",""
"","304.7450000012759","sequential-stimulus-presentation","323","466959","0.0-59.0-1.4","SS1613099237624","trial","","40","800","1104.745000001276","images/stimuli/spore_stims/complex_15_B_b.gif","images/stimuli/spore_stims/complex_05_A_c.gif","","","","","17","complex_dissimilar","images/stimuli/spore_stims/complex_05_A_c.gif","right",""
"","null","html-keyboard-response","324","467989","0.0-59.0-0.5","SS1613099237624","","","null","","","","","<p><img src= images/blank.png width =""200"" height = ""200"" style = ""float:right""></p><p><img src=images/blank.png width =""800"" height = ""200""></p>","","","","","","","",""
